"Time (s)","Acceleration x (m/s^2)","Acceleration y (m/s^2)","Acceleration z (m/s^2)"
5.000038300E-2,-5.698373914E-1,8.851634026E0,1.826113319E1
1.000005110E-1,2.207521439E0,1.036242104E1,1.682935715E1
1.520003410E-1,1.533054161E1,1.771045113E1,1.972403526E1
2.020005710E-1,1.733694458E1,2.092596245E1,1.064733982E1
2.540003330E-1,7.039167881E-1,-4.041535854E0,1.460986519E1
3.040004980E-1,-3.026842308E1,-2.810160255E1,-8.293767929E0
3.540005580E-1,-1.501210332E0,-1.404721069E1,9.031204224E0
4.060003190E-1,5.746259540E-2,-9.483722687E0,1.881899953E0
4.560003500E-1,4.336031914E0,3.711125851E-1,1.158828974E0
5.060003780E-1,4.225894928E0,3.181991339E0,1.855562925E0
5.560004730E-1,2.190761566E0,3.143682718E0,3.600989342E0
6.060005370E-1,4.395888329E0,2.083019018E0,5.351204395E0
6.580003960E-1,5.672037125E0,1.340793848E0,7.206767082E0
7.100003240E-1,3.253819466E0,9.553156495E-1,8.121379852E0
7.620002880E-1,4.884320498E-1,-9.457385540E-1,8.801354408E0
8.120003150E-1,-7.620976925E0,-6.885934353E0,1.004637718E1
8.620003410E-1,-1.292190075E1,-6.524398804E0,8.147717476E0
9.140003020E-1,-1.634571457E1,-5.897099018E0,4.711932659E0
9.640003670E-1,-1.439438057E1,-3.093403101E0,3.759011507E0
1.016000293E0,-1.319005966E1,-1.505998850E0,4.666441441E0
1.066000324E0,-1.281415844E1,1.891477108E-1,3.720703125E0
1.118000284E0,-1.403045082E1,-3.256213665E-1,4.158855438E0
1.170000244E0,-1.434888935E1,-9.960182905E-1,3.268185139E0
1.220000276E0,-1.538321590E1,-7.278595567E-1,3.531555414E0
1.270000302E0,-1.551250648E1,-4.285751879E-1,5.454157829E0
1.322000262E0,-1.343427563E1,4.501236677E-1,6.000052452E0
1.372000294E0,-1.607276726E1,1.005595401E-1,1.623318315E0
1.424000287E0,-1.000327969E1,1.611346960E0,1.256994247E0
1.476000247E0,-4.790944099E0,3.409447432E0,2.394274771E-1
1.528000246E0,-2.150058746E0,8.140534163E-1,9.624984860E-1
1.580000172E0,1.149251938E0,-4.395888329E0,3.239453793E0
1.630000297E0,2.873129770E-2,-1.834493446E1,-4.022381604E-1
1.682000261E0,-7.467742920E0,-1.008947372E1,-2.621730804E0
1.734000254E0,8.511647224E0,-1.403523922E1,1.367609787E1
1.784000280E0,-1.778946161E0,2.213985825E1,8.260248303E-1
1.836000178E0,-5.181210518E0,9.577098846E0,1.774875832E1
1.886000238E0,-4.170826912E0,4.125335693E0,1.942235756E1
1.938000164E0,-1.795706153E-1,6.416656494E0,2.183099747E1
1.988000362E0,3.040729046E0,8.631361008E0,2.348065376E1
2.040000222E0,1.154758739E1,1.361384678E1,2.058597565E1
2.092000081E0,1.673358727E1,1.206235695E1,1.290035248E1
2.142000179E0,-4.932205975E-1,-5.918647289E0,1.905124474E1
2.192000308E0,-1.972882462E1,-2.038006783E1,-5.944984436E0
2.244000199E0,-2.449343204E0,-8.820508003E0,2.949746609E0
2.296000126E0,-1.381496549E0,-7.374366283E0,3.624932051E0
2.346000191E0,1.467690468E0,-1.266571403E0,1.568249941E0
2.396000253E0,8.571503758E-1,1.766974807E0,1.647261024E0
2.448000150E0,-6.775797606E-1,8.379961550E-2,5.777385235E0
2.498000447E0,2.921015322E-1,5.746259689E-1,6.088640690E0
2.550000238E0,-1.843591630E-1,-4.094209969E-1,6.395108223E0
2.602000068E0,-3.375927448E0,-2.466103077E0,7.257047176E0
2.652000299E0,-5.008822918E0,-3.368744612E0,5.801327705E0
2.702000325E0,-1.215573311E1,-9.244295120E0,8.300951004E0
2.754000121E0,-1.314217472E1,-8.650514603E0,7.479714394E0
2.804000485E0,-1.591713905E1,-9.862017632E0,5.597814560E0
2.856000511E0,-1.435128307E1,-6.265817165E0,4.374340057E0
2.908000206E0,-1.552926636E1,-4.252232075E0,3.603383541E0
2.960000237E0,-1.570404816E1,-4.235472202E0,5.645699978E0
3.010000331E0,-1.398017025E1,-2.104567528E0,5.360781193E0
3.062000058E0,-1.290514088E1,-1.336005330E0,4.532361984E0
3.112000122E0,-1.378623390E1,-1.855562925E0,3.117345810E0
3.162448795E0,-2.949986076E1,-4.096604347E0,6.363982677E0
3.214448789E0,-8.664880753E0,1.386285067E0,1.810550690E1
3.266448854E0,-8.767834663E0,4.180403709E0,1.581179047E1
3.316448948E0,-6.378347874E0,7.053533554E0,1.771045113E1
3.368448740E0,-4.125335693E0,6.390319347E0,1.877829742E1
3.418448772E0,5.004034638E-1,7.369577885E0,2.059076309E1
3.468448935E0,1.329061985E1,1.380778313E1,1.675753021E1
3.518449027E0,2.205605888E1,9.816526413E0,1.659471893E1
3.570448889E0,-1.433931160E1,-1.218446445E1,2.456047058E1
3.620449086E0,-1.084606457E1,-1.159068394E1,-2.123721838E0
3.672448878E0,2.394274808E-3,-1.536884975E1,3.794925690E0
3.724448674E0,7.518022656E-1,-5.705556870E0,3.026363373E0
3.774448938E0,1.968093872E0,3.478881359E0,-1.441353440E0
3.826448897E0,1.347976685E0,2.329629421E0,1.960911036E0
3.878448758E0,-6.608198285E-1,7.925049663E-1,4.869955063E0
3.928448888E0,1.077423692E-1,-1.053480953E-1,5.655277252E0
3.978448915E0,6.225114465E-1,-2.777358890E-1,8.095043182E0
4.028449007E0,1.364736706E-1,1.252205729E0,1.000806904E1
4.080448735E0,1.532335877E-1,5.698373914E-1,8.518829346E0
4.130448932E0,-5.571477413E0,-4.458139896E0,1.136801720E1
4.182448925E0,-1.182292938E1,-6.122160912E0,9.536396980E0
4.234448620E0,-1.581657982E1,-5.672037125E0,4.680807114E0
4.284448818E0,-1.403763294E1,-2.597788095E0,3.550709486E0
4.336448713E0,-1.437762070E1,-6.943396926E-1,6.562707424E0
4.386448778E0,-1.224432182E1,-3.129317284E0,-8.308133483E-1
4.438448771E0,-1.374553204E1,-2.176395893E0,1.666415215E0
4.490448666E0,-7.563514233E0,-3.052700281E0,2.940169573E0
4.540448731E0,-6.466936111E0,-2.832427025E0,4.608979225E0
4.592448691E0,-8.576292038E0,-3.404658794E0,4.072661400E0
4.644448652E0,-1.045819283E1,-3.198751211E0,2.430188894E0
4.696448650E0,-1.063536835E1,-2.353572130E0,2.537931204E0
4.746448676E0,-1.396580505E1,3.375927508E-1,-6.799740195E-1
4.796448703E0,-1.338399601E1,2.442160249E-1,-6.129343510E-1
4.848448668E0,-8.712765694E0,-7.637736797E-1,-5.267404318E-1
4.900448595E0,-2.937775135E0,-3.545921087E0,-1.460507661E-1
4.950448788E0,-2.741444588E0,-9.684841156E0,1.053480864E0
5.002448649E0,-8.243488312E0,-8.130957603E0,-6.632141471E-1
5.054448615E0,-1.036481571E1,-6.007235527E0,6.033572555E-1
5.106448574E0,-1.124830341E1,-3.062277555E0,1.829225898E0
5.158448572E0,-1.502407455E1,2.059076279E-1,3.114951611E0
5.208448599E0,-2.095948219E1,3.569863796E0,3.555498123E0
5.260448592E0,-1.167448425E1,1.611346960E0,3.708731651E0
5.310448623E0,-1.253881741E1,-2.674404860E0,1.237840056E0
5.362448615E0,-9.428654671E0,-4.189980924E-1,-9.122186899E-1
5.414448576E0,-7.606611252E0,-2.087807655E0,-3.517189741E0
5.464448608E0,-8.439818382E0,2.992843390E-1,-2.480468750E0
5.516448568E0,-1.108788681E1,-4.292934895E0,2.056682110E0
5.566448595E0,-1.658753586E1,-3.730280161E0,4.187586784E0
5.616448721E0,9.967366219E0,5.712739468E0,8.475732803E-1
5.668448719E0,9.167677879E0,4.649681568E0,2.418217659E0
5.720448579E0,5.621757030E0,6.167652130E0,5.044736862E0
5.772448576E0,8.466156006E0,8.616994858E0,3.301704884E0
5.824448469E0,5.106987953E0,5.454157829E0,6.924242973E0
5.874448562E0,5.990475655E0,5.121353626E0,1.064733982E1
5.926448561E0,6.907482624E0,1.381496549E0,9.967366219E0
5.978448521E0,5.997658253E0,1.795706153E0,6.313702583E0
6.030448514E0,5.267404556E0,3.205934048E0,4.857983589E0
6.082448512E0,5.487678051E0,3.390293121E0,7.113390446E0
6.132448539E0,4.436591148E0,3.347196102E0,6.162863255E0
6.184448533E0,4.216318130E0,2.255406857E0,8.451789856E0
6.236448464E0,5.961744308E0,2.700742006E0,9.811738014E0
6.286448625E0,9.440625191E0,3.589017868E0,1.075268841E1
6.338448551E0,2.221408081E1,9.574705124E0,8.557138443E0
6.390448448E0,3.564117432E1,1.760031319E1,5.147690773E-1
6.440448576E0,1.675274086E1,1.352765322E0,3.586623669E0
6.492448469E0,-8.863605499E0,-8.595446587E0,2.116778374E1
6.544448467E0,-1.489957237E1,-2.568338585E1,1.497379494E1
6.594448596E0,-2.276955366E0,-6.873962879E0,3.775771379E0
6.646448454E0,5.171633363E-1,-3.363956213E0,2.657644987E0
6.698448418E0,3.450150013E0,1.403045058E0,2.976083517E0
6.748448747E0,4.302511692E0,2.305686712E0,4.343214512E0
6.800448639E0,4.031958580E0,1.596981287E0,5.525986195E0
6.852448535E0,2.949746609E0,1.458113313E0,6.660872459E0
6.902448630E0,1.314456820E0,5.339232683E-1,9.474145889E0
6.954448589E0,-2.176395893E0,-3.488458395E0,1.201447105E1
7.006448418E0,-7.462954521E0,-7.953781128E0,1.000567436E1
7.056448682E0,-9.890748978E0,-6.399896622E0,8.059128761E0
7.108448575E0,-1.335287094E1,-5.734288216E0,4.237866402E0
7.160448405E0,-1.356596088E1,-3.565075159E0,3.419024467E0
7.210448602E0,-1.250050831E1,-1.963305354E0,4.589824677E0
7.260448796E0,-1.178940868E1,-1.376708031E0,4.716721535E0
7.312448356E0,-1.136322784E1,-1.225868702E0,3.948159218E0
7.362448554E0,-1.179659176E1,-2.956929445E0,4.051113129E0
7.414448579E0,-1.162420464E1,-5.011217117E0,5.147690773E0
7.466448273E0,-9.287391663E0,-4.482082367E0,5.245856285E0
7.516448438E0,-7.462954521E0,-3.306493521E0,4.398283005E0
7.566448632E0,-7.352818012E0,-3.117345810E0,4.506025314E0
7.618448457E0,-8.269824982E0,-2.880312681E0,6.742278099E0
7.670448388E0,-1.073592854E1,-2.090201855E0,7.714353561E0
7.720448448E0,-1.182771778E1,3.088614643E-1,9.488511086E0
7.770448474E0,-1.255797100E1,-6.225114465E-1,1.191391182E1
7.822448302E0,-1.604643059E1,-2.923409462E0,1.147097015E1
7.872448334E0,-9.816526413E0,-1.154040456E0,8.169265747E0
7.924448294E0,-4.630527496E0,7.709565163E-1,-9.457385540E-1
7.974448358E0,-3.430995703E0,1.436564922E-1,-2.145270348E0
8.026448351E0,3.639297783E-1,-2.303292274E0,5.961744189E-1
8.078448277E0,5.482889414E-1,-4.343214512E0,4.812492371E0
8.130448242E0,-6.237085819E0,-7.379155159E0,-6.344828010E-1
8.180448302E0,-1.063297462E1,-1.491633224E1,-5.868367672E0
8.230448362E0,-5.640193176E1,-7.559683228E1,7.421533966E1
8.280448426E0,-6.249057055E-1,4.279526901E1,-3.559807968E1
8.332448286E0,-1.509829712E1,1.893871427E0,-1.302964306E1
8.384448245E0,-1.522040462E1,9.845257759E0,-3.275367975E0
8.434448377E0,-1.787565613E1,1.286204433E1,-6.031178474E0
8.486448170E0,-1.347737312E1,1.093704700E1,-2.930592299E0
8.536448263E0,-7.041562080E0,8.909096718E0,1.525153041E0
8.588448262E0,-9.569916725E0,7.829278469E0,3.761405706E0
8.638448788E0,-3.344801903E0,7.704776287E0,2.719896078E0
8.690448247E0,-7.182824612E-2,8.482915878E0,3.754222870E0
8.740448278E0,1.568249941E0,1.285007286E1,7.410280704E0
8.792448169E0,-3.677606106E0,1.927630615E1,8.861210823E0
8.842448229E0,3.806896925E0,2.532184982E1,3.004814863E0
8.892448360E0,6.368771195E-1,2.488609314E1,2.051893473E0
8.944448153E0,-1.471042442E1,-4.826858044E0,2.796752357E1
8.996448146E0,-1.668091202E1,-1.878069115E1,-1.204799080E1
9.046448244E0,1.281655312E1,-2.216619682E1,2.167776489E1
9.098448204E0,-1.391073704E0,-6.895511627E0,-1.156434774E0
9.150448162E0,8.518829346E0,5.276981831E0,3.057488918E0
9.200448194E0,2.552296877E0,3.304099321E0,5.588237286E0
9.250448289E0,4.836435020E-1,-4.166038036E-1,5.444581032E0
9.300448415E0,3.143682718E0,-1.106154919E0,7.956175327E0
9.352448112E0,4.235472202E0,-1.874717116E0,1.055875206E1
9.402448541E0,3.577046633E0,-2.250618219E0,1.177264881E1
9.452448632E0,1.453324795E0,-2.554691315E0,1.171279240E1
9.504448160E0,-2.257801056E0,-3.026363373E0,9.684841156E0
9.554448355E0,-8.521224022E0,-5.217124939E0,9.000079155E0
9.606448281E0,-1.359708691E1,-5.547534943E0,5.466129303E0
9.658448075E0,-1.417889500E1,-2.978477955E0,5.727105141E0
9.708448339E0,-1.583812809E1,-1.929785490E0,2.921015263E0
9.758448532E0,-1.178222656E1,-1.247417212E0,1.496421814E0
9.810373738E0,-1.187320900E1,-1.551490068E0,2.760598898E0
9.860373903E0,-9.967366219E0,-3.055094719E0,3.203539610E0
9.910373929E0,-1.003201103E1,-4.187586784E0,4.063084126E0
9.962373722E0,-9.771035194E0,-4.462928295E0,4.446168423E0
1.001237375E1,-9.443019867E0,-4.395888329E0,5.116565228E0
1.006237381E1,-9.536396980E0,-2.174001455E0,7.034379482E0
1.011437367E1,-1.189236259E1,-3.830839694E-2,6.878751755E0
1.016637384E1,-1.338639069E1,1.920208454E0,6.737489223E0
1.021637393E1,-1.060184860E1,4.606584549E0,5.940196037E0
1.026837379E1,-9.809344292E0,1.128421688E1,-7.015225291E-1
1.032037372E1,3.615354896E-1,1.057551193E1,-2.609759569E-1
1.037237372E1,-1.064733982E1,-2.971295118E0,1.460028744E1
1.042437368E1,-1.407594204E1,2.794118643E0,-2.844398499E0
1.047637368E1,-7.668862343E0,-8.068706393E-1,4.932205975E-1
1.052837370E1,1.053480953E-1,1.628106833E0,8.427847624E-1
1.057837376E1,-3.804502726E0,-6.577073097E0,-6.639324188E0
1.063037373E1,-2.502017260E0,-1.249811459E1,-8.403904915E0
1.068237368E1,-6.586649895E0,-7.213950157E0,-1.904885101E1
1.073437365E1,2.825244367E-1,9.754275322E0,1.640078163E1
1.078437374E1,-2.842004299E0,-4.913052082E0,1.729863548E1
1.083637357E1,-1.887885666E1,-1.005595446E0,9.974549294E0
1.088637366E1,-1.375989723E1,-1.999219418E0,1.780382729E1
1.093837366E1,-1.720525932E1,1.003201127E0,1.400650787E1
1.099037366E1,-1.206475067E1,-1.324033976E0,1.318766594E1
1.104237362E1,-1.245262337E1,9.146129489E-1,8.839662552E0
1.109437361E1,-8.731920242E0,1.170800328E0,6.114977837E0
1.114437374E1,-7.443800449E0,2.339206457E0,5.731894016E0
1.119637363E1,-7.508445740E0,3.706337452E0,5.944984436E0
1.124837357E1,-6.023995399E0,3.275367975E0,7.836461544E0
1.130037356E1,8.260248303E-1,4.072661400E0,1.015651417E1
1.135037362E1,1.476309872E1,1.066649437E1,1.246698856E1
1.140237358E1,2.671531868E1,1.559630585E1,8.016032219E0
1.145437358E1,5.703162670E0,-3.031152010E0,1.078860188E1
1.150437367E1,-2.116299438E1,-1.377905178E1,-9.577099234E-2
1.155637357E1,-7.829278469E0,-1.336244774E1,1.183729458E1
1.160837356E1,-1.110943556E0,-3.361561775E0,4.769395351E0
1.166037352E1,4.264203548E0,3.134105682E0,2.913832426E0
1.171037355E1,2.025556564E0,4.436591148E0,2.523565531E0
1.176037358E1,2.846792698E0,5.391906738E0,3.861965179E0
1.181237354E1,2.777358770E0,3.430995703E0,5.940196037E0
1.186237357E1,2.533142805E0,2.695953369E0,8.940221786E0
1.191437353E1,1.549095750E0,1.352765322E0,8.322499275E0
1.196437356E1,-1.762186289E0,-3.009603500E0,9.337671280E0
1.201437366E1,-5.308107376E0,-3.917033672E0,6.404685020E0
1.206637359E1,-1.056593513E1,-6.378347874E0,6.093429565E0
1.211837351E1,-1.108309841E1,-4.738269806E0,3.052700281E0
1.216837354E1,-1.295302677E1,-4.853195190E0,3.222693920E0
1.221837364E1,-1.160983849E1,-3.517189741E0,3.232270956E0
1.226837373E1,-1.363060665E1,-3.560286522E0,4.690384388E0
1.232037353E1,-1.478464699E1,-3.210722446E0,5.786962032E0
1.237037369E1,-1.769847870E1,-2.509200096E0,6.352011204E0
1.242237358E1,-1.732976151E1,-1.872322917E0,5.420638084E0
1.247437351E1,-1.370961761E1,-3.265790939E0,5.815693378E0
1.252437357E1,-1.069283104E1,-3.294522047E0,4.800520897E0
1.257437367E1,-8.688823700E0,8.858817071E-2,4.096604347E0
1.262637343E1,-4.460534096E0,4.005621910E0,3.117345810E0
1.267637360E1,-2.566662550E0,1.149251908E-1,6.806923389E0
1.272637392E1,-1.155477047E1,1.431776285E0,4.506025314E0
1.277837368E1,-2.327953339E1,2.569056988E0,-6.203566074E0
1.283037368E1,-1.092986488E1,5.779779434E0,-2.660039425E0
1.288237364E1,-1.685569525E0,5.415849686E0,2.454131603E0
1.293437360E1,-2.367937803E0,-2.434977531E0,3.553103924E0
1.298637343E1,-4.465322495E0,-7.343240738E0,-2.511594296E0
1.303637359E1,-1.559391212E1,-2.103849220E1,-1.253402901E1
1.308837342E1,-1.328583050E1,-4.252471542E1,4.464604187E1
1.313837352E1,-2.255406857E0,3.455417252E1,2.304250145E1
1.319037354E1,-2.232661247E1,-4.649681568E0,9.838075638E0
1.324237334E1,-2.038246155E1,8.834874034E-1,1.215812778E1
1.329237340E1,-1.264895344E1,1.235445857E0,4.379128456E0
1.334237343E1,-1.044143200E1,-7.158881426E-1,1.165293503E1
1.339437339E1,-7.371972084E0,1.867534369E-1,1.006074238E1
1.344637339E1,-5.698374271E0,7.446194887E-1,4.881926537E0
1.349637345E1,-3.347196102E0,2.935380936E0,4.283357620E0
1.354837338E1,-4.620950222E0,2.320052385E0,7.498868465E0
1.359837341E1,-5.506832123E0,3.502824068E0,8.672063828E0
1.365037337E1,-5.114171028E0,4.793338299E0,1.083888245E1
1.370237336E1,3.172414064E0,8.169265747E0,1.632416534E1
1.375237352E1,1.341033363E1,1.561785412E1,1.934574127E1
1.380437335E1,1.673837471E1,2.161072350E1,1.092747021E1
1.385437338E1,-7.034379482E0,-2.609759569E-1,1.594587040E1
1.390637338E1,-1.054438591E1,-1.277585030E1,-1.161941528E1
1.395637340E1,2.624125242E0,-2.817103767E1,1.508871937E1
1.400837326E1,-8.691217303E-1,-7.046350956E0,5.195576549E-1
1.405837329E1,4.702355862E0,1.419804931E0,-9.960182905E-1
1.410837335E1,2.844398499E0,3.172414064E0,3.258608103E0
1.416037324E1,-1.316851079E-1,-2.394274808E-2,5.607391834E0
1.421037327E1,2.978477955E0,-8.930644989E-1,6.792557716E0
1.426037343E1,6.153286099E-1,5.027977005E-2,8.616994858E0
1.431237326E1,-1.491633177E0,9.337671846E-2,9.644139290E0
1.436237333E1,-4.977697372E0,-7.122967720E0,8.351230621E0
1.441437325E1,-1.169603252E1,-1.066409969E1,1.265853119E1
1.446437342E1,-1.605121803E1,-8.782199860E0,6.012023926E0
1.451637331E1,-1.841436768E1,-6.258634567E0,2.631308079E0
1.456637334E1,-1.600333214E1,-2.217098475E0,8.547561169E-1
1.461837323E1,-1.325709915E1,9.217957854E-1,8.212362528E-1
1.467037320E1,-1.234009266E1,4.788549617E-3,2.312869549E0
1.472037332E1,-1.132731438E1,-1.953728199E0,1.405439258E0
1.477237325E1,-1.130097675E1,-3.407052994E0,1.606558442E0
1.482237341E1,-1.185884285E1,-4.903474808E0,1.927391171E0
1.487237344E1,-1.143505669E1,-4.920234680E0,2.111750364E0
1.492237350E1,-1.064255142E1,-5.085439682E0,1.675992370E0
1.497437316E1,-8.535589218E0,-4.546727657E0,2.719896078E0
1.502437356E1,-6.761432171E0,-3.131711483E0,3.105374336E0
1.507637342E1,-8.569109917E0,-1.822043180E0,3.395081758E0
1.512837318E1,-9.476539612E0,1.731060743E0,2.916226625E0
1.517837374E1,-1.134646797E1,2.293715239E0,3.577046633E0
1.522837394E1,-1.092268181E1,2.875524044E0,4.616161823E0
1.528037316E1,-1.396101665E1,3.349590540E0,7.893924236E0
1.533037353E1,-1.716216278E1,3.608172178E0,8.042368889E0
1.538237335E1,-9.567522049E0,5.473312378E0,7.290566921E0
1.543437311E1,-4.525179386E0,6.988888264E0,6.342433929E0
1.548437318E1,-6.727912426E-1,8.245882034E0,2.772570133E0
1.553437334E1,-8.834874034E-1,4.692778587E0,5.162056446E0
1.558637320E1,-3.387898922E0,3.052700281E0,-1.632895470E0
1.563837323E1,-1.831620216E0,-7.015225291E-1,1.692752242E0
1.568837329E1,-5.602602959E0,-4.793338299E0,-2.585816681E-1
1.573837335E1,-5.128536701E0,-3.567469418E-1,-7.604216576E0
1.579037315E1,4.659258842E0,-7.604216576E0,-2.570493507E1
1.584237314E1,1.909194756E1,2.058118629E1,-2.655250788E0
1.589437310E1,2.748627424E0,7.245075703E0,-3.179596901E0
1.594437314E1,6.294548512E0,8.123774529E0,-1.817254543E0
1.599637313E1,5.621757030E0,1.062339687E1,6.656084061E-1
1.604837309E1,-8.619388938E-2,8.300951004E0,-4.166038036E-1
1.609837312E1,5.075862408E-1,7.915472507E0,1.245022863E-1
1.614837318E1,8.317710876E0,9.565128326E0,7.060716629E0
1.620037317E1,4.714327335E0,9.019232750E0,8.382355690E0
1.625237300E1,4.953754425E0,8.825297356E0,1.224192715E1
1.630237306E1,4.163643837E0,8.403904915E0,1.282612991E1
1.635237309E1,3.411841631E0,5.796539307E0,1.119084072E1
1.640437312E1,5.858790398E0,6.612987041E0,1.330259037E1
1.645437321E1,1.153322220E1,8.274613380E0,1.616853714E1
1.650637300E1,2.035612488E1,1.452367115E1,1.527547359E1
1.655637316E1,2.364825249E1,1.723398972E1,9.914691925E0
1.660837303E1,8.020820618E-1,-1.759791970E0,1.995867538E1
1.666037299E1,-5.719922543E0,-9.529213905E0,-2.159156990E1
1.671037302E1,-4.338426113E0,-2.950225449E1,1.390355396E1
1.676037315E1,-1.297696948E0,-1.011341667E1,6.318490982E0
1.681237307E1,1.237840056E0,-7.446194887E-1,-1.889082789E0
1.686237320E1,7.877163887E-1,3.184385538E0,3.071854591E0
1.691437303E1,-2.456526041E0,-1.024749637E0,4.350397110E0
1.696637296E1,-7.853221297E-1,-1.946545362E0,7.115784645E0
1.701637302E1,-1.048692346E0,-2.935380936E0,8.370385170E0
1.706637962E1,-1.429382086E0,-5.004034519E0,9.581888199E0
1.711637965E1,-5.260221958E0,-7.225921154E0,9.850046158E0
1.716837962E1,-8.437424660E0,-9.553156853E0,8.042368889E0
1.721837975E1,-1.454043102E1,-9.356825829E0,4.395888329E0
1.727037970E1,-1.709991074E1,-8.992896080E0,2.214704275E0
1.732237964E1,-1.477267551E1,-5.803721905E0,4.419831276E0
1.737237977E1,-1.333850479E1,-3.794925690E0,3.517189741E0
1.742237989E1,-1.333371639E1,-2.449343204E0,2.114144564E0
1.747437952E1,-1.192109394E1,-1.855562925E0,1.592192769E0
1.752437978E1,-1.029777622E1,-1.623318315E0,2.133298874E0
1.757437985E1,-9.862017632E0,-3.170019865E0,2.406246185E0
1.762637951E1,-1.210784817E1,-4.881926537E0,2.631308079E0
1.767637970E1,-1.584531021E1,-8.324893951E0,3.172414064E0
1.772637976E1,-1.405678749E1,-7.939415455E0,7.831672668E0
1.777837949E1,-7.458166122E0,-6.294548512E0,1.211024189E1
1.782837969E1,-1.819648862E0,-3.110162973E0,1.896265602E1
1.788037971E1,-4.273780346E0,2.214704275E0,1.424593544E1
1.793037977E1,-9.854835510E0,2.312869549E0,8.030397415E0
1.798237950E1,-9.902720451E0,-6.409473896E0,3.162837029E0
1.803237963E1,-7.443800449E0,-1.041030693E1,-1.261782765E0
1.808237973E1,-1.632895470E0,-1.076944828E1,-3.857176781E0
1.813437949E1,-9.577099234E-3,-1.466493320E1,-2.839609861E0
1.818437955E1,-2.061949539E1,-1.552447796E1,2.214464760E1
1.823437961E1,7.233104229E0,-3.464515686E0,-2.910719872E1
1.828637961E1,-1.816536331E1,-7.022408009E0,-1.561546040E1
1.833837951E1,-1.094662476E1,8.834874034E-1,-1.437762070E1
1.838837956E1,-2.270490837E1,-6.902694225E0,-1.201925945E1
1.844037952E1,-1.925954628E1,-4.173221111E0,-1.132731438E1
1.849237949E1,-2.462990570E1,-5.746259689E0,-9.986519814E0
1.854237952E1,-1.908715820E1,-1.266571403E0,-5.542746067E0
1.859437951E1,-2.020289040E1,9.840469360E-1,-7.443800449E0
1.864637951E1,-1.122675419E1,1.836408734E0,-3.387898922E0
1.869837947E1,-7.039167881E0,7.206767201E-1,-1.268965602E-1
1.875037940E1,-6.974522591E0,7.661679387E-2,7.901107073E-1
1.880037949E1,-5.593026161E0,-1.747820675E-1,3.711125851E-1
1.885237945E1,-7.850827217E0,-4.046324492E-1,1.980065227E0
1.890437944E1,-6.797346115E0,-2.442160249E-1,1.589798450E0
1.895437948E1,-9.680052757E0,1.132491946E0,2.633702278E0
1.900637944E1,-6.296942711E0,1.872322917E0,4.778972626E0
1.905637950E1,-6.110189438E0,3.579440832E0,7.158881664E0
1.910837943E1,-3.158048391E0,7.541965485E0,1.199292278E1
1.916037939E1,6.510033131E0,1.396819878E1,1.978868103E1
1.921037968E1,1.514139366E1,1.977431488E1,1.256036568E1
1.926237958E1,5.758230686E0,4.829252243E0,1.420523262E1
1.931437944E1,-2.904015923E1,-1.786607933E1,9.466962814E0
1.936637940E1,-3.838022470E0,-1.372158909E1,2.873129845E0
1.941637943E1,1.113337755E0,-1.538560963E1,7.450983047E0
1.946637952E1,2.609759569E0,-4.460534096E0,2.595393896E0
1.951837935E1,3.366350412E0,5.602602959E-1,2.411034822E0
1.956837938E1,5.147690773E-1,4.357580245E-1,4.599401951E0
1.962037930E1,1.386285067E0,-1.441353440E0,7.676044941E0
1.967037943E1,2.506805658E0,-2.083019018E0,9.356825829E0
1.972037950E1,2.226675600E-1,-2.901860952E0,1.038636398E1
1.977237942E1,-2.437371731E0,-4.405465603E0,8.248276711E0
1.982237945E1,-7.367183685E0,-7.166064739E0,9.586676598E0
1.987237951E1,-1.196897984E1,-6.277788639E0,6.387925148E0
1.992437944E1,-1.604643059E1,-6.483695984E0,2.513988495E0
1.997637927E1,-1.421002102E1,-2.561874151E0,3.687183142E0
2.002637957E1,-1.489717770E1,-1.608952641E0,1.486844659E0
2.007837949E1,-1.508153725E1,-1.965699673E0,1.055875182E0
2.013037925E1,-1.578305912E1,-3.344801903E0,6.680026650E-1
2.018037955E1,-1.336484241E1,-2.547508478E0,-2.202732861E-1
2.023037958E1,-1.136083412E1,-2.621730804E0,8.356019258E-1
2.028237924E1,-9.390345573E0,-2.035133600E0,1.920208454E0
2.033237947E1,-1.061621475E1,-1.213897347E0,6.847625971E-1
2.038237950E1,-1.280697632E1,-1.098972082E0,1.723877788E-1
2.043437945E1,-1.385806274E1,-4.381522834E-1,3.950553536E-1
2.048637922E1,-1.400890160E1,2.130904645E-1,1.692752242E0
2.053637945E1,-1.217488766E1,1.769369125E0,1.771763325E0
2.058837937E1,-1.089634418E1,1.728666425E0,7.613793612E-1
2.063837940E1,-6.644112587E0,2.899466753E0,2.466102988E-1
2.069037943E1,-3.761405706E0,3.280156374E0,3.806896806E-1
2.074237932E1,-2.451737404E0,2.478074312E0,-4.716721475E-1
2.079437929E1,1.367130876E0,7.709565163E-1,5.722316504E-1
2.084437935E1,6.081457734E-1,-8.123774529E0,4.438985348E0
2.089637927E1,-9.165284157E0,-1.411185551E1,-1.302246094E1
2.094837924E1,8.710371971E0,-6.316815186E1,6.263662338E1
2.099837930E1,-4.166038036E0,7.699987888E0,7.958569527E0
2.105037923E1,-2.704812241E1,-6.809317589E0,-3.208328187E-1
2.110237923E1,-1.811508369E1,-4.094209969E-1,7.752661705E0
2.115237932E1,-2.222844696E1,3.735068738E-1,2.794118643E0
2.120437925E1,-1.715737343E1,1.075029373E0,4.886714935E0
2.125637914E1,-1.183250618E1,6.960156918E0,4.925023079E0
2.130637927E1,-7.304932594E0,5.545140266E0,5.705556870E0
2.135837923E1,-7.288172722E0,3.632114887E0,8.334470749E0
2.140837926E1,-9.658504486E0,3.402264595E0,9.198803902E0
2.146037926E1,-1.042946148E1,6.536370277E0,1.250050831E1
2.151037935E1,-5.763019562E0,8.947404861E0,1.405678749E1
2.156037938E1,8.590658188E0,1.608234406E1,1.478704166E1
2.161237937E1,5.322473049E0,8.798959732E0,1.556757450E1
2.166237940E1,-2.569056892E1,-7.843644142E0,1.769129562E1
2.171437913E1,-6.687209606E0,-9.778218269E0,3.213116884E0
2.176437915E1,-1.158828974E0,-1.315414619E1,8.643332481E0
2.181637915E1,1.034326673E0,-3.189173937E0,2.310475111E0
2.186837915E1,3.112557158E-2,3.471698463E-1,1.743032098E0
2.192037911E1,-2.154847383E-1,1.438959122E0,3.938581944E0
2.197237910E1,1.101366431E-1,1.577827096E0,5.657671452E0
2.202237920E1,-4.932205975E-1,3.495641351E-1,5.949772835E0
2.207437916E1,-1.041509509E0,-1.429382086E0,5.379935265E0
2.212637915E1,-2.454131603E0,-4.031958580E0,5.954561234E0
2.217837908E1,-6.093429565E0,-9.234718323E0,5.480494976E0
2.222837911E1,-1.202165413E1,-1.571123123E1,7.290566921E0
2.228037910E1,-1.750933075E1,-1.405678749E1,2.355966330E0
2.233237910E1,-1.815099716E1,-8.566715240E0,-5.865973234E-1
2.238237926E1,-1.454282475E1,-5.700768471E0,8.571503758E-1
2.243437916E1,-1.482774353E1,-3.062277555E0,1.551490068E0
2.248637905E1,-1.562503719E1,-2.853975534E0,-1.623318315E0
2.253837901E1,-1.397777653E1,-3.493247032E0,-8.164477348E-1
2.258837914E1,-1.280937004E1,-4.340820312E0,3.351984918E-2
2.264037903E1,-1.123393726E1,-4.479688168E0,8.523618579E-1
2.269037916E1,-9.284997940E0,-3.759011507E0,1.644866824E0
2.274237902E1,-1.067846584E1,-4.175615311E0,3.998439014E-1
2.279237908E1,-1.101126957E1,-4.427014351E0,-5.937801600E-1
2.284237928E1,-9.380768776E0,-4.822069645E0,-5.961744189E-1
2.289437911E1,-5.722316742E0,-4.534756660E0,8.619389534E-1
2.294437920E1,-5.267404556E0,-6.861991405E0,-3.112557158E-2
2.299637900E1,-6.277788639E0,-7.774210453E0,-7.110996246E-1
2.304637916E1,-4.058295727E0,-7.046350956E0,-6.632141471E-1
2.309837906E1,-6.261028767E0,-6.462147713E0,5.171633363E-1
2.314837932E1,-9.409500122E0,-4.728692532E0,3.371139050E0
2.320037918E1,-1.545265007E1,-2.683982134E0,3.019180536E0
2.325237901E1,-1.755242920E1,1.690358043E0,1.000806928E0
2.330237924E1,-1.234727478E1,-2.442160249E-1,3.146077156E0
2.335437916E1,-1.262501144E1,1.472478986E0,-2.633702159E-1
2.340637892E1,-1.130576611E1,7.182824612E-1,-2.636096478E0
2.345637909E1,-4.944177628E0,2.485257149E0,-2.698347807E0
2.350637931E1,3.888302326E0,2.803695917E0,-9.265843630E-1
2.355837897E1,-6.205960274E0,-1.173434067E1,-1.080057335E1
2.360837910E1,-1.998022270E1,-5.358386993E0,-9.486116409E0
2.365837923E1,-5.071074009E0,2.083019018E0,-1.173194647E0
2.371037896E1,-1.232333279E1,9.483722687E0,8.691217303E-1
2.376237896E1,-5.988081455E0,8.535589218E0,2.753416061E0
2.381237918E1,-7.886741161E0,7.326480865E0,4.992063046E0
2.386437898E1,-7.563514233E0,7.247469902E0,2.743839025E0
2.391637884E1,-2.873129770E-2,5.885127544E0,-2.729473412E-1
2.396637896E1,6.711152077E0,2.664827824E0,1.093944168E1
2.401837892E1,1.237840056E0,3.244242430E0,9.167677879E0
2.406837896E1,-1.230657220E0,2.427794695E0,6.830865860E0
2.412037888E1,6.536370516E-1,2.815667152E0,9.103033066E0
2.417037907E1,1.716695070E0,3.466909885E0,9.404711723E0
2.422237894E1,2.272166729E0,3.102980137E0,1.169603252E1
2.427437890E1,4.939388752E0,4.790944099E0,1.400890160E1
2.432637889E1,1.592432213E1,9.227535248E0,1.588361931E1
2.437639412E1,2.671531868E1,1.572799110E1,6.617775440E0
2.442839411E1,1.644627380E1,4.577853203E0,5.537957668E0
2.448039411E1,-1.388918781E1,-7.450983047E0,2.035372925E1
2.453039414E1,-9.320911407E0,-1.903209114E1,2.633702382E-2
2.458239403E1,1.359948039E0,-9.921875000E0,9.653716087E0
2.463239409E1,2.279349566E0,-2.844398499E0,3.574652195E0
2.468439405E1,4.527573586E0,1.441353440E0,1.831620216E0
2.473639405E1,2.640885115E0,3.335224867E0,2.849187136E0
2.478839404E1,3.251425266E0,9.816526771E-1,5.425426483E0
2.483839410E1,4.613767624E0,3.328042030E-1,6.119766235E0
2.489039407E1,3.962524891E0,1.819648892E-1,7.029590607E0
2.494239403E1,1.556278586E0,-1.256994247E0,5.463735104E0
2.499439399E1,-1.467690468E0,-5.633728504E0,5.066285610E0
2.504439405E1,-7.695199013E0,-1.300330639E1,6.217931747E0
2.509639398E1,-8.485309601E0,-1.414298153E1,6.986494064E0
2.514639400E1,-1.025228500E1,-1.596981335E1,6.471724987E0
2.519639404E1,-9.488511086E0,-1.250290298E1,5.561900616E0
2.524839396E1,-1.215573311E1,-1.071198559E1,5.255433083E0
2.529839399E1,-1.323794556E1,-8.854028702E0,3.751828671E0
2.534839409E1,-1.067846584E1,-7.422251701E0,4.659258842E0
2.540039391E1,-8.490098000E0,-7.288172722E0,5.784567833E0
2.545039398E1,-8.918673515E0,-7.676044941E0,3.366350412E0
2.550039411E1,-1.256276035E1,-8.028003693E0,-2.394274808E-2
2.555239400E1,-1.685808945E1,-9.256266594E0,1.230657220E0
2.560439396E1,-1.692991638E1,-1.075508213E1,2.348783493E0
2.565439409E1,-1.237600613E1,-6.725517750E0,1.719089270E0
2.570639398E1,-6.941002846E0,-5.688796997E0,2.657644987E0
2.575839395E1,-2.796513081E0,-2.549902678E0,7.901107073E-1
2.580839411E1,-1.221080184E0,-1.769369125E0,1.106154919E0
2.586039400E1,-4.644893110E-1,-3.979284763E0,-1.321639657E0
2.591239396E1,-1.529941559E0,-9.823709488E0,-4.728692532E0
2.596439396E1,-5.248250484E0,-1.104478931E1,-6.217931747E0
2.601439412E1,9.098244458E-2,-1.790438652E1,-1.412622094E0
2.606639385E1,-1.672879791E1,3.031870270E1,-4.234514236E1
2.611639411E1,-1.782537651E1,-2.674404860E0,5.265010357E0
2.616639414E1,-1.801931190E1,7.230710030E0,1.163617611E0
2.621839386E1,-1.818212318E1,3.675211906E0,5.370358467E0
2.626839400E1,-1.748299408E1,3.974496126E0,4.685595989E0
2.631839409E1,-1.109746361E1,4.501236439E0,3.138894320E0
2.637039388E1,-8.202785492E0,2.971295118E0,1.424593568E0
2.642039398E1,-3.371139050E0,1.635289669E0,7.826884270E0
2.647039404E1,-7.348029613E0,2.710319042E0,3.696760416E0
2.652239407E1,-3.490852594E0,1.039115310E0,8.585869789E0
2.657439386E1,-4.984879971E0,4.769395351E0,1.031692982E1
2.662439393E1,1.805283189E0,8.250671387E0,1.563940334E1
2.667439395E1,8.942616463E0,1.405439281E1,1.183968925E1
2.672639385E1,2.103849220E1,2.074639130E1,4.529967785E0
2.677639388E1,1.793311834E0,1.640078187E0,1.010862827E1
2.682839387E1,-2.072244835E1,-9.373585701E0,9.265843630E-1
2.688039387E1,8.025609016E0,-1.236882401E1,-1.668809533E0
2.693239386E1,2.549902678E0,-2.059794617E1,1.608952713E1
2.698439386E1,8.260248303E-1,-1.489238977E0,-6.632141471E-1
2.703439389E1,3.799714088E0,9.624984860E-1,1.316851139E0
2.708639382E1,-2.736656189E0,-5.315290093E-1,3.742251635E0
2.713839378E1,-1.247417212E0,-3.723097324E0,5.820482254E0
2.719039377E1,1.106154919E0,-4.383917332E0,6.929031372E0
2.724039380E1,5.842030644E-1,-6.574678421E0,9.148524284E0
2.729239379E1,-1.446141958E0,-1.021397591E1,8.830085754E0
2.734239396E1,-5.178816319E0,-1.313738632E1,9.270631790E0
2.739239399E1,-7.259441376E0,-1.376229191E1,6.462147713E0
2.744439374E1,-1.226347542E1,-1.458831596E1,5.727105141E0
2.749439378E1,-1.278303337E1,-1.209108734E1,5.071074009E0
2.754439380E1,-1.270881081E1,-8.940221786E0,3.660846233E0
2.759439393E1,-1.153801060E1,-5.253038883E0,2.262589693E0
2.764639376E1,-1.034326744E1,-3.945764780E0,1.790917516E0
2.769639392E1,-1.028819847E1,-5.430215359E0,2.066259146E0
2.774839375E1,-1.121717739E1,-8.406298637E0,1.175588965E0
2.779839381E1,-1.036242104E1,-9.296969414E0,1.199531674E0
2.784839387E1,-9.419076920E0,-9.577098846E0,1.082212210E0
2.790039373E1,-8.549955368E0,-9.174860954E0,3.423812985E-1
2.795039376E1,-8.169265747E0,-8.885153770E0,2.609759569E-1
2.800039386E1,-7.786181450E0,-8.506858826E0,7.302538157E-1
2.805239375E1,-7.307326794E0,-7.367183685E0,1.316851079E-1
2.810439375E1,-6.610592842E0,-6.335251331E0,8.858816624E-1
2.815439421E1,-6.450176239E0,-4.101392746E0,2.183578730E0
2.820639377E1,-8.118986130E0,-1.508393168E0,2.552296877E0
2.825839366E1,-1.183968925E1,1.043903828E0,3.474092722E0
2.830839386E1,-1.255318260E1,2.140481710E0,5.820482254E0
2.836039375E1,-9.162889481E0,2.885101080E0,8.463761330E0
2.841239365E1,-1.033368969E1,1.144463301E0,5.250644684E0
2.846239388E1,-9.299363136E0,1.151646137E0,3.900273561E0
2.851239391E1,-6.495667458E0,1.757397652E0,2.178790122E-1
2.856439364E1,-2.899466753E0,1.376708031E0,3.294522047E0
2.861439387E1,-3.852388144E0,-3.486064196E0,1.120520592E0
2.866439393E1,-6.088640690E0,-1.134407425E1,-1.089395046E0
2.871639369E1,-9.991309166E0,-1.362102985E1,-1.407594204E1
2.876639372E1,-1.245262337E1,-5.298530102E0,-5.409145737E1
2.881639394E1,-5.379935265E0,1.243107510E1,-3.515992737E1
2.886839360E1,-1.588840771E1,7.913078308E0,-1.274472523E1
2.891839373E1,-9.984126091E0,1.027143860E1,-8.147717476E0
2.897039369E1,-1.275190735E1,1.099450970E1,-6.873962879E0
2.902239355E1,-1.364736652E1,9.067118645E0,-3.426207304E0
2.907239365E1,-1.098253822E1,8.303344727E0,-1.503604531E0
2.912439368E1,-1.273514748E1,6.064698219E0,-1.798100352E0
2.917439370E1,-5.712739468E0,3.040729046E0,-4.980091572E0
2.922639360E1,4.051113129E0,6.560313106E-1,5.880339146E0
2.927839363E1,-3.131711483E0,2.293715239E0,1.029777622E1
2.933039359E1,-6.890722752E0,4.209135056E0,4.635315895E0
2.938239355E1,-1.982459545E0,-3.950553536E-1,1.330498505E1
2.943239365E1,-1.405439258E0,1.723877907E0,9.723150253E0
2.948239381E1,6.368771195E-1,2.796513081E0,8.468549728E0
2.953439380E1,3.720703125E0,2.468497276E0,1.006553173E1
2.958639363E1,2.837215662E0,1.800494671E0,9.280209541E0
2.963639366E1,3.083826065E0,1.352765322E0,9.720755577E0
2.968839365E1,7.122967720E0,3.816473961E0,1.467451000E1
2.974039355E1,1.658514214E1,6.098217964E0,9.289786339E0
2.979239351E1,3.131232643E1,1.406397057E1,5.818088055E-1
2.984239357E1,1.133449650E1,-2.315263748E0,2.039922237E0
2.989439353E1,-1.000088596E1,-1.157871342E1,1.659471893E1
2.994439362E1,-5.025582790E0,-1.086761379E1,2.616942406E0
2.999639352E1,-1.336005330E0,-1.040312386E1,9.208380699E0
3.004839348E1,1.319245458E0,-3.435784340E0,3.399870157E0
3.009839354E1,3.306493521E0,8.451790214E-1,2.343995094E0
3.014839371E1,2.162030220E0,-6.871568561E-1,4.446168423E0
3.020039353E1,2.389486313E0,-2.997632027E0,6.926637173E0
3.025239349E1,4.091815472E0,-2.411034822E0,5.832453251E0
3.030239359E1,2.772570133E0,-3.184385538E0,6.632141113E0
3.035439348E1,1.352765322E0,-3.562680960E0,5.432609558E0
3.040639341E1,-5.535563469E0,-9.991309166E0,7.206767082E0
3.045639350E1,-9.773429871E0,-1.199052811E1,7.242681503E0
3.050639353E1,-1.538321590E1,-1.335765934E1,7.759844780E0
3.055839349E1,-1.489478397E1,-9.249083519E0,6.103006363E0
3.060839359E1,-1.492112064E1,-5.933012962E0,2.470891714E0
3.065839378E1,-1.454521942E1,-2.762993097E0,1.515576005E0
3.071039348E1,-1.259628010E1,-2.142875910E0,1.498816013E0
3.076239347E1,-1.182053471E1,-3.476486921E0,1.101366401E0
3.081239354E1,-1.153561592E1,-5.116565228E0,1.283331275E0
3.086439343E1,-9.866806030E0,-5.791750908E0,1.350371003E0
3.091439349E1,-1.148294163E1,-8.490098000E0,2.583422422E0
3.096439359E1,-1.130576611E1,-8.751074791E0,3.055094719E0
3.101639348E1,-8.973741531E0,-6.675238132E0,3.289733648E0
3.106639361E1,-8.087860107E0,-3.845205307E0,2.540325642E0
3.111839357E1,-9.263449669E0,-1.132491946E0,3.227482557E0
3.116839380E1,-1.461704731E1,-2.442160249E-1,3.136500120E-1
3.122039369E1,-1.180616951E1,2.640885115E0,-9.337671846E-2
3.127239346E1,-1.348455620E1,4.118152618E0,-3.624932051E0
3.132239352E1,-8.219545364E0,3.038334846E0,1.206714511E0
3.137239354E1,-3.849993944E0,2.530748367E0,1.424593568E0
3.142439347E1,-2.250618219E0,-1.843591630E-1,2.789330244E0
3.147439367E1,-1.984853864E0,-3.174808502E0,-7.110996246E-1
3.152639360E1,-8.571503758E-1,-6.110189438E0,-2.229069948E0
3.157839332E1,-6.457359314E0,-1.175110054E1,-4.561093330E0
3.162839342E1,-5.456552505E0,-1.487323475E1,-6.854808807E1
3.168038144E1,-1.178462029E1,9.948211670E0,1.327625370E1
3.173038150E1,-1.166490650E1,1.893871427E0,1.415495300E1
3.178038163E1,-2.035612488E1,3.421418667E0,6.385530949E0
3.183238152E1,-1.392270756E1,1.728666425E0,9.605830193E0
3.188438145E1,-1.491393757E1,2.918621063E0,3.581835032E0
3.193438151E1,-1.186123753E1,3.347196102E0,4.802915096E0
3.198638144E1,-5.303318501E0,3.251425266E0,8.042368889E0
3.203638147E1,-1.022115898E1,2.174001455E0,5.743865490E0
3.208838140E1,-8.379961967E0,2.140481710E0,3.828445435E0
3.213838142E1,-1.094183564E0,1.453324795E0,3.612960577E0
3.219038142E1,-3.689577579E0,2.693559170E0,7.692804813E0
3.224238142E1,-3.280156374E0,2.839609861E0,7.355212212E0
3.229438141E1,-2.657645047E-1,3.861965179E0,1.169603252E1
3.234638141E1,1.230657220E0,6.136526108E0,1.047016335E1
3.239638154E1,6.246663094E0,1.191630554E1,1.272796535E1
3.244838143E1,1.952531052E1,1.888603973E1,5.207547665E0
3.250038136E1,1.279739857E1,1.157871342E1,1.079099655E1
3.255038145E1,-1.299851799E1,-8.296162605E0,2.368416595E1
3.260238138E1,-4.936994553E0,-1.610868073E1,-7.807730198E0
3.265438135E1,-3.653663397E0,-1.700413895E1,9.483722687E0
3.270438141E1,-1.745426297E0,-6.237085819E0,9.984126091E-1
3.275638136E1,4.460534096E0,1.268965602E0,1.024749637E0
3.280638140E1,4.908263385E-1,1.374313712E0,6.409473896E0
3.285838136E1,2.633702278E0,-3.170019865E0,3.555498123E0
3.290838142E1,5.865973234E-1,-6.158074856E0,5.260221958E0
3.296038138E1,-2.794118643E0,-1.101126957E1,5.662459850E0
3.301238137E1,-5.707951069E0,-1.584770489E1,7.915472507E0
3.306238140E1,-7.956175327E0,-2.036330795E1,6.284971237E0
3.311438140E1,-1.089395046E1,-2.048062706E1,7.529994488E0
3.316638136E1,-1.187081432E1,-1.492590904E1,5.116565228E0
3.321638138E1,-1.149730778E1,-9.292180061E0,2.971295118E0
3.326838135E1,-1.148533630E1,-6.126949310E0,2.832427025E0
3.332038124E1,-8.978530884E0,-6.411868095E0,3.184385538E0
3.337038130E1,-8.528407097E0,-8.269824982E0,3.624932051E0
3.342038133E1,-8.703188896E0,-9.488511086E0,2.985660791E0
3.347238129E1,-9.445414543E0,-1.119802284E1,1.929785490E0
3.352238132E1,-8.645726204E0,-1.249571991E1,3.450150013E0
3.357438125E1,-5.602602959E0,-1.073353386E1,3.749434233E0
3.362438145E1,-4.860377789E0,-1.028101635E1,4.963331699E0
3.367638140E1,-6.124555111E0,-8.411087036E0,2.921015263E0
3.372838123E1,-7.376760483E0,-7.304932594E0,-3.232271075E-1
3.377838146E1,-6.866780281E0,-8.059128761E0,-2.298503816E-1
3.383038139E1,-3.763799906E0,-6.407079220E0,6.320885420E-1
3.388238118E1,-1.829225898E0,-7.360000610E0,2.894678354E0
3.393238145E1,-2.367937803E0,-6.131737709E0,4.343214512E0
3.398438134E1,-4.410254002E0,-5.549929142E0,3.330436230E0
3.403638117E1,-9.809344292E0,-2.640885115E0,9.624984860E-1
3.408638150E1,-1.511505699E1,2.015979290E0,-1.683175206E0
3.413838139E1,-1.665457535E1,7.087053657E-1,9.050358534E-1
3.419038119E1,-1.476788712E1,1.245022893E0,7.422251999E-2
3.424038142E1,-1.013496494E1,2.241041183E0,2.466102988E-1
3.429238141E1,-1.001285744E1,2.308080912E0,-1.975276709E0
3.434438111E1,-1.004158878E1,3.136500120E-1,-2.468497276E0
3.439438137E1,-7.874769688E0,-4.740664065E-1,-2.288926601E0
3.444438140E1,-1.094183540E1,-4.412648678E0,-8.092648983E-1
3.449638116E1,-9.217958450E0,-6.023995399E0,9.505270720E-1
3.454638129E1,-1.209108734E1,-1.118365765E1,-6.126949310E0
3.459638132E1,-7.719141960E0,-6.873962879E0,3.265790939E0
3.464838131E1,-1.392270756E1,2.953816795E1,-1.018045616E1
3.470038131E1,-1.994430900E0,9.658504486E0,-1.218685865E0
3.475238134E1,-1.515576005E0,8.968953133E0,6.153286099E-1
3.480438126E1,-2.300898075E0,9.447808266E0,-5.913859010E-1
3.485638123E1,2.097384691E0,7.276201248E0,8.693612099E0
3.490638125E1,3.344801903E0,5.253038883E0,9.639349937E0
3.495838118E1,3.900273561E0,7.216344357E0,8.609811783E0
3.501038115E1,5.746259689E0,8.241093636E0,8.427846909E0
3.506038120E1,7.151699066E0,9.589070320E0,5.013611317E0
3.511238117E1,1.207432747E1,1.418128967E1,-1.410227895E0
3.516438110E1,1.429621506E1,1.371919441E1,-5.013611317E0
3.521438116E1,-7.072687626E0,-3.790137053E0,1.728426933E1
3.526638108E1,-2.079188156E1,-7.553936958E0,-2.744317818E1
3.531638112E1,1.818930626E1,-3.025884438E1,1.447099686E1
3.536838111E1,-1.994430900E0,-2.120609283E1,-2.578634024E0
3.542038107E1,5.774991035E0,-2.628913641E0,6.900300026E0
3.547038127E1,1.769369125E0,-2.123721838E0,3.684788942E0
3.552238113E1,-6.936213970E0,-3.648874760E0,4.431802750E0
3.557438112E1,-4.436591148E0,-8.332076073E0,7.127756119E0
3.562638112E1,-2.322446555E-1,-7.953781128E0,9.601041794E0
3.567638118E1,-6.584255695E-1,-8.739103317E0,1.306316376E1
3.572838107E1,-2.525959969E0,-8.468549728E0,9.012050629E0
3.577838113E1,-6.644112587E0,-7.865192890E0,6.447782040E0
3.583038109E1,-9.210775375E0,-5.679219723E0,3.804502726E0
3.588238109E1,-9.545973778E0,-5.367964268E0,3.007209063E0
3.593438099E1,-9.486116409E0,-5.413455486E0,2.545114040E0
3.598438118E1,-9.081484795E0,-5.729499817E0,2.880312681E0
3.603438124E1,-9.347249031E0,-6.193988800E0,2.988054991E0
3.608638100E1,-9.854835510E0,-6.158074856E0,2.138087511E0
3.613838100E1,-1.059945488E1,-6.368771076E0,8.068706393E-1
3.619038099E1,-9.751881599E0,-5.322473049E0,9.624984860E-1
3.624238099E1,-8.049551964E0,-4.831646442E0,1.316851139E0
3.629238108E1,-7.376760483E0,-5.485283375E0,2.870735407E0
3.634438101E1,-6.004841328E0,-5.195576191E0,3.584229469E0
3.639638097E1,-5.566689014E0,-4.398283005E0,4.886714935E0
3.644838097E1,-6.505244732E0,-3.620143414E0,4.946571827E0
3.649838099E1,-8.028003693E0,-2.808484316E0,4.194769382E0
3.654838105E1,-8.983319283E0,-2.449343204E0,2.293715239E0
3.659838112E1,-1.075987053E1,-3.969707727E0,1.266571403E0
3.665038111E1,-9.572310448E0,-3.603383541E0,1.376708031E0
3.670238097E1,-8.470944405E0,-2.897072554E0,1.917814136E0
3.675238103E1,-8.186025620E0,-1.901054144E0,2.513988614E-1
3.680238112E1,-7.362394810E0,-9.864411950E-1,6.775797606E-1
3.685438095E1,-8.506858826E0,-2.810878515E0,9.170072675E-1
3.690438112E1,-9.052753448E0,-4.537150860E0,-5.554717779E-1
3.695438121E1,-8.305739403E0,-3.775771379E0,1.532335877E-1
3.700638094E1,-7.609005451E0,-3.272973776E0,7.206767201E-1
3.705638114E1,-1.003201103E1,-3.459727049E0,2.370332032E-1
3.710838106E1,-1.278782177E1,-1.812466025E0,8.882759809E-1
3.716038092E1,-1.363778973E1,1.508393168E0,1.446141958E0
3.721038112E1,-1.281894779E1,1.778946161E0,7.182824612E-1
3.726038115E1,-1.523237610E1,-1.915419847E-2,7.972934842E-1
3.731238101E1,-1.260106850E1,-8.667274714E-1,1.898659945E0
3.736238107E1,-1.072156239E1,-2.971295118E0,-2.054287672E0
3.741238117E1,-1.152603912E1,-4.877137661E0,-4.333637238E0
3.746438083E1,-2.683982134E0,-7.242681503E0,-8.588263512E0
3.751438089E1,8.906702399E-1,-5.456552505E0,-1.201925993E0
3.756438122E1,-1.246459484E1,1.906800461E1,-7.154093266E0
3.761638118E1,-1.012778282E1,4.862771988E0,5.607391834E0
3.766838108E1,-7.446194887E-1,8.087860107E0,1.064494610E1
3.772038094E1,1.213897347E0,7.489291668E0,6.584255695E0
3.777238080E1,3.332830429E0,6.016812801E0,7.534782887E0
3.782238100E1,2.018373728E0,5.873156071E0,8.504464149E0
3.787438095E1,3.919427872E0,7.879558563E0,1.092268181E1
3.792638078E1,9.670475960E0,1.296739197E1,1.192588329E1
3.797638084E1,2.216380119E1,2.291560364E1,1.152843285E1
3.802638087E1,2.013824463E1,1.955883026E1,8.269824982E0
3.807638090E1,-5.552323341E0,-6.174834728E0,2.059794617E1
3.812838079E1,-2.094032669E1,-2.859243011E1,-1.053241444E1
3.817838082E1,2.724684715E0,-1.821564293E1,2.094032669E1
3.822838088E1,-1.268965602E-1,-7.089447498E0,3.117345810E0
3.828038081E1,2.490045786E0,2.083019018E-1,1.671203852E0
3.833238077E1,1.740637779E0,3.866753817E0,3.232270956E0
3.838438080E1,2.080624819E0,1.443747759E0,5.492466450E0
3.843638079E1,3.969707727E0,3.023969173E0,6.727912426E0
3.848838075E1,3.146077156E0,3.313676357E0,8.217150688E0
3.853838091E1,1.508393139E-1,1.022355318E0,8.964164734E0
3.859038071E1,-6.510033131E0,-4.348002911E0,9.052753448E0
3.864038097E1,-1.434649467E1,-6.730306625E0,6.723123550E0
3.869238096E1,-1.701611137E1,-3.972101927E0,1.553884387E0
3.874438070E1,-1.726032639E1,-1.946545362E0,1.288119793E0
3.879438072E1,-1.606797791E1,-6.177229285E-1,1.532335877E-1
3.884438078E1,-1.420283794E1,-5.267404318E-1,1.235445857E0
3.889638071E1,-1.110704041E1,-8.547561169E-1,1.534730196E0
3.894838071E1,-1.023073673E1,-1.527547359E0,2.001613855E0
3.899844240E1,-1.117647457E1,-3.033546209E0,1.793311834E0
3.905044234E1,-1.116210938E1,-3.943370581E0,1.197137356E0
3.910044236E1,-1.014214802E1,-3.462121487E0,1.819648862E0
3.915244229E1,-8.827691078E0,-1.948939681E0,2.288926601E0
3.920244232E1,-1.157153034E1,-4.405465722E-1,3.071854591E0
3.925444231E1,-1.527068520E1,1.814860344E0,4.271386147E0
3.930644228E1,-1.663781548E1,1.563461423E0,4.197163582E0
3.935644234E1,-1.207432747E1,2.205127001E0,4.541939259E0
3.940644254E1,-1.067846584E1,2.537931204E0,1.362342358E0
3.945844243E1,-7.831672668E0,2.423006058E0,2.061470509E0
3.951044232E1,-4.740664005E0,3.687183142E0,2.932986736E0
3.956244229E1,-1.992036581E0,2.552296877E0,3.306493521E0
3.961244235E1,-5.315290093E-1,9.074301720E-1,3.035940409E0
3.966444231E1,5.578660369E-1,-1.731060743E0,2.549902678E0
3.971644230E1,-4.015198708E0,-9.505270958E0,-1.249811411E0
3.976644250E1,-5.767807961E0,-6.268211365E0,-5.616968632E0
3.981844233E1,-1.458352757E1,-5.025343323E1,-5.602602959E-1
3.986844246E1,8.236305118E-1,4.671469498E1,2.321010017E1
3.992044242E1,-2.147664547E0,5.607391834E0,1.755961227E1
3.997244222E1,-8.456578255E0,6.373559475E0,1.587404156E1
4.002244241E1,-4.228289127E0,5.765413761E0,1.214615631E1
4.007244247E1,-2.427794695E0,5.073468208E0,1.405439281E1
4.012444220E1,-2.408640385E0,4.115758419E0,1.318287754E1
4.017444236E1,-9.553156495E-1,3.668029070E0,1.185884285E1
4.022444242E1,-2.743839025E0,4.230683804E0,1.505519962E1
4.027644218E1,4.709538460E0,6.572284222E0,1.510069084E1
4.032644228E1,1.863703537E1,1.244304657E1,8.810931206E0
4.037644231E1,2.396908569E1,1.460986519E1,4.283357620E0
4.042844217E1,-6.344828010E-1,-7.905895233E0,1.256754875E1
4.047844220E1,-1.705681419E1,-9.512454033E0,-1.163617516E1
4.053044223E1,2.777358890E-1,-1.153561592E1,7.922655106E0
4.058044235E1,-1.771763414E-1,-7.678439140E0,7.999272346E0
4.063244228E1,2.128510237E0,-1.381496549E0,3.045517445E0
4.068444221E1,3.016786277E-1,9.936240315E-1,3.759011507E0
4.073644220E1,7.972934842E-1,-7.374366522E-1,5.193181992E0
4.078644230E1,2.485257149E0,-6.392713785E-1,5.791750908E0
4.083844213E1,1.980065227E0,-2.554691315E0,6.086246490E0
4.088844222E1,3.256213665E-1,-4.386311531E0,5.801327705E0
4.094044219E1,-3.787742853E0,-1.030974770E1,7.024802208E0
4.099244215E1,-5.399089813E0,-1.337681293E1,5.305713177E0
4.104244217E1,-7.989695072E0,-1.770087433E1,5.724710941E0
4.109444214E1,-8.748680115E0,-1.708315086E1,5.645699978E0
4.114644213E1,-9.383162498E0,-1.455240250E1,4.336031914E0
4.119844212E1,-1.066888809E1,-1.285725594E1,3.340013266E0
4.125044209E1,-1.137759399E1,-9.016839027E0,3.141288519E0
4.130044212E1,-9.014444351E0,-7.070293427E0,4.094210148E0
4.135044214E1,-9.301757812E0,-9.431048393E0,6.280182838E0
4.140244208E1,-9.038387299E0,-1.062579155E1,6.457359314E0
4.145244214E1,-9.308940887E0,-9.012050629E0,4.635315895E0
4.150444216E1,-1.276387882E1,-8.820508003E0,2.825244188E0
4.155444223E1,-1.288119888E1,-1.022834206E1,2.983266354E0
4.160644209E1,-1.625473213E1,-1.242868042E1,1.199531674E0
4.165844205E1,-1.590995598E1,-7.439012051E0,-4.498842239E0
4.170844214E1,-9.976943016E0,-4.388705730E0,-2.542719841E0
4.176044214E1,-5.650488377E0,-2.578634024E0,-7.661679387E-1
4.181244210E1,-2.006402254E0,-1.185166001E0,7.948992252E-1
4.186444206E1,4.333637357E-1,-1.264177084E0,2.114144564E0
4.191444209E1,-1.386285067E0,-9.004867554E0,9.742303848E0
4.196644205E1,-1.845985889E0,-1.014214802E1,1.673598051E0
4.201644211E1,-3.687183142E0,-8.432636261E0,-7.817307472E0
4.206844208E1,-1.594587040E1,-1.538560963E1,-3.384307480E1
4.211844210E1,-1.692752242E0,1.550053501E1,3.119740105E1
4.217044207E1,-3.098191643E1,1.156434774E0,-2.626519442E0
4.222044220E1,-1.702808189E1,4.860377789E0,8.358413696E0
4.227244209E1,-2.265702248E1,2.901860952E0,3.627326250E0
4.232444202E1,-1.522998238E1,3.505218267E0,6.435810566E0
4.237444215E1,-1.338639069E1,4.328848839E0,6.021601200E0
4.242644208E1,-1.005834866E1,4.778972626E0,3.600989342E0
4.247844203E1,-5.248250484E0,4.292934895E0,5.894704342E0
4.253044203E1,-6.141314983E0,3.193962574E0,8.468549728E0
4.258044220E1,-8.707977295E0,3.739857197E0,8.435029984E0
4.263244192E1,-5.724710941E0,4.383917332E0,1.045579815E1
4.268244215E1,-1.075029373E0,6.514821529E0,1.191870022E1
4.273244218E1,9.814132690E0,1.570165443E1,1.527547359E1
4.278444191E1,1.724356651E1,1.590277290E1,1.024270725E1
4.283444214E1,-7.110996246E0,-1.800494671E0,1.262022209E1
4.288444216E1,-1.356835556E1,-7.891529560E0,-6.708757877E0
4.293644189E1,6.210748672E0,-1.831859589E1,7.960963726E0
4.298644212E1,8.667274714E-1,-1.334089947E1,3.905062199E0
4.303844215E1,1.841197371E0,-2.561874092E-1,1.101366431E-1
4.308844218E1,2.288926601E0,4.723904133E0,-3.711125851E-1
4.314044207E1,-2.597788095E0,-2.561874092E-1,3.720703125E0
4.319244210E1,1.446141958E0,-2.001613855E0,4.893897533E0
4.324444190E1,5.746259689E-1,-4.491659641E0,6.191594601E0
4.329444219E1,-9.792584181E-1,-7.336058140E0,5.190787792E0
4.334644202E1,-2.377514839E0,-9.924268723E0,2.624125242E0
4.339844191E1,-5.406272411E0,-1.543349552E1,2.889889717E0
4.345044194E1,-7.448588848E0,-1.971206474E1,6.158074856E0
4.350044227E1,-7.506051540E0,-1.944630051E1,7.237892628E0
4.355244183E1,-8.897125244E0,-1.658992958E1,5.399089813E0
4.360444180E1,-9.988914490E0,-1.093465328E1,1.934574008E0
4.365444209E1,-1.026904488E1,-9.012050629E0,-1.819648892E-1
4.370644205E1,-1.455958557E1,-8.051946640E0,-2.944957972E0
4.375644214E1,-1.527786732E1,-8.236305237E0,-2.478074312E0
4.380844210E1,-1.614698982E1,-8.262641907E0,-2.442160368E0
4.386044187E1,-1.491154385E1,-8.202785492E0,-2.195549965E0
4.391244180E1,-1.416931820E1,-9.402317047E0,-1.596981287E0
4.396244209E1,-1.393946838E1,-1.164335823E1,-1.343188167E0
4.401444195E1,-1.551968956E1,-1.319484806E1,-3.818868399E0
4.406444205E1,-1.355638409E1,-1.082930470E1,-2.444554567E0
4.411444217E1,-8.583475113E0,-7.537177086E0,-1.494027495E0
4.416644177E1,-3.232270956E0,-2.176395893E0,1.508393139E-1
4.421644180E1,-4.189980924E-1,4.166038036E-1,1.300091267E0
4.426644199E1,-8.332076073E-1,7.087053657E-1,3.926610649E-1
4.431844192E1,-2.530748367E0,-1.285725594E0,-2.992843390E-1
4.437044185E1,-1.731060743E0,-8.061523438E0,5.492466450E0
4.442044191E1,-8.765439987E0,-1.477267551E1,-7.427040577E0
4.447244174E1,-5.514014721E0,-2.487412071E1,5.847537231E1
4.452244193E1,-5.600208759E0,2.643039894E1,-3.120937157E1
4.457444189E1,-1.470084763E1,1.307752895E1,-3.421418667E0
4.462644185E1,-1.332174492E1,1.061382008E1,8.336864471E0
4.467844178E1,-1.935052872E1,1.059706020E1,4.929811954E0
4.472844181E1,-1.412143326E1,8.451789856E0,9.507665634E0
4.477844187E1,-1.210066509E1,6.414262295E0,5.935407162E0
4.483044183E1,-5.830059052E0,3.823656797E0,2.506805658E0
4.488044196E1,-2.892283916E0,3.749434233E0,-1.867534369E-1
4.493244175E1,7.280989647E0,-5.770202160E0,1.045819283E1
4.498444171E1,-4.383917332E0,4.508419514E0,1.145421028E1
4.503444175E1,1.087000728E0,4.450956821E0,1.425072384E1
4.508444181E1,7.412674904E0,5.631334305E0,1.354920101E1
4.513644170E1,1.232093811E1,8.846845627E0,1.505041122E1
4.518644180E1,1.366652107E1,1.286443901E1,7.862798691E0
4.523644183E1,9.964971542E0,1.007032013E1,2.430188894E0
4.528844172E1,-1.433212948E1,-2.971295118E0,1.495942879E1
4.533844215E1,2.909043789E0,-6.220325947E0,-1.850295639E1
4.538844218E1,1.369525146E1,-2.663630676E1,1.458352757E1
4.544044177E1,-4.606584549E0,-9.296969414E0,-5.650488734E-1
4.549244153E1,4.022381783E0,2.686376333E0,1.213897347E0
4.554244189E1,-1.910631299E0,1.980065227E0,3.112557232E-1
4.559444182E1,-3.723097324E0,-2.683982134E0,6.167652130E0
4.564644171E1,6.560313106E-1,-3.826051235E0,6.251451492E0
4.569644197E1,4.661653042E0,-2.806090117E0,9.026415825E0
4.574644207E1,1.764580488E0,-5.830059052E0,8.480521202E0
4.579844173E1,-6.481301785E0,-1.418368435E1,8.401510239E0
4.584844176E1,-1.194982529E1,-1.653486252E1,1.002004051E1
4.590044165E1,-1.612544060E1,-1.466253853E1,8.456578255E0
4.595044175E1,-1.566334534E1,-9.917086601E0,5.111776829E0
4.600044184E1,-1.381975460E1,-4.429408550E0,1.587404251E0
4.605244170E1,-1.219164753E1,-1.793311834E0,2.334417820E0
4.610444160E1,-1.001525116E1,-1.599375606E0,1.604164124E0
4.615444173E1,-8.743891716E0,-2.906649590E0,1.429382086E0
4.620638014E1,-9.057541847E0,-4.867560863E0,1.391073704E0
4.625838011E1,-1.271599388E1,-7.805335999E0,6.153286099E-1
4.630838013E1,-1.302724934E1,-9.301757812E0,2.178790122E-1
4.635838033E1,-1.204559612E1,-9.555550575E0,9.194015265E-1
4.641038009E1,-8.624177933E0,-7.479714394E0,1.637683988E0
4.646238002E1,-6.373559475E0,-5.664854050E0,3.617749214E0
4.651438001E1,-7.017619610E0,-4.759818554E0,4.953754425E0
4.656438011E1,-7.659285069E0,-3.598595142E0,5.154873848E0
4.661638010E1,-7.180429935E0,-1.920208454E0,5.358386993E0
4.666838006E1,-6.739883423E0,1.606558442E0,5.205153465E0
4.672038006E1,-9.541185379E0,2.209915638E0,6.287365437E0
4.677238005E1,-1.218925285E1,4.764606953E0,5.406272411E0
4.682438005E1,-6.177228928E0,5.303318501E0,5.054314137E0
4.687638005E1,-3.572257996E0,5.080651283E0,2.885101080E0
4.692838004E1,-2.073441982E0,4.082238674E0,5.123748183E-1
4.697838007E1,-3.541132450E0,4.000833035E0,-2.094990492E0
4.703038003E1,-4.963331699E0,1.546701550E0,1.065452337E0
4.708038009E1,-4.192375183E0,-3.296916485E0,2.657645047E-1
4.713238005E1,-2.370332003E0,-3.208328247E0,-1.347976685E0
4.718438005E1,-2.600182533E0,-7.723930359E0,-7.182824612E0
4.723638004E1,-2.243435383E0,-1.509829712E1,-1.029777622E1
4.728838004E1,1.733454943E0,-1.825155640E1,7.060716629E0
4.734038003E1,-1.337920761E1,-3.320859194E0,7.635342598E0
4.739237999E1,-2.950464821E1,6.656084061E0,-1.224671555E1
4.744437999E1,-3.205934048E0,-1.376708031E0,4.575459003E0
4.749637995E1,-2.434259224E1,-1.482056141E1,6.079063892E0
4.754638001E1,-1.890758896E1,-7.154093266E0,-6.727912426E0
4.759838001E1,-9.541185379E0,-1.226108170E1,-3.064671755E0
4.765037993E1,-1.104000092E1,-8.221940041E0,-1.233051538E0
4.770037996E1,-1.573277950E1,-8.372778893E0,5.315290093E-1
4.775237992E1,-1.237361240E1,-4.951360226E0,-6.129343510E-1
4.780238009E1,-9.862017632E0,-4.673624516E0,7.422251999E-2
4.785437998E1,-1.048213482E1,-1.333611012E0,1.072635174E0
4.790637991E1,-8.317710876E0,-1.886688590E0,3.007209063E0
4.795637994E1,-8.576292038E0,4.453351200E-1,1.793311834E0
4.800637997E1,-5.897099018E0,1.652049661E0,1.929785490E0
4.805637999E1,-7.101418972E0,2.035133600E0,2.250618219E0
4.810638002E1,-7.180429935E0,3.308887720E0,3.466909885E0
4.815638005E1,1.891477108E0,7.470137477E-1,2.334417820E0
4.820837998E1,-5.703162670E0,3.507612705E0,7.415069103E0
4.826037994E1,-2.652856588E0,3.512401104E0,1.029059315E1
4.831038004E1,-2.387091875E0,4.898686409E0,9.069513321E0
4.836237996E1,9.050358534E-1,6.270605564E0,1.369525146E1
4.841437989E1,6.208354473E0,1.011341667E1,1.392989063E1
4.846637989E1,1.614938354E1,1.523477077E1,1.502886295E1
4.851638008E1,1.775115395E1,1.724117279E1,6.553130150E0
4.856837984E1,-3.481275558E0,-6.122160912E0,1.832099152E1
4.861838011E1,-1.139914227E1,-1.478464699E1,-1.000327969E1
4.867038007E1,-5.027977228E-1,-1.951334000E1,1.956361961E1
4.872237983E1,-1.316851079E-1,-7.024802208E0,4.122941017E0
4.877238029E1,9.217957854E-1,-1.144463301E0,-1.731060743E0
4.882438012E1,-7.829278708E-1,-2.561874092E-1,1.877111435E0
4.887637978E1,1.915419847E-2,-1.711906433E0,3.749434233E0
4.892637998E1,1.077423692E0,2.394274808E-2,5.710345268E0
4.897638004E1,-9.840469360E-1,2.458920240E0,8.051946640E0
4.902837980E1,-3.737462997E0,5.650488734E-1,1.150927925E1
4.907837996E1,-9.885960579E0,-3.624932051E0,1.191151714E1
4.913037996E1,-1.591235065E1,-1.987248063E0,6.962551117E0
4.918237975E1,-1.569686604E1,-8.212362528E-1,9.194015503E0
4.923237991E1,-1.021637058E1,-2.537931204E-1,1.055396366E1
4.928437994E1,-9.016839027E0,-2.753416061E0,1.036481571E1
4.933637980E1,-7.513234138E0,-9.840469360E-1,8.054340363E0
4.938637983E1,-8.118986130E0,-1.197137404E-2,6.749460697E0
4.943637986E1,-7.838855743E0,6.871568561E-1,5.257827282E0
4.948637992E1,-8.995290756E0,9.170072675E-1,5.265010357E0
4.953837988E1,-1.088197899E1,-1.685569525E0,5.061496735E0
4.959037984E1,-1.049410629E1,-3.016786277E-1,5.985687256E0
4.964237977E1,-9.991309166E0,-5.219519138E-1,7.144515991E0
4.969237980E1,-9.792584419E0,6.703969240E-1,6.675238132E0
4.974437980E1,-1.216291618E1,3.646480560E0,1.218685865E0
4.979637979E1,-9.881172180E0,8.193208694E0,-7.565908432E-1
4.984837976E1,-8.140534401E0,8.851634026E0,1.177983165E0
4.990037975E1,-5.387118340E0,8.329682350E0,2.004008055E0
4.995237974E1,-3.505218267E0,4.740664005E0,4.972908974E0
5.000437967E1,-5.765413761E0,1.240234375E0,1.192348838E0
5.005437973E1,-3.064671755E0,2.394274771E-1,-1.479661822E0
5.010637969E1,-1.355159521E0,-1.972882390E0,-2.968900800E-1
5.015837969E1,-6.332856655E0,-7.858009815E0,8.044763207E-1
5.020837975E1,-6.205960274E0,1.024749637E0,-4.158855438E0
5.026037964E1,-6.670449734E0,-3.311282158E0,2.621252060E1
5.031037974E1,7.494080067E-1,2.095229912E1,2.155565643E1
5.036237977E1,-2.138087511E0,8.846845627E0,1.499773693E1
5.041437973E1,-1.043424988E1,7.975329399E0,1.596981335E1
5.046637972E1,-5.444581032E0,8.956981659E0,1.198813438E1
5.051837965E1,-8.576292038E0,6.402290821E0,8.923461914E0
5.056837968E1,-4.321666241E0,4.395888329E0,9.730332375E0
5.061837974E1,-3.076643229E0,3.624932051E0,5.837242126E0
5.067037970E1,-3.591412306E0,4.000833035E0,6.938608170E0
5.072237963E1,-6.680026650E-1,4.391099930E0,7.838855743E0
5.077237976E1,-1.867534399E0,3.912245035E0,1.096098995E1
5.082237982E1,3.782954216E-1,5.753442287E0,1.372398281E1
5.087437961E1,5.106987953E0,9.706390381E0,1.344864178E1
5.092637951E1,1.636247444E1,1.684611702E1,1.499294853E1
5.097637967E1,1.952052307E1,1.434649467E1,9.976943016E0
5.102637980E1,-1.903448462E0,-3.804502726E0,1.815818024E1
5.107637983E1,-2.772570229E1,-2.428034019E1,-1.285725594E1
5.112837972E1,-3.261002302E0,-1.720046997E1,1.095380688E1
5.117837974E1,-1.180377483E0,-8.877970695E0,2.559479713E0
5.123037961E1,3.833234072E0,1.434170604E0,1.640078187E0
5.128037980E1,5.435003638E-1,2.956929445E0,4.867560863E0
5.133237966E1,2.983266354E0,1.695146561E0,6.289760113E0
5.138437966E1,3.517189741E0,1.491633177E0,6.759037971E0
5.143437969E1,0.000000000E0,-2.873129845E-1,7.589851379E0
5.148637965E1,-3.328042030E0,-3.665634632E0,6.818894863E0
5.153837944E1,-8.854028702E0,-7.793364525E0,9.438231468E0
5.158837977E1,-1.186123753E1,-9.622590065E0,1.034805584E1
5.164037970E1,-1.331456184E1,-8.334470749E0,7.513234138E0
5.169237946E1,-1.334329319E1,-5.669642925E0,4.795732498E0
5.174237979E1,-1.344385338E1,-3.442967176E0,3.138894320E0
5.179437968E1,-1.204559612E1,-2.157241583E0,2.592999697E0
5.184637951E1,-1.052523232E1,-1.795706153E0,3.495641232E0
5.189637964E1,-1.179659176E1,-4.297723293E0,4.266597748E0
5.194837963E1,-1.086282444E1,-4.640104771E0,4.218712330E0
5.200037953E1,-9.601041794E0,-4.221106529E0,4.216318130E0
5.205037959E1,-1.058508873E1,-4.462928295E0,5.023188591E0
5.210037985E1,-1.043424988E1,-2.679193497E0,6.284971237E0
5.215237958E1,-1.275909042E1,2.681587934E-1,3.591412306E0
5.220437961E1,-1.217967606E1,1.055875182E0,3.639297724E0
5.225437981E1,-1.146857643E1,1.139674783E0,1.577827096E0
5.230637957E1,-8.535589218E0,2.449343204E0,3.715914488E0
5.235637967E1,-7.221132755E0,2.674404860E0,4.580247879E0
5.240637972E1,-1.019961071E1,1.884294271E0,3.253819466E0
5.245837952E1,-8.593051910E0,3.423812866E0,4.810098171E0
5.251037932E1,-6.998465061E0,2.535537004E0,3.742251635E0
5.256037954E1,-7.812518597E0,5.004034638E-1,4.716721535E0
5.261237940E1,-3.021574736E0,-5.818088055E-1,2.243435383E0
5.266237943E1,-1.113337755E0,-6.088640690E0,-1.532335877E-1
5.271437966E1,-5.700768471E0,-7.920260906E0,-6.957762718E0
5.276637965E1,-2.123721838E0,6.234691620E0,5.518803596E0
5.281837938E1,2.099539566E1,6.842837334E0,1.888843346E1
5.286837954E1,4.199557781E0,1.107591534E1,1.812705421E1
5.292037950E1,-6.756643295E0,5.830059052E0,1.070959091E1
5.297237946E1,-8.786988258E-1,6.071880817E0,1.422199249E1
5.302237956E1,-5.226701736E0,6.416656494E0,1.183729458E1
5.307437948E1,-2.985660791E0,5.281770229E0,1.134167957E1
5.312637944E1,-1.915419817E0,4.367157459E0,1.071677399E1
5.317637958E1,4.022381604E-1,4.853195190E0,1.147575951E1
5.322837944E1,9.146129489E-1,5.758230686E0,1.395622826E1
5.328037940E1,3.778165579E0,7.575485706E0,1.466493320E1
5.333237936E1,1.427227211E1,1.112380123E1,1.483492661E1
5.338237939E1,2.741923523E1,1.877829742E1,8.277008057E0
5.343237942E1,5.451763630E0,-1.436564885E-2,8.597841263E0
5.348237951E1,-2.168494606E1,-1.468169308E1,2.218535042E1
5.353241319E1,-1.061621475E1,-1.483253288E1,2.027950764E0
5.358441322E1,-2.083019018E0,-1.153322220E1,1.024510193E1
5.363641318E1,8.044763207E-1,-3.110162973E0,2.901860952E0
5.368841308E1,5.027977228E-1,8.954587579E-1,2.621730804E0
5.374041301E1,-5.722316504E-1,4.070267081E-2,5.691191196E0
5.379041303E1,-4.980091453E-1,-1.237840056E0,7.170853138E0
5.384041306E1,-1.438959122E0,-7.398309112E-1,7.642525196E0
5.389241305E1,-3.962524891E0,-1.934574008E0,7.122967720E0
5.394241319E1,-7.834067345E0,-3.469304085E0,1.025946712E1
5.399441304E1,-1.018045616E1,-4.582642078E0,9.033598900E0
5.404641304E1,-1.413340378E1,-5.303318501E0,6.926637173E0
5.409641314E1,-1.326428223E1,-3.311282158E0,4.649681568E0
5.414841303E1,-1.381257153E1,-2.092596292E0,3.986467600E0
5.419841306E1,-1.431776333E1,-1.637683988E0,2.360754967E0
5.424841326E1,-1.521082783E1,-2.521171331E0,1.486844659E0
5.430041308E1,-1.344145870E1,-2.004008055E0,1.412622094E0
5.435241301E1,-1.165293503E1,-2.236252785E0,1.261782765E0
5.440241324E1,-1.073353386E1,-2.631308079E0,1.154040456E0
5.445441317E1,-1.004398251E1,-2.739050388E0,6.703969240E-1
5.450641316E1,-9.656110764E0,-3.019180536E0,1.304879785E0
5.455641329E1,-9.138946533E0,-2.389486313E0,9.816526771E-1
5.460841312E1,-1.064733982E1,-1.036720991E0,9.289786220E-1
5.466041291E1,-1.144463348E1,1.494027495E0,5.315290093E-1
5.471041318E1,-1.292908382E1,2.365543604E0,1.106154919E0
5.476041327E1,-1.217009926E1,3.684788942E0,2.877918243E0
5.481241293E1,-1.248135471E1,3.981678963E0,1.108549237E0
5.486241310E1,-1.107352066E1,3.548315287E0,-1.963305324E-1
5.491441312E1,-6.974522591E0,4.829252243E0,-1.400650740E0
5.496641288E1,-5.205153465E0,7.376760483E0,-4.767001152E0
5.501641305E1,-1.108549237E0,5.988081455E0,-1.194743156E0
5.506641311E1,1.192348838E0,4.300117493E0,1.570644259E0
5.511841290E1,-3.481275558E0,-3.550709486E0,6.536370516E-1
5.516841293E1,-3.203539610E0,-1.135843945E1,-3.624932051E0
5.521841299E1,-2.101215553E1,-4.664765549E1,-6.080979156E1
5.527041292E1,-5.300924301E0,1.885491371E1,-8.174054146E0
5.532041295E1,-1.732736588E1,3.495641351E-1,2.374881172E1
5.537241298E1,-1.856760025E1,1.283331275E0,1.243586349E1
5.542441287E1,-1.838563538E1,1.987248063E-1,4.192375183E0
5.547441294E1,-1.937926102E1,2.509200096E0,5.770202279E-1
5.552641293E1,-1.457395077E1,9.984126091E-1,3.981678963E0
5.557641299E1,-1.197616291E1,2.674404860E0,1.245022893E0
5.562641305E1,-9.203592300E0,1.824437380E0,3.818868399E0
5.567841285E1,-1.027383327E1,1.424593568E0,1.532335877E0
5.572841298E1,-7.158881664E0,2.375120640E0,9.361614585E-1
5.578041294E1,-2.765387297E0,3.866753817E0,5.200365067E0
5.583241290E1,-6.835654736E0,2.092596292E0,9.294574738E0
5.588441286E1,-4.594613552E0,5.597814560E0,9.735121727E0
5.593641285E1,7.374366522E-1,7.371972084E0,1.148533630E1
5.598841285E1,7.175641537E0,1.057311726E1,1.311823177E1
5.603841291E1,1.713821983E1,1.272317600E1,8.133351326E0
5.609041284E1,1.047255802E1,3.392687321E0,9.873989105E0
5.614041287E1,-2.394035339E1,-7.075081825E0,1.276866722E1
5.619241286E1,-1.711906433E0,-1.036002731E1,-6.517216206E0
5.624441279E1,1.580221355E-1,-1.584531021E1,9.028810501E0
5.629441292E1,6.153286099E-1,-2.164424419E0,2.842004299E0
5.634441298E1,-1.956122518E0,7.518022656E-1,1.405439258E0
5.639641294E1,-1.965699673E0,3.519583941E-1,4.115758419E0
5.644841280E1,-4.405465722E-1,-5.099805593E-1,6.984099388E0
5.650041280E1,-3.088614643E-1,-2.406246185E0,1.039354706E1
5.655241279E1,-3.193962574E0,-4.048718929E0,8.885153770E0
5.660241282E1,-7.120573044E0,-6.756643295E0,7.266623974E0
5.665441278E1,-1.178701496E1,-7.043956280E0,5.446975231E0
5.670641278E1,-1.356835556E1,-7.417463303E0,4.577853203E0
5.675641284E1,-1.416931820E1,-6.052726746E0,3.498035431E0
5.680841277E1,-1.448775673E1,-4.204346657E0,2.774964571E0
5.686041276E1,-1.299851799E1,-1.204320192E0,1.719089270E0
5.691041282E1,-1.275430202E1,-1.228263021E0,2.633702278E0
5.696241275E1,-1.219164753E1,-2.640885115E0,1.450930476E0
5.701441275E1,-1.097535610E1,-3.732674360E0,1.240234375E0
5.706441285E1,-1.024989033E1,-5.138113976E0,2.229069948E0
5.711641274E1,-1.078620815E1,-5.444581032E0,1.173194647E0
5.716841274E1,-1.188996887E1,-6.191594601E0,9.960182905E-1
5.721841287E1,-9.670475960E0,-5.578660488E0,9.577099085E-1
5.727041276E1,-7.817307472E0,-3.809291124E0,2.157241583E0
5.732241272E1,-7.316903591E0,-1.913025618E0,3.328042030E0
5.737241288E1,-1.005116558E1,-2.178790122E-1,6.038361073E0
5.742441281E1,-1.246220016E1,8.715160489E-1,7.300143719E0
5.747641267E1,-1.278782177E1,2.528354168E0,6.761432171E0
5.752641304E1,-1.299851799E1,2.303292274E0,5.037554264E0
5.757841286E1,-1.086282444E1,2.415823221E0,3.677606106E0
5.763041262E1,-8.877970695E0,1.388679385E0,4.419831276E0
5.768041288E1,-7.647313595E0,-1.364736706E-1,3.660846233E0
5.773041311E1,-4.625739098E0,1.256994247E0,2.106961727E0
5.778241277E1,-8.619388938E-2,9.170072675E-1,-2.992843390E-1
5.783241297E1,-3.407052994E0,-3.567469358E0,-3.186779737E0
5.788441286E1,-2.231464148E0,-1.199531651E1,-4.395888329E0
5.793641259E1,-1.401847935E1,-7.769421577E0,-1.052523232E1
5.798641279E1,3.014391899E0,7.182824612E0,-8.832479477E0
5.803641281E1,-2.305686712E0,9.713572502E0,1.743271446E1
5.808841264E1,-1.874717140E1,1.560348892E1,2.944957912E-1
5.813841270E1,-1.024749660E1,1.305837440E1,7.324086666E0
5.818841279E1,-1.605361176E1,9.684841156E0,7.415069103E0
5.824041282E1,-8.128562927E0,8.035185814E0,8.904308319E0
5.829241255E1,-8.571503639E0,6.076669693E0,7.065505028E0
5.834241264E1,-5.363175392E0,5.011217117E0,7.405491829E0
5.839241267E1,-5.820482254E0,5.267404556E0,7.913078308E0
5.844441260E1,-4.163643837E0,6.081458092E0,9.646533012E0
5.849641263E1,-4.458139896E0,8.408693314E0,1.063297462E1
5.854841259E1,1.022355318E0,1.205996227E1,1.064494610E1
5.860041255E1,1.101605797E1,1.949897385E1,7.659285069E0
5.865041291E1,1.257712555E1,1.972882462E1,1.302485466E0
5.870241277E1,-6.158074856E0,-2.377514839E0,1.247177792E1
5.875441264E1,-2.477595520E1,-1.375510883E1,2.897072554E0
5.880641260E1,9.241901040E-1,-1.945827103E1,1.982459450E1
5.885641262E1,2.300898075E0,-9.454991341E0,8.449396133E0
5.890841252E1,-2.162030220E0,-6.742278099E0,5.640911579E0
5.895841261E1,-2.456526041E0,-4.692778587E0,7.462954521E0
5.901041254E1,-3.818868399E0,-8.882759809E-1,1.369285774E1
5.906041257E1,9.170072675E-1,9.572310448E0,9.773429871E0
5.911241250E1,7.599428177E0,1.039594078E1,1.388679385E0
5.916441252E1,9.557945251E0,1.214615631E1,-2.121327400E0
5.921441288E1,4.103786945E0,5.681613922E0,3.117345810E0
5.926641251E1,-1.013496494E1,-4.980091572E0,1.099211597E1
5.931641254E1,-2.797470665E1,-5.348809719E0,6.253845692E0
5.936841244E1,-1.580460835E1,2.147664547E0,1.692752242E0
5.941841249E1,-5.011217117E0,3.366350412E0,4.170826912E0
5.947041249E1,2.178790092E0,4.977697372E0,4.012804508E0
5.952041255E1,-9.792584181E-1,2.724684715E0,2.363149166E0
5.957041265E1,-1.143745041E1,-3.426207304E0,5.921041489E0
5.962241247E1,-1.392989063E1,-3.974496126E0,5.265010357E0
5.967441244E1,-1.282852459E1,-2.925803900E0,4.884320736E0
5.972441246E1,-7.108602047E0,-2.154847383E-1,5.205153465E0
5.977441256E1,-7.182824612E0,1.575432777E0,4.857983589E0
5.982441262E1,-1.218685913E1,-3.351984918E-2,5.547534943E0
5.987441265E1,-1.246698856E1,3.354378939E0,4.769395351E0
5.992641251E1,-1.206235695E1,3.917033672E0,6.098217964E0
5.997641261E1,-1.228981304E1,3.351984739E0,3.543526649E0
6.002641277E1,-1.148054790E1,3.596200705E0,3.533949614E0
6.007841259E1,-1.142547894E1,2.796513081E0,3.962524891E0
6.013041232E1,-1.185166073E1,3.222693920E0,3.445361376E0
6.018041258E1,-1.027383327E1,2.581028223E0,3.818868399E0
6.023241254E1,-9.538790703E0,2.547508478E0,4.972908974E0
6.028441251E1,-8.865999222E0,3.330436230E0,3.579440832E0
6.033441264E1,-4.630527496E0,4.611373425E0,2.535537004E0
6.038441273E1,-4.740664065E-1,5.937801361E0,2.616942406E0
6.043641232E1,1.743032098E0,4.922628880E0,6.105400920E-1
6.048641248E1,2.394274712E0,1.822043180E0,2.097384691E0
6.053641258E1,-6.344828010E-1,-4.470110893E0,1.060663700E0
6.058841237E1,-7.934626579E0,-1.197855663E1,-8.786988258E-1
6.063841240E1,-1.828028870E1,-6.115935516E1,4.406902313E1
6.068841269E1,-2.978477955E0,6.280422211E1,1.966417885E1
6.074041232E1,-3.680000305E0,1.078860188E1,8.138139725E0
6.079241040E1,-1.557715225E1,1.109985828E1,6.601015568E0
6.084241042E1,-1.628825188E1,1.041749001E1,9.002472878E0
6.089441035E1,-1.539758110E1,8.047157288E0,9.261054993E0
6.094641031E1,-9.560338974E0,7.405491829E0,2.578634024E0
6.099641047E1,-7.685621977E-1,4.242654800E0,3.854782343E0
6.104841037E1,-6.148497581E0,4.051113129E0,8.736708641E0
6.110041036E1,-2.145270348E0,3.560286522E0,9.067118645E0
6.115041046E1,-1.659232497E0,4.218712330E0,1.182771778E1
6.120241032E1,1.608952641E0,6.658478260E0,1.600812149E1
6.125441028E1,1.165293503E1,1.353722954E1,1.446142006E1
6.130441031E1,1.657077599E1,2.024359322E1,6.703969479E0
6.135441034E1,6.131737709E0,-5.985686779E-1,8.011243820E0
6.140641027E1,-1.708315086E1,-1.259867382E1,8.212362289E0
6.145641029E1,-2.154847383E0,-1.502886295E1,7.130150318E0
6.150841025E1,2.188367128E0,-1.548616982E1,6.723123550E0
6.155841032E1,2.138087511E0,-2.202732801E0,1.867534399E0
6.161041028E1,2.276955366E0,1.551490068E0,1.932179809E0
6.166241024E1,-1.915419847E-1,-3.759011328E-1,5.435003757E0
6.171241034E1,2.339206457E0,-9.002473354E-1,7.247469902E0
6.176441036E1,2.607365370E0,-1.381496549E0,9.522030830E0
6.181641029E1,7.374366522E-1,-9.744698405E-1,1.080536175E1
6.186841022E1,-1.412622094E0,-1.235445857E0,1.126506329E1
6.192041021E1,-8.102226257E0,-1.884294271E0,1.015411949E1
6.197041024E1,-1.025467873E1,-1.477267504E0,6.205960274E0
6.202041027E1,-1.336244774E1,-1.834014535E0,3.500429869E0
6.207241020E1,-1.195461369E1,-2.418217510E-1,2.679193497E0
6.212241022E1,-1.277106190E1,-5.985686928E-2,2.437371731E0
6.217241029E1,-1.537603283E1,-4.932205975E-1,1.544307232E0
6.222441025E1,-1.446620846E1,-1.580221415E0,1.666415215E0
6.227441028E1,-1.134407425E1,-1.915419817E0,2.722290516E0
6.232641021E1,-1.094901848E1,-2.451737404E0,2.365543604E0
6.237641030E1,-1.129139996E1,-3.304099321E0,1.783734679E0
6.242841023E1,-9.529213905E0,-3.636903524E0,2.066259146E0
6.248041019E1,-8.988107681E0,-4.118152618E0,2.442160368E0
6.253041035E1,-8.444606781E0,-3.962524891E0,2.001613855E0
6.258241025E1,-7.992089272E0,-3.517189741E0,2.083019018E0
6.263441017E1,-7.369577885E0,-2.473285913E0,2.363149166E0
6.268641017E1,-7.558725357E0,-2.073441982E0,2.423006058E0
6.273641030E1,-8.116591454E0,-1.623318315E0,2.842004299E0
6.278841010E1,-7.755055904E0,-5.411061049E-1,2.592999697E0
6.283841039E1,-8.279402733E0,9.816526622E-2,2.844398499E0
6.289041025E1,-9.708784103E0,5.027977228E-1,3.411841631E0
6.294241008E1,-1.369046307E1,6.416656375E-1,2.257801056E0
6.299241038E1,-1.288359261E1,1.994430900E0,2.355966330E0
6.304441034E1,-1.102802944E1,3.165231228E0,3.890696526E0
6.309641020E1,-1.236642933E1,2.308080912E0,4.364762783E0
6.314641036E1,-1.441114044E1,1.881899953E0,3.981678963E0
6.319641042E1,-1.210305882E1,2.861158371E0,4.060689926E0
6.324841008E1,-1.200249958E1,4.589824677E0,3.881119490E0
6.329841025E1,-1.055875206E1,6.007235527E0,3.261002302E0
6.335041024E1,-5.312895775E0,6.349617004E0,3.732674360E0
6.340041033E1,-1.867534399E0,6.227508545E0,4.170826912E0
6.345241006E1,-3.895485163E0,3.474092722E0,3.282550812E0
6.350241022E1,-3.136500120E-1,9.984126091E-1,3.622537851E0
6.355441012E1,-6.225114465E-1,-9.196409225E0,3.002420664E0
6.360641008E1,-8.423058510E0,-1.162899303E1,-4.805309772E0
6.365641021E1,-2.915987206E1,-5.288474274E1,4.613767624E0
6.370841007E1,9.522030830E0,3.260284042E1,-2.482623482E1
6.376041007E1,4.264203548E0,1.544546700E1,7.518023014E0
6.381041016E1,-1.007750225E1,1.547898674E1,-1.233051538E0
6.386241018E1,-2.288926601E0,1.356835556E1,9.876383781E0
6.391441005E1,1.383890867E0,1.117647457E1,9.833286285E0
6.396441011E1,-2.621730804E0,8.169265747E0,8.885153770E0
6.401641004E1,-5.961744189E-1,7.767027378E0,9.117398262E0
6.406641007E1,-3.040728867E-1,7.587456703E0,8.344047546E0
6.411841006E1,1.843591630E-1,7.261835575E0,8.063917160E0
6.417041005E1,1.589798450E0,6.900300026E0,7.407886028E0
6.422241005E1,2.346389294E-1,7.656890869E0,1.081015110E1
6.427441005E1,-3.519583941E-1,9.598648071E0,1.345821857E1
6.432641007E1,8.614601135E0,1.542631245E1,1.335287094E1
6.437841003E1,1.458352757E1,1.905124474E1,8.947404861E0
6.442841010E1,9.237112045E0,8.049551964E0,1.657556534E1
6.448040999E1,-2.819019127E1,-1.111182976E1,2.108637810E1
6.453041002E1,-3.854782343E0,-5.825270653E0,-1.028101635E1
6.458240995E1,5.344021320E0,-1.130097675E1,1.203123093E1
6.463240998E1,4.189980924E-1,-2.645673752E0,4.805309772E0
6.468440998E1,3.615354896E-1,1.798100352E0,-1.611346960E0
6.473640994E1,-7.182824425E-3,3.996044636E0,1.656838179E0
6.478640996E1,8.020820618E-1,3.153259993E0,5.403878212E0
6.483840989E1,3.708731651E0,3.452544212E0,6.984099388E0
6.488841002E1,2.023162127E0,3.158048391E0,7.087053299E0
6.494041005E1,-1.450930476E0,1.738243461E0,9.435836792E0
6.499240994E1,-4.328848839E0,-9.577099234E-2,9.064723969E0
6.504440990E1,-1.167687798E1,-6.478907585E0,7.187613010E0
6.509440996E1,-1.486126328E1,-3.816473961E0,5.842030525E0
6.514441016E1,-1.352046967E1,-1.510787368E0,3.778165579E0
6.519641005E1,-1.429621506E1,-2.968900800E-1,4.494053841E0
6.524840988E1,-1.362821198E1,3.419024467E0,7.925049782E0
6.529841011E1,-1.609431458E1,-1.922602654E0,1.891477108E0
6.534841037E1,-1.369525146E1,-3.950553536E-1,-8.499675393E-1
6.540040986E1,-1.135604572E1,-1.314456820E0,1.304879785E0
6.545040995E1,-9.086273193E0,-2.660039425E0,3.059883118E0
6.550240988E1,-1.028580475E1,-3.541132450E0,2.288926601E0
6.555240991E1,-9.256266594E0,-2.370332003E0,1.051086664E0
6.560440988E1,-8.863605499E0,-1.869928598E0,1.118126392E0
6.565441007E1,-8.078283310E0,-1.479661822E0,1.379102230E0
6.570640990E1,-8.159688950E0,-1.798100352E0,2.298503876E0
6.575840980E1,-6.926637173E0,-7.709565163E-1,2.717501879E0
6.580841006E1,-6.725517750E0,7.326480746E-1,4.472505569E0
6.586040992E1,-7.795758724E0,1.778946161E0,5.188393593E0
6.591240978E1,-1.097296143E1,4.597007632E-1,5.470917702E0
6.596241004E1,-1.148054790E1,9.026415944E-1,3.045517445E0
6.601241007E1,-1.089395046E1,1.017566800E0,3.957736254E0
6.606440977E1,-1.218925285E1,1.218685865E0,3.414235830E0
6.611440993E1,-1.200249958E1,3.225088120E0,3.270579338E0
6.616441006E1,-1.284528446E1,2.322446585E0,1.577827096E0
6.621640975E1,-9.555550575E0,3.847599506E0,2.233858347E0
6.626640988E1,-7.472531796E0,4.443774223E0,2.200338602E0
6.631641001E1,-6.426233768E0,6.474119186E0,1.695146561E0
6.636840983E1,-5.080651283E0,6.864386082E0,2.013585091E0
6.642040980E1,-3.181991339E0,5.767807961E0,2.011190891E0
6.647040996E1,-4.987274647E0,5.214730740E0,1.374313712E0
6.652041008E1,-3.464515686E0,4.692778587E0,-8.475732803E-1
6.657240971E1,-3.105374336E0,9.816526771E-1,1.125309110E0
6.662240981E1,-3.138894320E0,-2.444554567E0,-3.275367975E0
6.667440967E1,-6.442993641E0,-1.183729458E1,-4.209135056E0
6.672440970E1,-6.680026531E0,-1.187320900E1,-9.158101082E0
6.677440976E1,-1.211503029E1,-8.492492676E0,-2.448385429E1
6.682640972E1,-1.459549904E1,1.460507661E-1,-1.570883656E1
6.687640988E1,-2.187170029E1,6.785374641E0,-2.187888336E1
6.692840981E1,-2.583422470E1,5.339232683E-1,-9.184437752E0
6.698040970E1,-1.995627975E1,3.699154615E0,-6.361588001E0
6.703040977E1,-1.670006752E1,3.665634632E0,-4.474899769E0
6.708240966E1,-1.520125103E1,3.967313290E0,7.518022656E-1
6.713240972E1,-1.649655342E1,3.993650436E0,9.289786220E-1
6.718440965E1,-1.231614971E1,1.031932473E0,-2.425400496E0
6.723440971E1,-8.849239349E0,-1.297696948E0,-4.252232075E0
6.728640971E1,-7.273807049E0,4.549122155E-1,-7.431828976E0
6.733640973E1,1.186363125E1,-2.466102988E-1,-1.047495270E1
6.738840970E1,8.588263512E0,-2.533142805E0,7.910684109E0
6.743840972E1,-3.014391899E0,4.781366825E0,9.407105446E0
6.749040969E1,1.824437380E0,1.604164124E0,1.300091267E1
6.754240968E1,1.075029373E0,4.041535854E0,1.395862198E1
6.759240981E1,8.449396133E0,7.778998852E0,1.457873917E1
6.764440954E1,1.589559078E1,1.526110744E1,1.095380688E1
6.769440963E1,1.753566933E1,1.632177162E1,1.855562925E0
6.774640956E1,-1.652289009E1,-3.234665155E0,2.063864899E1
6.779640966E1,-8.092648983E-1,-1.324033928E1,-1.236164093E1
6.784640978E1,6.984099388E0,-2.005923462E1,1.144942188E1
6.789840954E1,-3.998439014E-1,-9.905115128E0,9.768640995E-1
6.794840970E1,1.288119793E0,-7.709565163E-1,7.350423932E-1
6.799840987E1,-2.554691315E0,2.250618219E0,4.022381604E-1
6.805041113E1,-3.804502726E0,-2.219492674E0,6.818894863E0
6.810241109E1,-1.113337755E0,-1.139674783E0,8.284191132E0
6.815241125E1,-1.525153041E0,-3.543526649E0,9.730332375E0
6.820441118E1,-5.530774593E0,-3.340013266E0,7.529994488E0
6.825641101E1,-1.168166637E1,-6.529187202E0,6.507638931E0
6.830641124E1,-1.595305347E1,-5.231490612E0,1.173194647E-1
6.835841116E1,-2.005923462E1,-7.709565163E-1,-5.432609558E0
6.841041109E1,-1.503125763E1,3.232270956E0,-3.486064196E0
6.846241098E1,-1.341033363E1,9.960182905E-1,-2.511594296E0
6.851241125E1,-1.198573971E1,-1.043903828E0,-3.507612705E0
6.856441094E1,-1.130337143E1,-3.711125851E0,-1.194743156E0
6.861441117E1,-1.159786701E1,-5.652883053E0,-3.148471355E0
6.866441120E1,-1.024031353E1,-5.449369431E0,-3.627326250E0
6.871641093E1,-9.751881599E0,-4.405465603E0,-2.813272953E0
6.876641109E1,-9.979337692E0,-4.288146019E0,-3.083826065E0
6.881641115E1,-9.596253395E0,-3.335224867E0,-2.217098475E0
6.886841095E1,-9.873989105E0,-2.602576733E0,-3.232271075E-1
6.891841098E1,-9.002472878E0,-1.769369125E0,-3.663240373E-1
6.896841104E1,-1.068325424E1,-4.261809289E-1,1.568249941E0
6.902041093E1,-8.566715240E0,2.269772530E0,2.042316437E0
6.907041137E1,-7.666468143E0,4.685595989E0,5.001639843E0
6.912241102E1,-7.561120033E0,6.112583637E0,6.105400562E0
6.917441092E1,-9.146129608E0,5.559505939E0,5.221913338E0
6.922441095E1,-1.474633884E1,3.481275558E0,3.397475958E0
6.927641091E1,-1.154279900E1,4.388705730E0,4.611373425E0
6.932641107E1,-8.473338127E0,5.844424725E0,4.010410309E0
6.937841094E1,-8.011243820E0,7.151699066E0,2.456526041E0
6.942841100E1,-5.533169270E0,1.021397591E1,2.104567528E0
6.948041092E1,-6.110189438E0,6.392713547E0,1.201925993E0
6.953041096E1,-3.402264595E0,2.169213057E0,2.305686712E0
6.958241088E1,-2.106961727E0,-5.763019562E0,5.291347504E-1
6.963241091E1,-2.104088783E1,-1.551729488E1,-3.489176559E1
6.968441091E1,3.813361359E1,1.578784847E1,-3.539216995E1
6.973641087E1,1.333850479E1,2.343995094E0,-2.609759569E0
6.978641093E1,-6.179623127E0,1.000806928E0,7.920260906E0
6.983841089E1,1.419804931E0,7.587456703E0,4.022381783E0
6.988841095E1,5.971321583E0,6.088640690E0,5.514014721E0
6.994041088E1,4.307300568E0,8.456578255E0,5.071074009E0
6.999241088E1,6.498061657E0,6.483695984E0,6.347222328E0
7.004441084E1,4.254626274E0,4.683201313E0,8.703188896E0
7.009441087E1,2.219492674E0,5.815693378E0,9.421471596E0
7.014641080E1,3.792531252E0,7.585062504E0,1.129618835E1
7.019641086E1,4.465322495E0,6.656084061E0,1.143505669E1
7.024841082E1,4.541939259E0,6.165257454E0,1.153082752E1
7.029841088E1,4.338426113E0,6.280182838E0,1.119084072E1
7.034841098E1,5.202759266E0,6.579467297E0,1.285246754E1
7.040041080E1,1.187560272E1,1.081733322E1,1.517012501E1
7.045041097E1,2.788133049E1,1.986529732E1,5.334444046E0
7.050041103E1,1.372158909E1,5.300924301E0,1.356835556E1
7.055241092E1,-1.372637749E1,-1.024270725E1,4.486870766E0
7.060441088E1,-7.922655106E0,-2.642321587E1,1.175588894E1
7.065441098E1,-2.018373728E0,-1.177504349E1,3.852388144E0
7.070441107E1,1.802888989E0,-4.929811954E0,7.039167881E-1
7.075641094E1,2.423006058E0,2.061470509E0,2.130904675E0
7.080641100E1,8.236305118E-1,4.381522834E-1,5.461340904E0
7.085841096E1,7.302538157E-1,-8.260248303E-1,7.211555958E0
7.091041088E1,-1.400650740E0,-1.187560320E0,8.480521202E0
7.096241074E1,-5.018400192E0,-2.004008055E0,8.980924606E0
7.101241111E1,-9.677659035E0,-5.260221958E0,5.985687256E0
7.106441070E1,-1.654204559E1,-4.455745220E0,3.723097324E0
7.111441093E1,-1.737046432E1,-5.600208759E0,3.011997700E0
7.116441106E1,-1.545025539E1,-3.232270956E0,3.174808502E0
7.121641069E1,-1.451169968E1,-2.063864946E0,2.286532402E0
7.126641088E1,-1.331456184E1,-1.371919513E0,1.091789365E0
7.131641098E1,-1.199531651E1,-7.685621977E-1,5.842030644E-1
7.136841070E1,-1.066888809E1,-1.699935079E0,1.024749637E0
7.141841074E1,-9.854835510E0,-2.499622822E0,6.105400920E-1
7.146841080E1,-1.014693642E1,-3.102980137E0,8.906702399E-1
7.151841086E1,-1.066888809E1,-3.541132450E0,3.782954216E-1
7.157041075E1,-1.137041092E1,-4.927417755E0,4.381522834E-1
7.162041078E1,-1.026665020E1,-4.462928295E0,3.136500120E-1
7.167241071E1,-9.043175697E0,-3.600989342E0,5.698373914E-1
7.172241074E1,-7.905895233E0,-2.485257149E0,1.549095750E0
7.177441070E1,-7.503657341E0,-8.308133483E-1,1.525153041E0
7.182441076E1,-7.261835575E0,1.604164094E-1,2.961717844E0
7.187641072E1,-7.841249943E0,5.626545548E-1,3.387898922E0
7.192841068E1,-8.545166969E0,1.134886265E0,3.490852594E0
7.198041068E1,-9.579493523E0,9.194015265E-1,3.531555414E0
7.203241068E1,-9.797372818E0,1.084606528E0,3.782954216E0
7.208441067E1,-1.094423008E1,1.228263021E0,2.865947008E0
7.213441070E1,-1.051326084E1,1.946545362E0,3.124528646E0
7.218641063E1,-1.366173172E1,2.602576733E0,3.727885962E0
7.223641072E1,-1.570883656E1,1.661626697E0,5.760625362E0
7.228841068E1,-1.666415215E1,2.516382933E0,4.867560863E0
7.233841071E1,-1.410467243E1,1.479661822E0,3.440572977E0
7.238841084E1,-8.533195496E0,4.958543301E0,3.450150013E0
7.244041060E1,-8.320104599E0,7.786181450E0,1.429382086E0
7.249241056E1,-4.678412914E0,3.873936653E0,2.976083517E0
7.254241069E1,-5.147690773E0,2.590605259E0,-4.213923812E-1
7.259441065E1,1.637683988E0,2.585816681E-1,5.209941864E0
7.264641064E1,2.667222023E0,-8.782199860E0,9.481328130E-1
7.269841064E1,-4.769395351E0,-1.168166637E1,-1.043903828E0
7.275041053E1,1.292908430E0,6.974522591E0,-1.725793266E1
7.280041066E1,8.087860107E0,1.063297462E1,1.381496525E1
7.285241055E1,8.808537483E0,1.636008072E1,8.281796455E0
7.290441058E1,-2.035133600E0,1.209827042E1,7.676044941E0
7.295441061E1,-4.321666241E0,8.243488312E0,1.364497185E1
7.300641057E1,-5.078257084E0,6.847625732E0,1.313499165E1
7.305841057E1,-3.440572977E0,7.043956280E0,1.014693642E1
7.310841073E1,-3.651269197E0,6.131737709E0,9.488511086E0
7.316041069E1,-3.452544212E0,5.427821159E0,9.953000069E0
7.321241058E1,-2.648067951E0,4.841223717E0,8.391933441E0
7.326441052E1,-1.127703428E0,3.859570980E0,7.659285069E0
7.331441064E1,-5.243461728E-1,3.787742853E0,7.206767082E0
7.336641054E1,-3.399870098E-1,4.132518291E0,6.967339516E0
7.341841050E1,1.163617611E0,3.395081758E0,7.597033978E0
7.346841066E1,-3.112557232E-1,4.151672363E0,8.600234985E0
7.352041055E1,-2.106961906E-1,4.489265442E0,1.001046276E1
7.357041068E1,6.536370516E-1,4.829252243E0,1.170321560E1
7.362041072E1,1.728666425E0,5.676825523E0,1.411185551E1
7.367241061E1,9.627379417E0,8.772623062E0,1.733454895E1
7.372441050E1,1.859872627E1,1.548377514E1,1.104478931E1
7.377441073E1,1.682217407E1,1.794030190E1,6.340039730E0
7.382641063E1,-7.369577885E0,-1.019003391E1,1.580939674E1
7.387841049E1,-8.111803055E0,-1.524434757E1,-1.465775013E1
7.392841065E1,-2.008796453E0,-1.832577896E1,1.036960411E1
7.397841074E1,-9.074301720E-1,-5.147690773E0,2.214704275E0
7.403041044E1,-9.026415944E-1,-1.029538155E0,2.525959969E0
7.408041070E1,6.225114316E-2,1.264177084E0,5.071074009E0
7.413241066E1,-1.149251908E-1,9.648927450E-1,6.744672298E0
7.418441045E1,-1.455719113E0,8.834874034E-1,7.826884270E0
7.423441062E1,-4.154066563E0,-2.633702159E-1,6.629746914E0
7.428641064E1,-7.261835575E0,-2.308080912E0,6.775797844E0
7.433641070E1,-1.207193375E1,-5.593026161E0,7.424646378E0
7.438841053E1,-1.429860878E1,-5.909070015E0,9.244295120E0
7.443841072E1,-1.454043102E1,-3.620143414E0,7.465348721E0
7.449041042E1,-1.547180367E1,-9.577099085E-1,1.037678719E1
7.454041045E1,-1.606319046E1,-4.266597748E0,1.245022893E0
7.459241047E1,-1.105915546E1,1.450930476E0,2.595393896E0
7.464441040E1,-9.136552811E0,-7.278595567E-1,1.333611012E0
7.469641040E1,-1.152364445E1,-1.862745762E0,1.477267504E0
7.474641043E1,-1.191870022E1,-2.695953369E0,3.663240373E-1
7.479841035E1,-1.121478367E1,-2.959323645E0,6.296942830E-1
7.485041035E1,-1.050847244E1,-3.040729046E0,2.513988614E-1
7.490041038E1,-1.063297462E1,-2.734261751E0,9.098244458E-2
7.495241037E1,-9.021627426E0,-2.276955366E0,-2.059076279E-1
7.500441037E1,-8.221940041E0,-1.177983165E0,3.615354896E-1
7.505441050E1,-8.456578255E0,-8.810931444E-1,2.274561167E0
7.510641042E1,-7.039167881E0,1.118126392E0,3.277762175E0
7.515841032E1,-7.367183685E0,1.972882390E0,4.843617916E0
7.521041028E1,-8.746285439E0,2.966506481E0,4.625739098E0
7.526241027E1,-1.123633194E1,4.570670605E0,3.227482557E0
7.531241044E1,-1.394665051E1,4.881926537E0,1.534730196E0
7.536243089E1,-1.132970810E1,5.288952827E0,1.850774407E0
7.541443085E1,-1.310626030E1,5.897099018E0,1.494027495E0
7.546643082E1,-8.775016785E0,5.619362831E0,1.604164094E-1
7.551643084E1,-3.617749214E0,7.345634937E0,4.805309772E0
7.556843080E1,-7.261835575E0,4.965725899E0,1.723877788E-1
7.561843090E1,-1.097535610E1,3.979284763E0,-1.036720991E0
7.567043086E1,-7.326480746E-1,5.262616158E0,-1.577827096E0
7.572243082E1,7.755055904E0,4.319271564E0,4.091815472E0
7.577443082E1,3.076643229E0,-9.725543976E0,5.099805593E-1
7.582643078E1,-1.030735302E1,-1.342230415E1,-1.169603252E1
7.587643080E1,-2.630589676E1,-3.869866562E1,-3.051024437E1
7.592843077E1,1.628106833E0,1.894350243E1,1.659950638E1
7.597843080E1,-2.881988525E1,-6.984099388E0,5.315289974E0
7.602843086E1,-2.345431519E1,1.327385998E1,1.415016413E0
7.608043079E1,-1.784692383E1,2.813272953E0,1.225868702E0
7.613043085E1,-1.428903198E1,3.225088120E0,4.326454639E0
7.618243078E1,-1.260106850E1,3.627326250E0,2.554691315E0
7.623243087E1,-8.047157288E0,1.762186289E0,4.496448040E0
7.628243100E1,-4.075055599E0,2.123721838E0,2.458920240E0
7.633443079E1,-3.438178539E0,1.661626697E0,6.177228928E0
7.638643072E1,-1.549095750E0,1.913025618E0,5.358386993E0
7.643643089E1,-1.675992370E0,2.434977531E0,8.494887352E0
7.648843074E1,-2.190761566E0,3.220299721E0,1.015890789E1
7.654043074E1,8.619389534E-1,6.062304020E0,1.393228531E1
7.659043097E1,1.121478367E1,1.053480911E1,1.627149200E1
7.664243076E1,2.011430359E1,1.447578526E1,1.050847244E1
7.669443069E1,1.223474407E1,-1.489238977E0,9.081484795E0
7.674443099E1,-2.612872124E1,-1.128661156E1,1.505280590E1
7.679643085E1,-3.986467600E0,-9.581888199E0,1.005595401E-1
7.684843068E1,1.534730196E0,-1.049650097E1,7.314509392E0
7.689843091E1,1.975276709E0,-2.458920240E0,3.380716085E0
7.695043084E1,4.644893110E-1,7.637736797E-1,2.643279314E0
7.700243066E1,-1.788523316E0,-3.208328187E-1,5.557111740E0
7.705243090E1,-5.698373914E-1,-1.601769805E0,7.661679268E0
7.710243092E1,-1.786128998E0,-2.691164970E0,9.771035194E0
7.715443065E1,-4.400677204E0,-3.249030828E0,9.703995705E0
7.720443081E1,-8.051946640E0,-4.769395351E0,8.236305237E0
7.725443087E1,-1.098972130E1,-6.629746914E0,9.201197624E0
7.730643063E1,-1.390594769E1,-6.129343510E0,4.577853203E0
7.735643073E1,-1.500492001E1,-3.696760416E0,5.327261448E0
7.740643079E1,-1.478225231E1,2.885101080E0,1.782298088E1
7.745843069E1,-1.036721039E1,-3.141288519E0,1.388679445E-1
7.751043068E1,-1.166490650E1,1.898659945E0,2.382303476E0
7.756043071E1,-9.033598900E0,-3.543526649E0,2.236252785E0
7.761243063E1,-1.112619495E1,-4.079844475E0,2.700742006E0
7.766443060E1,-1.043903828E1,-4.043930054E0,2.212309837E0
7.771443062E1,-9.581888199E0,-4.053507328E0,1.558672905E0
7.776643055E1,-8.760651588E0,-3.340013266E0,1.594586968E0
7.781643062E1,-8.341653824E0,-2.073441982E0,1.537124395E0
7.786643064E1,-7.733507633E0,-4.309694767E-1,1.956122518E0
7.791843057E1,-8.128562927E0,2.705530524E-1,1.855562925E0
7.796843060E1,-7.855615616E0,6.440598965E-1,2.506805658E0
7.802043056E1,-7.130150318E0,9.720755816E-1,3.126922846E0
7.807043059E1,-8.008849144E0,5.315290093E-1,4.357580185E0
7.812243059E1,-1.017087936E1,4.597007632E-1,3.469304085E0
7.817243061E1,-1.127224541E1,2.083019018E-1,4.055901527E0
7.822443057E1,-1.048213482E1,6.680026650E-1,3.878725290E0
7.827443060E1,-1.070240879E1,1.462901950E0,3.634509087E0
7.832643060E1,-1.124590874E1,2.030344963E0,2.736656189E0
7.837843059E1,-1.387721634E1,3.227482557E0,1.077423692E0
7.843043058E1,-1.501449776E1,3.359167576E0,2.710319042E0
7.848243055E1,-1.521561623E1,3.301704884E0,5.288952827E0
7.853243057E1,-1.259388542E1,3.507612705E0,6.598621368E0
7.858443054E1,-1.010623360E1,3.684788942E0,1.016130257E1
7.863443056E1,-5.839636326E0,4.805309772E0,5.518803596E0
7.868643062E1,-3.732674360E0,1.623318315E0,5.327261448E0
7.873843059E1,-7.209161282E0,-4.417437077E0,-1.443747759E0
7.879043052E1,-4.915446281E0,-7.613793850E0,2.662433624E0
7.884243051E1,-5.616968632E0,-1.052044392E1,-1.467690468E0
7.889243067E1,-2.075836182E0,-5.042342663E0,-9.723150253E0
7.894443050E1,5.554717779E-1,4.539545059E0,-2.188606644E1
7.899643042E1,-6.306519985E0,6.510033131E0,-6.589044094E0
7.904643052E1,-1.823958588E1,1.525871372E1,-1.564179707E1
7.909643062E1,-7.161275864E0,1.831380844E1,-5.889915824E-1
7.914843040E1,-1.463620186E1,1.513421154E1,-4.884320498E-1
7.919843047E1,-8.018425941E0,1.290274715E1,5.640911579E0
7.924843067E1,-6.378347874E0,9.766246796E0,6.881145954E0
7.930043053E1,-3.787742853E0,7.288172722E0,7.989695072E0
7.935243039E1,-2.928198099E0,7.996877670E0,5.935407162E0
7.940243082E1,-1.805283189E0,7.953781128E0,5.367964268E0
7.945443054E1,1.187560320E0,6.629746914E0,7.503657341E0
7.950643037E1,-1.687963724E0,8.095043182E0,7.149304390E0
7.955643060E1,-1.297696948E0,1.008468533E1,8.348835945E0
7.960643063E1,7.518022656E-1,1.203601933E1,7.946598053E0
7.965843055E1,7.498868465E0,1.664739227E1,4.604190350E0
7.970843062E1,1.587404156E1,2.403612518E1,-2.889889717E0
7.975843064E1,1.781340480E0,9.629773140E0,1.480140686E1
7.981043041E1,-2.939451218E1,-5.518803596E0,6.893116951E0
7.986043074E1,1.345582485E0,-1.610628700E1,-9.648927450E-1
7.991243060E1,4.280963421E0,-1.894350243E1,8.401510239E0
7.996443042E1,1.675992370E0,-6.007235527E0,3.833234072E0
8.001443046E1,5.530774593E-1,7.374366522E-1,1.331216812E0
8.006443068E1,-2.389486313E0,-3.806896806E-1,5.688796997E0
8.011643041E1,-1.558672905E0,-2.418217659E0,9.416683197E0
8.016843041E1,-7.230709791E-1,-3.658451796E0,9.241900444E0
8.021843050E1,-4.321666241E0,-5.059102535E0,1.042946148E1
8.027043039E1,-6.404685020E0,-5.365570068E0,8.710371971E0
8.032043059E1,-8.727131844E0,-6.581861496E0,8.219545364E0
8.037243062E1,-1.051565456E1,-7.829278469E0,7.843644142E0
8.042443048E1,-1.389637089E1,-6.668055534E0,5.260221958E0
8.047643041E1,-1.447578526E1,-2.937775135E0,2.123721838E0
8.052843036E1,-1.210305882E1,-2.703136206E0,1.031932473E0
8.057843046E1,-1.120520592E1,1.197137404E-2,3.256213665E-1
8.063043032E1,-1.027862167E1,-3.478881359E0,2.849186957E-1
8.068043038E1,-9.031204224E0,-5.734288216E0,1.249811411E0
8.073043054E1,-7.913078308E0,-7.884346962E0,1.175588965E0
8.078243048E1,-8.480521202E0,-8.794171333E0,1.403045058E0
8.083443030E1,-8.291373253E0,-7.405491829E0,1.197137404E-2
8.088643030E1,-9.615407944E0,-6.313702583E0,7.302538157E-1
8.093643036E1,-9.435836792E0,-3.536343813E0,8.164477348E-1
8.098843029E1,-9.103033066E0,-3.098191500E0,1.199531674E0
8.104043028E1,-8.997684479E0,-5.746259540E-2,2.305686712E0
8.109043045E1,-9.466962814E0,1.771763325E0,2.138087511E0
8.114243031E1,-1.137998772E1,3.383110285E0,2.387091875E0
8.119243060E1,-1.126506329E1,3.926610708E0,2.947352171E0
8.124443023E1,-1.309428883E1,3.921822071E0,3.342407703E0
8.129643026E1,-1.119802284E1,4.331243038E0,1.869928598E0
8.134843025E1,-6.648900986E0,5.724710941E0,3.581835032E0
8.140043025E1,-2.384697676E0,6.016812801E0,2.494834423E0
8.145043034E1,-3.814079762E0,4.357580185E0,3.785348415E0
8.150243020E1,-5.758230686E0,3.502824068E0,-2.298503816E-1
8.155243037E1,-5.008822918E0,2.185972929E0,2.612153769E0
8.160443023E1,-3.191568375E0,3.759011328E-1,-1.077423692E0
8.165643022E1,-6.356799603E0,-4.948966026E0,-1.122914910E0
8.170843022E1,-1.337202454E1,-1.485886955E1,-8.640937805E0
8.176043021E1,-1.451648808E1,-9.469356537E0,-1.415016365E1
8.181043034E1,-2.753416002E-1,1.610628700E1,1.157631874E1
8.186243027E1,-1.832817459E1,4.726298332E0,3.201145411E0
8.191443020E1,-9.833286285E0,1.193067169E1,1.096338463E1
8.196443049E1,-1.494027519E1,1.205756760E1,8.640937805E0
8.201643022E1,-8.279402733E0,7.422251701E0,-5.913859010E-1
8.206643025E1,6.557918549E0,3.711125851E0,5.703162670E0
8.211843014E1,-6.816500187E0,4.039141655E0,5.099805355E0
8.216843017E1,-4.163643837E0,5.423032284E0,9.818921089E0
8.221843030E1,-4.158855438E0,5.791750908E0,9.634561539E0
8.227043019E1,-4.601796150E0,5.619362831E0,1.104718399E1
8.232243016E1,8.308133483E-1,7.984906673E0,1.333371639E1
8.237243036E1,1.042946148E1,1.340075588E1,1.583812809E1
8.242243045E1,2.518298149E1,1.982459450E1,7.211555958E0
8.247443021E1,6.603409767E0,4.812492430E-1,1.019721603E1
8.252443037E1,-2.786935806E1,-1.328583050E1,2.973689318E0
8.257443040E1,-1.618529797E0,-1.793551254E1,9.933846474E0
8.262636786E1,-2.928198099E0,-1.139435387E1,6.603409767E0
8.267636802E1,1.393467903E0,-2.231464148E0,4.333637357E-1
8.272636812E1,9.960182905E-1,1.436564922E0,8.164477348E-1
8.277836808E1,2.490045726E-1,1.438959122E0,4.647287369E0
8.283036787E1,1.491633177E0,-6.320885420E-1,7.506051540E0
8.288036807E1,1.704723716E0,-1.110943556E0,1.026665020E1
8.293236780E1,-9.433442950E-1,-3.351984620E-1,9.150918007E0
8.298236790E1,-4.285751820E0,-2.145270348E0,9.172467232E0
8.303236792E1,-6.943397045E0,-3.081431627E0,8.954587936E0
8.308436788E1,-1.040312386E1,-3.986467600E0,7.130150318E0
8.313636791E1,-1.330977345E1,-5.097411156E0,5.959350109E0
8.318836794E1,-1.395383358E1,-4.257020473E0,4.120546818E0
8.324036787E1,-1.351328659E1,-2.384697676E0,2.932986736E0
8.329236786E1,-1.216530991E1,-1.161223292E0,2.320052385E0
8.334436789E1,-1.188039207E1,-1.259388566E0,2.490045786E0
8.339436805E1,-1.095859623E1,-2.202732801E0,2.262589693E0
8.344636781E1,-1.028580475E1,-3.351984739E0,2.660039425E0
8.349636791E1,-9.885960579E0,-4.319271564E0,2.229069948E0
8.354836780E1,-1.027862167E1,-4.771789551E0,1.889082789E0
8.359836783E1,-1.004398251E1,-4.925023079E0,1.027143836E0
8.364836789E1,-8.418270111E0,-4.194769382E0,9.098244309E-1
8.370036782E1,-6.895511627E0,-3.136499882E0,1.192348838E0
8.375236775E1,-6.866780281E0,-2.743839025E0,1.000806928E0
8.380236778E1,-6.756643295E0,-2.178790092E0,1.446141958E0
8.385236790E1,-7.568302631E0,-1.362342358E0,1.889082789E0
8.390436770E1,-8.813325882E0,-1.711906433E0,2.600182533E0
8.395436786E1,-9.660899162E0,-5.099805593E-1,2.588211060E0
8.400636775E1,-1.120281219E1,-3.878725171E-1,2.964112282E0
8.405836775E1,-1.249811459E1,1.087000728E0,3.981678963E0
8.411036774E1,-1.378623390E1,2.071047783E0,4.869955063E0
8.416236770E1,-1.640796471E1,2.566662550E0,6.378347874E0
8.421236784E1,-1.360187531E1,3.256213665E0,7.228315830E0
8.426436773E1,-1.565616322E1,2.873129845E0,5.221913338E0
8.431436775E1,-1.463859653E1,3.861965179E0,-1.625712633E0
8.436636775E1,-1.118605232E1,4.745452881E0,-3.682394743E0
8.441836771E1,-4.905869007E0,5.367964268E0,-1.759791970E0
8.447036770E1,-2.343995094E0,3.620143414E0,7.996878028E-1
8.452236770E1,6.081457734E-1,3.136500120E-1,1.647261024E0
8.457436770E1,3.011997700E0,-8.602629662E0,5.154873848E0
8.462436772E1,-7.139727592E0,-1.395862198E1,-1.580221415E0
8.467636768E1,2.221887112E0,-1.132491970E1,-7.252976990E1
8.472836768E1,2.365543604E0,5.166366196E1,1.289795876E1
8.478036767E1,-3.239453793E0,1.253402901E1,1.288598728E1
8.483236763E1,-1.691794586E1,1.385806274E1,-1.508393139E-1
8.488236767E1,-3.019180536E0,1.263937664E1,1.007750225E1
8.493236769E1,-6.002447128E0,7.541965485E0,1.198334503E1
8.498436762E1,-2.988054991E0,6.818894863E0,9.967366219E0
8.503436775E1,-2.652856588E0,7.173247337E0,9.296969414E0
8.508636761E1,-2.372726440E0,5.983292580E0,9.735121727E0
8.513636767E1,-7.805336118E-1,6.258634567E0,1.033847904E1
8.518636770E1,9.553156495E-1,6.945791245E0,1.133928585E1
8.523636773E1,2.142875910E0,9.105426788E0,1.212939644E1
8.528836756E1,8.214756966E0,1.408073044E1,1.350849819E1
8.533836789E1,1.838324165E1,2.066977501E1,4.546727657E0
8.539036771E1,1.637444496E1,9.605830193E0,5.418243885E0
8.544236754E1,-2.944000244E1,-1.807677460E1,2.649743843E1
8.549236784E1,-1.053002071E1,-1.713821983E1,3.521978140E0
8.554236786E1,-5.961744189E-1,-1.631219482E1,8.054340363E0
8.559436759E1,3.706337452E0,-4.331243038E0,2.681587696E0
8.564436776E1,1.735849261E0,-3.735068738E-1,2.442160368E0
8.569436782E1,1.915419817E0,-1.005595401E-1,5.013611317E0
8.574636754E1,3.756617069E0,-4.692778587E-1,8.288979530E0
8.579636768E1,4.156461239E0,-1.699935049E-1,1.041749001E1
8.584836770E1,-1.388679445E-1,-1.941756845E0,9.517242432E0
8.589836776E1,-4.544333458E0,-4.601796150E0,8.995290756E0
8.595036756E1,-9.069513321E0,-5.858790398E0,9.002472878E0
8.600036775E1,-1.185166073E1,-6.481301785E0,6.385530949E0
8.605236758E1,-1.320681953E1,-6.608198643E0,5.650488377E0
8.610236761E1,-1.194743156E1,-4.498842239E0,4.182797909E0
8.615436760E1,-1.156913567E1,-3.713520288E0,3.533949614E0
8.620636757E1,-1.016848469E1,-2.461314440E0,3.196356773E0
8.625836750E1,-1.056354046E1,-2.372726440E0,2.513988495E0
8.630836756E1,-1.130337143E1,-3.531555414E0,2.473285913E0
8.635836762E1,-1.118126297E1,-4.489265442E0,2.542719841E0
8.640836764E1,-1.030256462E1,-4.419831276E0,2.516382933E0
8.646036754E1,-1.049650097E1,-4.647287369E0,1.642472506E0
8.651236750E1,-1.059706020E1,-3.737462997E0,1.513181686E0
8.656436750E1,-8.348835945E0,-2.099778891E0,1.855562925E0
8.661636750E1,-7.252258301E0,-1.161223292E0,2.276955366E0
8.666836746E1,-6.701575279E0,-5.267404765E-2,3.083826065E0
8.671836752E1,-7.391126156E0,6.440598965E-1,3.366350412E0
8.677036748E1,-8.676852226E0,1.158828974E0,4.941783428E0
8.682036764E1,-1.084367085E1,1.417410731E0,5.384724140E0
8.687036780E1,-1.189236259E1,2.128510237E0,4.558699131E0
8.692236743E1,-1.302964306E1,3.392687321E0,2.806090117E0
8.697236749E1,-1.236164093E1,4.216318130E0,4.075055599E0
8.702436745E1,-1.359229851E1,3.105374336E0,3.019180536E0
8.707436755E1,-1.160026169E1,3.050306082E0,3.323253393E0
8.712436757E1,-1.068325424E1,3.639297724E0,3.196356773E0
8.717636740E1,-7.752661705E0,4.846012115E0,4.395888329E0
8.722836740E1,-6.433416367E0,5.413455486E0,3.227482557E0
8.727836742E1,-1.503604531E0,5.068679810E0,3.004814863E0
8.733036742E1,3.639297783E-1,1.096577883E0,1.881899953E0
8.738036748E1,-2.956929445E0,-9.359220505E0,4.707144260E0
8.743236741E1,-7.805335999E0,-8.533195496E0,9.098244458E-2
8.748436734E1,-7.192401409E0,-1.718610382E1,-5.853283691E1
8.753436760E1,7.439012051E0,4.935079193E1,5.095016956E0
8.758636749E1,7.338452339E0,1.203123093E1,3.332830429E0
8.763836735E1,-6.612987041E0,1.530181026E1,-2.142875910E0
8.768836738E1,-1.733454943E0,1.281176472E1,7.245075703E0
8.774036731E1,-1.783734679E0,1.206475067E1,7.551542759E0
8.779036734E1,2.226675600E-1,9.488511086E0,6.117372036E0
8.784036770E1,-2.494834423E0,9.349642754E0,6.553130150E0
8.789236763E1,-2.188367128E0,1.031214142E1,7.802941799E0
8.794436739E1,-1.324033976E0,9.984126091E0,7.242681503E0
8.799436755E1,-3.399870098E-1,9.763853073E0,6.818894863E0
8.804636744E1,9.074301720E-1,1.336963081E1,9.035993576E0
8.809636754E1,1.175588965E0,1.828507614E1,7.154093266E0
8.814636760E1,6.924242973E0,2.413668442E1,1.939362586E-1
8.819836750E1,1.107352066E1,2.553015137E1,-5.267404318E-1
8.825036745E1,-9.881172180E0,1.968093872E0,1.691555214E1
8.830236725E1,-2.455807686E1,-1.203123093E1,-2.688052368E1
8.835236758E1,4.788549617E-3,-1.831141281E1,1.184926605E1
8.840436738E1,-1.326428294E0,-1.054678059E1,3.969707727E0
8.845436744E1,2.399063349E0,5.602602959E-1,3.363956213E0
8.850436747E1,4.309694767E-1,3.146077156E0,3.079037428E0
8.855636733E1,-2.389486313E0,-1.067846537E0,7.110996246E0
8.860636749E1,1.197137386E-1,-1.182771802E0,8.901913643E0
8.865636765E1,-1.632895470E0,-2.272166729E0,9.141341209E0
8.870836731E1,-4.139701366E0,-3.241847992E0,8.686429024E0
8.875836734E1,-6.538764477E0,-4.965725899E0,8.681640625E0
8.881036730E1,-1.010623360E1,-6.323279858E0,9.984126091E0
8.886236726E1,-1.319484806E1,-7.125361919E0,6.095823765E0
8.891436726E1,-1.401608467E1,-5.830059052E0,3.804502726E0
8.896436729E1,-1.433212948E1,-4.142095566E0,1.187560320E0
8.901436731E1,-1.287640953E1,-2.542719841E0,3.136500120E-1
8.906636720E1,-1.252923965E1,-2.916226625E0,2.801301479E-1
8.911636727E1,-1.206235695E1,-2.923409462E0,3.064671755E-1
8.916836723E1,-1.096817303E1,-2.710319042E0,4.094209969E-1
8.922036719E1,-1.063297462E1,-3.605777979E0,4.477293789E-1
8.927236719E1,-1.069283104E1,-4.829252243E0,6.775797606E-1
8.932436704E1,-9.838075638E0,-5.485283375E0,1.175588965E0
8.937436718E1,-8.645726204E0,-5.470917702E0,1.496421814E0
8.942436720E1,-8.042368889E0,-5.466129303E0,1.865140080E0
8.947436723E1,-7.494080067E0,-4.520390987E0,1.944151163E0
8.952436746E1,-6.708757877E0,-3.095797300E0,2.466103077E0
8.957636719E1,-7.448588848E0,-2.327235222E0,3.122134447E0
8.962836718E1,-7.865192890E0,-1.139674783E0,3.668029070E0
8.968036718E1,-8.176448822E0,-4.788549617E-2,4.328848839E0
8.973036727E1,-8.894730568E0,6.225114465E-1,3.363956213E0
8.978036736E1,-1.001046276E1,4.501236677E-1,2.387091875E0
8.983236716E1,-1.128900528E1,1.039115310E0,2.154847383E0
8.988236722E1,-1.170082092E1,2.111750364E0,1.941756845E0
8.993245704E1,-1.169842625E1,2.978477955E0,3.071854591E0
8.998445691E1,-1.484210968E1,4.565882206E0,1.486844659E0
9.003445697E1,-9.019232750E0,4.597007751E0,2.269772530E0
9.008645689E1,-5.231490612E0,7.295355320E0,4.391099930E0
9.013845686E1,-4.295329094E0,6.706363678E0,8.834874034E-1
9.018845702E1,-3.967313290E0,4.173221111E0,3.016786337E0
9.023845721E1,-4.223500729E0,2.516382933E0,-4.692778587E-1
9.029045691E1,-3.011997700E0,-2.932986736E0,1.321639657E0
9.034045707E1,-9.385557175E0,-1.985093307E1,-7.721536160E0
9.039245693E1,-6.493273258E0,-8.039975166E0,-6.969734192E0
9.044445676E1,-1.296499825E1,-9.589070320E0,-2.490045738E1
9.049445706E1,-1.633613777E1,2.030584526E1,-2.817582512E1
9.054645702E1,-1.793311882E1,8.425453186E0,9.505270720E-1
9.059845694E1,-1.523955917E1,6.074275017E0,3.208328187E-1
9.065045684E1,-1.399214172E1,5.054314137E0,-1.752609134E0
9.070045700E1,-1.490196609E1,4.206740856E0,1.678386688E0
9.075245683E1,-1.412382698E1,4.348002911E0,1.917814136E0
9.080245703E1,-9.529213905E0,3.747040033E0,-9.553156495E-1
9.085445702E1,-4.094209969E-1,3.567469358E0,8.667274714E-1
9.090645678E1,2.408640385E0,9.337671995E-1,1.217967606E1
9.095645715E1,-3.057488918E0,3.565075159E0,7.484503269E0
9.100645717E1,-4.541939259E0,3.134105682E0,7.807730198E0
9.105845677E1,-3.445361376E0,4.280963421E0,8.703188896E0
9.110845690E1,-1.599375606E0,5.104593754E0,9.196409225E0
9.115845696E1,7.709565163E-1,8.121379852E0,1.230178356E1
9.121045675E1,5.334444046E0,1.138477707E1,1.451888275E1
9.126245678E1,1.397059345E1,1.517251968E1,6.696786404E0
9.131245694E1,1.529941559E1,1.304400921E1,4.635315895E0
9.136445697E1,-6.031178474E0,-7.070293427E0,1.270641613E1
9.141645673E1,-1.635289764E1,-3.921822071E0,-2.995237827E0
9.146645683E1,9.644139290E0,-9.713572502E0,-4.860377908E-1
9.151845669E1,1.019961119E0,-1.861069870E1,1.107352066E1
9.156845675E1,3.711125851E-1,-3.940976381E0,2.731867552E0
9.161845685E1,6.703969836E-2,-8.164477348E-1,1.589798450E0
9.167045684E1,-2.669616461E0,-2.875524044E0,5.478100777E0
9.172245674E1,-5.818088055E-1,-4.479688168E0,7.525205612E0
9.177445673E1,1.393467903E0,-5.636122704E0,8.777411461E0
9.182445679E1,-1.098972082E0,-7.410280704E0,9.747093201E0
9.187645679E1,-3.885908127E0,-9.012050629E0,8.011243820E0
9.192845672E1,-8.882759094E0,-1.245022869E1,9.265843391E0
9.197845691E1,-1.299851799E1,-1.173194695E1,5.013611317E0
9.203045674E1,-1.462183666E1,-6.773403645E0,1.120520592E0
9.208245667E1,-1.313020325E1,-3.354378939E0,1.077423692E0
9.213245669E1,-1.020679379E1,-1.146857619E0,6.241874218E0
9.218445669E1,-1.101605797E1,-1.601769805E0,8.020820618E-1
9.223445672E1,-1.059227180E1,-2.269772530E0,3.950553536E-1
9.228645665E1,-1.152843285E1,-5.631334305E0,3.208328187E-1
9.233645668E1,-1.333611107E1,-7.017619610E0,6.201171875E-1
9.238845667E1,-1.158829021E1,-6.636929989E0,-1.532335877E-1
9.243845673E1,-9.720755577E0,-5.743865490E0,3.280156553E-1
9.249045659E1,-8.126168251E0,-5.207547665E0,4.836435020E-1
9.254045669E1,-7.462954521E0,-4.802915096E0,1.106154919E0
9.259245665E1,-6.845231533E0,-3.708731651E0,1.336005330E0
9.264445661E1,-6.517216206E0,-2.832427025E0,1.122914910E0
9.269445677E1,-7.302538395E0,-2.217098475E0,2.068653345E0
9.274645657E1,-7.685622215E0,-9.888355136E-1,2.044710636E0
9.279645667E1,-8.329682350E0,-2.442160249E-1,2.856369734E0
9.284645693E1,-9.273026466E0,1.161223292E0,2.736656189E0
9.289845678E1,-9.632167816E0,2.636096478E0,1.589798450E0
9.295045665E1,-1.049410629E1,2.102173328E0,1.295302629E0
9.300045678E1,-1.195940304E1,2.741444588E0,6.584255695E-1
9.305245667E1,-1.439198589E1,2.102173328E0,3.471698463E-1
9.310445660E1,-1.205756760E1,4.357580185E0,1.738243461E0
9.315645659E1,-1.138956547E1,5.054314137E0,1.838803053E0
9.320645669E1,-1.150449085E1,4.802915096E0,1.664021015E0
9.325845655E1,-8.423058510E0,5.614574432E0,2.308080912E0
9.330845675E1,-6.067092419E0,5.830059052E0,2.621730804E0
9.336045668E1,-3.672817469E0,5.858790398E0,3.423812866E0
9.341245657E1,-1.465296149E0,3.395081758E0,1.350371003E0
9.346245674E1,-2.523565531E0,-2.123721838E0,3.141288519E0
9.351245680E1,-4.606584549E0,-9.081484795E0,-2.121327400E0
9.356445666E1,-9.148524284E0,-7.558725357E0,-2.039922237E0
9.361445682E1,-1.577827096E0,-2.326995659E1,-6.431022167E0
9.366445688E1,-2.542719841E0,2.372008133E1,-5.485283375E0
9.371645651E1,-1.367130876E0,1.621402931E1,1.299133492E1
9.376645664E1,-2.813272953E0,1.172476387E1,1.251726913E1
9.381645673E1,-4.573064804E0,9.610619545E0,1.091549873E1
9.386845649E1,-5.279376030E0,8.288979530E0,9.320911407E0
9.392045656E1,-3.598595142E0,6.929031372E0,8.277008057E0
9.397045662E1,-2.693559170E0,5.566689014E0,8.607418060E0
9.402045668E1,-2.145270348E0,4.905869007E0,9.608224869E0
9.407245661E1,2.944957912E-1,4.594613552E0,8.265036583E0
9.412245667E1,-3.567469418E-1,5.339232922E0,1.014933109E1
9.417445642E1,1.417410731E0,6.888328552E0,1.137759399E1
9.422445649E1,9.342460632E0,1.098253822E1,1.457634544E1
9.427645648E1,2.084695053E1,2.037048912E1,6.840443134E0
9.432645661E1,1.628825188E1,1.028819847E1,1.143026829E1
9.437845648E1,-2.272166824E1,-1.379341698E1,2.587014008E1
9.442845664E1,-1.375989723E1,-1.428663731E1,1.723877788E-1
9.448045646E1,-5.705556870E0,-1.319724274E1,4.857983589E0
9.453245646E1,1.963305354E0,-5.784567833E0,4.266597748E0
9.458245652E1,2.731867552E0,-1.889082789E0,5.145296574E0
9.463245662E1,1.850774407E0,-4.213923812E-1,6.294548512E0
9.468445648E1,2.554691315E0,-1.053480864E0,8.114197731E0
9.473645647E1,6.296942830E-1,-1.573038578E0,8.219545364E0
9.478845643E1,-2.707924843E0,-3.725491524E0,9.356825829E0
9.483845656E1,-5.300924301E0,-4.709538460E0,9.749486923E0
9.489045642E1,-8.631361008E0,-7.391126156E0,1.035763264E1
9.494245642E1,-1.064255142E1,-6.253845692E0,7.036773682E0
9.499445638E1,-1.289556408E1,-5.774991035E0,5.169239521E0
9.504445648E1,-1.377186871E1,-3.988861799E0,2.509200096E0
9.509645637E1,-1.346061325E1,-1.898659945E0,1.544307232E0
9.514645643E1,-1.310865498E1,-1.474873304E0,1.209108829E0
9.519845643E1,-1.199052811E1,-1.968093872E0,1.857957244E0
9.525045635E1,-1.087719059E1,-2.853975534E0,1.592192769E0
9.530045655E1,-1.059466648E1,-3.749434233E0,1.774157643E0
9.535245641E1,-1.044382668E1,-4.156461239E0,1.158828974E0
9.540445637E1,-1.071916866E1,-4.913052082E0,1.149251938E0
9.545445640E1,-1.071437931E1,-5.121353626E0,1.632895470E0
9.550645640E1,-1.062579155E1,-5.351204395E0,2.695953369E0
9.555645666E1,-8.403904915E0,-4.235472202E0,3.543526649E0
9.560845649E1,-6.617775440E0,-2.427794695E0,5.808510780E0
9.566045641E1,-5.080651283E0,1.077423692E-1,6.986494064E0
9.571245631E1,-6.601015568E0,2.257801056E0,7.518023014E0
9.576245637E1,-8.037580490E0,3.711125851E0,5.367964268E0
9.581245647E1,-8.705583572E0,4.158855438E0,5.770202160E0
9.586245669E1,-5.739076614E0,5.525986195E0,5.185999393E0
9.591445629E1,-5.243461728E-1,5.712739468E0,4.716721535E0
9.596445655E1,2.358360767E0,4.666441441E0,5.985687256E0
9.601645651E1,-3.023969173E0,-7.278595567E-1,3.663240373E-1
9.606845628E1,-9.967366219E0,-4.996851444E0,-7.398309231E0
9.611845647E1,-1.181814003E1,-1.482534981E1,-1.159307861E1
9.616845660E1,-8.731920242E0,-1.137759399E1,-3.960130453E0
9.622045636E1,-4.592218876E0,-3.164991951E1,2.222126389E1
9.627045639E1,-9.933846474E0,1.636726189E1,1.387242794E1
9.632045651E1,-2.137608528E1,-1.932179809E0,2.753416002E-1
9.637245621E1,-1.810790062E1,4.611373425E0,1.869928598E0
9.642245641E1,-1.783255959E1,2.762993097E0,-1.170800328E0
9.647245647E1,-1.673358727E1,4.956148863E-1,-1.122914910E0
9.652445623E1,-1.344145870E1,5.794144869E-1,-2.753416002E-1
9.657640006E1,-1.258191395E1,1.316851079E-1,1.221080184E0
9.662640008E1,-1.167687798E1,7.613793612E-1,9.984126091E-1
9.667839998E1,-9.004867554E0,6.560313106E-1,6.488484740E-1
9.673040001E1,-5.944984436E0,1.000806928E0,1.522758722E0
9.678040007E1,-3.653663397E0,2.406246185E0,4.486870766E0
9.683240003E1,-2.202732801E0,1.625712633E0,8.971347809E0
9.688439996E1,-4.608979225E0,2.839609861E0,6.531581879E0
9.693439999E1,-3.320859194E0,2.892283916E0,6.921848297E0
9.698440005E1,-3.981678963E0,2.133298874E0,6.960156918E0
9.703639997E1,-2.399063349E0,4.484476566E0,7.429434776E0
9.708839990E1,-6.249057055E-1,4.613767624E0,7.441406250E0
9.713840000E1,5.746259689E-1,4.987274647E0,9.445414543E0
9.719039996E1,2.214704275E0,6.553130150E0,1.246459484E1
9.724239996E1,9.141341209E0,9.687235832E0,1.590516758E1
9.729439992E1,2.113905144E1,1.657556534E1,1.507674885E1
9.734639992E1,1.690597534E1,6.845231533E0,8.968953133E0
9.739839991E1,-2.013345718E1,-7.757450581E0,2.085652733E1
9.745039990E1,-3.895485163E0,-1.443987179E1,-3.062277555E0
9.750239987E1,-7.182824612E-1,-1.499534321E1,8.344047546E0
9.755239989E1,6.392713785E-1,-5.600208759E0,3.545921087E0
9.760439989E1,2.411034822E0,4.836435020E-1,3.153259993E0
9.765639985E1,-6.919454336E-1,2.298503816E-1,3.747040033E0
9.770639991E1,1.331216812E0,-7.110996246E-1,6.313702583E0
9.775839984E1,2.303292274E0,-6.129343510E-1,9.304151535E0
9.780839990E1,1.556278616E-1,-1.529941559E0,1.064015770E1
9.786039986E1,-3.189173937E0,-3.397475958E0,1.059706020E1
9.791239982E1,-9.864412308E0,-6.859597206E0,9.471751213E0
9.796239985E1,-1.168884945E1,-4.431802750E0,9.407105446E0
9.801239988E1,-1.300809479E1,-4.391099930E0,7.283383846E0
9.806439988E1,-1.139195919E1,-2.178790092E0,6.577073097E0
9.811639987E1,-1.186842060E1,-2.308080912E0,3.639297724E0
9.816839983E1,-1.143505669E1,-7.709565163E-1,2.509200096E0
9.821839986E1,-1.076944828E1,-1.333611012E0,2.375120640E0
9.826839993E1,-9.802161217E0,-1.642472506E0,2.391880512E0
9.832039985E1,-1.014214802E1,-2.935380936E0,2.190761566E0
9.837239981E1,-9.433443069E0,-3.620143414E0,2.135693073E0
9.842439981E1,-8.581081390E0,-3.505218267E0,2.880312681E0
9.847440004E1,-8.724737167E0,-3.608172178E0,2.755810261E0
9.852639986E1,-8.751074791E0,-2.284138203E0,4.419831276E0
9.857839980E1,-9.581888199E0,-5.051919818E-1,4.855589390E0
9.862839993E1,-1.099211597E1,1.580221415E0,4.280963421E0
9.868039982E1,-1.287640953E1,3.648874760E0,5.248250484E0
9.873239975E1,-1.166730118E1,2.758204460E0,9.107821465E0
9.878239988E1,-1.000567436E1,2.724684715E0,1.137519932E1
9.883439980E1,-9.256266594E0,2.399063349E0,9.909903526E0
9.888639973E1,-7.453377247E0,3.035940409E0,6.325674057E0
9.893639993E1,-4.618556023E0,3.383110285E0,3.047911882E0
9.898839989E1,-5.260221958E0,1.649655342E0,-3.878725171E-1
9.904039978E1,-3.320859194E0,-6.464541703E-2,-6.775797606E-1
9.909239978E1,-5.243461728E-1,-3.361561775E0,5.195576549E-1
9.914239987E1,-4.091815472E0,-6.859597206E0,-2.154847234E-2
9.919439967E1,-3.885908127E0,-8.686429024E0,-1.968093872E0
9.924439996E1,-1.295063210E1,-1.138477707E1,-1.283810139E1
9.929639989E1,-5.006428719E0,2.415823221E0,-1.357553864E1
9.934839968E1,-2.891805077E1,1.479661822E0,-1.307992363E1
9.939839992E1,-1.615417290E1,4.058295727E0,-2.415823221E0
9.945039984E1,-2.603055573E1,6.991282463E0,-5.573871613E0
9.950239967E1,-1.851971626E1,1.025707340E1,-4.616161823E0
9.955239987E1,-1.442790031E1,6.644112587E0,-2.059076279E-1
9.960439986E1,-1.029538155E1,5.631334305E0,2.528354168E0
9.965639969E1,-8.482915878E0,4.031958580E0,8.427847624E-1
9.970639979E1,-5.315289974E0,3.143682718E0,9.074301720E-1
9.975639984E1,-1.173194647E-1,3.548315287E0,2.178790122E-1
9.980839967E1,-1.841197371E0,3.184385538E0,9.873989105E0
9.985839977E1,-1.501210332E0,7.154093266E0,6.246663094E0
9.990839986E1,2.116539001E0,1.205756760E1,1.129139996E1
9.996039966E1,6.114977837E0,1.527547359E1,7.549148560E0
1.000123997E2,1.424114609E1,2.346389389E1,-1.757397652E0
1.000623998E2,6.167652130E0,1.155716419E1,6.854808807E0
1.001123998E2,-2.285095787E1,-6.112583637E0,1.068325424E1
1.001643997E2,-1.604164124E0,-2.766823959E1,-7.515628815E0
1.002163997E2,1.019003391E1,-2.777598190E1,1.936968327E0
1.002683997E2,2.751021862E0,-8.755863190E0,2.849187136E0
1.003203996E2,-1.819648892E-1,-6.378347874E0,2.351177931E0
1.003703997E2,-1.125309169E-1,2.083019018E0,3.742251635E0
1.004203997E2,-2.688770533E0,-3.490852594E0,7.824490070E0
1.004723996E2,-3.974496126E-1,-7.252258301E0,1.098493290E1
1.005243996E2,-9.672870040E-1,-7.625765324E0,1.366652107E1
1.005743996E2,-4.939388752E0,-9.311334610E0,1.056593513E1
1.006263996E2,-1.002722263E1,-8.571503639E0,8.796566010E0
1.006763997E2,-1.268007946E1,-5.909070015E0,5.751048088E0
1.007283997E2,-1.311823177E1,-4.819674969E0,5.609786034E0
1.007783997E2,-1.191151714E1,-3.483669758E0,2.746233225E0
1.008283997E2,-1.082930470E1,-3.921822071E0,4.223500729E0
1.008803997E2,-8.959376335E0,-3.723097324E0,3.205934048E0
1.009323996E2,-1.029777622E1,-5.344021320E0,3.275367975E0
1.009823997E2,-1.274711895E1,-5.662459850E0,1.726272106E0
1.010343996E2,-1.109506989E1,-4.446168423E0,2.049499273E0
1.010863995E2,-1.197616291E1,-3.047911882E0,2.178790092E0
1.011383994E2,-1.333611107E1,7.709565163E-1,2.308080912E0
1.011883996E2,-1.242149734E1,3.304099321E0,7.350423932E-1
1.012383997E2,-1.250529766E1,4.443774223E0,8.332076073E-1
1.012903995E2,-9.998491287E0,5.650488377E0,2.083019018E-1
1.013403996E2,-6.572284222E0,7.087053299E0,-8.523618579E-1
1.013923994E2,-3.088614464E0,3.790137053E0,1.510787368E0
1.014423995E2,-1.556278586E0,4.788549617E-2,2.681587934E-1
1.014923996E2,2.178790122E-1,-2.396669149E0,-2.988054991E0
1.015443996E2,9.720755816E-1,-1.070480251E1,-1.132731438E1
1.015943997E2,-5.085439682E0,-1.477507019E1,-1.182292938E1
1.016463994E2,-2.434977531E0,-3.972820282E1,2.879833794E1
1.016963996E2,-1.105676079E1,5.181210518E0,6.651295185E0
1.017463999E2,-1.833056831E1,-6.727912426E0,9.371191978E0
1.017983995E2,-2.691883087E1,-7.946598053E0,3.435784340E0
1.018503994E2,-2.280546761E1,-6.126949310E0,6.988888264E0
1.019003997E2,-2.161551285E1,-3.550709486E0,3.069460392E0
1.019523995E2,-1.941996384E1,-3.170019865E0,3.696760416E0
1.020043995E2,-1.514378834E1,-1.723877907E0,4.051113129E0
1.020543997E2,-1.171518707E1,-2.341600657E0,2.490045786E0
1.021063996E2,-7.134938717E0,-1.407833576E0,1.596981287E0
1.021583994E2,-5.889915943E0,-7.063110471E-1,2.667222023E0
1.022083998E2,-6.021601200E0,-1.101366431E-1,5.789356709E0
1.022603997E2,-6.653689861E0,4.788549617E-3,5.976109982E0
1.023123994E2,-4.261809349E0,1.680780888E0,8.609811783E0
1.023623996E2,-3.119740009E0,4.156461239E0,1.050607777E1
1.024123997E2,6.782980442E0,9.251478195E0,8.818114281E0
1.024643995E2,2.031063271E1,1.244783497E1,7.048745155E0
1.025143995E2,1.993233871E1,8.832479477E0,8.288979530E0
1.025663995E2,-1.247896004E1,-6.763826370E0,2.550381470E1
1.026183993E2,-8.286584854E0,-7.699987888E0,-7.139727592E0
1.026683994E2,-7.158881426E-1,-9.773429871E0,7.450983047E0
1.027203994E2,3.064671755E-1,-4.247443676E0,3.658451796E0
1.027723993E2,4.980091453E-1,1.474873304E0,9.481328130E-1
1.028223996E2,-1.958516836E0,2.837215662E0,2.571451187E0
1.028743995E2,-3.126922846E0,4.884320498E-1,4.618556023E0
1.029243995E2,-4.237866402E0,-2.250618339E-1,5.197970390E0
1.029743996E2,-8.396721840E0,-3.282550812E0,6.081458092E0
1.030263993E2,-1.399214172E1,-3.112557173E0,6.938608170E0
1.030763995E2,-1.706399727E1,-5.858790398E0,2.815667152E0
1.031283995E2,-1.685090637E1,-2.818061352E0,2.899466753E0
1.031783995E2,-1.475591564E1,-3.902668059E-1,1.798100352E0
1.032303994E2,-1.481098366E1,8.619389534E-1,5.432609558E0
1.032823994E2,-1.159068394E1,-9.744698405E-1,-1.292908430E0
1.033343992E2,-1.219883060E1,1.769369125E0,1.336005330E0
1.033843994E2,-1.204799080E1,-2.612153769E0,1.544307232E0
1.034363993E2,-1.456916237E1,-3.076643229E0,-3.016786277E-1
1.034863993E2,-1.322357941E1,-3.395081758E0,6.967339516E-1
1.035383993E2,-1.033368969E1,-1.692752242E0,5.506832153E-2
1.035903992E2,-1.015651417E1,-1.410227895E0,2.197944164E0
1.036423992E2,-1.064733982E1,-1.005595401E-1,3.957736254E0
1.036923993E2,-1.254839420E1,4.606584549E0,1.836408734E0
1.037423993E2,-1.423875237E1,1.379102230E0,1.747820675E-1
1.037943993E2,-6.711152077E0,3.031152010E0,-9.936240315E-1
1.038444473E2,1.039115310E0,4.843617916E0,-5.435003638E-1
1.038964472E2,3.952947617E0,5.346415520E0,2.760598898E0
1.039484472E2,1.714300752E0,-5.554717779E-1,1.005595401E-1
1.040004472E2,-4.714327335E0,-5.344021320E0,-1.582615614E0
1.040504475E2,-4.443774223E0,-1.233290958E1,-6.232297421E0
1.041024473E2,-9.249083519E0,-1.501210308E1,-1.179419804E1
1.041544472E2,-3.105374336E0,2.954535007E0,-1.538082123E1
1.042044474E2,-2.870256615E1,-1.872322917E0,-2.774964523E1
1.042564473E2,-1.597939014E1,-7.139727592E0,-1.285725594E0
1.043084472E2,-2.340403557E1,-3.069460392E0,-9.043175697E0
1.043604472E2,-1.675513458E1,-3.256213665E0,-6.316096783E0
1.044104473E2,-1.639360046E1,-2.794118643E0,-3.526766777E0
1.044624472E2,-1.405678749E1,2.130904645E-1,-3.699154615E0
1.045144472E2,-1.079099655E1,-2.394274808E-3,-2.039922237E0
1.045644473E2,-1.230417824E1,3.639297783E-1,-1.130097747E0
1.046164472E2,-1.086761379E1,-8.858817071E-2,5.387118459E-1
1.046684472E2,-5.662459850E0,-5.889915824E-1,-1.747820675E-1
1.047184473E2,-7.817307472E0,8.236305118E-1,-5.602602959E-1
1.047704473E2,-9.146129489E-1,1.343188167E0,-7.470137477E-1
1.048224472E2,-9.888355136E-1,3.270579338E0,3.433390141E0
1.048724474E2,-1.685569525E0,2.597788095E0,6.141314983E0
1.049244472E2,-3.488458395E0,5.703162670E0,6.950579643E0
1.049764471E2,1.328822494E0,3.876330853E0,1.404481602E1
1.050264474E2,4.070267081E-2,8.566715240E0,1.303682613E1
1.050784473E2,8.885153770E0,1.267050266E1,1.404242134E1
1.051304471E2,1.741356087E1,1.841915703E1,1.038157558E1
1.051804474E2,1.422438622E1,1.592192769E0,1.374313736E1
1.052324472E2,-2.122764015E1,-1.051804924E1,8.770228386E0
1.052824473E2,-1.297696948E0,-2.610477829E1,7.515628815E0
1.053344471E2,-1.687963724E0,-1.234488106E1,4.388705730E0
1.053844474E2,-1.158828974E0,-4.721509933E0,-1.987248063E-1
1.054364472E2,-1.769369125E0,-2.092596292E0,2.978477955E0
1.054864473E2,-1.975276709E0,1.154040456E0,3.521978140E0
1.055364473E2,-9.696813226E-1,-1.757397652E0,6.454965115E0
1.055884472E2,2.858764172E0,-2.554691315E0,9.438231468E0
1.056384472E2,1.960911036E0,-3.536343813E0,1.113098335E1
1.056884472E2,-3.660846233E0,-7.218738556E0,1.072156239E1
1.057384473E2,-8.224333763E0,-6.646506786E0,9.217958450E0
1.057904471E2,-1.155716419E1,-5.978504181E0,6.081458092E0
1.058404471E2,-1.269923401E1,-6.409473896E0,5.214730740E0
1.058924471E2,-1.260825157E1,-3.744645834E0,2.509200096E0
1.059424471E2,-1.553884315E1,-3.263396502E0,1.719089270E0
1.059944471E2,-1.336963081E1,-2.207521439E0,8.260248303E-1
1.060464471E2,-1.200968266E1,-3.275367975E0,4.740664065E-1
