"Time (s)","Gyroscope x (rad/s)","Gyroscope y (rad/s)","Gyroscope z (rad/s)"
5.000094000E-2,-2.108141899E0,9.335058928E-1,-1.190134764E0
1.020009050E-1,-1.830198169E0,-4.946970046E-1,3.587184101E-2
1.520009310E-1,-1.249876142E0,-1.199024677E0,8.532095551E-1
2.040008910E-1,-5.107291341E-1,-2.387768269E0,1.109162092E0
2.560008840E-1,-2.753474936E-2,-4.069480419E0,1.349843025E0
3.080008820E-1,1.213743448E0,-7.458560944E0,4.714187682E-1
3.600008420E-1,3.355177492E-2,-4.449438572E0,-2.758225918E0
4.100009070E-1,-4.331492484E-1,1.678150654E0,-4.519350052E0
4.620008680E-1,4.428314865E-1,-6.858079910E0,-2.097880363E0
5.140008610E-1,2.178299665E0,1.361722589E0,-2.045346022E0
5.660008260E-1,1.881419182E0,4.879084587E0,3.567894697E0
6.180007540E-1,1.131276608E0,3.702558041E0,3.343096256E0
6.680008150E-1,-2.688265145E-1,2.273133516E0,2.440237522E0
7.180010450E-1,-7.611839175E-1,4.197682738E-1,2.274692774E0
7.700009060E-1,-1.214445949E0,4.759678543E-1,1.173303008E0
8.220008320E-1,-1.618227959E0,3.267011166E0,-5.759054050E-2
8.740007970E-1,-2.314614296E0,5.545538425E0,-1.465634942E0
9.240008910E-1,-2.229093075E0,5.900451183E0,-2.905444384E0
9.760007830E-1,-6.316804886E-1,6.397696018E0,-3.162618637E0
1.026000810E0,8.973152637E-1,5.383048534E0,-4.314099789E0
1.078000842E0,1.581484199E0,3.081918955E0,-3.771651030E0
1.128000903E0,1.288269043E0,1.766726255E0,-3.070377827E0
1.180000799E0,1.158154607E0,1.239549398E0,-2.023965836E0
1.230000996E0,1.127000570E0,7.386399508E-1,-8.199504018E-1
1.282000888E0,1.359129429E0,7.875091434E-1,3.339740932E-1
1.334000718E0,1.254671335E0,9.359493852E-1,1.734688163E0
1.384001048E0,9.138085842E-1,2.261239886E-1,3.140899897E0
1.436000906E0,6.126520634E-1,-9.213680029E-2,4.508626938E0
1.488000769E0,5.613393784E-1,2.881451324E-2,4.427382469E0
1.538001066E0,-1.570381820E-1,-1.765296698E0,4.462812424E0
1.590000925E0,-4.160450399E-1,-3.117752552E0,3.595994473E0
1.642000721E0,-5.712048411E-1,-4.709667206E0,1.761566162E0
1.692000851E0,-6.793279648E-1,-4.995552063E0,-2.322980016E-1
1.742001076E0,-8.674744964E-1,-1.527059317E0,-1.023979425E0
1.794000703E0,-6.408434510E-1,2.650037289E0,1.444527149E0
1.844000867E0,-1.959090710E0,2.888885498E0,2.406639814E0
1.894000960E0,-3.105073929E0,-1.513907313E-1,-1.121106982E0
1.946000720E0,-1.974973202E0,2.931646347E0,1.549905688E-1
1.998000718E0,-1.666486263E0,1.218169212E0,3.015982509E-1
2.048000878E0,-1.221165419E0,-9.650632143E-1,6.045873761E-1
2.098000905E0,-6.066350341E-1,-1.953443289E0,1.062736273E0
2.150000769E0,9.926102161E-1,-4.737767220E0,1.050518990E0
2.202000728E0,2.202123404E0,-8.103633881E0,-6.409668326E-1
2.254000622E0,7.348250747E-1,-4.417674065E0,-4.874263287E0
2.304000687E0,1.177091599E0,2.508927584E0,-3.742329597E0
2.354000713E0,4.605465829E-1,-2.787274122E0,-1.996476769E0
2.404000739E0,5.680588484E-1,-8.367815614E-1,-1.349570513E0
2.456000667E0,9.223607183E-1,2.724562645E0,1.432920694E0
2.508000665E0,4.088215530E-2,3.216309309E0,1.749348879E0
2.558000692E0,-1.242545724E0,2.369650126E0,1.767674804E0
2.608000757E0,-1.417863965E0,1.987248540E0,1.359616876E0
2.660000683E0,-1.574856400E0,2.238924980E0,-2.377957851E-1
2.712000644E0,-1.999407768E0,4.092289925E0,-1.292149186E0
2.764000609E0,-1.373270869E0,4.967659950E0,-2.498608112E0
2.816000602E0,-1.135644317E0,4.712318420E0,-4.215750694E0
2.866000663E0,-1.979661584E-1,3.260902643E0,-4.672066212E0
2.916000762E0,2.522415221E-1,3.087416649E0,-4.938403606E0
2.968000755E0,2.052049041E-1,2.736169100E0,-3.654976130E0
3.020000748E0,-9.289733320E-2,1.952429175E0,-2.912163734E0
3.072000747E0,-2.700482607E-1,3.672338426E-1,-2.275642395E0
3.124000674E0,1.813811660E-1,5.700411201E-1,-5.609434843E-1
3.176000600E0,4.165642560E-1,7.661288381E-1,1.105496883E0
3.228000565E0,4.245055318E-1,1.274368763E0,2.514152050E0
3.279679625E0,1.086882055E-1,4.344290495E-1,3.533075333E0
3.331679586E0,-2.309528738E-1,7.484137416E-1,4.371182442E0
3.383679579E0,-5.064530969E-1,-1.658395290E0,4.486025333E0
3.435679577E0,-3.384651542E-1,-1.431764245E0,4.439599514E0
3.487679537E0,-5.180595517E-1,-3.569181919E0,3.728552341E0
3.537679568E0,-4.062712193E-1,-4.591770172E0,2.581347466E0
3.589679561E0,9.647089243E-2,-2.326681852E0,1.396268845E0
3.641679487E0,4.330576360E-1,9.390037060E-1,1.306471586E0
3.691679548E0,-5.807801336E-2,2.023900509E0,1.181244135E0
3.743679547E0,-2.275518894E0,7.490246296E-1,5.984787345E-1
3.795679474E0,-6.006072521E0,-3.619883537E0,1.706588268E0
3.845679501E0,-4.669499397E0,3.752038002E0,-1.469300151E0
3.897679500E0,-1.979249239E0,5.758119583E0,8.290845901E-2
3.949679494E0,-1.786215782E0,-9.791131616E-1,1.754588261E-2
4.001679559E0,-1.206504583E0,-2.167533040E-1,7.194300294E-1
4.051679653E0,-1.036073208E0,-1.434818625E0,9.503371119E-1
4.103679445E0,-2.663830519E-1,-2.817206621E0,1.258824110E0
4.153679477E0,8.166810274E-1,-5.551439285E0,5.887048841E-1
4.203679640E0,1.685942292E0,-9.843379021E0,-8.749282360E-1
4.253679732E0,9.156411886E-1,-8.453660011E0,-5.255443096E0
4.305679594E0,7.814493775E-2,-1.480633497E0,-6.865683556E0
4.355679791E0,-5.602092147E-1,-6.913956404E-1,-4.663514614E0
4.407679583E0,-1.527621299E-1,-4.017556667E0,-1.447919846E0
4.459679379E0,2.324907303E0,4.076407909E0,1.188574553E0
4.509679643E0,6.761820316E-1,4.367790699E0,2.198334694E0
4.561679602E0,-5.889199376E-1,3.140562057E0,1.591134787E0
4.613679463E0,-9.902583361E-1,2.232816458E0,1.638171434E0
4.663679593E0,-7.978358269E-1,1.510162711E0,9.491153359E-1
4.713679620E0,-1.096548915E0,2.311617851E0,1.146734506E-1
4.763679712E0,-1.554697871E0,3.252961159E0,-1.007485986E0
4.815679440E0,-1.728794456E0,4.499126434E0,-2.412476063E0
4.865679637E0,-1.499719977E0,4.637793064E0,-3.320221901E0
4.917679630E0,-2.511114478E-1,5.864409924E0,-3.216985703E0
4.969679325E0,4.666552544E-1,4.846708298E0,-2.865127087E0
5.019679523E0,7.458207011E-1,2.639652491E0,-2.063672066E0
5.071679418E0,1.037203312E0,1.708083153E0,-1.629957676E0
5.121679483E0,1.373988688E-1,-9.070310593E-1,-7.741354704E-1
5.173679476E0,-1.509295404E-1,-2.930827618E0,-1.149206758E0
5.225679371E0,-2.425593138E-1,-3.140354395E0,-2.170263678E-1
5.275679436E0,-2.382832617E-1,-6.993368268E-1,1.415515244E-1
5.327679396E0,2.870608568E-1,8.608129621E-1,5.215097070E-1
5.379679357E0,6.114302874E-1,1.497334599E0,6.919410825E-1
5.431679355E0,7.079470158E-1,2.544357777E0,1.270430565E0
5.481679381E0,3.548668921E-1,2.356211185E0,1.797607183E0
5.531679408E0,-7.823656499E-2,-6.742913723E-1,2.179398060E0
5.583679373E0,-2.352289259E-1,-1.154431462E0,2.181841612E0
5.635679300E0,-2.914285362E-1,-7.824145555E-1,1.457966208E0
5.685679493E0,1.868789494E-1,-1.477255374E-1,-1.089032218E-1
5.737679354E0,4.434423447E-1,7.154270411E-1,-3.043800890E-1
5.789679320E0,-5.266116261E-1,1.122874141E0,-1.223422587E-1
5.841679279E0,-5.925850868E-1,1.063944027E-1,-1.053911686E0
5.893679277E0,-6.555042267E-1,-1.092410386E-1,-7.203793526E-1
5.943679304E0,-6.078567505E-1,6.066930294E-1,9.185721278E-1
5.995679297E0,-2.999806404E-1,-1.934506297E0,1.934441090E0
6.045679328E0,2.988658100E-2,6.073039174E-1,2.395644188E0
6.097679320E0,2.913369238E-1,-1.487353086E0,2.952753305E0
6.149679281E0,-6.041915417E-1,-8.160121441E-1,2.742004871E0
6.199679313E0,-1.543702245E0,-2.381048918E0,2.649153233E0
6.251679273E0,-1.648160219E0,-2.146476507E0,2.935038328E0
6.301679300E0,-1.662821054E0,-3.422574282E0,4.446318626E0
6.351679426E0,-1.103879213E0,-1.036017132E1,3.447554111E0
6.403679424E0,9.742842317E-1,-1.796450853E0,1.325408340E0
6.455679284E0,1.141859889E-1,1.259097219E0,1.406653404E0
6.507679281E0,-3.964973390E-1,-1.716427445E0,-7.408390939E-2
6.559679174E0,-5.516570807E-1,-3.505328000E-1,3.742912114E-1
6.609679267E0,-2.333963364E-1,9.719904661E-1,1.146424770E0
6.661679266E0,2.241417170E-1,-1.261943698E0,4.219386578E-1
6.713679226E0,3.536451757E-1,-1.775070548E0,-6.140888333E-1
6.765679219E0,-8.216595650E-1,-1.604028344E0,-8.999736905E-1
6.817679217E0,-1.379990339E0,1.680918038E-1,-6.165322065E-1
6.867679244E0,-1.552254438E0,2.035219669E-1,-2.652847171E-1
6.919679238E0,-2.038503170E0,1.398985267E0,-8.141428232E-2
6.971679169E0,-1.973751426E0,-4.531581700E-1,-1.828179210E-1
7.021679330E0,-1.605399609E0,-7.317126989E-1,-9.302072972E-2
7.073679256E0,-1.052566648E0,-4.768920898E0,-9.237974882E-1
7.125679153E0,-1.296301842E0,-6.823260784E0,-2.487001657E0
7.175679281E0,-4.425764561E0,-1.420157790E0,-5.864475727E0
7.227679174E0,-2.784369707E0,6.581565857E0,-4.395344734E0
7.279679172E0,1.196837798E-1,-1.347464800E0,-1.246945143E0
7.329679301E0,1.525895476E0,1.495501995E0,4.976859689E-1
7.381679159E0,1.938229561E0,2.500986099E0,2.142135143E0
7.433679123E0,8.117940426E-1,1.738626361E0,3.096917391E0
7.483679452E0,1.221272349E-1,1.906614304E0,2.186728239E0
7.535679344E0,-9.132893682E-1,2.598724604E0,1.741407633E0
7.587679240E0,-1.662210226E0,3.394071102E0,6.705608368E-1
7.637679335E0,-2.379365921E0,3.658575773E0,-7.930723429E-1
7.689679294E0,-2.254138708E0,4.715372562E0,-2.215166569E0
7.741679123E0,-1.146028996E0,5.568751335E0,-2.280529022E0
7.791679387E0,5.808870196E-1,6.436180115E0,-3.162007809E0
7.843679280E0,1.377455354E0,5.018362045E0,-3.789977312E0
7.895679110E0,1.353631616E0,2.383089066E0,-3.267687559E0
7.945679307E0,8.954825997E-1,9.518319368E-1,-2.622613668E0
7.995679501E0,4.721530080E-1,5.492717028E-1,-1.731972218E0
8.047679061E0,7.386887819E-2,1.674809307E-1,-6.605145335E-1
8.097679259E0,4.760167375E-2,-3.645827174E-1,1.610992104E-1
8.149679284E0,4.074012935E-1,-6.113722324E-1,5.459443331E-1
8.201678978E0,6.761820316E-1,2.200153321E-1,9.295676947E-1
8.251679143E0,3.872427344E-1,6.964902282E-1,1.269819617E0
8.301679337E0,-3.329673707E-1,4.551984668E-1,1.528826594E0
8.353679162E0,-6.170197129E-1,6.457883716E-1,1.625343204E0
8.405679093E0,-3.580128551E-1,1.113711238E0,1.980255842E0
8.455679153E0,5.869956613E-1,1.537547819E-2,2.196502209E0
8.505679179E0,1.364016294E0,-2.130881250E-1,2.379150867E0
8.557679007E0,2.812377691E0,-8.459445238E-1,3.612487793E0
8.607679039E0,2.888735771E0,-2.833376229E-1,2.953364372E0
8.659678999E0,2.114769697E0,-5.417336226E-1,2.149465561E0
8.709679063E0,1.356685877E0,-4.202038288E0,-2.612670651E-3
8.761679056E0,8.844870329E-1,-2.340731621E0,-9.103583694E-1
8.813678982E0,1.586982012E0,3.028162956E0,-7.619181275E-1
8.865678947E0,1.793454647E0,4.231567383E0,-2.182481140E-1
8.915679007E0,1.522230387E0,2.379424095E0,1.030360460E0
8.965679067E0,1.400587177E1,2.647593737E0,5.207457066E0
9.015679131E0,5.033071637E-1,-4.825731277E0,-3.682464838E0
9.067678991E0,2.533212423E0,-1.038367033E0,-2.059396029E0
9.119678950E0,5.869956613E-1,-2.990081549E0,-2.780216932E0
9.169679082E0,-2.346180677E-1,-8.850399256E-1,-1.311696887E0
9.221678875E0,-1.090440273E0,-2.660825253E0,2.490638196E-1
9.271678968E0,-1.295691013E0,-1.925954223E0,1.203846216E0
9.323678967E0,-1.215056777E0,-2.367609978E0,2.338222980E0
9.373679493E0,-8.332660198E-1,-4.191042423E0,3.023613691E0
9.425678952E0,-7.355275750E-1,-3.939977169E0,3.133569479E0
9.475678983E0,-4.398688078E-1,-1.332804084E0,3.151895523E0
9.527678874E0,8.295091987E-1,-4.733166993E-1,4.074302197E0
9.577678934E0,2.023750782E0,-2.230165243E0,4.436544895E0
9.627679065E0,-3.121979535E-1,1.554144979E0,1.133596659E0
9.679678858E0,3.780797720E-1,4.073353291E0,-2.508381844E0
9.731678851E0,-4.594363213E0,-1.088551426E1,-1.719754934E0
9.781678949E0,-2.916316509E0,-1.635793328E0,-5.026979446E0
9.833678909E0,3.192946672E0,5.436804771E0,5.000984192E0
9.885678867E0,1.997071207E-1,5.206508160E0,7.283177376E0
9.935678899E0,-1.538204432E0,3.503416061E0,1.913060784E0
9.985678994E0,-1.493000507E0,3.675575927E-2,2.142135143E0
1.003567912E1,-1.432524800E0,-8.966463804E-1,1.993694901E0
1.008767882E1,-1.351890683E0,4.674157798E-1,8.697028756E-1
1.013767925E1,-1.548589230E0,2.824744701E0,4.720296264E-1
1.018767934E1,-1.567525983E0,5.814929962E0,-3.935664296E-1
1.023967886E1,-1.361664414E0,7.245576859E0,-1.350792289E0
1.028967906E1,-5.638744235E-1,7.130123138E0,-2.437521458E0
1.034167899E1,4.275598526E-1,5.120987415E0,-2.672093868E0
1.039367878E1,2.907260358E-1,2.882165909E0,-2.508381844E0
1.044367904E1,2.058157623E-1,1.383102775E0,-1.683713913E0
1.049367924E1,2.194533311E-2,-1.264998078E0,-9.543406963E-1
1.054560444E1,4.393647984E-2,-2.048738241E0,-7.240445018E-1
1.059560461E1,4.361119568E-1,-1.838600636E0,1.672078669E-1
1.064560463E1,8.374504447E-1,-6.846761107E-1,8.092272282E-1
1.069760443E1,1.065914035E0,6.241210178E-2,1.333960414E0
1.074760446E1,1.114172339E0,2.023002505E-1,1.724303365E0
1.079760452E1,9.046456218E-1,7.062640786E-1,2.026070833E0
1.084960438E1,1.035981655E0,-5.802181363E-1,2.225823641E0
1.090160454E1,9.577909112E-1,-1.338912725E0,2.191615343E0
1.095160464E1,8.160701394E-1,-2.631503582E0,2.512930393E0
1.100360449E1,5.723348856E-1,-2.577747583E0,2.236208439E0
1.105560442E1,2.194533311E-2,-3.499543190E0,8.739789724E-1
1.110760442E1,-3.329673707E-1,4.896800041E0,-7.161032557E-1
1.115960438E1,1.190729067E-1,-6.639066935E-1,8.440465927E-1
1.121160438E1,8.765458465E-1,-2.405483484E0,2.140302420E0
1.126360441E1,-1.662011594E-1,5.480499864E-1,1.453079224E0
1.131360447E1,-9.920910001E-1,2.738002062E0,1.531270027E0
1.136560443E1,-3.937683105E0,7.691831589E-1,1.254547954E0
1.141760439E1,-4.501511574E0,1.910890341E0,2.892277718E0
1.146960435E1,-3.038489580E0,-5.716660023E-1,7.224843502E-1
1.151960445E1,-2.168006659E0,4.339079380E0,2.045618534E0
1.157160428E1,-1.817980886E0,4.048307896E0,9.879095852E-2
1.162160437E1,-1.506439447E0,1.095996141E0,-5.181829333E-1
1.167360436E1,-4.447557032E-1,1.414256811E0,-6.812839508E-1
1.172560436E1,6.676298976E-1,2.114632279E-1,-1.037418365E0
1.177760432E1,1.170371890E0,-1.738418698E0,-1.182193518E0
1.182960432E1,1.373179197E0,-3.152571678E0,-1.377670288E0
1.187960445E1,1.159376502E0,-3.706015587E0,-1.468078375E0
1.193160434E1,1.115394115E0,-4.041380405E0,-1.041694403E0
1.198360427E1,1.242454052E0,-3.800088882E0,-7.930723429E-1
1.203560426E1,1.125167966E0,-4.739599705E0,-8.981410861E-1
1.208560432E1,9.730625153E-1,-7.834243298E0,-1.443643808E0
1.213760429E1,1.470306873E0,-9.313147545E0,-3.687351704E0
1.218960428E1,-6.182414293E-1,5.202739313E-2,-6.662876606E0
1.223960438E1,1.416749209E-1,4.243784904E0,-3.669636726E0
1.229160427E1,-4.952589795E-2,-2.875238657E0,-2.287248850E0
1.234360427E1,1.109896421E0,3.226406872E-1,1.382218838E0
1.239560423E1,6.822906733E-1,2.073380470E0,1.517830968E0
1.244560425E1,-1.979661584E-1,1.943266273E0,1.452468395E0
1.249560428E1,-1.175961375E0,9.170125723E-1,1.131153226E0
1.254760424E1,-1.862573981E0,3.861706853E-1,3.095394671E-1
1.259760428E1,-2.442895889E0,8.785280585E-1,-2.683390379E-1
1.264960424E1,-3.043987274E0,2.464945078E0,-8.162851334E-1
1.269960427E1,-2.549186468E0,4.265775681E0,-1.565816760E0
1.274960436E1,-2.686020374E0,4.761187553E0,-2.096658707E0
1.280160429E1,-1.230328321E0,4.830215454E0,-2.209668636E0
1.285360422E1,-5.400507450E-1,4.014710426E0,-3.454612017E0
1.290360425E1,2.345264405E-1,3.214476824E0,-2.581685781E0
1.295360435E1,4.904789627E-1,2.572457314E0,-2.382543802E0
1.300360444E1,8.148484230E-1,2.745332241E0,-2.207836151E0
1.305560423E1,6.389192343E-1,2.779540777E0,-1.550545216E0
1.310560440E1,-7.090618461E-2,2.868726969E0,-6.366907954E-1
1.315760429E1,-1.037295103E0,2.304000407E-1,5.911483765E-1
1.320960421E1,-1.035462379E0,-1.455587983E0,1.451857448E0
1.325960428E1,-1.043403745E0,-6.248112917E-1,1.818987608E0
1.330960438E1,-4.129907191E-1,-5.899919868E-1,1.742629409E0
1.336160414E1,1.679421216E-1,-2.384103298E0,2.768271923E0
1.341160430E1,3.389844000E-1,-1.634571552E0,3.352259159E0
1.346160463E1,4.623791873E-1,2.284128904E0,3.668687582E0
1.351360439E1,-1.943009645E-1,-4.910317957E-1,3.280177355E0
1.356560438E1,1.654986739E-1,-3.770156384E0,2.174510956E0
1.361760434E1,-2.529440224E-1,-3.290016413E0,1.169026852E0
1.366960430E1,-2.932611406E-1,9.451123476E-1,6.583434939E-1
1.372160413E1,5.650045276E-1,1.821093082E0,7.835709453E-1
1.377160430E1,-1.865628242E0,4.335414410E0,4.237712622E-1
1.382360413E1,-2.582173109E0,-6.125652790E0,1.398712158E0
1.387360422E1,-5.327203274E-1,3.948736906E0,-4.157107353E0
1.392560425E1,-2.354320526E0,2.511370897E0,-2.911552906E0
1.397760404E1,-4.496426284E-1,-5.655573606E-1,-1.954937935E0
1.402760411E1,-3.769496679E-1,-1.191694260E0,-8.272807598E-1
1.407760413E1,-5.498245358E-1,5.498825908E-1,3.608521521E-1
1.412960410E1,7.262729406E-1,-2.231997728E0,4.585905671E-1
1.418160409E1,8.850979209E-1,-3.277799129E0,8.293858171E-1
1.423160415E1,4.361119568E-1,-3.546579838E0,1.049908161E0
1.428360408E1,2.815630436E-1,-1.674888730E0,1.319910645E0
1.433360411E1,-1.100015566E-1,-1.960773587E0,1.121990204E0
1.438560407E1,-5.198921561E-1,-1.469027042E0,1.176968098E0
1.443760406E1,-3.549585342E-1,-3.659589767E0,5.825962424E-1
1.448760423E1,1.042090297E0,-7.771934509E0,-6.501297951E-1
1.453960406E1,1.629131794E0,-6.548982620E0,-3.274406910E0
1.458960408E1,3.664733171E-1,8.614238501E-1,-4.871208668E0
1.464160408E1,-1.141142130E0,-5.765242100E0,-3.831516027E0
1.469160411E1,8.429482579E-1,6.971010566E-1,-5.601192951E0
1.474360396E1,1.684720635E0,7.093471050E0,4.025433064E0
1.479360400E1,1.030483842E0,4.679942608E0,5.719973087E0
1.484360406E1,-1.466122389E0,1.409369946E0,1.562424064E0
1.489560395E1,-1.265147686E0,1.085611343E0,1.460409522E0
1.494560398E1,-1.372660041E0,1.309188128E0,3.694042563E-1
1.499560414E1,-1.813093901E0,3.718440771E0,-7.863527536E-1
1.504760397E1,-2.670137644E0,4.524171829E0,-2.086884737E0
1.509760403E1,-2.273075342E0,4.391003609E0,-3.024563074E0
1.514960396E1,-2.333963364E-1,5.634725094E0,-4.171768188E0
1.519960412E1,1.094624758E0,5.518049717E0,-4.210252285E0
1.525160402E1,1.688996553E0,4.223626137E0,-3.385584354E0
1.530160405E1,1.470306873E0,1.278033972E0,-2.357498407E0
1.535360394E1,6.407518387E-1,-8.270077109E-1,-1.329411983E0
1.540560390E1,1.593900174E-1,-1.502624631E0,3.770443797E-2
1.545560403E1,3.188258410E-1,-1.136716485E0,1.121379375E0
1.550760395E1,4.904789627E-1,-6.187026501E-1,1.942993164E0
1.555760412E1,4.214512110E-1,-4.937623441E-2,2.468947887E0
1.560760415E1,9.117163718E-3,1.479332447E-1,2.793317556E0
1.565760421E1,-4.117689729E-1,-3.664153218E-1,2.809200048E0
1.570960387E1,-5.235573053E-1,-8.441119194E-1,2.250869036E0
1.575960427E1,-5.211138725E-1,6.244081259E-1,1.899621725E0
1.581160412E1,-4.905706048E-1,1.590796947E0,1.658940792E0
1.586360389E1,-3.293021917E-1,8.901345134E-1,1.474459529E0
1.591360445E1,-2.443919033E-1,-1.075019002E0,1.434142351E0
1.596360464E1,-1.124450192E-1,-8.847161382E-2,1.649777889E0
1.601560387E1,1.813811660E-1,-5.655573606E-1,2.203221798E0
1.606560423E1,4.526053369E-1,-2.158082962E0,3.413956642E0
1.611760406E1,9.070890546E-1,-3.595448971E0,3.487871408E0
1.616960382E1,1.189308882E0,-3.881944895E0,2.509876013E0
1.621960388E1,1.122724533E0,-4.214866161E0,5.899266601E-1
1.626960404E1,1.077520490E0,-2.626005888E0,-8.572131395E-1
1.632160390E1,1.504515290E0,-1.531335354E0,-7.527551651E-1
1.637360394E1,1.250395417E0,-1.081738472E0,-6.617362499E-1
1.642360399E1,7.830834389E-1,1.643331289E0,1.515998244E0
1.647360406E1,8.948717713E-1,-1.664503932E0,3.563007832E0
1.652560385E1,7.134447694E-1,-1.221015692E0,5.897123814E0
1.657760385E1,-1.588906407E0,-3.961967945E0,1.267376184E0
1.662960381E1,7.386887819E-2,5.370543599E-1,-2.695607841E-1
1.667960384E1,-5.260007977E-1,-1.759188056E0,-2.048090696E-1
1.673160383E1,-1.358610153E0,-6.266438961E-1,-1.104613543E0
1.678360379E1,-2.218708515E0,-8.419555426E-2,-1.067961693E0
1.683360382E1,-3.463040829E0,-1.051806211E0,-8.996640146E-2
1.688360388E1,-4.218681335E0,1.050792098E0,3.461913764E-1
1.693560388E1,-3.568720341E0,3.185155392E0,3.254219592E-1
1.698760371E1,-2.946248770E0,2.461280107E0,5.541953072E-2
1.703760377E1,-2.246808052E0,1.460682631E0,3.400827348E-1
1.708760380E1,-1.801487446E0,1.413645983E0,5.025728941E-1
1.713960383E1,-1.557141304E0,8.834149837E-1,9.717174172E-1
1.718960392E1,-6.952104568E-1,-1.739029527E0,9.527806044E-1
1.724160371E1,7.672009468E-1,-5.899022102E0,-3.391994238E-1
1.729160387E1,9.602344036E-1,-6.774391651E0,-3.023341417E0
1.734360373E1,-8.534245491E-1,1.070052609E-1,-5.331801414E0
1.739560369E1,-9.829279780E-1,3.424003601E0,-3.526694298E0
1.744560372E1,-1.568747759E0,-9.931630492E-1,-5.376394272E0
1.749560385E1,6.535800099E-1,5.541873455E0,-1.064597592E-1
1.754760378E1,3.004998863E-1,5.470402241E0,4.584985256E0
1.759760391E1,-1.723907590E0,3.214476824E0,2.795760870E0
1.764960373E1,-2.056218147E0,5.010133386E-1,6.626195908E-1
1.770160366E1,-2.131354809E0,-4.213931561E-1,3.669608235E-1
1.775160373E1,-2.510091066E0,1.019027114E0,-7.652736455E-2
1.780161033E1,-2.391583204E0,3.282893658E0,-7.735245824E-1
1.785161036E1,-2.324999094E0,4.721481323E0,-1.538938761E0
1.790361032E1,-1.412977219E0,6.558963776E0,-2.342837334E0
1.795361045E1,-1.515403837E-1,4.774015427E0,-2.469286680E0
1.800561041E1,8.087397218E-1,1.470456600E0,-4.000114918E0
1.805761034E1,2.045940459E-1,2.365086973E-1,-3.246917963E0
1.810761047E1,-1.839162558E-1,1.265205860E0,-2.239601374E0
1.815761060E1,-8.556694537E-2,9.848185778E-1,-1.104613543E0
1.820961023E1,2.052049041E-1,8.257065713E-2,-2.946062684E-1
1.825961049E1,5.497329235E-1,-2.677422389E-2,8.904722929E-1
1.830961055E1,7.415446043E-1,4.008314610E-1,1.987586260E0
1.836161021E1,4.990310967E-1,1.220612526E0,2.582569122E0
1.841161041E1,6.104071066E-2,7.606310844E-1,2.549582243E0
1.846161047E1,1.282358915E-1,-2.747855186E-1,3.321105242E0
1.851361020E1,1.012768745E0,-2.106770277E0,3.530631781E0
1.856361039E1,2.138593435E0,-1.259500265E0,2.200167418E0
1.861561042E1,3.652317286E0,1.756341457E0,1.868467569E0
1.866561048E1,3.796481609E0,2.808251381E0,1.696203589E0
1.871761021E1,3.831911802E0,1.765504360E0,1.317467213E0
1.876761034E1,4.848391533E0,1.362333417E0,1.685818791E0
1.881761043E1,3.106814861E0,-8.025730848E-1,6.357415318E-1
1.886961019E1,2.207621098E0,1.216660291E-1,2.429551482E-1
1.891961026E1,-6.011372209E-1,7.478029132E-1,2.361435890E0
1.896961032E1,5.252982974E-1,-4.264957428E0,-5.957327366E0
1.902161031E1,2.174634457E0,7.209248543E-1,9.390404075E-2
1.907361021E1,2.138593435E0,-5.533400774E-1,-4.896865368E0
1.912361027E1,1.795287132E0,-2.014816850E-1,-2.986689568E0
1.917561023E1,2.348731041E0,5.315566659E-1,-2.163854122E0
1.922761019E1,2.037800550E0,-1.067688584E0,-1.658057451E0
1.927761022E1,1.155711174E0,6.913162023E-2,-8.511044979E-1
1.932961022E1,-3.323565125E-1,-2.166635275E0,3.144263923E-1
1.938161021E1,-1.816148162E0,-2.824537039E0,9.087982774E-1
1.943361017E1,-2.529639006E0,-2.312021017E0,1.902675986E0
1.948561010E1,-2.614549160E0,-2.968701124E0,2.765217781E0
1.953561020E1,-2.375089884E0,-3.156847715E0,3.290561676E0
1.958761016E1,-2.221762657E0,-2.913112640E0,3.996722221E0
1.963961015E1,-2.140517473E0,-3.831853867E0,4.109732151E0
1.968961018E1,-1.617006063E0,-2.390822649E0,4.147605896E0
1.974161014E1,-1.098381519E0,-2.266206264E0,4.618583202E0
1.979161020E1,-7.367493510E-1,-1.241174340E0,4.051700115E0
1.984361013E1,-8.057770729E-1,-1.352351785E0,3.884933949E0
1.989561009E1,1.172403097E-1,-3.864840508E0,3.691900492E0
1.994561039E1,1.856373668E0,-5.797007561E0,1.801272392E0
1.999761028E1,7.946898937E-1,-1.533778787E0,-3.343434811E0
2.004961014E1,2.033723146E-1,2.997008801E0,-3.328163147E0
2.010161010E1,-6.524499059E-1,-5.561824322E0,-2.955535173E0
2.015161013E1,2.177688837E0,1.812541008E0,-1.144930720E0
2.020161023E1,8.734915257E-1,5.032411575E0,4.154935837E0
2.025361006E1,-2.633287311E-1,4.273717403E0,3.670520067E0
2.030361008E1,-1.517435074E0,2.278020382E0,2.192837000E0
2.035561001E1,-1.405035853E0,4.643614292E-1,1.388938308E0
2.040561014E1,-1.784994006E0,1.668987632E0,2.105793059E-1
2.045561020E1,-2.100811243E0,3.850387335E0,-7.784115672E-1
2.050761013E1,-2.314003468E0,5.401985168E0,-1.810773849E0
2.055761015E1,-1.660988450E0,5.890066624E0,-2.544422865E0
2.060761022E1,-1.442100108E-1,6.397696018E0,-3.356262922E0
2.065961014E1,4.251163900E-1,4.585258484E0,-3.394136429E0
2.071160997E1,5.778326988E-1,2.369039297E0,-2.474173307E0
2.076161027E1,5.399590731E-1,1.063620210E0,-1.906679630E0
2.081361020E1,-7.640396804E-2,-2.320249528E-1,-1.413100481E0
2.086560996E1,-1.326035708E-1,-2.295814753E-1,-2.616195381E-1
2.091561026E1,-2.203696407E-2,-1.764362007E-1,4.127756953E-1
2.096561028E1,5.065600201E-2,-5.020273924E-1,1.086560011E0
2.101760994E1,4.684878290E-1,-1.764362007E-1,1.496450663E0
2.106761018E1,5.008636713E-1,5.107871890E-1,2.037677288E0
2.111761020E1,2.931694984E-1,2.536129355E-1,1.957043052E0
2.116961016E1,1.141859889E-1,-1.116844937E-1,2.280190706E0
2.122160992E1,3.660609946E-2,-8.777095079E-1,2.668090105E0
2.127161015E1,2.622138895E-2,-6.394720674E-1,2.906938553E0
2.132361008E1,1.801594347E-1,-1.486742139E0,2.756054640E0
2.137361011E1,2.198656797E-1,-1.548439622E0,2.318064451E0
2.142561013E1,4.153425694E-1,-9.290221930E-1,1.448803067E0
2.147761003E1,8.606633544E-1,-1.111670852E0,2.912135124E-1
2.152960999E1,1.371346712E0,3.024821579E-1,-1.089341879E0
2.157961005E1,1.838047743E0,4.742250919E0,-1.738691688E0
2.163160998E1,-4.227645695E-1,2.948139429E0,-4.461008310E-1
2.168360994E1,-1.029964566E0,-1.217566204E1,-2.383765459E0
2.173361001E1,3.182562113E0,6.218711853E0,-2.298244238E0
2.178560993E1,-1.172296286E0,-2.843473911E0,-2.782049656E0
2.183760993E1,-8.204378486E-1,1.757563114E0,-2.530373096E0
2.188761002E1,-6.970430017E-1,-4.934752882E-1,-9.066932201E-1
2.193960995E1,-4.716337919E-1,-2.259162962E-1,-7.124381065E-1
2.199160985E1,2.174222171E-1,-1.754301190E0,2.191314101E-1
2.204160998E1,-2.150703818E-1,-3.355378866E0,1.168416023E0
2.209360994E1,2.449111491E-1,-1.019430280E0,2.225212812E0
2.214360997E1,2.962238193E-1,-3.158069611E0,2.497658730E0
2.219560996E1,6.047107577E-1,-3.892329693E0,3.472599506E0
2.224561005E1,1.069579244E0,-5.896578312E0,3.577668428E0
2.229561008E1,2.324296474E0,-9.058417320E0,1.448803067E0
2.234761008E1,2.002981424E0,-2.830645800E0,-3.107029676E0
2.239761010E1,1.656009912E0,1.833921313E0,-4.177876472E0
2.244960983E1,-4.307058156E-1,-6.942379951E0,-2.339172125E0
2.249960986E1,7.873594761E-1,5.480499864E-1,-1.293370962E0
2.255160985E1,2.736218274E-1,4.331749439E0,1.921001911E0
2.260360985E1,-5.052313805E-1,3.594434977E0,1.859915376E0
2.265560981E1,-1.049512386E0,1.323237896E0,1.492785454E0
2.270760981E1,-1.505828619E0,7.025988698E-1,6.589543819E-1
2.275760990E1,-1.667707920E0,1.265205860E0,-2.768911719E-1
2.280960987E1,-2.402578831E0,2.867505312E0,-1.040472746E0
2.286160986E1,-2.733667612E0,2.946917772E0,-2.465621233E0
2.291360979E1,-2.547353983E0,3.121625185E0,-3.653754234E0
2.296360982E1,-1.486281037E0,5.423976421E0,-4.455820084E0
2.301560981E1,6.865667105E-1,6.434347630E0,-3.709342957E0
2.306760981E1,1.348133802E0,3.357419252E0,-3.891380787E0
2.311760997E1,1.247341037E0,1.237105966E0,-3.246307135E0
2.316960986E1,9.999406338E-1,1.962203026E0,-2.220664263E0
2.322160976E1,6.450278759E-1,1.080113649E0,-8.773717284E-1
2.327360972E1,2.950021029E-1,-5.130229592E-1,2.304366790E-2
2.332360984E1,2.070375085E-1,-2.375227362E-1,9.161286354E-1
2.337560974E1,-2.779895067E-1,-2.155315876E-1,1.732855439E0
2.342560987E1,-7.532426715E-1,-2.711203396E-1,2.486663103E0
2.347760972E1,-1.344560146E0,5.779823661E-1,2.492160797E0
2.352760979E1,-1.285917163E0,-1.697166860E-1,2.302792788E0
2.357760999E1,-1.096548915E0,-1.423822999E0,2.038288116E0
2.362960981E1,-7.752338052E-1,-1.002326012E0,1.330295324E0
2.367960990E1,-6.652780771E-1,-7.319997996E-2,4.677535594E-1
2.373160970E1,-5.815895200E-1,-6.303091049E-1,3.626847565E-1
2.378160986E1,-1.001253963E0,-3.841303885E-1,2.793059126E-2
2.383360976E1,-8.186052442E-1,1.448789090E-1,-3.355342448E-1
2.388361002E1,-5.247790813E-1,2.584998608E-1,-5.432283878E-1
2.393560988E1,-2.077400088E-1,1.646996617E0,1.953076571E-1
2.398760971E1,3.896862268E-1,-2.063686103E-1,1.539211154E0
2.403760994E1,5.155244470E-1,-5.548489094E-2,1.680931926E0
2.408960987E1,6.829015613E-1,1.289964169E-1,2.481776476E0
2.414160963E1,5.637827516E-1,-9.571220279E-1,2.676031590E0
2.419160979E1,1.319010705E-1,-2.161137342E0,2.005912304E0
2.424161002E1,5.821087360E-1,-1.577761054E0,1.815674827E-2
2.429360968E1,-1.555308700E0,8.256558418E0,-9.128018618E-1
2.434360981E1,2.418568283E-1,-1.721601635E-1,2.984518290E0
2.439360994E1,-1.951760292E0,1.725798249E0,1.090836048E0
2.444560966E1,-3.043987274E0,-1.600363016E0,1.206289649E0
2.449760966E1,-1.870515108E0,-2.396320581E0,8.018968701E-1
2.454760989E1,-1.679314375E0,-1.644956350E0,9.381198287E-1
2.459960968E1,-1.476507068E0,-4.717608452E0,1.077397108E0
2.465160954E1,-2.607218742E0,-7.208106041E0,1.056627631E0
2.470160967E1,-2.582784176E0,-4.947293758E0,-1.130880713E0
2.475360963E1,-1.045847178E0,-1.125110030E0,1.311358571E0
2.480360966E1,-7.031517625E-1,-2.274147511E0,4.564568400E-2
2.485560958E1,-5.052313805E-1,-1.156264067E0,-1.803744435E-1
2.490560978E1,-4.447557032E-1,-1.042643070E0,-2.976605892E-1
2.495760964E1,-4.258188903E-1,-4.042889476E-1,-1.657136828E-1
2.500960960E1,-3.470172584E-1,-1.129385948E0,3.892616555E-2
2.506160960E1,2.840065360E-1,-4.775029659E0,-3.086561561E-1
2.511162482E1,1.390894413E0,-7.677250385E0,-1.645229340E0
2.516362482E1,-1.322569132E0,-1.517285347E0,-4.400231361E0
2.521562481E1,-2.199771404E0,8.005492210E0,-3.500427008E0
2.526562484E1,-7.043734193E-1,-5.173314095E0,-2.790601492E0
2.531762473E1,8.227896690E-1,-9.534567595E-1,-1.428982973E0
2.536762479E1,1.450148344E0,2.830853224E0,2.003468752E0
2.541962476E1,8.850979209E-1,3.408121109E0,2.605171204E0
2.547162475E1,-5.632635355E-1,1.676318169E0,1.973536372E0
2.552362475E1,-9.688780904E-1,5.346109867E-1,1.649166942E0
2.557362481E1,-1.397705436E0,8.937996626E-1,7.017149925E-1
2.562562477E1,-2.009792566E0,3.296332836E0,-8.141428232E-2
2.567762473E1,-2.695183277E0,5.070896626E0,-1.491291285E0
2.572962470E1,-3.112404346E0,5.128317356E0,-2.947593927E0
2.577962476E1,-2.594390631E0,5.111824036E0,-3.629319668E0
2.583162468E1,-2.150902271E0,4.071520805E0,-4.519960880E0
2.588162471E1,-1.519267678E0,4.550438881E0,-4.483309269E0
2.593162474E1,-1.047679663E0,4.092289925E0,-3.965295315E0
2.598362467E1,-7.080386281E-1,2.368428469E0,-2.971417665E0
2.603362470E1,-5.687613487E-1,4.203791618E-1,-1.945164204E0
2.608362479E1,-4.158465192E-2,-9.656741619E-1,-3.239277899E-1
2.613562462E1,4.849812090E-1,4.252660573E-1,9.778260589E-1
2.618562468E1,8.215679526E-1,3.055041075E0,2.340055704E0
2.623562481E1,4.855920374E-1,2.770988464E0,3.520858049E0
2.628762470E1,2.168113440E-1,-2.821159065E-1,4.363852024E0
2.633962467E1,1.801594347E-1,4.148813486E-1,5.701035976E0
2.638962480E1,2.943912446E-1,-1.031036735E0,5.960042953E0
2.644162469E1,6.132628918E-1,-1.184974790E0,4.717543125E0
2.649362465E1,9.412975311E-1,-1.917078346E-1,3.277733564E0
2.654362482E1,8.905956745E-1,6.940467358E-1,1.613736868E0
2.659562471E1,9.174737334E-1,1.348894238E0,3.953703493E-2
2.664762466E1,-4.321871791E-3,1.048959494E0,-1.213958502E0
2.669962466E1,-1.995742559E0,-1.684949696E-1,-1.129659057E0
2.674962482E1,-3.128897667E0,-8.399904251E0,-1.582921028E0
2.680162455E1,-9.688780904E-1,6.232151031E0,-4.026381969E0
2.685162482E1,-3.934430182E-1,-3.884999037E0,-1.854756117E0
2.690162484E1,-4.463897645E-2,1.735571980E0,-2.226773024E0
2.695362457E1,-5.388289690E-1,-2.723420262E-1,-3.208734691E-1
2.700362470E1,-6.976539493E-1,-1.288210988E0,6.455153823E-1
2.705362479E1,-6.695541143E-1,-2.709694386E0,1.312580228E0
2.710562459E1,-1.240713120E0,-3.916764259E0,2.068831205E0
2.715562469E1,-5.461593866E-1,-3.830021143E0,1.655275583E0
2.720562474E1,-5.394397974E-1,-3.234427691E0,1.942382336E0
2.725762477E1,2.534632683E-1,-2.941212416E0,2.158628702E0
2.730962457E1,4.104556143E-1,-2.610123396E0,2.300349474E0
2.735962463E1,1.263834357E0,-5.021819115E0,1.591745615E0
2.740962466E1,2.048796177E0,-6.748735428E0,6.956063509E-1
2.746162455E1,1.420826793E0,-4.617426872E0,-9.818296432E-1
2.751162458E1,-7.501883507E-1,7.325312495E-1,-3.822963953E0
2.756362458E1,-2.614961565E-1,1.876071095E0,-2.728904247E0
2.761562458E1,-5.240658760E0,-1.001747513E1,-5.109446526E0
2.766762457E1,-4.704120457E-1,1.650050879E0,-5.221845150E0
2.771962456E1,1.255282283E0,7.223585606E0,5.596578121E0
2.776962459E1,-7.391927242E-1,5.978031158E0,5.058405876E0
2.782162452E1,-2.380587578E0,2.867505312E0,1.238665581E0
2.787362448E1,-1.912054062E0,-8.129577637E-1,6.699499488E-1
2.792562448E1,-2.329274893E0,-6.559654474E-1,-4.577072859E-1
2.797562451E1,-2.995728970E0,1.849192977E0,-9.848839641E-1
2.802762450E1,-3.473425627E0,4.056859970E0,-1.661111832E0
2.807762466E1,-3.021996021E0,4.650620937E0,-2.548698902E0
2.812762469E1,-1.757505178E0,4.959107876E0,-3.699568987E0
2.817962445E1,-1.047679663E0,4.658562183E0,-3.447281837E0
2.822962448E1,-2.236225009E-1,3.526628971E0,-2.661709070E0
2.827962451E1,1.172403097E-1,2.519923210E0,-2.316570282E0
2.832962463E1,4.841106944E-3,1.228553891E0,-1.356900930E0
2.838162446E1,-1.863597035E-1,-1.978164911E-1,-3.398102820E-1
2.843162462E1,-1.564273238E-1,-9.259678125E-1,2.337921709E-1
2.848362445E1,4.454734921E-2,-9.552893639E-1,8.709245920E-1
2.853362452E1,2.009288520E-1,-8.080708385E-1,1.838535190E0
2.858362458E1,2.791196108E-1,-5.954897404E-1,2.363879442E0
2.863562443E1,3.817449510E-1,-3.413698077E-1,2.433517933E0
2.868562447E1,3.273779750E-1,-2.998310030E-1,2.819584608E0
2.873562456E1,2.412459552E-1,7.768373191E-2,2.891666651E0
2.878762445E1,9.341656417E-2,2.249022573E-1,2.787209034E0
2.883962445E1,-1.283275187E-1,5.285022855E-1,2.408472300E0
2.888962491E1,-8.312349021E-2,1.381880999E0,1.976590753E0
2.894162447E1,-1.423774064E-1,2.096593380E0,1.991862297E0
2.899362437E1,-9.595166147E-2,2.688845396E-1,1.539821982E0
2.904362457E1,3.389844000E-1,-1.598530531E0,2.033401251E0
2.909562446E1,8.655502200E-1,-1.754912019E0,1.685818791E0
2.914762436E1,1.607751489E0,-4.488821030E-1,1.406042576E0
2.919762459E1,1.792232752E0,-9.632306695E-1,1.470794320E0
2.924762461E1,1.993818402E0,-1.915569544E0,8.440465927E-1
2.929962434E1,1.940673113E0,-1.458642364E0,-2.512348294E-1
2.934962457E1,1.979768395E0,1.603014231E0,-3.453080654E-1
2.939962463E1,3.967523813E0,2.761825800E0,3.614630103E-1
2.945162439E1,8.539437652E-1,1.838197351E0,1.577084780E0
2.950162442E1,-1.763613820E0,3.607263088E0,4.497020721E0
2.955162465E1,-9.316152930E-1,-4.385297775E0,-2.436299801E0
2.960362431E1,2.164860487E0,-1.210020304E0,-3.040445566E0
2.965362444E1,5.698914528E-1,-1.957108378E0,-2.675759077E0
2.970562440E1,1.502270401E-1,-1.257667780E0,-1.925616503E0
2.975762426E1,-1.055010080E0,-9.607871771E-1,-9.164671302E-1
2.980762436E1,-2.039113998E0,-1.409162283E0,4.805817306E-1
2.985962438E1,-2.823465109E0,-2.075005293E0,1.539211154E0
2.990962441E1,-3.804514647E0,-5.443927288E0,2.331503391E0
2.996162430E1,-3.383628368E0,-5.797007561E0,1.948490977E0
3.001362433E1,-1.422140121E0,-6.615670864E-3,1.786000729E0
3.006562429E1,-1.288360596E0,-3.884999037E0,1.588080406E0
3.011762426E1,-4.508643746E-1,-4.756703377E0,1.317467213E0
3.016762435E1,2.119244188E-1,-1.820274591E0,1.965595126E0
3.021762451E1,-2.114052027E-1,-2.976031780E0,1.877630472E0
3.026962450E1,-5.082857013E-1,-9.552893639E-1,2.446346283E0
3.032162433E1,-4.924032092E-1,-1.042643070E0,2.202610731E0
3.037162436E1,-1.625359654E-1,-8.386141062E-1,1.780502915E0
3.042362436E1,2.840065360E-1,-3.351102829E0,1.460409522E0
3.047562425E1,1.103176713E0,-6.065788269E0,9.747717381E-1
3.052762421E1,-3.036458492E-1,-5.428655624E0,-2.297633410E0
3.057762428E1,-3.474647284E0,-1.721601635E-1,-5.096007347E0
3.062962424E1,-2.097146273E0,7.379355907E0,-3.294565439E0
3.067962433E1,-9.595166147E-2,-3.407302380E0,-3.044110775E0
3.073162423E1,6.218150258E-1,1.110046029E0,-7.894071341E-1
3.078362419E1,1.137385249E0,2.783205748E0,2.648542404E0
3.083362425E1,4.210388660E-2,1.964035630E0,3.044994116E0
3.088362441E1,-1.007973433E0,1.476565242E0,2.793317556E0
3.093562424E1,-8.577006459E-1,1.533986449E0,2.681529284E0
3.098762420E1,-9.132893682E-1,2.050778627E0,1.477513790E0
3.103762429E1,-1.231550217E0,3.734933853E0,6.027547717E-1
3.108962419E1,-1.628612518E0,5.405650616E0,-1.036807537E0
3.114162411E1,-1.679314375E0,5.873573303E0,-2.324511528E0
3.119162421E1,-4.997335672E-1,6.199164391E0,-3.695904016E0
3.124162424E1,-1.716989428E-1,6.069661140E0,-4.163215637E0
3.129362420E1,7.073361278E-1,5.376328945E0,-3.458888292E0
3.134362430E1,1.045755506E0,3.328097582E0,-3.016011000E0
3.139362449E1,7.775856256E-1,9.945924878E-1,-1.777176142E0
3.144562418E1,3.505908549E-1,-3.218221366E-1,-1.065518141E0
3.149762418E1,7.020369172E-2,-8.752660751E-1,-2.487913668E-1
3.154762424E1,3.294090554E-2,-8.398358822E-1,8.849745393E-1
3.159962413E1,-8.312349021E-2,-7.133867741E-1,1.932608366E0
3.164962420E1,5.248859897E-2,-2.405770570E-1,2.296073198E0
3.169962430E1,1.893224120E-1,3.886141479E-1,2.776213408E0
3.175162419E1,-5.929974467E-2,1.042850852E0,3.383413315E0
3.180162432E1,-4.673577249E-1,1.525434375E0,3.142121553E0
3.185362428E1,-6.762736440E-1,1.738015532E0,2.572184324E0
3.190362451E1,-1.002475739E0,7.545223832E-1,2.692524910E0
3.195562440E1,-9.682672024E-1,-1.342578053E0,2.346775055E0
3.200762416E1,-1.266980290E0,-1.624797702E0,2.643655539E0
3.205762422E1,-8.809134960E-1,-3.450062990E0,2.753611326E0
3.210762425E1,-1.435991526E-1,-2.027968645E0,1.962540746E0
3.215962418E1,2.809522152E-1,-1.079295039E0,3.822324276E-1
3.220962437E1,2.950021029E-1,1.017805338E0,1.388069056E-2
3.226162430E1,-2.553874850E-1,8.864693046E-1,-5.218481421E-1
3.231362403E1,-1.551032662E0,2.594448566E0,-2.261893451E-1
3.236362412E1,-4.959049702E0,-1.812333345E0,4.503481835E-2
3.241561214E1,2.282757521E0,1.632946610E0,-1.852923512E0
3.246561221E1,-1.584019423E0,5.724845529E-1,-2.751506329E0
3.251561233E1,-3.690084219E-1,2.574290037E0,-1.375837803E0
3.256761223E1,-1.497077942E-1,2.035219669E-1,-9.103583694E-1
3.261961216E1,4.434423447E-1,-8.716008067E-1,-1.162336022E-1
3.266961222E1,4.941441715E-1,-1.571652412E0,3.510783017E-1
3.272161214E1,2.412459552E-1,-2.114100933E0,3.694042563E-1
3.277161218E1,9.113650918E-1,-2.214893579E0,7.127104998E-1
3.282361210E1,9.926102161E-1,-5.499516010E0,6.968280673E-1
3.287361213E1,2.736218274E-1,-5.524561405E0,-6.308832765E-2
3.292561213E1,7.519293427E-1,-1.627241254E0,9.130743146E-1
3.297761212E1,6.431953311E-1,-3.169676065E0,3.028199375E-1
3.302961212E1,5.295743346E-1,-1.528891802E0,-1.999221444E-1
3.308161211E1,5.796653032E-1,-1.627852082E0,-5.090199709E-1
3.313161224E1,1.024375200E0,-3.387754917E0,4.442395270E-2
3.318361213E1,1.662118554E0,-6.542262554E0,-1.241447330E0
3.323561207E1,-4.691903293E-1,1.249323249E0,-3.584115744E0
3.328561216E1,2.119244188E-1,4.141769886E0,-5.874860287E0
3.333761208E1,-1.692753434E0,-8.255740166E0,-3.824796677E0
3.338961205E1,-4.097378626E-2,1.974420309E0,-2.593292236E0
3.343961211E1,6.981731653E-1,3.591991425E0,6.278914452E0
3.349161207E1,-9.633803368E-1,2.849790335E0,4.684556007E0
3.354161210E1,-2.449615479E0,7.245900035E-1,8.159467578E-1
3.359361206E1,-2.553462744E0,8.253828287E-1,2.154662162E-1
3.364361212E1,-3.264509678E0,2.948139429E0,-1.281764507E0
3.369561208E1,-3.461208344E0,3.321989059E0,-1.981205225E0
3.374761208E1,-3.636526585E0,2.813138247E0,-3.931698084E0
3.379761210E1,-3.839944839E0,2.794201374E0,-4.643966675E0
3.384961210E1,-2.109974384E0,4.394057751E0,-4.253013134E0
3.390161206E1,-1.071503401E0,4.826550484E0,-3.275017738E0
3.395161209E1,-1.478752047E-1,3.242576599E0,-2.844968796E0
3.400361205E1,3.273779750E-1,8.192741871E-1,-2.416141272E0
3.405561195E1,5.692805648E-1,-2.735637724E-1,-1.138822079E0
3.410561201E1,6.028781533E-1,4.527550042E-1,4.717712291E-3
3.415561203E1,4.104556143E-1,6.793859601E-1,8.752006888E-1
3.420761200E1,-3.781713843E-1,-4.672080576E-1,1.652832150E0
3.425761202E1,-2.816546857E-1,-1.982153893E0,1.998581886E0
3.430961195E1,1.025795415E-1,-2.076837778E0,3.167166948E0
3.435961215E1,5.081940889E-1,-2.149207145E-1,3.705339432E0
3.441161211E1,4.660443664E-1,2.210214376E0,3.237416506E0
3.446361194E1,-7.640396804E-2,1.402039528E0,3.289340019E0
3.451361217E1,-4.160450399E-1,-8.911485672E-1,2.589899302E0
3.456561209E1,-1.338253021E-1,-2.479398251E0,1.846476436E0
3.461761189E1,6.470590085E-2,-1.465972781E0,1.061514497E0
3.466761215E1,-7.376197726E-3,7.093183994E-1,1.702621877E-1
3.471961205E1,4.422205985E-1,3.692173243E0,-1.247857213E-1
3.477161188E1,1.227793336E0,3.724549294E0,-2.390175164E-1
3.482161221E1,1.094013810E0,1.877292752E0,-2.994931936E-1
3.487361210E1,7.836942673E-1,-7.579799294E-1,8.904722929E-1
3.492561189E1,8.533329368E-1,4.606962204E-1,1.933830142E0
3.497561212E1,8.606633544E-1,-3.572523296E-1,2.145189524E0
3.502761212E1,5.625610948E-1,5.767606497E-1,2.045007706E0
3.507961181E1,3.444821835E-1,-3.157134652E-1,1.523328781E0
3.512961208E1,3.750254512E-1,-1.732920885E0,1.070677638E0
3.517961210E1,4.617682993E-1,4.814656675E-1,1.376721025E0
3.523161186E1,5.845522285E-1,-4.287235439E-1,1.685818791E0
3.528161200E1,-3.665649593E-1,1.803091019E-1,2.548360586E0
3.533161202E1,1.819920391E-1,-2.717311978E-1,2.400531292E0
3.538361202E1,-1.580354214E0,-2.127539873E0,1.481178999E0
3.543561201E1,-8.302116990E-1,-5.877030849E0,1.082284093E0
3.548761204E1,-1.772776723E0,-4.433556080E0,7.200409174E-1
3.553961197E1,-2.483824015E0,-4.540457726E0,8.122815490E-1
3.559161193E1,-2.144182920E0,-3.183725834E0,-2.756694257E-1
3.564161196E1,-9.059590101E-1,-2.280866861E0,1.165972590E0
3.569361188E1,-5.553223491E-1,-8.844290376E-1,9.973737001E-1
3.574561185E1,-1.319927126E-1,-1.382284164E0,7.347016335E-1
3.579561191E1,3.554777503E-1,-1.065245152E0,1.073731899E0
3.584761187E1,-1.228297278E-1,-9.846109152E-1,8.281640410E-1
3.589961180E1,-3.232744694E0,6.567839980E-1,-1.254886508E0
3.594961186E1,-4.586421967E0,3.461266279E0,-4.549282551E0
3.600161179E1,-5.478285313E0,-8.360198021E0,-1.794280410E0
3.605161182E1,-8.574150085E0,-7.583787918E0,-5.831488609E0
3.610361181E1,3.420188665E0,7.358586311E0,1.286312938E0
3.615561177E1,-4.545295835E-1,8.943170547E0,8.009495735E0
3.620561197E1,-4.374253154E-1,8.105064392E0,3.123184919E0
3.625761183E1,-1.831419826E0,1.682426810E0,-9.054715037E-1
3.630961183E1,-1.382433891E0,-2.247269392E0,-9.103583694E-1
3.636161182E1,-1.373270869E0,-1.268663168E0,-1.642175078E0
3.641161188E1,-1.119761825E0,1.822314858E0,-1.753352404E0
3.646361178E1,-6.988756657E-1,4.100842476E0,-1.235949636E0
3.651361184E1,-1.026711762E-1,4.621910095E0,-1.325746775E0
3.656561180E1,8.506298065E-3,3.346423626E0,-1.406991839E0
3.661761179E1,2.858391106E-1,1.441135049E0,-1.381946445E0
3.666961169E1,6.425843835E-1,6.607729197E-2,-9.751101732E-1
3.671961188E1,6.541908383E-1,1.570962220E-1,-5.401740670E-1
3.676961194E1,6.548017859E-1,1.254210234E0,2.496746778E-1
3.682161171E1,5.460677147E-1,1.990913749E0,8.764224052E-1
3.687361170E1,2.369698882E-1,1.682426810E0,1.087781787E0
3.692561170E1,-3.610671759E-1,5.645433068E-1,1.486065865E0
3.697761169E1,-8.631983995E-1,-7.763059139E-1,1.646112680E0
3.702761179E1,-1.026910305E0,-1.641291022E0,1.622288942E0
3.707961171E1,-8.589223623E-1,-1.521561503E0,1.321132302E0
3.713161168E1,-6.017481089E-1,-5.203533173E-1,1.119546771E0
3.718361167E1,-4.954575300E-1,1.080724478E0,9.863781929E-1
3.723361170E1,-3.628997803E-1,1.702585340E0,7.469190359E-1
3.728361176E1,-2.242333591E-1,1.188236713E0,4.530928135E-1
3.733361182E1,-1.057255045E-1,3.000386953E-1,2.734984159E-1
3.738561181E1,1.306793541E-1,-4.623211324E-1,4.976859689E-1
3.743761168E1,4.348902404E-1,8.684670925E-2,6.687282324E-1
3.748761174E1,5.381264687E-1,7.917852402E-1,6.137503386E-1
3.753761183E1,5.607284307E-1,3.965553939E-1,2.563942075E-1
3.758961166E1,5.362938643E-1,-7.625430822E-2,-3.306473196E-1
3.763961182E1,6.859558821E-1,-4.391082823E-1,-3.569145203E-1
3.768961192E1,6.877884269E-1,-4.311670363E-1,-4.008968174E-1
3.774161164E1,7.262729406E-1,2.542237937E-1,-5.560565591E-1
3.779161184E1,7.659791708E-1,7.282552719E-1,-4.552638233E-1
3.784361177E1,9.046456218E-1,7.410833836E-1,-2.048090696E-1
3.789561163E1,7.299381495E-1,1.408759117E0,7.017149925E-1
3.794561183E1,5.045288801E-1,2.407847643E-1,1.194072366E0
3.799561185E1,5.735566616E-1,1.473223716E-1,1.877630472E0
3.804761172E1,8.447808027E-1,-3.199895322E-1,2.367544413E0
3.809761178E1,6.150954366E-1,-2.613464594E-1,2.603338480E0
3.814761187E1,7.543727160E-1,-1.214296222E0,2.338222980E0
3.819961153E1,-1.576078176E0,-2.540484667E0,1.034025669E0
3.824961160E1,-9.591042399E-1,-2.750011444E0,-1.868195057E0
3.829961192E1,1.789789319E0,4.606962204E-1,1.431698918E0
3.835161189E1,-9.297826886E-1,-3.988235235E0,5.783202052E-1
3.840361178E1,-8.412072659E-1,-4.842835903E0,1.840978622E0
3.845561164E1,-3.885561228E-1,-3.385922194E0,2.228878260E0
3.850761150E1,-7.165907621E-1,-1.255224228E0,1.946047544E0
3.855761170E1,-5.186704397E-1,-1.108005762E0,1.800661445E0
3.860961166E1,-2.443919033E-1,-1.539887428E0,1.710864425E0
3.866161148E1,2.805398591E-2,-3.306509733E0,1.773172617E0
3.871161155E1,1.203358769E0,-6.399320126E0,1.605795503E0
3.876161157E1,1.887115538E-1,-8.581618071E-1,-1.763126373E0
3.881161160E1,-1.841193557E0,2.603000641E0,-5.594473362E0
3.886361149E1,-1.863795638E0,-6.952153206E0,-2.354443789E0
3.891361152E1,1.386007428E0,4.042095318E-2,-3.912150145E0
3.896361158E1,1.720150709E0,6.243757248E0,3.181827784E0
3.901561152E1,8.527220488E-1,5.657938004E0,5.015034676E0
3.906761148E1,-4.337601364E-1,1.570638418E0,2.456730604E0
3.911961150E1,-6.451194882E-1,4.258769155E-1,2.056613922E0
3.917161149E1,-1.069670916E0,1.439302325E0,9.564457536E-1
3.922361146E1,-1.785604954E0,3.839391947E0,-6.324147582E-1
3.927361162E1,-2.162508726E0,5.966424942E0,-2.373380661E0
3.932561141E1,-1.267591238E0,6.508872986E0,-3.623210907E0
3.937561168E1,8.001877069E-1,7.069647312E0,-3.351986885E0
3.942761167E1,2.022529125E0,4.609082222E0,-4.337923527E0
3.947961140E1,1.551551938E0,1.881568789E0,-3.675134420E0
3.952961143E1,6.975623369E-1,-4.079541266E-1,-2.683700085E0
3.957961149E1,1.221272349E-1,-1.329749703E0,-1.100948334E0
3.963161142E1,1.911550164E-1,-1.437872887E0,-2.286328077E-1
3.968361141E1,6.890102029E-1,-9.210809469E-1,5.245640278E-1
3.973367311E1,1.254060507E0,-2.497400343E-1,9.949303269E-1
3.978567304E1,1.563158274E0,3.629578054E-1,1.386494875E0
3.983567307E1,1.312092781E0,1.098439574E0,1.726135969E0
3.988767299E1,4.037361145E-1,1.701363564E0,1.928332448E0
3.993767302E1,-8.149400353E-1,2.252974749E0,1.696203589E0
3.998967302E1,-1.375714302E0,7.691831589E-1,1.855639458E0
4.004167298E1,-1.300577879E0,-1.486742139E0,2.943590403E0
4.009167305E1,-5.779243112E-1,-1.530724525E0,2.972301006E0
4.014167324E1,-3.861126304E-1,-1.456198812E0,3.005898714E0
4.019367313E1,-1.344361752E-1,-2.604014635E0,2.470780849E0
4.024567303E1,9.647089243E-2,-2.330957890E0,1.790887713E0
4.029767299E1,2.461328804E-1,-2.853247881E0,6.974388957E-1
4.034767305E1,1.606117338E-1,-1.902130485E0,-2.555108666E-1
4.039967301E1,7.264714688E-2,-2.234728336E-1,-7.558094859E-1
4.045167301E1,-6.616128683E-1,3.325043440E0,-1.925917715E-1
4.050167321E1,-1.552865267E0,5.938648582E-1,2.001945972E-1
4.055367304E1,-5.188124657E0,4.937116623E0,2.935649157E0
4.060367317E1,-2.720228672E0,-2.972977400E0,-2.268002182E-1
4.065567313E1,-1.423972607E0,2.158901691E0,-2.380100012E0
4.070767292E1,-9.829279780E-1,-6.052635908E-1,-6.745644808E-1
4.075767312E1,-6.719975471E-1,-2.350505590E0,-2.970497012E-1
4.080767318E1,-4.588055909E-1,-6.736805439E-1,5.306726694E-1
4.085967290E1,7.264714688E-2,-2.111046314E0,6.785020828E-1
4.090967307E1,2.216982692E-1,-2.277201891E0,4.329342246E-1
4.095967313E1,4.532161951E-1,-2.274147511E0,7.347016335E-1
4.101167289E1,1.116615891E0,-3.897216320E0,6.772803068E-1
4.106167299E1,1.988931417E0,-8.847057343E0,-4.283857346E-1
4.111167301E1,4.605465829E-1,-4.730436325E0,-2.562137842E0
4.116367288E1,-1.627390862E0,9.139582515E-1,-5.310420990E0
4.121367291E1,-6.866583228E-1,-1.355082393E-1,-2.626278877E0
4.126567293E1,-2.077598572E0,-5.081073284E0,-3.253026724E0
4.131567306E1,-1.759750098E-1,2.164399385E0,2.759419084E-1
4.136767299E1,6.714936346E-2,4.604805946E0,2.361435890E0
4.141967292E1,-1.077001214E0,2.855288029E0,2.054781437E0
4.147167291E1,-1.449629068E0,6.683904529E-1,1.804937601E0
4.152167301E1,-1.726961970E0,9.090713263E-1,1.057238579E0
4.157367283E1,-2.340270519E0,2.608498573E0,1.036778763E-1
4.162367293E1,-3.142947435E0,3.628643274E0,-9.757210016E-1
4.167567289E1,-3.136228085E0,4.124666214E0,-2.375213385E0
4.172767285E1,-2.966407537E0,3.290834904E0,-3.571287394E0
4.177767288E1,-2.855840921E0,3.784414053E0,-4.281112671E0
4.182967284E1,-2.102643967E0,4.536389351E0,-3.804637909E0
4.188167284E1,-1.555919528E0,4.546773911E0,-3.314724207E0
4.193367283E1,-9.358913302E-1,3.584661245E0,-3.088093042E0
4.198567280E1,-2.792112529E-1,1.273757935E0,-2.456458330E0
4.203567282E1,-3.745062053E-1,-2.417987883E-1,-1.471132636E0
4.208567285E1,-3.303254023E-2,7.524026930E-2,-3.428646326E-1
4.213767278E1,7.311599255E-1,1.769780517E0,9.332329035E-1
4.218767284E1,6.370866299E-1,3.087416649E0,2.585623264E0
4.223967287E1,2.424676865E-1,2.303676844E0,4.055975914E0
4.228967293E1,-3.763388097E-1,6.366254091E-1,4.691886902E0
4.234167279E1,-1.790293306E-1,9.756556153E-1,6.032124996E0
4.239367275E1,-9.572716951E-1,-2.741746604E-1,5.963707924E0
4.244367285E1,-1.343949318E0,-2.186793804E0,5.257547855E0
4.249567284E1,-1.285917163E0,-1.600363016E0,4.555052757E0
4.254767280E1,-9.419999719E-1,-2.201454639E0,3.181216955E0
4.259967276E1,-4.667468667E-1,-1.941836834E0,1.561202407E0
4.264967279E1,9.076999426E-1,2.022678614E0,2.533398867E-1
4.270167275E1,1.814834833E0,6.339052677E0,6.137503386E-1
4.275167282E1,-1.393230855E-1,2.391641378E0,-2.329088748E-1
4.280367278E1,-3.463651896E0,6.598383188E-1,-7.063294053E-1
4.285367281E1,-1.430692315E0,-2.356901467E-1,-2.354443789E0
4.290567277E1,-1.303021312E0,1.173899770E-1,-3.497372866E0
4.295567290E1,-1.549200058E0,-4.812579751E-1,-2.906666040E0
4.300767279E1,-9.090133309E-1,-9.992716908E-1,-1.662333488E0
4.305967273E1,-1.188789606E0,-1.446425080E0,-6.513515711E-1
4.310967285E1,-3.176957369E-1,-1.798283458E0,-2.887987718E-2
4.316167278E1,-4.362035990E-1,-2.360890388E0,5.648811460E-1
4.321367274E1,-3.592346013E-1,-3.470832586E0,6.839998960E-1
4.326567274E1,3.548668921E-1,-1.941836834E0,1.317467213E0
4.331567290E1,5.582850575E-1,-2.927773237E0,1.929554105E0
4.336767263E1,9.009804130E-1,-3.728006840E0,2.184895754E0
4.341767286E1,1.172204614E0,-5.329084396E0,2.012631655E0
4.346767288E1,1.674946666E0,-8.035218239E0,6.839998960E-1
4.351967261E1,1.585149527E0,-3.580788374E0,-1.725863576E0
4.356967284E1,6.959282607E-2,-1.916791201E0,-4.934127808E0
4.361967287E1,-1.101435781E0,-2.474511147E0,-3.264022112E0
4.367167260E1,-4.362845421E0,-6.265541077E0,-5.106391430E0
4.372167283E1,1.643181682E0,4.911460400E0,-6.403559446E-1
4.377367285E1,8.924282789E-1,6.833242893E0,4.366906166E0
4.382367288E1,-1.228495836E0,3.834504843E0,2.136637449E0
4.387567278E1,-2.302397013E0,-1.220691949E-1,1.482710391E-1
4.392767281E1,-2.163119555E0,-1.680997372E0,-1.669354290E-1
4.397967260E1,-2.855840921E0,1.406315684E0,-1.003209949E0
4.402967290E1,-3.146001816E0,3.449048996E0,-1.015427232E0
4.408167272E1,-3.880261898E0,3.839391947E0,-2.043513536E0
4.413367262E1,-3.836279631E0,2.822912216E0,-3.461942673E0
4.418567265E1,-3.815510273E0,1.902949095E0,-3.698958158E0
4.423567298E1,-3.086137056E0,4.151544094E0,-2.766166925E0
4.428767254E1,-1.255984783E0,5.840586662E0,-1.592694998E0
4.433967250E1,5.497329235E-1,5.689702511E0,-1.650727034E0
4.438967279E1,8.954825997E-1,3.832672358E0,-1.845593095E0
4.444167275E1,1.002994895E0,2.227929354E0,-1.096672416E0
4.449167285E1,3.902970850E-1,6.103582382E-1,-2.158046365E-1
4.454367281E1,-6.249609590E-1,7.759026885E-1,1.931386709E0
4.459567257E1,-1.142363787E0,3.553403169E-2,2.884947300E0
4.464767250E1,-1.224830747E0,-6.846761107E-1,4.355299950E0
4.469767279E1,-1.118540049E0,-5.350140929E-1,5.003428459E0
4.474967265E1,-1.012249470E0,-6.523002386E-1,5.498839855E0
4.479967275E1,-9.084023833E-1,-1.477579236E0,5.762733459E0
4.484967288E1,-5.974720716E-1,-2.856302023E0,4.895304680E0
4.490167247E1,3.377626538E-1,-3.323614120E0,3.655248642E0
4.495167250E1,6.230367422E-1,-1.217350602E0,2.015686274E0
4.500167270E1,5.417916775E-1,1.679372430E0,1.221561313E0
4.505367262E1,5.747783780E-1,-4.647646248E-1,1.794251651E-1
4.510567256E1,2.309635639E0,6.213538051E-1,-8.621001244E-1
4.515567261E1,2.369698882E-1,5.917555809E0,1.493396401E0
4.520767244E1,-3.333537340E0,-9.103010178E0,1.792109370E0
4.525767264E1,-1.978638291E0,-6.468024254E-1,-4.089301109E0
4.530967260E1,-1.034240723E0,-7.805818915E-1,-3.088093042E0
4.536167256E1,-1.130146503E0,1.406028569E-1,-2.912774563E0
4.541367249E1,-1.469787598E0,4.472571909E-1,-1.704483271E0
4.546367251E1,-1.295691013E0,-1.905184865E0,-2.216035873E-2
4.551367257E1,-9.591042399E-1,-4.042602062E0,1.023640871E0
4.556567254E1,-7.373601794E-1,-5.355962276E0,1.946047544E0
4.561567267E1,-1.100824952E0,-6.258210659E0,2.018129587E0
4.566767246E1,5.737552047E-2,-3.938144207E0,3.034308255E-1
4.571967242E1,-1.715004072E-2,-6.730696559E-1,1.548985124E0
4.576967245E1,3.768580258E-1,-2.799491405E0,8.159467578E-1
4.581967251E1,7.549836636E-1,-4.123847485E0,5.770984292E-1
4.587167241E1,1.637073040E0,-6.007144928E0,-6.098127365E-1
4.592167251E1,1.877753854E0,-5.375510216E0,-2.008083344E0
4.597167253E1,-1.058064461E0,4.820765257E-1,-3.496151209E0
4.602367243E1,-2.251695156E0,3.204092026E0,-3.430788279E0
4.607367286E1,-3.772749424E0,-6.434750557E0,-3.570676565E0
4.612367288E1,-6.832573891E0,-2.235662937E0,-7.701347351E0
4.617567247E1,2.291309834E0,1.046666908E1,4.897137642E0
4.622767223E1,-9.609368443E-1,9.722634315E0,8.688166618E0
4.627767260E1,-2.146626234E0,3.543122292E0,1.755457520E0
4.632967252E1,-2.157621861E0,-1.600363016E0,-8.721322753E-3
4.638167242E1,-2.053774595E0,-2.610734224E0,7.548602223E-1
4.643167268E1,-2.878442764E0,-2.677422389E-2,-3.172082901E-1
4.648167277E1,-3.908972502E0,5.006144524E0,-1.912177324E0
4.653367243E1,-3.389126301E0,5.536986351E0,-2.997074127E0
4.658367246E1,-1.659766674E0,5.190626144E0,-4.138170242E0
4.663567236E1,-6.664997935E-1,5.438637257E0,-3.893213272E0
4.668567245E1,-3.119994141E-2,4.632295132E0,-2.373991489E0
4.673567255E1,1.404531896E-1,2.904767990E0,-1.655003190E0
4.678767241E1,5.112484097E-1,5.260588527E-1,-9.769427776E-1
4.683967230E1,3.133280575E-1,-6.339743137E-1,5.114347115E-2
4.688967243E1,4.263381362E-1,-7.414865494E-1,1.033414841E0
4.694161085E1,5.527872443E-1,1.173899770E-1,1.812267900E0
4.699361081E1,3.188258410E-1,5.590455532E-1,1.873354435E0
4.704361084E1,-6.765332539E-3,-8.602815121E-2,2.297905684E0
4.709361103E1,-4.807967544E-1,-2.387444675E-1,2.321729422E0
4.714561080E1,-7.648491263E-1,-7.616451383E-1,2.562410355E0
4.719761072E1,-1.003086567E0,-8.783203959E-1,2.763385296E0
4.724961072E1,-7.795099020E-1,-4.995839298E-1,2.552636623E0
4.729961081E1,-3.763388097E-1,-1.281778514E-1,1.963762522E0
4.735161081E1,1.386205852E-1,3.208081126E-1,2.043174982E0
4.740361077E1,2.785087228E-1,8.760845661E-1,1.676655889E0
4.745561076E1,4.027128965E-2,1.016583562E0,1.661384225E0
4.750761076E1,7.690334916E-1,-7.964644432E-1,1.789666057E0
4.755961075E1,1.096457243E0,-1.929008603E0,1.157420397E0
4.761161075E1,9.858906865E-1,1.375485212E-1,7.640231848E-1
4.766361074E1,9.101433754E-1,1.786273837E0,-4.705354571E-1
4.771361077E1,6.645755768E-1,1.149752140E0,-4.796984196E-1
4.776561074E1,8.288983107E-1,6.989337206E-1,-1.242669106E0
4.781561080E1,1.300486326E0,9.933707118E-1,-1.249999523E0
4.786761076E1,1.832549930E0,7.331421375E-1,-1.521223664E0
4.791961076E1,1.233489588E-1,1.694644094E0,-1.304366469E0
4.797161075E1,-1.747731328E0,-1.794905365E-1,-1.708148479E0
4.802361074E1,-2.307894707E0,-4.519688129E0,-1.398439646E0
4.807561074E1,-1.466733217E0,4.434374332E0,-5.030033588E0
4.812761070E1,1.272386432E0,-1.550883055E0,-2.778995037E0
4.817961069E1,-1.392207742E0,-1.661449552E0,-4.419779301E0
4.823161066E1,-5.302768350E-1,4.062968731E0,-4.961917996E-1
4.828161072E1,-8.680853248E-1,-3.181282520E0,-1.150118783E-1
4.833361071E1,2.351372987E-1,-1.809889913E0,6.223024726E-1
4.838561064E1,-6.157979965E-1,5.633215904E-1,1.765231371E0
4.843561067E1,-1.075581014E-1,5.401086807E-1,1.269208789E0
4.848761063E1,-1.409571525E-2,-5.765529275E-1,2.094487906E0
4.853761079E1,-5.258022621E-2,-1.081738472E0,2.161682844E0
4.858961069E1,-9.411906451E-2,-1.032869220E0,1.878852248E0
4.864161061E1,-3.975205496E-2,-1.351130128E0,1.682153702E0
4.869161065E1,2.072360367E-2,-3.512982130E0,1.498283148E0
4.874161067E1,-1.348484959E-2,-3.674250603E0,1.456133604E0
4.879161070E1,-1.961335540E-1,-3.269857883E0,1.555704594E0
4.884161073E1,-1.287398487E-2,-3.824523449E0,1.729801178E0
4.889161076E1,-3.702301681E-1,-3.790925741E0,8.788658977E-1
4.894361068E1,8.914051205E-2,1.173899770E-1,1.825096250E0
4.899561065E1,5.393481851E-1,-2.392044544E0,1.005314946E0
4.904561074E1,5.680588484E-1,-2.220391273E0,9.759934545E-1
4.909761067E1,7.570147514E-2,-2.262541056E0,9.356763363E-1
4.914961059E1,-9.717338532E-2,-4.093304157E0,9.595000744E-1
4.920161059E1,8.386721611E-1,-7.100593567E0,-8.080342412E-2
4.925161079E1,-8.862127364E-2,-1.737807751E0,-1.608577371E0
4.930361055E1,-1.226663232E0,-1.666623652E-1,-5.475965500E0
4.935361081E1,-7.306406498E-1,-2.257043123E0,-4.450933456E0
4.940561077E1,-1.405448169E-1,-2.418922663E0,-5.348294258E0
4.945761053E1,1.126389623E0,6.106924057E0,2.272860289E0
4.950761100E1,5.210222006E-1,5.912057400E0,3.140899897E0
4.955961082E1,-1.039127588E0,2.187612295E0,1.970482111E0
4.961161049E1,-1.403203249E0,6.732773185E-1,1.359005928E0
4.966161068E1,-1.615784407E0,1.479008555E0,2.295161337E-1
4.971161074E1,-2.500317335E0,2.726395607E0,-1.039861798E0
4.976361050E1,-2.751382828E0,3.458822727E0,-2.127201796E0
4.981361067E1,-1.937710285E0,4.912071228E0,-2.219442606E0
4.986561066E1,-7.367493510E-1,4.164982796E0,-9.989339113E-1
4.991761046E1,-6.701650023E-1,1.173899770E-1,-7.582529783E-1
4.996761062E1,-4.368144572E-1,-1.328528047E0,2.365453541E-2
5.001961064E1,1.196837798E-1,-4.629320204E-1,-2.188589573E-1
5.007161051E1,3.188258410E-1,4.949046969E-1,2.731972747E-2
5.012161054E1,4.245055318E-1,6.812185645E-1,-1.699897498E-1
5.017161056E1,5.839413404E-1,-1.150259282E-2,-3.446972072E-1
5.022161063E1,4.183968902E-1,6.011952758E-1,-1.284509152E-1
5.027361059E1,5.106375217E-1,7.862874269E-1,5.392248034E-1
5.032561055E1,7.830834389E-1,3.427992463E-1,9.588892460E-1
5.037761048E1,5.692805648E-1,4.930721223E-1,1.443305373E0
5.042761051E1,9.028130174E-1,1.663489819E0,1.743851066E0
5.047961050E1,8.844870329E-1,1.060565948E0,2.265530109E0
5.053161050E1,3.725819588E-1,-1.162372708E0,2.194669724E0
5.058361046E1,-6.479752809E-2,-1.375564694E0,2.324173212E0
5.063561046E1,9.728029370E-3,-1.482466102E0,2.005912304E0
5.068761045E1,3.151606321E-1,-7.506495118E-1,9.814912081E-1
5.073961038E1,3.695276380E-1,2.749931812E-1,3.834541738E-1
5.078961044E1,3.444821835E-1,-1.464140177E0,-3.618014157E-1
5.084161040E1,-4.795750380E-1,1.778656244E-1,-4.357161224E-1
5.089361040E1,-4.288732409E-1,4.838767529E0,8.978026509E-1
5.094361046E1,-1.287138939E0,1.882790565E0,1.154976964E0
5.099561035E1,-2.301175356E0,8.455412984E-1,4.347668588E-1
5.104561045E1,-1.406257510E0,-1.506900787E0,-8.437740803E-1
5.109761047E1,-6.084675789E-1,-2.766180933E-1,-1.703872442E0
5.114961043E1,-7.098712325E-1,9.182342887E-1,-2.210279703E0
5.120161043E1,-5.376072526E-1,-1.944280267E0,-1.452806711E0
5.125361036E1,-6.402326226E-1,-1.555159092E0,-2.903302014E-1
5.130361038E1,-5.620418787E-1,-2.992524862E0,-4.583181441E-1
5.135361045E1,1.044121385E-1,-3.119585037E0,-1.748766601E-1
5.140561041E1,4.452749491E-1,-1.574095964E0,-9.546418488E-2
5.145761034E1,4.874246418E-1,-2.156250477E0,-1.971689798E-2
5.150761047E1,4.611574411E-1,-9.418503642E-1,3.767346442E-1
5.155761053E1,1.178511828E-1,-1.503846407E0,2.728875279E-1
5.160961032E1,9.280569851E-2,-3.282075167E0,1.995837241E-1
5.166161021E1,7.959116101E-1,-6.754233360E0,-4.363270104E-1
5.171161037E1,5.766109824E-1,-1.819052815E0,-3.921313286E0
5.176161050E1,-7.579310238E-2,1.646385789E0,-6.398982525E0
5.181161053E1,-1.081277370E0,-3.390198231E0,-3.485766411E0
5.186361042E1,-1.246623248E-1,-1.375564694E0,-2.315959454E0
5.191361045E1,1.871645212E0,3.638417244E0,4.251452923E0
5.196561031E1,7.158882618E-1,4.168037415E0,4.863540173E0
5.201561051E1,-1.073946953E0,1.785663009E0,2.058446884E0
5.206761037E1,-1.062951326E0,4.191574156E-1,1.966816902E0
5.211961036E1,-1.791102648E0,2.003130913E0,1.226147115E-1
5.216961039E1,-2.348212004E0,4.640847206E0,-1.076513767E0
5.222161035E1,-2.398913622E0,4.796617508E0,-2.384987116E0
5.227361015E1,-1.654879808E0,3.639028072E0,-3.036780357E0
5.232361048E1,-7.477448583E-1,3.714164495E0,-3.788144588E0
5.237561040E1,4.446640909E-1,3.522963524E0,-3.702012777E0
5.242761016E1,8.508894444E-1,3.045877934E0,-3.028228283E0
5.247761049E1,8.655502200E-1,1.603014231E0,-2.367271900E0
5.252961039E1,6.376975179E-1,1.143356487E-1,-1.323303342E0
5.258161022E1,6.462496519E-1,-3.688587546E-1,-6.654015183E-1
5.263161035E1,7.849160433E-1,-2.937223315E-1,-1.211205274E-1
5.268361034E1,8.307309151E-1,-1.190148741E-1,8.098381162E-1
5.273561023E1,7.537618876E-1,1.448789090E-1,1.246606827E0
5.278561030E1,4.715421498E-1,1.324459672E0,1.486065865E0
5.283561056E1,4.092338979E-1,1.764282703E0,1.903897762E0
5.288761029E1,4.519944787E-1,1.103326559E0,2.698633432E0
5.293961032E1,2.754544020E-1,2.102414817E-1,2.676031590E0
5.298961051E1,-4.586071149E-2,-7.915775180E-1,3.270403385E0
5.304161027E1,-2.816546857E-1,-1.138548970E0,2.720013618E0
5.309161037E1,-9.045387059E-2,-1.306213289E-1,2.091433287E0
5.314161043E1,-2.205681652E-1,-1.139159799E0,1.814100623E0
5.319361022E1,5.309946090E-2,-1.539887428E0,1.796385527E0
5.324561002E1,3.285996914E-1,-1.996814728E0,1.743240237E0
5.329561025E1,5.949369669E-1,-1.994982004E0,1.364503741E0
5.334761011E1,7.836942673E-1,-3.660811424E0,8.623725176E-1
5.339761014E1,3.218801618E-1,-2.126929045E0,1.360537410E-1
5.344961036E1,-1.422750950E0,-3.798543513E-1,1.382829666E0
5.350161036E1,-2.895547152E0,4.558991432E0,4.946006775E0
5.355361009E1,-3.315822363E0,-6.957040310E0,-2.280529022E0
5.360361025E1,-2.484434843E0,5.552869320E0,3.871193528E-1
5.365561020E1,-1.606621504E0,2.605444193E0,-1.962879300E0
5.370761017E1,-1.029353738E0,-4.207823277E-1,-1.182193518E0
5.375761026E1,-4.728555381E-1,2.927083075E-1,-7.286217809E-2
5.380961019E1,-6.907358766E-2,-1.305315137E0,6.580423564E-2
5.386161015E1,2.644588351E-1,-1.462307453E0,4.011692405E-1
5.391161028E1,1.807702929E-1,-1.818441987E0,4.512601793E-1
5.396361014E1,1.844354868E-1,-1.711540580E0,6.235242486E-1
5.401561010E1,1.147968546E-1,-2.412203074E0,8.128924370E-1
5.406761007E1,7.794182301E-1,-6.121987820E0,3.523000479E-1
5.411761009E1,1.696326971E0,-6.426809788E0,-1.589029670E0
5.416761012E1,-3.971082270E-1,4.692483544E-1,-5.275601387E0
5.421761022E1,-6.799388528E-1,5.163747787E0,-4.285388470E0
5.426764390E1,-8.326551318E-1,-3.758550167E0,-3.356262922E0
5.431964393E1,9.370214939E-1,1.479008555E0,-8.144525886E-1
5.437164389E1,5.466786027E-1,4.325640678E0,2.432296038E0
5.442364378E1,-6.280152798E-1,3.486922503E0,2.030346870E0
5.447564371E1,-1.157024503E0,1.623783708E0,1.315023661E0
5.452564374E1,-1.029964566E0,1.255431890E0,3.871193528E-1
5.457564376E1,-1.432524800E0,3.331152201E0,-4.155575931E-1
5.462764376E1,-1.799043894E0,4.473470211E0,-1.427761197E0
5.467764389E1,-1.631666899E0,3.653078079E0,-2.637885332E0
5.472964375E1,-9.169545174E-1,4.043420792E0,-3.475992441E0
5.478164375E1,3.355177492E-2,3.629865170E0,-3.601830721E0
5.483164384E1,5.375156403E-1,2.478995085E0,-2.904222727E0
5.488364373E1,7.073361278E-1,1.474732518E0,-2.132699728E0
5.493364377E1,5.973803997E-1,7.441377044E-1,-1.562151670E0
5.498364396E1,2.229200006E-1,1.048855577E-2,-7.631399035E-1
5.503564379E1,5.065600201E-2,-5.710551739E-1,1.268907636E-1
5.508764372E1,3.843869269E-2,-7.494277954E-1,7.127104998E-1
5.513764395E1,7.936666906E-2,-3.541980088E-1,9.912650585E-1
5.518964387E1,-9.819659404E-3,-1.617754400E-1,1.278371692E0
5.524164387E1,-3.303254023E-2,5.691431463E-2,1.649777889E0
5.529164400E1,-5.135849491E-2,6.231864095E-1,1.818376541E0
5.534364382E1,-2.346180677E-1,2.148516893E0,1.850141644E0
5.539564362E1,-6.884909868E-1,1.017805338E0,2.091433287E0
5.544564388E1,-8.418180943E-1,7.392507792E-1,2.334557772E0
5.549564398E1,-7.721794844E-1,-7.439299822E-1,2.721235275E0
5.554764364E1,-6.347348094E-1,-5.976094678E-2,2.852571487E0
5.559764380E1,-5.162269473E-1,-1.169703126E0,2.772548199E0
5.564964383E1,-4.013842642E-1,-7.072781324E-1,2.542862892E0
5.570164359E1,-4.832402468E-1,-1.728644729E0,1.921612740E0
5.575164375E1,-3.598454595E-1,-3.713956833E0,9.478936791E-1
5.580164381E1,-3.427412212E-1,2.071871608E-1,9.756922722E-2
5.585364361E1,5.204113722E-1,3.395903826E0,-8.260590434E-1
5.590364364E1,-3.769496679E-1,4.427044392E0,-2.020911455E0
5.595364370E1,-4.693934441E0,2.643928766E0,-8.752293885E-2
5.600564363E1,-2.847288847E0,-2.159915686E0,-2.287248850E0
5.605564366E1,-3.119734526E0,-6.648045778E-2,-4.113124847E0
5.610764368E1,-1.154993474E-1,3.783803225E0,-1.712424397E0
5.615964358E1,2.656805813E-1,1.155573800E-1,-2.590237856E0
5.620964364E1,8.979260921E-1,-7.213280201E-1,-8.419415355E-1
5.626164363E1,8.460025787E-1,-1.041421413E0,-4.125032425E-1
5.631164369E1,8.796001673E-1,-1.765296698E0,9.680522084E-1
5.636164376E1,9.241933227E-1,-2.562475920E0,1.235000372E0
5.641364355E1,1.017655730E0,-3.393863440E0,1.854417682E0
5.646364368E1,4.941441715E-1,-4.369414806E0,1.470183492E0
5.651564364E1,-2.749351859E-1,-4.239300728E0,9.961519837E-1
5.656764360E1,4.324467778E-1,-1.217961431E0,1.510500431E0
5.661964356E1,5.332395434E-1,-3.272301197E0,1.008980155E0
5.667164356E1,5.979912877E-1,-3.730450153E0,6.198589802E-1
5.672364356E1,9.254150391E-1,-4.855664253E0,2.063032389E-1
5.677364362E1,1.185643673E0,-5.176368237E0,-1.432648182E0
5.682564355E1,-1.175350547E0,-4.458277822E-1,-5.044694424E0
5.687564357E1,-4.429231286E-1,2.819857836E0,-4.308601379E0
5.692764357E1,-1.323790789E0,-6.727355003E0,-3.050830364E0
5.697964350E1,1.771463394E0,1.201675773E0,-1.907290578E0
5.702964362E1,2.229200006E-1,5.723911285E0,2.849517107E0
5.707964368E1,-1.288360596E0,4.537611008E0,2.158628702E0
5.713164365E1,-1.908999801E0,8.745758235E-2,1.380386233E0
5.718364351E1,-1.784383178E0,-1.103729606E0,4.103322327E-1
5.723564350E1,-1.869293451E0,1.722743869E0,-3.605796993E-1
5.728764350E1,-1.801487446E0,5.022027016E0,-1.129659057E0
5.733764352E1,-1.130146503E0,5.929772854E0,-1.752741575E0
5.738964348E1,-2.376723886E-1,4.744083405E0,-2.503494978E0
5.744164348E1,3.750254512E-1,2.887663841E0,-3.356262922E0
5.749164354E1,6.602994800E-1,2.219988108E0,-3.301285028E0
5.754364347E1,5.912717581E-1,2.036728621E0,-2.780827999E0
5.759564347E1,1.935984641E-1,1.010474920E0,-2.042291641E0
5.764564353E1,-9.106473625E-2,6.852075458E-2,-9.891600609E-1
5.769764346E1,5.309946090E-2,-1.251235306E-1,1.665969938E-1
5.774964346E1,2.082592249E-1,-1.197192073E0,1.021197557E0
5.779964355E1,4.025143683E-1,-4.030672014E-1,1.438418508E0
5.785164344E1,2.265851945E-1,3.782294393E-1,1.753014088E0
5.790364344E1,-2.462245077E-1,1.833634228E-1,1.652221322E0
5.795364357E1,-6.536716223E-1,-2.833376229E-1,1.661384225E0
5.800564346E1,-9.450542927E-1,-4.067323804E-1,1.869078517E0
5.805764342E1,-7.367493510E-1,-2.249816619E-2,1.656497359E0
5.810764359E1,-4.032168984E-1,5.620998740E-1,1.549595952E0
5.815964351E1,-1.898263767E-2,2.163501382E-1,1.909395456E0
5.821164338E1,3.285996914E-1,-9.284113050E-1,2.391978979E0
5.826164374E1,4.886463881E-1,-6.510784626E-1,2.578903913E0
5.831364357E1,5.845522285E-1,-2.231997728E0,2.754832983E0
5.836564333E1,1.160598159E0,-2.395098925E0,2.367544413E0
5.841564359E1,1.305984139E0,-1.204522491E0,1.595410824E0
5.846564382E1,1.632797003E0,-1.950999737E0,7.725753188E-1
5.851764348E1,1.146548271E0,-1.761631489E0,-5.737716556E-1
5.856764367E1,7.329924703E-1,-3.829086721E-1,-1.145541549E0
5.861964357E1,2.565175891E-1,1.747789264E0,-1.638509750E0
5.867164329E1,-3.115870953E-1,1.537040830E0,1.097555637E0
5.872164349E1,-1.563249946E0,-6.883413196E-1,4.127756953E-1
5.877164352E1,-1.923660517E0,-1.359682083E0,-4.642134190E0
5.882364334E1,-6.548933983E-1,1.916998982E0,-4.052649021E0
5.887364341E1,-1.259649873E0,-1.917402148E0,-2.264035940E0
5.892364350E1,-1.108155370E0,8.318151534E-2,-1.262827635E0
5.897564352E1,-7.117037773E-1,-2.621729851E0,3.510783017E-1
5.902764325E1,-4.417013824E-1,-2.206952333E0,1.459187865E0
5.907764335E1,-2.529440224E-1,-2.381048918E0,1.686429739E0
5.912764338E1,1.257924289E-1,-2.040185928E0,1.882517457E0
5.917964331E1,7.543727160E-1,-1.990095139E0,1.453079224E0
5.923164333E1,1.043311954E0,-2.101272821E0,1.828761339E0
5.928364329E1,1.342635989E0,-2.731685638E0,2.548360586E0
5.933564326E1,1.930899143E0,-4.139729977E0,2.685194254E0
5.938564362E1,1.060416222E0,-1.847152710E0,6.894977093E-1
5.943764348E1,-5.614309907E-1,2.000687599E0,-3.260356903E0
5.948964334E1,-7.520209551E-1,-5.508965850E-1,-2.835194826E0
5.954164330E1,-7.886728644E-1,-6.675431728E0,-3.380697489E0
5.959164333E1,7.391011119E-1,5.695811749E0,2.482387304E0
5.964364323E1,-1.484860629E-1,7.086751461E0,3.723665237E0
5.969364332E1,3.292105496E-1,1.913944721E0,4.172040462E0
5.974564324E1,1.633407831E0,1.492447615E0,2.173900127E0
5.979564328E1,2.159973621E0,1.407537341E0,1.728579521E0
5.984764320E1,1.767798185E0,1.278033972E0,-1.135767698E0
5.989964323E1,-1.336619020E0,-7.243823409E-1,-3.749049425E0
5.994964359E1,-3.564444542E0,1.653716087E0,-5.428318024E0
6.000164322E1,-2.668305159E0,3.606041431E0,-4.521183014E0
6.005164324E1,-2.853198946E-1,4.732477188E0,-6.776188016E-1
6.010364314E1,-1.045037657E-1,-1.626630306E0,-5.872107148E-1
6.015364320E1,-2.511114478E-1,-2.320573330E0,4.671427011E-1
6.020564319E1,-5.162269473E-1,-1.013321638E0,-2.280219495E-1
6.025564326E1,-1.114264011E0,9.860403538E-1,-1.194410801E0
6.030564335E1,-9.627694488E-1,1.555977702E0,-9.854948521E-1
6.035764318E1,-5.919742584E-1,8.623585105E-2,-2.811672390E-1
6.040964314E1,-2.614961565E-1,5.569258332E-2,2.008054554E-1
6.045964317E1,1.312902123E-1,1.906937957E-1,-1.834287941E-1
6.050964326E1,1.422857791E-1,2.006796122E0,-4.173901677E-1
6.055964333E1,1.948202103E-1,2.164399385E0,-1.017870784E0
6.060964336E1,2.015397251E-1,1.100272059E0,-9.332188405E-3
6.066164321E1,5.650503444E-4,7.722374797E-1,8.495443463E-1
6.071164331E1,-1.203862652E-1,-9.059132077E-3,1.268597841E0
6.076164347E1,-4.219551757E-2,-5.692225099E-1,1.917947650E0
6.081364330E1,6.592763215E-2,-5.594487190E-1,2.151298046E0
6.086564303E1,2.943912446E-1,-3.572523296E-1,2.678474903E0
6.091564329E1,4.116773605E-1,-1.768961906E0,2.379150867E0
6.096764325E1,3.536451757E-1,-1.285767436E0,2.300349474E0
6.101964321E1,5.772218704E-1,-2.233830214E0,1.965595126E0
6.106964334E1,7.672009468E-1,-2.928384066E0,1.513554811E0
6.111964343E1,6.774037480E-1,-3.540471077E0,4.873012602E-1
6.117164303E1,4.037361145E-1,-2.931438446E0,-7.307640314E-1
6.122164319E1,-5.013676360E-2,-9.980499744E-1,-1.890186310E0
6.127164328E1,-1.167210788E-1,3.364138603E0,-2.240212202E0
6.132364308E1,3.457039297E-1,4.202857018E0,-9.836622477E-1
6.137364311E1,3.871007442E0,-1.822718024E0,7.304255962E-1
6.142364340E1,5.112896442E0,-1.084792852E0,-2.777162552E0
6.147564303E1,-3.891669512E-1,-1.021873713E0,-3.840068102E0
6.152764110E1,-1.147861600E0,1.577968717E0,-3.516309500E0
6.157764113E1,-1.216278553E0,-3.022744358E-1,-1.848647475E0
6.162964105E1,-1.089218497E0,-1.869143844E0,-8.743174076E-1
6.168164102E1,-1.429470420E0,-4.846500874E0,5.770984292E-1
6.173164118E1,-1.876623869E0,-3.087820053E0,9.882107377E-1
6.178364107E1,-4.074929059E-1,-1.935117364E0,2.030346870E0
6.183564107E1,2.675131559E-1,-3.504430294E0,1.511722326E0
6.188564116E1,4.037361145E-1,-3.275355816E0,1.292421579E0
6.193764102E1,1.103787661E0,-4.251518250E0,1.274095654E0
6.198964099E1,1.871645212E0,-6.186739445E0,8.141141534E-1
6.203964101E1,1.225349903E0,-3.746332645E0,-4.406030476E-1
6.208964104E1,-1.227274060E0,-9.577328563E-1,-4.059979916E0
6.214164097E1,-6.707758904E-1,3.377577782E0,-3.458888292E0
6.219164100E1,-2.029951096E0,-7.583787918E0,-4.168714046E0
6.224364096E1,2.845975399E0,2.730060577E0,-1.983648658E0
6.229364102E1,9.199172258E-1,5.729409218E0,4.296656609E0
6.234564098E1,-2.509128861E-2,4.059303284E0,3.354702711E0
6.239764094E1,-1.101435781E0,8.461522460E-1,1.884960890E0
6.244764104E1,-7.972249985E-1,-3.798543513E-1,1.462242246E0
6.249964107E1,-8.161618114E-1,2.102701902E0,2.704440951E-1
6.255164099E1,-7.361384034E-1,4.515008926E0,-8.205612302E-1
6.260364092E1,-2.370615304E-1,5.197345257E0,-2.256094456E0
6.265564092E1,2.186439335E-1,4.767907143E0,-3.289067745E0
6.270564094E1,5.301852226E-1,4.207132816E0,-3.889548302E0
6.275564098E1,3.854101598E-1,2.890718222E0,-3.658641100E0
6.280764090E1,-1.894140542E-1,1.424030781E0,-3.055717230E0
6.285764093E1,-7.300297618E-1,1.314074993E0,-2.343448162E0
6.290764100E1,-1.103268385E0,3.696773052E-1,-1.452806711E0
6.295964096E1,-1.298745394E0,-1.170924783E0,-2.842215598E-1
6.300964098E1,-1.019579887E0,-9.113071561E-1,5.887048841E-1
6.306164091E1,-7.966140509E-1,-1.080192998E-1,9.692739248E-1
6.311164101E1,-6.096893549E-1,-3.749673963E-1,1.441472769E0
6.316364093E1,-4.869054258E-1,-5.820507407E-1,1.547152519E0
6.321564090E1,-2.553874850E-1,-3.725239635E-1,1.534935236E0
6.326564106E1,-1.020603105E-1,-1.904861182E-1,1.286923885E0
6.331764095E1,-6.765332539E-3,-1.220691949E-1,1.162918210E0
6.336964088E1,3.008511383E-3,-7.014565170E-2,7.401994467E-1
6.342164088E1,1.367879957E-1,5.447085574E-2,3.816215694E-1
6.347164100E1,2.950021029E-1,1.534310281E-1,7.924327254E-2
6.352364080E1,5.479003191E-1,1.778656244E-1,-1.779309958E-1
6.357364110E1,7.329924703E-1,3.030930161E-1,-3.691318035E-1
6.362564096E1,8.783783913E-1,9.457232952E-1,-5.322328210E-1
6.367764079E1,8.692154288E-1,1.406315684E0,-3.498852998E-2
6.372764108E1,4.190077484E-1,3.562382758E-1,6.161938310E-1
6.377964104E1,5.650503444E-4,-1.868209243E-1,1.304028034E0
6.383164090E1,-2.814561687E-2,-2.234728336E-1,1.800661445E0
6.388164107E1,3.102737367E-1,-1.169703126E0,2.307679653E0
6.393164113E1,5.973803997E-1,-1.268052340E0,2.409694195E0
6.398364079E1,2.650696933E-1,-1.608915210E0,2.833023787E0
6.403364095E1,2.534632683E-1,-3.153182507E0,2.786598206E0
6.408564094E1,6.578561068E-1,-4.434166908E0,2.252091169E0
6.413564104E1,6.279236674E-1,-2.950375319E0,1.222172141E0
6.418764076E1,9.632887244E-1,-2.268649578E0,1.213929728E-1
6.423764093E1,1.054307580E0,-3.026122570E0,-9.305169582E-1
6.428964082E1,6.077650785E-1,1.684870243E0,-1.201130271E0
6.434164079E1,5.998238325E-1,3.381853819E0,1.402377486E0
6.439164091E1,3.979130268E0,1.140679073E1,5.373612404E0
6.444364077E1,-2.116693735E0,-6.070064068E0,-8.077331185E-1
6.449564077E1,-1.381212115E0,1.288418651E0,-3.281126499E0
6.454564086E1,-1.305464864E0,9.072387218E-1,-3.034336805E0
6.459764089E1,-2.182667255E0,-3.511760473E0,-1.756406784E0
6.464964075E1,-1.605399609E0,-1.081738472E0,-9.164671302E-1
6.469964082E1,-1.250486970E0,-1.318430454E-1,9.756922722E-2
6.475164074E1,-8.961851001E-1,-1.299206495E0,3.162589669E-1
6.480164077E1,-5.162269473E-1,-5.869376659E-1,6.296328902E-1
6.485364077E1,-1.710880846E-1,-4.708732665E-1,8.342726827E-1
6.490564076E1,-8.923213929E-2,-4.006237388E-1,8.110598326E-1
6.495764075E1,-5.319108814E-2,-4.177279770E-1,9.680522084E-1
6.500964075E1,6.144846082E-1,-1.516674519E0,1.494007230E0
6.506164078E1,1.140439630E0,-3.980905056E0,1.745072722E0
6.511364074E1,1.813002229E0,-4.016945839E0,1.934750676E-1
6.516364080E1,2.968346775E-1,1.323237896E0,-2.536481619E0
6.521564070E1,2.485564947E0,3.508302927E0,-2.024576664E0
6.526564073E1,-5.449376106E-1,-7.919764042E0,-1.264049411E0
6.531764065E1,-1.266980290E0,-3.797034502E0,-2.967752695E0
6.536764068E1,2.052049041E-1,4.675055504E0,1.291199923E0
6.541964068E1,1.532813609E-1,5.386713505E0,2.818362951E0
6.547164064E1,-1.017747283E0,7.355856299E-1,1.534324288E0
6.552164067E1,-1.270034671E0,2.847670615E-1,1.574030519E0
6.557364059E1,-1.511937261E0,1.038574696E0,8.379379511E-1
6.562364072E1,-1.924271345E0,3.475316048E0,-2.487913668E-1
6.567564075E1,-2.240699530E0,4.113670349E0,-1.357511878E0
6.572764065E1,-2.493597746E0,4.714150906E0,-2.454014778E0
6.577964061E1,-1.029353738E0,6.118530273E0,-2.403312922E0
6.582964067E1,1.117425263E-1,5.299970627E0,-3.335493326E0
6.587964087E1,8.789892793E-1,3.150336027E0,-3.506535530E0
6.593164076E1,5.020854473E-1,1.690367937E0,-2.521821022E0
6.598364058E1,-1.234406009E-1,1.218169212E0,-1.834597588E0
6.603364081E1,-3.335782588E-1,1.584688187E0,-4.613724649E-1
6.608364107E1,-1.083720684E0,-1.225291848E0,4.756948352E-1
6.613564056E1,-6.164088845E-1,-3.078656912E0,1.175135493E0
6.618564066E1,-8.434522152E-2,-1.907628298E0,1.304028034E0
6.623764059E1,2.094809562E-1,1.537547819E-2,1.348621249E0
6.628764062E1,1.117425263E-1,2.084088922E-1,1.402377486E0
6.633964058E1,-7.823656499E-2,-1.556667984E-1,1.343734384E0
6.638964078E1,-3.012023866E-1,-1.116844937E-1,9.240698814E-1
6.644164060E1,-4.710229039E-1,4.295421243E-1,5.856505632E-1
6.649364050E1,-6.524499059E-1,5.382761359E-1,3.858976066E-1
6.654364076E1,-6.298478842E-1,5.223936439E-1,1.116191298E-1
6.659564062E1,-4.270406067E-1,8.687542081E-1,-3.581362367E-1
6.664764049E1,-1.820836663E-1,8.632563949E-1,-2.549000382E-1
6.669764075E1,1.606117338E-1,-2.371989749E-2,2.609799616E-2
6.674764078E1,4.678769410E-1,1.293201745E-2,3.920062780E-1
6.679964047E1,5.112484097E-1,1.042850852E0,8.599290848E-1
6.684964063E1,3.664733171E-1,4.075509608E-1,1.419481516E0
6.689964076E1,3.176041245E-1,-8.770986199E-1,1.818987608E0
6.695164045E1,3.585320711E-1,-1.026760578E0,1.914282441E0
6.700164059E1,3.182149529E-1,-4.134519398E-1,1.790887713E0
6.705164071E1,3.964057267E-1,3.263058662E-1,1.376721025E0
6.710364054E1,4.403880239E-1,-4.360539317E-1,7.884578109E-1
6.715564050E1,5.582850575E-1,8.266045451E-1,5.939442664E-3
6.720564066E1,6.425843835E-1,1.546203732E0,-1.974786818E-1
6.725564079E1,8.325635195E-1,-1.281778514E-1,-5.371197462E-1
6.730764042E1,6.883993149E-1,8.082785606E-1,-2.200807035E-1
6.735764051E1,6.633538008E-1,6.751099229E-1,-2.506239712E-1
6.740964037E1,-1.387122124E-1,3.304273844E0,2.001945972E-1
6.745964041E1,6.042984501E-2,2.455171347E0,5.419779569E-2
6.750964046E1,-1.451461673E0,1.677539825E0,-1.357813030E-1
6.756164043E1,2.255620062E-2,6.847292423E0,-3.555405140E0
6.761164059E1,-3.119994141E-2,-3.404859066E0,-4.000725746E0
6.766364052E1,2.294974804E0,3.574600220E-1,-3.631763220E0
6.771564041E1,2.082592249E-1,-5.753312111E-1,-2.490666866E0
6.776564048E1,-4.410905242E-1,-5.460097194E-1,-1.276266694E0
6.781764037E1,-1.464900613E0,-3.193786740E-1,5.581616163E-1
6.786764043E1,-1.078833818E0,-8.887050748E-1,2.097542048E0
6.791964036E1,-1.313406110E0,-4.115906239E0,3.138456345E0
6.796964042E1,-1.610897422E0,-5.533724785E0,3.219090462E0
6.802164041E1,-1.758726835E0,-9.677223206E0,3.510473490E0
6.807164044E1,-2.327442408E0,-1.246826649E1,2.358381510E0
6.812364040E1,1.346301198E0,-5.967115164E-1,-5.859889388E-1
6.817364043E1,-1.267545391E-3,2.186390638E0,6.577326655E-1
6.822564039E1,3.713602722E-1,-3.307731390E0,-2.622303963E-1
6.827764038E1,6.664081216E-1,-1.259500265E0,3.632956147E-1
6.832764051E1,6.541908383E-1,-3.238092661E0,-8.996640146E-2
6.837964024E1,1.561325788E0,-6.178798199E0,-1.064907312E0
6.842964034E1,-4.087146521E-1,-3.235038519E0,-3.595721960E0
6.848164026E1,-2.109363556E0,4.003103733E0,-3.060604095E0
6.853164036E1,-2.016511917E0,-4.935076714E0,-3.583504677E0
6.858164049E1,-3.252292395E0,-1.690771103E0,-5.469245434E0
6.863364025E1,1.779404640E0,8.158820152E0,2.269195080E0
6.868364041E1,8.486445248E-2,8.037258148E0,5.295421600E0
6.873364057E1,-1.430692315E0,3.698282003E0,2.161682844E0
6.878564183E1,-1.642662525E0,-5.973224044E-1,3.962823451E-1
6.883764179E1,-1.741011739E0,4.521441460E-1,1.323885471E-1
6.888764196E1,-1.873569608E0,3.526628971E0,-7.503117323E-1
6.893964188E1,-1.273088932E0,6.325002670E0,-1.855977774E0
6.899164171E1,5.668371320E-1,7.408677578E0,-2.571911812E0
6.904164194E1,2.197847366E0,8.006714821E0,-3.165672779E0
6.909364187E1,2.455021381E0,4.273717403E0,-2.606731176E0
6.914564179E1,9.626777768E-1,4.435920119E-1,-2.323900700E0
6.919764169E1,-1.906357706E-1,-7.616451383E-1,-1.433869958E0
6.924764195E1,-5.400507450E-1,-2.040796995E0,-6.214191914E-1
6.929964165E1,-2.682156563E-1,-9.198591709E-1,4.976859689E-1
6.934964188E1,9.402743727E-2,-1.477255374E-1,1.456744432E0
6.939964191E1,1.276250184E-1,-3.541980088E-1,1.839756966E0
6.945164163E1,-2.285094112E-1,-5.915008113E-2,1.996138453E0
6.950164180E1,-6.157979965E-1,3.470753133E-1,1.410318613E0
6.955164186E1,-1.153359413E0,6.518970132E-1,1.401155591E0
6.960364165E1,-1.509493947E0,3.806728721E-1,1.617401958E0
6.965364169E1,-1.113653183E0,-3.358720541E-1,1.690094948E0
6.970364174E1,-6.005263925E-1,-1.354184389E0,1.572197914E0
6.975564164E1,-4.392579198E-1,-3.055444002E0,1.393214345E0
6.980564207E1,-5.944177508E-1,-2.549036980E0,1.355340838E0
6.985764173E1,-2.517222762E-1,-3.352611661E-1,1.360838532E0
6.990964162E1,-1.191645339E-1,4.918503761E-1,1.513554811E0
6.995964166E1,1.300684810E-1,-1.733818799E-1,1.786611557E0
7.001164162E1,4.355010986E-1,-2.834310770E0,2.264308453E0
7.006164178E1,6.260910630E-1,-1.655951738E0,2.004690647E0
7.011364164E1,5.949369669E-1,-3.296124935E0,1.740796804E0
7.016364170E1,2.027614415E-1,-4.105521679E0,1.289978147E0
7.021564163E1,3.328757286E-1,-3.485493183E0,1.223393917E0
7.026564166E1,5.020854473E-1,-5.159264088E0,7.133213878E-1
7.031764159E1,4.862029254E-1,-1.611969471E0,4.964642227E-1
7.036764162E1,1.364627242E0,1.215815544E1,1.052626133E1
7.041964161E1,-1.244989157E0,-1.499419403E1,3.244136095E0
7.047164157E1,-1.692554951E-1,6.502764225E0,-3.241420269E0
7.052164163E1,-1.610897422E0,4.713540077E0,1.404820800E0
7.057364160E1,-7.807316184E-1,-3.305898905E0,-1.550545216E0
7.062364166E1,-1.056231856E0,-1.835546255E0,1.843120903E-1
7.067564159E1,-1.480172396E0,1.181517243E0,4.512601793E-1
7.072764158E1,-1.709246874E0,1.564529777E0,1.629318148E-1
7.077964154E1,-1.542480588E0,1.964646459E0,9.879095852E-2
7.082964157E1,-1.361053586E0,1.427085042E0,-1.602158993E-1
7.088164150E1,-1.254152179E0,8.956323266E-1,-1.241748556E-1
7.093164156E1,-9.077915549E-1,9.591622949E-1,-2.536782920E-1
7.098364152E1,-7.239211202E-1,8.669216037E-1,-4.659496620E-2
7.103364159E1,-7.642382383E-1,2.304000407E-1,-2.093862742E-2
7.108364168E1,-7.850076556E-1,-8.911485672E-1,7.069116086E-2
7.113564151E1,-7.151705027E-2,-3.587507725E0,-4.109717906E-2
7.118564167E1,6.883993149E-1,-7.564851761E0,-1.955548882E0
7.123564173E1,-1.243156672E0,-2.153807163E0,-5.428318024E0
7.128764163E1,-9.077915549E-1,5.489949703E0,-4.887091160E0
7.133964159E1,-5.394397974E-1,-1.866089463E0,-4.027603626E0
7.138964168E1,1.033538222E0,3.046488762E0,3.474131227E-1
7.143964178E1,8.496677279E-1,3.108186245E0,3.445721626E0
7.149164164E1,-4.783532917E-1,2.010461330E0,2.299127579E0
7.154164170E1,-1.280419350E0,1.296970725E0,1.236222029E0
7.159364166E1,-1.535150170E0,2.473497391E0,3.553543687E-1
7.164564159E1,-1.827143788E0,4.128331184E0,-7.820767164E-1
7.169764145E1,-2.288958073E0,5.954818249E0,-1.695320368E0
7.174764181E1,-1.439244390E0,6.886998653E0,-2.397204399E0
7.179964141E1,1.984854043E-1,5.334790230E0,-3.317167521E0
7.184964164E1,8.551655412E-1,2.392252207E0,-3.359927893E0
7.189964176E1,9.370214939E-1,1.626837969E0,-2.848633766E0
7.195164139E1,7.458207011E-1,1.397152662E0,-2.110708714E0
7.200164159E1,5.106375217E-1,6.274624467E-1,-1.201130271E0
7.205164168E1,3.188258410E-1,-5.160772800E-1,-3.294255733E-1
7.210364141E1,2.546849847E-1,-1.012099862E0,5.783202052E-1
7.215364144E1,2.296395153E-1,-9.021440744E-1,1.234389424E0
7.220364150E1,2.497980595E-1,-6.828435063E-1,1.699868798E0
7.225364156E1,1.752725095E-1,-4.635428786E-1,1.795163751E0
7.230564146E1,1.184620410E-1,-3.725239635E-1,1.723692536E0
7.235564149E1,3.599523380E-2,-6.831305474E-2,1.790887713E0
7.240764141E1,-1.289383918E-1,1.461006403E-1,1.456133604E0
7.245764145E1,-2.950937152E-1,2.340652347E-1,1.158642173E0
7.250964140E1,-2.602744102E-1,7.585113496E-2,6.351306438E-1
7.255964146E1,-4.710229039E-1,2.719388604E-1,2.612811327E-1
7.261164143E1,-6.878800392E-1,5.449956656E-1,-1.186770722E-1
7.266364139E1,-7.214776874E-1,3.140885830E-1,-3.593579829E-1
7.271564138E1,-4.203211069E-1,1.338833272E-1,-4.900831282E-1
7.276764138E1,2.622138895E-2,1.479332447E-1,-3.391994238E-1
7.281964138E1,4.196186364E-1,1.259420812E-1,-1.345595717E-1
7.286964140E1,6.493039727E-1,2.835453153E-1,2.105793059E-1
7.292164133E1,7.097796202E-1,1.717569828E-1,7.188192010E-1
7.297164143E1,1.056751132E0,-3.377046287E-1,1.969871163E0
7.302364138E1,1.192973971E0,-5.020273924E-1,2.895942926E0
7.307364142E1,1.119059324E0,-2.388990164E0,3.639365911E0
7.312364154E1,1.119059324E0,-2.557588816E0,3.368752718E0
7.317564130E1,7.018383741E-1,-3.305288076E0,2.568519115E0
7.322764126E1,5.381264687E-1,-3.192277908E0,1.265543580E0
7.327764139E1,5.900499821E-1,-5.158653259E0,5.532746911E-1
7.332964135E1,4.617682993E-1,-5.377342701E0,-5.670521855E-1
7.338164135E1,1.400408521E-2,-1.455691922E-2,-1.312918544E0
7.343364134E1,7.739204764E-1,2.231594563E0,1.378553629E0
7.348564123E1,-2.442895889E0,3.323210716E0,4.828720570E0
7.353564136E1,-3.779469013E0,-3.419519663E0,-4.436573684E-1
7.358764126E1,-2.465497971E0,1.448465347E0,-1.504730344E0
7.363964129E1,-3.078195810E0,3.186987877E0,-2.731347561E0
7.368964131E1,-2.435565472E0,6.402906775E-1,-1.472354531E0
7.374164128E1,-1.308519125E0,5.113980770E-1,-6.690666676E-1
7.379364127E1,-7.569078207E-1,-6.132048368E-1,-1.058489010E-1
7.384364144E1,-7.226994038E-1,-6.712370515E-1,6.088634729E-1
7.389564140E1,-4.325384200E-1,-6.168700457E-1,7.762405276E-1
7.394764129E1,-1.051146388E-1,-1.097620964E0,8.440465927E-1
7.399964122E1,2.072360367E-2,-7.708081007E-1,8.238880038E-1
7.404964135E1,-3.303254023E-2,-5.221859217E-1,7.401994467E-1
7.410164124E1,-2.437810451E-1,-6.547437310E-1,6.467370391E-1
7.415364120E1,-3.714518845E-1,-5.063034296E-1,6.345197558E-1
7.420364137E1,-3.537367880E-1,2.420064807E-1,5.019620657E-1
7.425564126E1,-2.663830519E-1,3.675575927E-2,3.755128980E-1
7.430564139E1,-2.297311425E-1,-3.328177333E-1,6.858324409E-1
7.435564142E1,-7.090618461E-2,-8.764877915E-1,9.069656730E-1
7.440764131E1,8.997586966E-1,-2.930216789E0,6.504023075E-1
7.445964121E1,2.148977995E0,-5.578317165E0,1.818686426E-1
7.450964144E1,4.159534276E-1,-2.031023026E0,-1.774732828E0
7.456164133E1,-8.100531101E-1,1.316518426E0,-6.024522305E0
7.461364119E1,-1.155192018E0,-2.769559145E0,-4.634192944E0
7.466364135E1,-1.063363627E-1,1.460682631E0,-1.325746775E0
7.471364145E1,6.676298976E-1,4.953610420E0,1.827539563E0
7.476564114E1,-2.132377923E-1,2.270079136E0,2.134804964E0
7.481564141E1,-9.432217479E-1,7.361964583E-1,1.680931926E0
7.486764136E1,-1.244989157E0,1.371496320E0,7.982316613E-1
7.491964116E1,-1.511937261E0,3.587715387E0,-1.699897498E-1
7.496964132E1,-1.706803322E0,4.576095104E0,-1.245723367E0
7.502164135E1,-2.104476452E0,4.284101963E0,-2.599400997E0
7.507164141E1,-1.539426327E0,3.353754044E0,-3.289678574E0
7.512364124E1,-7.813424468E-1,3.559004784E0,-3.474770784E0
7.517364143E1,-2.236225009E-1,3.527850628E0,-3.235311508E0
7.522564112E1,1.001360863E-1,3.525407314E0,-2.838860035E0
7.527564115E1,-2.753474936E-2,4.350398779E-1,-5.212372541E-1
7.532764118E1,5.737552047E-2,-1.293708682E0,-3.227060437E-1
7.537964111E1,2.406350821E-1,-1.142214060E0,6.161938310E-1
7.543164110E1,4.336685240E-1,-8.923702836E-1,9.087982774E-1
7.548164113E1,6.315888762E-1,-6.577980518E-1,1.470183492E0
7.553364106E1,7.995767593E-1,-2.485183179E-1,1.826317906E0
7.558564106E1,7.891920805E-1,4.093835652E-1,2.018129587E0
7.563564108E1,5.277417898E-1,9.164017439E-1,1.742018461E0
7.568764108E1,2.133446932E-2,1.085000515E0,1.576473951E0
7.573964107E1,-4.667468667E-1,7.539115548E-1,1.296697736E0
7.578964120E1,-7.172015905E-1,2.493368685E-1,9.930976629E-1
7.584164113E1,-6.359565258E-1,-1.122953594E-1,4.903555810E-1
7.589364102E1,-4.368144572E-1,2.786583900E-1,2.344030440E-1
7.594564098E1,1.215163693E-1,1.088054776E0,-3.437766433E-2
7.599764098E1,2.962238193E-1,4.209899902E-1,2.588376403E-1
7.604764114E1,1.636660695E-1,-2.982855029E-2,6.962171793E-1
7.609766160E1,-8.801040798E-2,-1.483077049E0,1.636338711E0
7.614966156E1,-2.156812400E-1,-5.667791367E-1,1.957653880E0
7.620166152E1,-5.319108814E-2,-2.488561392E0,2.376707554E0
7.625166155E1,4.788725376E-1,-2.403039932E0,1.308304191E0
7.630366151E1,7.203628868E-2,1.328124881E0,6.045873761E-1
7.635366160E1,-1.118341535E-1,-1.913126111E0,6.974388957E-1
7.640566156E1,-4.435339868E-1,-5.955221176E0,-6.919698417E-2
7.645766152E1,-1.027521133E0,-1.603417516E0,-1.264049411E0
7.650966152E1,-7.507991791E-1,8.438596725E0,-3.058160543E0
7.656166148E1,8.303186297E-2,6.569348812E0,-2.268002182E-1
7.661166151E1,-1.368383884E0,1.833634228E-1,8.446574211E-1
7.666366148E1,2.847807884E0,2.195553541E0,-4.182152748E0
7.671366150E1,-2.008570910E0,2.711123705E0,-3.720338583E0
7.676366156E1,7.299381495E-1,6.934359074E-1,-2.064893723E0
7.681566149E1,-1.187567830E0,-1.614413023E0,-8.202515543E-2
7.686566155E1,-1.877845526E0,-7.708081007E-1,2.264617980E-1
7.691766148E1,-1.575467229E0,-3.527642727E0,1.498283148E0
7.696766158E1,-1.185735226E0,-4.874600410E0,1.672990680E0
7.701766171E1,-6.823822856E-1,-5.700490952E0,1.687651515E0
7.706966150E1,7.814493775E-2,-5.059082031E0,8.086163998E-1
7.712166143E1,7.110013366E-1,-3.073159218E0,1.325408340E0
7.717166159E1,4.776508212E-1,-2.205730438E0,7.731862068E-1
7.722366145E1,3.402061164E-1,-1.467194438E0,5.068489313E-1
7.727566145E1,2.388024926E-1,-1.553326368E0,5.044054985E-1
7.732566168E1,7.543727160E-1,-4.447606087E0,6.152817979E-2
7.737766147E1,1.583316922E0,-6.382827282E0,-1.193799973E0
7.742966140E1,-2.309528738E-1,-4.867557585E-1,-4.919466972E0
7.747966170E1,-8.923213929E-2,4.461863995E0,-3.472327232E0
7.753166155E1,-1.780717969E0,-6.483619690E0,-2.714854240E0
7.758366138E1,5.136918426E-1,-1.178866148E0,-1.628125072E0
7.763366161E1,1.175915590E-3,3.809459448E0,1.826317906E0
7.768566154E1,-9.731541872E-1,4.147879124E0,1.502559304E0
7.773766137E1,-1.609064817E0,1.756341457E0,1.302195430E0
7.778766160E1,-1.700083733E0,1.452741504E0,5.624376535E-1
7.783766163E1,-1.973751426E0,3.100855827E0,2.609799616E-2
7.788966135E1,-2.034227133E0,4.891301632E0,-7.692485452E-1
7.793966152E1,-1.284695387E0,5.189404488E0,-1.576201558E0
7.798966158E1,-3.329673707E-1,5.241327763E0,-2.560916185E0
7.804166134E1,1.746616513E-1,4.977434158E0,-2.826642513E0
7.809166144E1,3.603646755E-1,2.808862209E0,-2.207836151E0
7.814166150E1,1.211299896E0,1.951207399E0,-2.166297436E0
7.819366139E1,5.187772959E-2,-4.751493335E-1,2.594485283E-1
7.824566139E1,-8.434522152E-2,-2.082946539E0,-1.315052360E-1
7.829566141E1,3.059976697E-1,-1.996203780E0,1.244774222E0
7.834766134E1,4.293924570E-1,-1.077462435E0,1.198348403E0
7.839966130E1,8.313418031E-1,-5.136338472E-1,1.796385527E0
7.844966133E1,9.309128523E-1,-7.686517388E-2,1.623510599E0
7.850166126E1,8.826544881E-1,4.478680789E-1,1.741407633E0
7.855166132E1,5.747783780E-1,1.281088233E0,1.638782263E0
7.860166135E1,1.294576079E-1,1.208395243E0,1.252715468E0
7.865366127E1,-5.156160593E-1,1.060565948E0,4.909664690E-1
7.870366131E1,-9.713215232E-1,6.525079608E-1,-3.193420172E-2
7.875566126E1,-1.163744092E0,4.142704904E-1,-4.143358469E-1
7.880566129E1,-9.163436890E-1,5.046785474E-1,-6.397451162E-1
7.885766129E1,-5.797569752E-1,3.281385005E-1,-7.454248071E-1
7.890766132E1,-2.755460441E-1,-1.825448573E-1,-3.813491166E-1
7.895966128E1,2.864499688E-1,1.589288116E-1,-2.054199427E-1
7.900966131E1,6.517473459E-1,4.564201832E-1,1.574340165E-1
7.906166130E1,8.490568995E-1,1.063620210E0,5.141793489E-1
7.911366130E1,5.375156403E-1,1.293201745E-2,1.215452671E0
7.916566129E1,3.078302741E-1,-1.202078938E0,2.066387892E0
7.921766125E1,3.823558390E-1,-1.997425556E0,2.979020596E0
7.926766128E1,1.128222346E0,-2.750011444E0,3.140289068E0
7.931966124E1,1.619357944E0,-2.356614351E0,2.363268375E0
7.936966127E1,1.981601119E0,-2.469013453E0,1.521496058E0
7.942166133E1,1.988931417E0,-2.433076315E-2,-1.021837071E-1
7.947366129E1,1.924179673E0,-8.874833584E-1,-4.937483072E-1
7.952566122E1,2.326740026E0,-1.652286649E0,-3.563036621E-1
7.957766121E1,1.866147518E0,5.144523978E-1,1.029749632E0
7.962766138E1,1.278235577E-2,-6.455807090E-1,6.198589802E-1
7.967966120E1,1.769019842E0,-1.862100512E-1,2.128696203E0
7.973166113E1,-1.417665631E-1,-2.162359238E0,-5.122274399E0
7.978166123E1,9.486279488E-1,-2.473900318E0,-2.628722429E0
7.983166132E1,-2.663830519E-1,-1.418936133E0,-2.726460695E0
7.988366111E1,-1.153970242E0,-7.726407051E-1,-1.945164204E0
7.993366118E1,-1.879678249E0,-2.402429104E0,-4.100597799E-1
7.998366137E1,-1.664042711E0,-2.766504765E0,3.962823451E-1
8.003566123E1,-1.224219680E0,-2.813541412E0,1.064568996E0
8.008766109E1,-5.724265575E-1,-2.218558788E0,1.512333155E0
8.013766152E1,-1.362687647E-1,-1.776292205E0,1.895956516E0
8.018966125E1,1.416749209E-1,-1.807122678E-1,1.910617352E0
8.024166108E1,6.062837783E-3,-4.387845099E-2,2.090211630E0
8.029166131E1,1.278235577E-2,-1.904861182E-1,2.804313183E0
8.034166134E1,5.185787678E-1,-9.699501395E-1,3.390743732E0
8.039366126E1,1.226571679E0,-2.485506773E0,3.544070959E0
8.044366132E1,7.800291181E-1,-2.362722874E0,2.120754957E0
8.049366135E1,-1.683590412E0,3.509524584E0,-2.025187492E0
8.054566111E1,-1.053177476E0,2.493655682E0,-1.459526300E0
8.059566144E1,-4.114833832E0,-9.992429733E0,-1.852312565E0
8.064766130E1,1.433044076E0,1.483284712E0,-2.052065611E0
8.069966113E1,8.264548182E-1,7.653634071E0,3.866607904E0
8.074966116E1,-6.964321733E-1,6.582787514E0,3.646085501E0
8.079966139E1,-2.048887968E0,2.108810902E0,1.708420873E0
8.085166111E1,-2.182667255E0,6.485556066E-2,6.516240239E-1
8.090366111E1,-2.067824602E0,1.720300436E0,-2.005330026E-1
8.095366120E1,-2.013457537E0,3.352532148E0,-2.506239712E-1
8.100566110E1,-1.777663708E0,3.838170052E0,-1.097894073E0
8.105566130E1,-1.065394759E0,3.741042614E0,-2.205392838E0
8.110766132E1,-4.233754277E-1,4.714761734E0,-2.762501955E0
8.115966118E1,1.062447354E-1,5.427030563E0,-2.315348387E0
8.121166111E1,2.736218274E-1,3.213865995E0,-2.045346022E0
8.126366107E1,-5.135849491E-2,8.644781709E-1,-1.206017256E0
8.131366116E1,-2.297311425E-1,-7.958535552E-1,-8.205612302E-1
8.136566102E1,-1.985770315E-1,-1.919234753E0,4.808914661E-2
8.141566109E1,5.625610948E-1,-1.850817919E0,4.732513428E-1
8.146566125E1,1.518565178E0,-3.664153218E-1,6.265785694E-1
8.151766118E1,2.132484913E0,1.466791272E0,1.205678821E0
8.156966101E1,1.790400267E0,2.052611113E0,1.594799876E0
8.162166100E1,1.138607025E0,1.573081851E0,1.886182666E0
8.167166107E1,3.011107445E-1,6.366254091E-1,1.825096250E0
8.172366099E1,1.044121385E-1,1.632048637E-1,1.254547954E0
8.177566099E1,-2.489275998E-3,2.169610113E-1,7.939556241E-1
8.182566115E1,8.303186297E-2,1.913046688E-1,7.511950731E-1
8.187766101E1,6.062837783E-3,-3.303742409E-1,1.399323106E0
8.192766131E1,3.782783076E-2,-7.317126989E-1,1.751792312E0
8.197966094E1,-1.637577116E-1,-4.220040143E-1,2.260643005E0
8.203166096E1,-1.301601082E-1,-1.241174340E0,2.671755314E0
8.208366096E1,-3.608686477E-2,-2.048127413E0,2.304014444E0
8.213566095E1,2.571284473E-1,-9.840000868E-1,1.291199923E0
8.218566105E1,4.025143683E-1,3.947228193E-1,1.143722981E-2
8.223766091E1,3.603646755E-1,7.777352929E-1,-1.247857213E-1
8.228766107E1,6.975623369E-1,-2.973875105E-1,-4.448791146E-1
8.233966093E1,3.182149529E-1,9.188451767E-1,-1.479986012E-1
8.239166093E1,8.056854010E-1,1.581023097E0,-1.125684157E-1
8.244366092E1,-4.887380004E-1,2.025122166E0,1.016310573E0
8.249566092E1,-1.369605660E0,-9.852218032E-1,5.636594296E-1
8.254566104E1,-2.106920242E0,-2.008708119E-1,-7.631399035E-1
8.259766098E1,-1.086775184E0,-1.597308755E0,-2.702026129E0
8.264966090E1,-1.431913972E0,-6.474133134E-1,-1.920118690E0
8.269966120E1,-6.371783018E-1,-1.718260169E0,-1.105224490E0
8.275166093E1,-1.203450322E0,-4.256405354E0,1.103053451E0
8.280166095E1,-1.700694680E0,4.990769085E-3,8.745898604E-1
8.285366085E1,-1.135644317E0,-1.683440804E0,1.007147551E0
8.290366088E1,-3.567911088E-1,-2.016973257E0,1.198348403E0
8.295366101E1,4.576907679E-2,-2.263151884E0,1.065790653E0
8.300566090E1,2.351372987E-1,-2.141589642E0,9.289568663E-1
8.305766086E1,1.654986739E-1,-3.278409958E0,7.682992816E-1
8.310766106E1,5.112484097E-1,-5.720649242E0,5.905374885E-1
8.315766115E1,8.105723858E-1,-6.646720886E0,-1.461358905E0
8.320966092E1,-1.148472548E0,-8.697682619E-1,-5.613409996E0
8.325966108E1,4.556596577E-1,2.964021921E0,-3.730112314E0
8.330966110E1,-2.212599754E0,-8.324156761E0,-4.285388470E0
8.336159857E1,1.305373192E0,2.660421848E0,-4.363270104E-1
8.341159873E1,1.097679019E0,5.359835625E0,3.650972366E0
8.346159882E1,-3.604562879E-1,2.726395607E0,2.818973780E0
8.351359878E1,-1.465511560E0,2.701062858E-1,1.974758148E0
8.356559858E1,-1.349447131E0,4.778004885E-1,1.300973773E0
8.361559878E1,-1.476507068E0,2.471053600E0,5.245640278E-1
8.366759850E1,-1.463678956E0,4.459419727E0,-4.186119139E-1
8.371759860E1,-1.228495836E0,5.179019451E0,-1.171808720E0
8.376759863E1,-1.227274060E0,5.105715275E0,-2.244488001E0
8.381959859E1,-4.355927408E-1,3.959732533E0,-2.680645943E0
8.387159862E1,1.343445480E-1,3.543733120E0,-3.153455496E0
8.392359864E1,4.128990769E-1,2.907822609E0,-2.572522640E0
8.397559857E1,4.177860022E-1,1.642109632E0,-2.085663080E0
8.402759857E1,9.280569851E-2,4.448137581E-1,-1.407602787E0
8.407959860E1,-2.608852983E-1,-3.737457097E-1,-4.699245989E-1
8.412959875E1,-3.958865106E-1,-8.544966578E-1,3.498565555E-1
8.418159851E1,-1.301601082E-1,-8.978680372E-1,1.060292840E0
8.423159861E1,2.656805813E-1,-5.796073079E-1,1.482400775E0
8.428359850E1,5.405699611E-1,-2.515726388E-1,1.624732256E0
8.433359854E1,4.898681045E-1,-2.008708119E-1,1.734077215E0
8.438359860E1,3.127171993E-1,-2.961657941E-1,1.713307858E0
8.443559852E1,7.814493775E-2,-1.764362007E-1,1.546541572E0
8.448759845E1,-1.949118376E-1,8.045095019E-3,1.096944809E0
8.453759848E1,-4.117689729E-1,2.407847643E-1,7.072127461E-1
8.458759861E1,-4.221536815E-1,5.620998740E-1,-6.431005895E-2
8.463959840E1,-3.415195048E-1,9.970359206E-1,-6.092018485E-1
8.468959857E1,-1.417665631E-1,1.286586046E0,-7.203793526E-1
8.474159846E1,-1.531744562E-2,1.229775667E0,-6.000388861E-1
8.479359846E1,1.092990637E-1,8.033916354E-1,-2.335197330E-1
8.484559845E1,1.099099293E-1,6.812185645E-1,5.074598193E-1
8.489759841E1,4.434423447E-1,-9.357417226E-1,1.702312231E0
8.494759854E1,9.089217186E-1,-1.597308755E0,2.591732025E0
8.499959843E1,1.488632798E0,-5.576161742E-1,2.936870813E0
8.504959846E1,1.576597452E0,-1.999868989E0,3.378526449E0
8.510159846E1,1.097679019E0,-3.015126944E0,2.944812298E0
8.515359842E1,5.265200138E-1,-3.659589767E0,2.070053339E0
8.520559841E1,1.648878008E-1,-3.533751726E0,6.870542169E-1
8.525759841E1,2.632370889E-1,-3.605222940E0,-8.859238029E-1
8.530959840E1,-1.104138978E-2,1.505886674E0,-1.772900105E0
8.535959843E1,1.170371890E0,4.775237083E0,1.197737575E0
8.541159839E1,-2.433732986E0,-1.379229903E0,8.251097202E-1
8.546359839E1,5.250951767E0,-6.797891855E-1,-5.297893882E-1
8.551559838E1,-9.084023833E-1,-4.690406621E-1,-3.758822918E0
8.556759834E1,-1.367773056E0,-1.826994181E0,-3.144292831E0
8.561759837E1,-2.450837135E0,-2.909447193E0,-6.739535332E-1
8.566759840E1,-1.481394053E0,-7.390431166E-1,-4.693137109E-1
8.571959833E1,-6.695541143E-1,-2.687703133E0,1.055104733E-1
8.576959846E1,-5.650961995E-1,-2.494058847E0,5.728223920E-1
8.582159832E1,-3.415195048E-1,-1.798283458E0,8.122815490E-1
8.587159837E1,-7.396051288E-2,-1.171535611E0,1.037690759E0
8.592159841E1,9.708175808E-2,-1.119001389E0,1.017532229E0
8.597159843E1,3.310431540E-1,-1.890524030E0,1.123822927E0
8.602359826E1,1.080574870E0,-3.783595562E0,1.635727882E0
8.607359859E1,1.690829277E0,-5.008380413E0,1.047464728E0
8.612559842E1,-1.113653183E0,1.266427517E0,-3.117414474E0
8.617759825E1,-1.149694204E0,5.331735611E0,-4.433218479E0
8.622759854E1,-2.293844700E0,-8.445108414E0,-3.059993267E0
8.627759857E1,2.715861082E0,5.297240019E-1,-1.072237730E0
8.632959830E1,1.571710467E0,4.610303879E0,4.807340145E0
8.637959846E1,-1.148884818E-1,3.745929480E0,3.715724230E0
8.642959852E1,-1.002475739E0,1.243825436E0,3.024224520E0
8.648159825E1,-1.018358111E0,2.230696529E-1,1.630840898E0
8.653159838E1,-1.522932887E0,3.022665024E0,3.144263923E-1
8.658359841E1,-1.905334473E0,5.481397629E0,-5.194046497E-1
8.663359847E1,-1.955425382E0,5.587077141E0,-1.455861092E0
8.668559826E1,-1.523543715E0,4.953610420E0,-1.817493320E0
8.673559846E1,-8.595331907E-1,4.386116028E0,-2.777773380E0
8.678759829E1,-3.036458492E-1,3.234635353E0,-2.576798916E0
8.683759832E1,2.088700980E-1,2.092317343E0,-2.364828587E0
8.688959831E1,4.880355299E-1,1.095996141E0,-1.834597588E0
8.694159827E1,6.486930251E-1,4.906286299E-1,-1.111333132E0
8.699359820E1,6.120411158E-1,2.982060909E-1,-2.897193432E-1
8.704359826E1,6.083759665E-1,-4.617102742E-1,6.143612266E-1
8.709359832E1,9.357997179E-1,-6.345851421E-1,1.379164577E0
8.714359835E1,1.189919710E0,-2.375227362E-1,1.817765713E0
8.719559825E1,1.262001872E0,2.859887779E-1,1.882517457E0
8.724759821E1,9.687864184E-1,3.220298588E-1,1.650999546E0
8.729959820E1,4.403880239E-1,1.936442801E-3,1.465296507E0
8.735159820E1,-3.730859235E-2,4.469700903E-2,8.452683091E-1
8.740359816E1,-3.555693924E-1,2.163501382E-1,4.298799038E-1
8.745359823E1,-3.848909438E-1,6.347928643E-1,1.708730608E-1
8.750559819E1,-3.176957369E-1,9.396146536E-1,1.391080618E-1
8.755559834E1,1.465618461E-1,4.729135334E-1,4.097213745E-1
8.760559851E1,4.519944787E-1,6.280732751E-1,8.147250414E-1
8.765759814E1,4.752073288E-1,-3.664153218E-1,1.401155591E0
8.770759820E1,2.528524101E-1,-4.238366485E-1,1.838535190E0
8.775959816E1,4.379445910E-1,-1.038367033E0,2.691303015E0
8.780959825E1,4.941441715E-1,-1.107394934E0,2.688859701E0
8.785959828E1,4.574922621E-1,-2.174576521E0,2.678474903E0
8.791159811E1,5.479003191E-1,-2.324849367E0,2.363268375E0
8.796359810E1,9.101433754E-1,-3.115919590E0,1.625954151E0
8.801359813E1,1.121502757E0,-4.399958611E0,2.478420883E-1
8.806559813E1,1.265056133E0,-3.566127539E0,-1.273212433E0
8.811559819E1,1.078742146E0,1.330568314E0,-1.551156163E0
8.816759811E1,1.874699593E0,3.788402975E-1,1.327851772E0
8.821959804E1,-2.762989283E0,-5.971104145E0,1.327240944E0
8.826959830E1,3.516094446E0,-7.680304527E0,-1.974786818E-1
8.832159819E1,-1.372660041E0,-1.169703126E0,-2.615894318E0
8.837359806E1,-1.809428692E0,4.613071084E-1,-2.755782127E0
8.842359809E1,-1.984136105E0,-2.381659746E0,-1.602468729E0
8.847559801E1,-1.265758514E0,1.019027114E0,-4.687028527E-1
8.852559804E1,-6.811605692E-1,-1.404275417E0,-6.843382716E-1
8.857559841E1,-5.388289690E-1,-3.572523296E-1,-1.907591671E-1
8.862759833E1,-3.720627427E-1,-1.883297600E-2,-3.559939563E-2
8.867959809E1,-1.484860629E-1,-2.066557109E-2,2.930461168E-1
8.872959826E1,4.393647984E-2,-2.363010049E-1,4.555362463E-1
8.878159815E1,5.802761912E-1,-1.374953866E0,7.872360945E-1
8.883159825E1,1.618747115E0,-1.958330035E0,2.052948952E0
8.888159831E1,2.252214432E0,-2.843473911E0,2.644877195E0
8.893359820E1,-2.132377923E-1,1.832088709E0,2.991547585E-1
8.898559816E1,-6.958213449E-1,2.441121340E0,-3.330606461E0
8.903759796E1,-1.994520903E0,-6.723690033E0,4.445406795E-1
8.908759828E1,-2.704957008E0,-3.447619677E0,-2.111930370E0
8.913959808E1,1.354853272E0,4.144213676E0,2.088989973E0
8.918959814E1,-1.008584380E0,5.162525654E0,5.000984192E0
8.923959817E1,-2.124635220E0,3.638417244E0,1.913060784E0
8.929159803E1,-2.477104425E0,5.346109867E-1,1.057238579E0
8.934159820E1,-2.430067778E0,7.337529659E-1,4.891338646E-1
8.939159836E1,-2.530860662E0,2.970130682E0,-1.791527271E-1
8.944359802E1,-2.518643379E0,3.985388756E0,-1.023368478E0
8.949359805E1,-2.084318161E0,4.053805828E0,-1.881023288E0
8.954559801E1,-9.774302244E-1,4.350686073E0,-2.878566265E0
8.959759797E1,2.803413272E-1,4.010434151E0,-2.679424047E0
8.964959796E1,1.002994895E0,3.929800034E0,-2.763723612E0
8.969959799E1,1.175258875E0,2.545579433E0,-1.824212909E0
8.974959802E1,1.090959430E0,9.347276688E-1,-1.401494145E0
8.980159791E1,9.736734033E-1,5.324912444E-2,-1.038029313E0
8.985159797E1,7.604814172E-1,-1.684949696E-1,-4.234988093E-1
8.990359793E1,4.409989119E-1,-4.012346268E-1,5.019620657E-1
8.995559790E1,2.473546118E-1,-4.830905795E-1,1.081062198E0
9.000759789E1,1.233489588E-1,-7.084997892E-1,1.572197914E0
9.005959775E1,6.348416954E-2,-7.353779078E-1,1.985753655E0
9.010959788E1,-1.104138978E-2,-4.091758728E-1,2.165958881E0
9.015959791E1,-5.441282317E-2,-5.120883137E-2,2.136026621E0
9.020959793E1,-1.118341535E-1,2.346761078E-1,1.913060784E0
9.025959816E1,-2.260659486E-1,4.759678543E-1,1.479957223E0
9.031159789E1,-2.883742154E-1,7.551332712E-1,9.277350903E-1
9.036359788E1,-8.373434842E-2,7.337529659E-1,4.420972168E-1
9.041559788E1,2.137570232E-1,6.891598701E-1,1.806468964E-1
9.046559798E1,5.307961106E-1,5.639324784E-1,1.693501696E-2
9.051559807E1,6.615212560E-1,3.055364788E-1,-1.223422587E-1
9.056759787E1,8.832653165E-1,-1.049649715E-1,1.891990155E-1
9.061759793E1,8.331743479E-1,-5.301271677E-1,5.001294017E-1
9.066768775E1,9.254150391E-1,-3.715893254E-2,1.049908161E0
9.071968761E1,6.260910630E-1,-1.214296222E0,1.850752473E0
9.076968767E1,5.381264687E-1,-1.955275774E0,2.149465561E0
9.082168760E1,7.360467911E-1,-1.302871704E0,1.766453147E0
9.087368756E1,5.466786027E-1,-3.410460800E-2,7.365342975E-1
9.092368773E1,8.258439898E-1,1.046515942E0,-8.446861058E-2
9.097368792E1,1.153878689E0,9.609948993E-1,-4.125032425E-1
9.102568761E1,1.283992887E0,2.737390995E0,-8.535479903E-1
9.107568778E1,1.197860956E0,4.556547642E0,2.136336267E-1
9.112768764E1,-3.971082270E-1,-7.133867741E-1,-6.140888333E-1
9.117968746E1,-3.037267923E0,-1.550272107E0,6.436827183E-1
9.122968776E1,-3.228468657E0,-1.070132136E0,-5.306144714E0
9.128168772E1,-1.710880846E-1,-8.508314490E-1,-2.530373096E0
9.133368765E1,8.506298065E-3,-9.473481178E-1,-1.910955667E0
9.138568754E1,-5.406615734E-1,-1.191083431E0,-2.225241512E-1
9.143568771E1,-7.624056339E-1,-1.028593302E0,5.294509530E-1
9.148768754E1,-4.465883076E-1,-2.855080366E0,1.409096956E0
9.153768773E1,-9.029046893E-1,-5.777459621E0,2.272860289E0
9.158968772E1,-1.224219680E0,-7.123195648E0,2.441459179E0
9.164168749E1,-6.982647777E-1,-3.553299427E0,-1.980895549E-1
9.169168785E1,5.808870196E-1,-8.642704487E-1,1.822041869E0
9.174168788E1,8.838762045E-1,-2.031023026E0,7.230952382E-1
9.179368747E1,7.684226632E-1,-1.607082605E0,5.954243541E-1
9.184368760E1,2.888934314E-1,-1.364569068E0,8.147250414E-1
9.189368766E1,7.936666906E-2,-1.696879745E0,1.089003563E0
9.194568746E1,9.364106059E-1,-2.674875021E0,1.381608009E0
9.199768749E1,1.607140660E0,-4.659575939E0,1.238054633E0
9.204768765E1,-1.771967262E-1,-2.207563162E0,-7.362618446E-1
9.209968768E1,-1.540037155E0,1.845527768E0,-3.519363880E0
9.215168744E1,-7.196450830E-1,-5.533400774E-1,-2.574355364E0
9.220168754E1,-3.921190023E0,-1.057275200E1,-3.865113497E0
9.225368739E1,3.176041245E-1,3.384297371E0,-1.862697363E0
9.230368746E1,-2.034639418E-1,6.786206245E0,3.272235870E0
9.235368755E1,-1.182070017E0,4.819219589E0,3.116465330E0
9.240568754E1,-2.298120737E0,5.120089054E-1,1.085949183E0
9.245768744E1,-2.153345585E0,-6.480241418E-1,8.324401379E-1
9.250968744E1,-2.455724239E0,8.999083042E-1,-2.887987718E-2
9.255968750E1,-2.573621035E0,3.942017317E0,-6.421886086E-1
9.261168750E1,-2.593168736E0,5.536986351E0,-1.655614018E0
9.266368742E1,-1.174739599E0,6.744056225E0,-2.288470507E0
9.271368761E1,6.914536357E-1,7.497863770E0,-2.241433859E0
9.276568745E1,9.632887244E-1,5.169245720E0,-2.179125547E0
9.281768737E1,4.135099351E-1,1.303690314E0,-1.270158052E0
9.286768740E1,2.607936263E-1,1.394709229E0,-7.332075238E-1
9.291968740E1,-1.222188622E-1,-5.350140929E-1,7.780731320E-1
9.296968742E1,-4.508643746E-1,-2.206341267E0,8.947483301E-1
9.302168735E1,-5.822004080E-1,-1.690160275E0,1.129320621E0
9.307168738E1,-7.214776874E-1,-9.705610275E-1,1.375499249E0
9.312368738E1,-7.391927242E-1,-1.200246334E0,1.902065158E0
9.317368744E1,-6.390108466E-1,-1.493461728E0,1.918558478E0
9.322568730E1,-3.732844889E-1,-1.387171149E0,1.936884522E0
9.327568739E1,8.058839291E-2,-7.885231972E-1,1.889847875E0
9.332768735E1,2.149787396E-1,4.714047164E-2,1.771340013E0
9.337968732E1,1.673312634E-1,7.343639135E-1,1.478124619E0
9.342968748E1,1.636660695E-1,1.089276552E0,1.057849407E0
9.348168727E1,3.628081381E-1,1.224888682E0,5.111250281E-1
9.353168737E1,4.397771657E-1,1.376994133E0,1.891990155E-1
9.358168763E1,6.389192343E-1,1.170521617E0,8.657365292E-2
9.363368749E1,5.876065493E-1,5.627107620E-1,1.757599860E-1
9.368568735E1,5.405699611E-1,5.141652748E-2,5.447226167E-1
9.373568748E1,4.788725376E-1,1.656483263E-1,6.626195908E-1
9.378768737E1,2.168113440E-1,-2.723420262E-1,1.202013493E0
9.383968730E1,-5.502368510E-2,-8.618270159E-1,1.759122729E0
9.389168730E1,-2.358397990E-1,-9.980499744E-1,2.189171791E0
9.394168739E1,-3.665649593E-1,-1.573485017E0,2.392589808E0
9.399368726E1,-8.129089326E-2,-2.418922663E0,2.076161861E0
9.404368746E1,-5.624542013E-2,-2.384103298E0,1.828150511E0
9.409568738E1,3.059976697E-1,-1.994982004E0,1.190407157E0
9.414768728E1,5.430133939E-1,-2.283921480E0,5.358693376E-2
9.419768744E1,4.642117620E-1,-2.134870052E0,-1.339796782E0
9.424768750E1,3.505908549E-1,-2.310903184E-2,-6.525732875E-1
9.429968736E1,-9.077915549E-1,9.286190271E-1,3.388609886E-1
9.434968753E1,-2.047055244E0,3.074588537E0,3.137234688E0
9.439968759E1,-9.853714705E-1,-3.272301197E0,-2.647048235E0
9.445168721E1,-1.357388377E0,7.649071217E-1,-1.155315399E0
9.450168734E1,-1.187567830E0,1.699243933E-1,-8.126199841E-1
9.455168744E1,-7.569078207E-1,-4.549907446E-1,-5.010787249E-1
9.460368720E1,-6.225175261E-1,-6.669610143E-1,5.053260550E-2
9.465568726E1,-5.119509101E-1,-6.125940084E-1,5.129575729E-1
9.470568732E1,-3.323565125E-1,-1.632128000E0,5.825962424E-1
9.475568738E1,-1.405448169E-1,-1.669390917E0,6.620087028E-1
9.480768731E1,-1.802510619E-1,-2.076837778E0,5.825962424E-1
9.485768737E1,-2.419484556E-1,-4.806470871E-1,8.354944587E-1
9.490968713E1,-1.765858829E-1,-1.431153417E0,9.454501867E-1
9.495968720E1,3.658624589E-1,-3.597281456E0,9.857672453E-1
9.501168719E1,1.230847597E0,-5.208133221E0,1.446058452E-1
9.506168732E1,-6.994864941E-1,-7.066672444E-1,-2.990965366E0
9.511368718E1,-8.607549667E-1,3.822287560E0,-5.063631535E0
9.516368734E1,-8.503702283E-1,-2.935714483E0,-3.089925528E0
9.521568717E1,1.766927727E-2,-4.195605814E-1,4.811925888E-1
9.526768717E1,1.826028973E-1,5.211718678E-1,2.909381866E0
9.531768722E1,-3.806148767E-1,2.259694338E0,3.090198040E0
9.536768732E1,-1.039127588E0,2.598724604E0,2.815919638E0
9.541968718E1,-1.115485668E0,1.825369120E0,1.395657778E0
9.547168718E1,-1.525987148E0,3.645747662E0,4.146082997E-1
9.552368714E1,-1.726350904E0,4.393446922E0,-6.580711007E-1
9.557368727E1,-1.344560146E0,4.526004314E0,-1.858421206E0
9.562568713E1,-4.948466420E-1,4.714761734E0,-2.477838516E0
9.567768712E1,5.613393784E-1,4.632905960E0,-2.868792534E0
9.572968709E1,1.194195628E0,3.981112480E0,-3.002571821E0
9.577968718E1,1.117226720E0,2.657978535E0,-2.591459513E0
9.583168707E1,5.863848329E-1,8.815823793E-1,-1.973874807E0
9.588168714E1,8.608618379E-2,-6.504676342E-1,-9.005845785E-1
9.593368713E1,-6.296493858E-2,-1.165426970E0,1.720947921E-1
9.598568706E1,1.705841348E-2,-8.990897536E-1,9.155178070E-1
9.603568726E1,2.076483667E-1,-4.177279770E-1,1.607017159E0
9.608768712E1,1.740507782E-1,-1.843774617E-1,2.005912304E0
9.613968708E1,-4.097378626E-2,-2.674551308E-1,2.249036551E0
9.618968710E1,-2.676047981E-1,-2.784507275E-1,2.190393448E0
9.624168710E1,-5.443267226E-1,-2.332466692E-1,2.065166235E0
9.629168736E1,-5.528788567E-1,-4.610994160E-1,2.135415792E0
9.634368719E1,-3.690084219E-1,-6.132048368E-1,1.987586260E0
9.639568712E1,6.531676650E-2,-2.558487058E-1,1.641836524E0
9.644768701E1,4.929224253E-1,4.093835652E-1,1.170248628E0
9.649768708E1,4.464966655E-1,4.619179666E-1,1.014477968E0
9.654768717E1,4.776508212E-1,-1.182531238E0,1.169026852E0
9.659768740E1,7.152774334E-1,-2.236884832E0,6.125286222E-1
9.664968700E1,9.681755900E-1,-2.155028820E0,-3.563036621E-1
9.669968726E1,1.142883062E0,1.225499511E0,-1.563984275E0
9.675168722E1,1.360961914E0,6.588285446E0,-1.352624893E0
9.680368698E1,2.210064650E0,2.424017191E0,-1.730440706E-1
9.685368718E1,2.528524101E-1,6.195212007E-1,-7.164043933E-2
9.690368730E1,8.364272118E-2,-2.277488858E-1,-1.339486986E-1
9.695568706E1,-3.158830166E0,-3.971741915E0,-5.749934316E-1
9.700568709E1,3.542972565E0,6.675639153E0,-3.636649847E0
9.705568722E1,-3.897778392E-1,-1.272328496E0,-3.860226870E0
9.710768691E1,8.547531813E-2,1.237716794E0,-2.835194826E0
9.715768711E1,-6.765332539E-3,-3.639718294E-1,-1.366674781E0
9.720768717E1,-8.923213929E-2,-4.745384455E-1,-4.485443234E-1
9.725968693E1,-1.613142341E-1,-1.348075747E0,6.003113389E-1
9.731163076E1,-1.448208839E-1,-1.503846407E0,1.354119062E0
9.736163079E1,-2.230116278E-1,-3.213047266E0,2.212384701E0
9.741363068E1,-2.950937152E-1,-4.543511868E0,2.839743376E0
9.746563072E1,-4.270406067E-1,-5.088403702E0,2.762163401E0
9.751563078E1,-4.288732409E-1,-3.999841690E0,2.014464378E0
9.756763074E1,4.576907679E-2,-1.649843097E0,1.341290951E0
9.761963067E1,2.436894178E-1,-1.434207797E0,1.031582117E0
9.766963069E1,2.815630436E-1,-1.874641657E0,8.214445114E-1
9.771963075E1,1.881006807E-1,-1.569208980E0,4.860795140E-1
9.777163068E1,-7.640396804E-2,-1.247282982E0,5.270075202E-1
9.782363061E1,-2.963154614E-1,-7.775275707E-1,5.844288468E-1
9.787363070E1,-3.109762371E-1,-6.718478799E-1,6.638413072E-1
9.792563067E1,-3.757279217E-1,-1.148322701E0,4.353777170E-1
9.797763066E1,-3.726736009E-1,-3.460447788E0,5.117358565E-1
9.802963062E1,7.775856256E-1,-6.842197895E0,-7.533660531E-1
9.808163062E1,-6.127436757E-1,-1.399388433E0,-4.248736858E0
9.813363061E1,-6.884909868E-1,4.857093334E0,-3.819298744E0
9.818563061E1,-1.464900613E0,-7.511095047E0,-3.134518862E0
9.823763057E1,1.141859889E-1,-8.117361069E-1,-2.558472872E0
9.828763060E1,1.568045259E0,3.913917542E0,3.384024143E0
9.833963059E1,-6.154467352E-3,4.969492912E0,3.491536617E0
9.839163056E1,-1.241323948E0,2.230372906E0,2.222769499E0
9.844163062E1,-1.361664414E0,5.682085156E-1,1.665049434E0
9.849363054E1,-1.516824245E0,1.570638418E0,4.359885752E-1
9.854363061E1,-1.559584856E0,4.408107281E0,-6.092018485E-1
9.859563057E1,-1.533317685E0,5.694589615E0,-1.957992315E0
9.864763053E1,-6.384000182E-1,5.835088730E0,-2.292135477E0
9.869763056E1,2.339155674E-1,4.279825687E0,-2.700193644E0
9.874763059E1,6.700733900E-1,2.702571869E0,-2.766166925E0
9.879963058E1,6.419735551E-1,1.399596095E0,-2.137586594E0
9.885163057E1,6.657972932E-1,1.209006190E0,-1.552988648E0
9.890363054E1,5.179678798E-1,-4.693277925E-2,-6.989990473E-1
9.895363057E1,3.841884136E-1,-7.439299822E-1,-7.774908841E-2
9.900363063E1,3.108845949E-1,-8.318945765E-1,6.589543819E-1
9.905563056E1,3.121063113E-1,-6.290873289E-1,1.249661088E0
9.910763052E1,3.683059514E-1,-6.559654474E-1,1.715751171E0
9.915963052E1,3.811340928E-1,-1.822211035E-2,1.850141644E0
9.920963075E1,3.628081381E-1,4.429811537E-1,1.644890904E0
9.926163057E1,1.899332702E-1,1.065452933E0,1.482400775E0
9.931363050E1,2.866485156E-2,2.039783001E0,1.045632124E0
9.936363063E1,-6.601926684E-2,2.077656507E0,2.594485283E-1
9.941563052E1,-4.936249256E-1,3.690664768E-1,7.011040449E-1
9.946763045E1,-5.076748133E-1,-1.222237587E0,1.508667946E0
9.951763058E1,3.689167798E-1,-1.585091472E0,2.079216003E0
9.956963051E1,1.523452163E0,-1.660227895E0,1.799439788E0
9.962163044E1,2.461741209E0,-1.577761054E0,1.100610018E0
9.967163063E1,2.605905294E0,-9.931630492E-1,-7.499592844E-3
9.972363059E1,1.968161941E0,9.295536578E-2,-2.158046365E-1
9.977563048E1,1.801395774E0,-1.689549446E0,-8.822585940E-1
9.982763048E1,1.271775603E0,8.547043204E-1,-1.064296484E0
9.987763058E1,1.506347895E0,3.015945673E0,-9.604493976E-1
9.992963037E1,2.062846184E0,1.934714079E0,-8.486610055E-1
9.997963067E1,2.045940459E-1,2.503429651E0,-2.396283895E-1
1.000316306E2,1.914405942E0,1.072172403E0,-1.967766166E0
1.000836304E2,5.451972596E-3,-1.717038274E0,-4.892589092E0
1.001336306E2,1.796508908E0,-1.562776417E-1,-2.738678217E0
1.001856305E2,9.186955094E-1,-3.743565381E-1,-1.518780112E0
1.002376304E2,1.355662644E-1,-1.598530531E0,-4.332726598E-1
1.002876306E2,-8.381529450E-1,-1.966882229E0,1.586858630E0
1.003396306E2,-1.081888199E0,-2.615621090E0,2.420689583E0
1.003916304E2,-1.079444647E0,-3.294292450E0,3.415789366E0
1.004416305E2,-8.155509233E-1,-4.542290211E0,3.884933949E0
1.004916306E2,-1.881923079E-1,-4.700504303E0,3.635700703E0
1.005436304E2,5.185787678E-1,-1.946723580E0,2.548360586E0
1.005936305E2,5.356829762E-1,-2.097607374E0,2.371209621E0
1.006436306E2,9.840580821E-1,-1.729866624E0,2.110370159E0
1.006956304E2,1.585149527E0,-2.151363611E0,2.228878260E0
1.007476304E2,5.454568267E-1,-1.062801600E0,1.997970939E0
1.007976305E2,-2.354320526E0,3.072145224E0,-8.285024762E-1
1.008476305E2,-2.910207748E0,3.893759012E0,-2.328176737E0
1.008996304E2,-7.976724148E0,-1.377124214E1,-4.946345329E0
1.009516304E2,3.731119156E0,1.021470547E0,-5.701985359E0
1.010036304E2,-3.250261247E-1,1.030173492E1,7.395576000E0
1.010556303E2,-1.094716311E0,8.068411827E0,7.918477058E0
1.011056304E2,-1.730016232E0,1.926162004E0,2.321118593E0
1.011556304E2,-2.847899675E0,-1.731699109E0,-1.133935094E0
1.012076303E2,-2.777039289E0,-1.041421413E0,-1.074681163E0
1.012596303E2,-2.032394648E0,3.360473633E0,-9.677797556E-1
1.013096303E2,-1.474674582E0,6.391586781E0,-1.618962169E0
1.013616303E2,-1.252731979E-1,6.565072536E0,-1.961046576E0
1.014116304E2,4.232838154E-1,4.311590672E0,-2.438132286E0
1.014636304E2,8.221788406E-1,2.179059982E0,-2.264035940E0
1.015136304E2,1.044533849E0,-8.373923898E-1,-1.216401815E0
1.015636304E2,7.067252994E-1,-1.226513505E0,-8.730956316E-1
1.016156304E2,7.751421332E-1,-7.610342503E-1,2.313487232E-1
1.016676303E2,7.726987600E-1,9.677144289E-1,1.115270734E0
1.017176304E2,1.021320820E0,9.157908559E-1,2.120144129E0
1.017696303E2,6.822906733E-1,2.633867860E-1,2.589288473E0
1.018216302E2,2.711783350E-1,1.090498328E0,3.427395821E0
1.018736301E2,-4.942358136E-1,1.071561575E0,3.491536617E0
1.019236303E2,-8.234921694E-1,-4.366647899E-1,3.508640766E0
1.019736304E2,-1.061729670E0,-3.273199201E-1,2.823860884E0
1.020256302E2,-1.324401617E0,-8.129577637E-1,2.626551151E0
1.020756303E2,-1.163744092E0,-1.148933768E0,2.151298046E0
1.021276301E2,-1.197341681E0,-1.681608200E0,1.193461418E0
1.021776302E2,3.110831231E-2,-1.807122678E-1,8.122815490E-1
1.022276303E2,8.166810274E-1,1.063009381E0,1.876761205E-2
1.022796303E2,-8.436506987E-1,4.114892006E0,-4.906939864E-1
1.023296304E2,-4.277935028E0,1.680594087E0,4.023909867E-1
1.023816302E2,-2.423348188E0,1.610955477E0,5.770984292E-1
1.024316303E2,-3.399511099E0,2.845514059E0,-1.036807537E0
1.024816306E2,-2.488099813E0,5.277368546E0,-2.468064785E0
1.025336302E2,-1.898615003E0,2.056887150E0,-2.897503138E0
1.025856301E2,-1.570580363E0,1.612788081E0,-2.503494978E0
1.026356304E2,-5.162269473E-1,5.651541948E-1,-1.317194700E0
1.026876303E2,8.364272118E-2,-3.951259851E-1,-4.430465102E-1
1.027396302E2,9.706190825E-1,-2.185571909E0,7.279821634E-1
1.027896304E2,1.822776079E0,-4.186766624E0,9.888215661E-1
1.028416303E2,1.907686353E0,-5.599697590E0,9.949303269E-1
1.028936301E2,1.931510091E0,-4.549009800E0,8.141141534E-1
1.029436305E2,2.158751965E0,-3.456171513E0,3.987258077E-1
1.029956304E2,2.101941347E0,-3.128136873E0,2.417334318E-1
1.030476301E2,1.599810362E0,-3.180671453E0,-3.245386779E-1
1.030976303E2,1.203358769E0,-3.980294228E0,-7.203793526E-1
1.031476304E2,1.039646864E0,-6.049294472E0,-8.431632519E-1
1.031996302E2,8.368396163E-1,-7.276523113E0,-1.894462228E0
1.032496302E2,-3.183066249E-1,-2.384714127E0,-4.278058529E0
1.033016302E2,-6.927670240E-1,1.184571505E0,-5.640287876E0
1.033536300E2,-7.086494565E-1,-3.469610929E0,-2.130867243E0
1.034036301E2,-7.428579926E-1,-2.569195271E0,-2.290913820E0
1.034556301E2,1.068357587E0,2.604833364E0,4.304907918E-1
1.035076300E2,-1.723098159E-1,4.898632526E0,6.980497241E-1
1.035576303E2,-1.116096616E0,3.219974518E0,2.270726562E-1
1.036096302E2,-1.817369819E0,2.987845659E0,-5.627761483E-1
1.036596303E2,-1.835084915E0,4.212019444E0,-1.401494145E0
1.037096304E2,-1.428248763E0,5.508886814E0,-2.194397211E0
1.037616300E2,-6.133545041E-1,5.626173019E0,-3.688573599E0
1.038116302E2,5.729457736E-1,4.432541847E0,-3.323276043E0
1.038636302E2,9.944428205E-1,3.440496922E0,-3.105197191E0
1.039136302E2,1.795485616E-1,2.006796122E0,-2.760058403E0
1.039656302E2,-6.854366660E-1,1.090498328E0,-1.979983568E0
1.040176301E2,-1.803320050E0,-1.120223045E0,-2.060307860E-1
1.040696299E2,-1.629834175E0,-1.765296698E0,1.446058452E-1
1.041196301E2,-1.510715604E0,-1.597308755E0,9.625544548E-1
1.041716300E2,-1.131979108E0,-1.214296222E0,1.254547954E0
1.042216300E2,-5.412724018E-1,-8.899267912E-1,1.776226878E0
1.042736300E2,1.367879957E-1,-3.719130754E-1,1.916725993E0
