"Time (s)","Linear Acceleration x (m/s^2)","Linear Acceleration y (m/s^2)","Linear Acceleration z (m/s^2)"
5.999614900E-2,-1.893888950E0,-2.057972193E0,-4.204912186E0
1.199943790E-1,-1.795442581E0,-2.039501905E0,-3.891320705E0
1.799932600E-1,-2.345815182E0,-2.518607378E0,-4.426284790E0
2.399925090E-1,-2.680607796E0,-2.274653673E0,-5.682616234E0
2.999919250E-1,-1.413445473E0,-6.462004185E-1,-5.450512886E0
3.599917900E-1,-1.450201035E0,-2.394604683E-2,-6.199796677E0
4.199918210E-1,5.982524872E0,5.217791557E0,1.326593018E1
4.699918540E-1,7.839064598E0,6.001999378E0,1.092855453E1
5.299918190E-1,1.954131508E1,1.276242256E1,1.218302155E1
5.899918180E-1,1.851705170E1,1.377695274E1,1.366909981E0
6.499918170E-1,-1.343744946E1,-1.270151615E1,1.733141708E1
7.099918160E-1,-3.454338312E0,-1.774348450E1,-6.683814526E0
7.699917470E-1,1.432656050E-1,-2.093793106E1,-3.706466675E0
8.199918130E-1,5.249890327E0,-7.010424614E0,-6.018151760E0
8.799917450E-1,7.074182510E0,-2.889393806E0,-6.071627140E0
9.399917100E-1,4.814626694E0,-3.383879662E0,-3.124588490E0
9.899917750E-1,6.422108650E0,-4.088640690E0,-1.886699677E0
1.039991807E0,6.706197739E0,-4.540270805E0,-5.723018646E-1
1.099991806E0,4.443624973E0,-3.920427322E0,-3.517093658E-1
1.149991872E0,3.046586514E0,-4.837771893E0,9.949998856E-1
1.209991870E0,-3.778366089E0,-9.694432259E0,2.166749954E0
1.269991835E0,-6.421951294E0,-4.650133133E0,9.865298271E-1
1.329991800E0,-6.228743553E0,-1.217000723E0,1.352161884E0
1.379991833E0,-4.784083366E0,2.410662651E0,1.992428780E0
1.439991798E0,-4.592378616E0,5.275504112E0,2.175200939E0
1.499991763E0,-5.921542168E0,4.879657745E0,2.465661049E0
1.559991761E0,-5.792552948E0,3.757230520E0,1.375652909E0
1.609991826E0,-6.785285950E0,3.386900187E0,2.240686893E0
1.669991823E0,-5.457707405E0,1.617356658E0,3.394671440E0
1.729991822E0,-5.177473068E0,-7.809558511E-1,2.676307201E0
1.789991787E0,-3.370823860E0,-2.266625643E0,-8.597952127E-1
1.849991786E0,2.471204758E0,-1.453777313E0,-3.443278551E0
1.909991751E0,4.265796661E0,-4.855185032E0,-4.149444103E0
1.959991783E0,6.071679592E0,-9.670051575E0,-3.403079987E0
2.019991749E0,3.875492096E0,-2.153746033E1,-6.767180443E0
2.069991781E0,-2.353313923E0,-1.051543617E1,-9.440008163E0
2.129991746E0,7.574534416E0,8.067189217E0,1.627842426E0
2.189991711E0,5.351867676E0,-2.249099731E0,6.261903763E0
2.249991776E0,2.773373127E0,3.488851547E0,1.263635254E1
2.299991808E0,5.565936089E0,6.548449993E0,1.491151619E1
2.359991807E0,9.550463676E0,9.786848068E0,1.661129379E1
2.409991872E0,1.517308426E1,1.274526787E1,1.372654438E1
2.469991837E0,1.813642311E1,1.158257580E1,3.633640289E0
2.519991869E0,-7.240028977E-1,-6.593864441E0,8.619815826E0
2.579991801E0,-1.446126366E1,-1.814271927E1,-1.612158966E1
2.629991834E0,-3.600090504E0,-1.089837170E1,-6.769918919E0
2.679991834E0,-1.810507655E0,-7.959894657E0,-6.295625687E0
2.739991833E0,2.515749216E0,-4.526871443E-1,-8.608338356E0
2.789991865E0,3.075078487E0,1.403797865E0,-6.985653877E0
2.849991864E0,3.039185524E0,-2.835900187E-1,-3.097948551E0
2.909991761E0,5.228846073E0,2.893620133E-1,-1.971893311E0
2.969991726E0,2.972918510E0,3.563029766E-1,-6.087064743E-1
3.029991691E0,2.175440788E0,-2.376928329E-1,-2.954406738E-1
3.089991690E0,-4.764050007E0,-3.352711201E0,3.406816006E0
3.149991689E0,-8.584421158E0,-3.569352150E0,4.866005898E0
3.199991721E0,-1.016261959E1,8.919239044E-2,2.506120682E0
3.259991720E0,-1.176616096E1,3.466476917E0,2.857055187E0
3.309991752E0,-1.369621277E1,5.612381458E0,2.105364561E0
3.369991717E0,-1.292312050E1,6.695039749E0,4.697421551E0
3.419991750E0,-1.202181530E1,7.964885235E0,3.855426788E0
3.479991681E0,-1.050232506E1,7.973652840E0,1.889650702E0
3.531676729E0,-9.718132973E0,6.500988007E0,1.956637025E0
3.581676795E0,-1.263679123E1,3.915850401E0,6.014212370E-1
3.641676760E0,-6.579189301E0,2.809471369E0,1.544469357E0
3.701676791E0,-3.259853363E0,6.173424721E-1,-3.720211506E0
3.761676790E0,4.006608963E0,-1.492388129E0,-4.450243473E0
3.821676755E0,5.930921555E0,-3.896133900E0,-2.223172426E0
3.871676788E0,4.749571800E0,-6.518223763E0,-1.518328190E0
3.931676820E0,4.296536446E0,-9.131645203E0,-6.807384491E0
3.991676819E0,6.280298233E-1,-5.469718933E0,-1.174619579E1
4.051676818E0,2.154156113E1,-1.138458538E1,3.786016846E1
4.111676750E0,-1.075050354E0,1.601681900E1,1.241689682E1
4.171676714E0,-7.188259125E0,7.606448174E0,1.423864460E1
4.231676646E0,-2.988719940E-2,9.530684471E0,1.635320282E1
4.291676611E0,2.112255573E0,1.140017509E1,1.762874413E1
4.341676644E0,4.508183956E0,1.066342735E1,1.812934303E1
4.391676676E0,8.495169640E0,1.041805458E1,1.859982300E1
4.441676708E0,2.008596039E1,1.603718376E1,1.227857971E1
4.501676707E0,2.353840065E1,9.990583420E0,8.362182617E0
4.551676739E0,-1.713920212E1,-8.872775078E0,1.563301277E1
4.611676738E0,-8.427536011E0,-5.697005272E0,-8.160776138E0
4.671676737E0,-6.057345867E-1,-8.331899643E0,-2.174709797E0
4.731676668E0,4.725456238E-3,3.984955549E0,-9.960593224E0
4.791676700E0,3.139864683E0,6.758682728E0,-7.830000877E0
4.851676699E0,2.815471649E0,4.703374386E0,-3.793909073E0
4.901676731E0,4.790267467E0,3.208467007E0,-2.123330593E0
4.961676729E0,6.067148209E0,3.413944721E0,6.381158829E-1
5.011676762E0,5.915612221E0,4.944665432E0,3.474636078E0
5.071676727E0,5.208391666E0,5.222539425E0,3.668403625E0
5.121676760E0,-4.168930054E-1,-3.880414963E-1,5.438471317E0
5.171676760E0,-6.797128677E0,1.587104797E0,5.626919746E0
5.231676759E0,-9.799206734E0,1.875038147E0,1.476059675E0
5.281676791E0,-8.671470642E0,6.679680824E0,4.120991707E0
5.341676789E0,-9.465705872E0,6.154823303E0,-8.848468065E-1
5.401676720E0,-8.456547737E0,7.696332932E0,-1.949121952E-1
5.461676651E0,-4.011802197E0,4.986929417E0,7.041606903E-1
5.511676683E0,-1.501726151E0,5.346433640E0,1.691853523E0
5.571676648E0,-3.116318703E0,4.135468006E0,9.895720482E-1
5.631676647E0,-4.156801224E0,3.713487148E0,-4.360363483E-1
5.681676679E0,-3.811641216E0,3.902848005E0,-4.049088955E-1
5.731676711E0,-6.302126884E0,5.776769638E0,-2.726102829E0
5.791676676E0,-2.724227905E0,3.699274302E0,-1.874372244E0
5.841676708E0,1.974001408E0,8.976185322E-1,-2.301642179E0
5.901676707E0,8.445635796E0,-4.561215878E0,-1.461698771E0
5.951676707E0,3.773816586E0,-8.119287491E0,-2.439007282E0
6.011676706E0,-5.392112732E-1,-4.214748383E0,-9.537700415E-1
6.061676738E0,-1.597775459E0,-1.106307507E0,-9.379565716E-3
6.121676737E0,-4.091779709E0,3.375451565E0,2.199813843E0
6.171676769E0,-1.051272583E1,6.428233147E0,3.485598803E0
6.231676700E0,-3.946904182E0,5.515834808E0,2.085755825E0
6.281676732E0,-2.074075699E0,4.730479717E-1,4.106011391E-1
6.341676663E0,3.040933609E-1,2.575842440E-1,-1.905172348E0
6.391676696E0,2.137853622E0,-2.654081345E0,-5.214007854E0
6.451676627E0,1.875318527E0,-2.162886381E0,-3.675754547E0
6.511676659E0,4.103403091E-1,-6.489948750E0,7.971461296E0
6.561676692E0,-2.182636261E0,1.937613964E0,-4.009029865E0
6.621676657E0,2.032569313E1,2.396259308E-1,3.977513313E-1
6.681676655E0,1.099682140E1,2.455865860E0,-4.940893173E0
6.731676688E0,4.071436882E0,2.554603100E0,-4.986087799E0
6.791676653E0,5.228882313E0,9.434604645E-2,-1.232659817E0
6.851676652E0,4.347903728E0,-3.168735504E-1,2.554947853E0
6.901676684E0,4.901537895E0,-3.804977655E0,1.739896774E0
6.951676716E0,2.711464643E0,-3.652560711E0,-3.963828087E-1
7.011676682E0,1.579312325E0,-1.680036068E0,-2.508193016E0
7.071676680E0,1.252383709E0,-1.028898001E0,-5.829539299E-1
7.131676645E0,7.966480255E-1,-3.495638371E-1,-2.940614700E0
7.191676610E0,3.899450302E-1,8.480350971E-1,-8.995299339E-1
7.251676675E0,3.531816483E0,1.578129053E0,1.768942833E0
7.301676707E0,1.342205524E1,4.951424599E0,1.984059334E0
7.361676706E0,2.527019119E1,1.467414474E1,-5.492677212E0
7.411676738E0,1.319294357E1,1.255415678E0,-2.011559963E0
7.471676736E0,-1.582341194E1,-1.232963753E1,1.535511208E1
7.521676768E0,-2.145873833E1,-2.964512634E1,8.557321548E0
7.581676700E0,-6.873943806E0,-1.024951839E1,-3.649058104E0
7.641676699E0,-2.782774925E0,-4.352919579E0,-6.625590324E0
7.701676630E0,9.652719498E-1,3.158097267E-1,-5.523053169E0
7.761676629E0,1.323406696E0,2.069356441E-1,-4.688226700E0
7.811676661E0,1.844408035E0,-1.314166784E-1,-3.466990948E0
7.861676693E0,1.653030038E0,1.127434373E0,-1.558474541E0
7.921676724E0,2.348150611E-1,-1.796997070E0,1.887961388E0
7.981676723E0,-3.719463825E0,-5.668416500E0,1.174586296E0
8.041676688E0,-4.463538647E0,-2.881267548E0,4.603862762E-2
8.101676653E0,-6.587788105E0,-8.306698799E-1,-9.233469963E-1
8.161676619E0,-5.915773869E0,2.455397367E0,-3.846192360E-1
8.211676651E0,-5.405379295E0,4.175528526E0,5.550179482E-1
8.271676617E0,-4.904645443E0,4.974015713E0,3.473553658E-1
8.321676649E0,-4.762365341E0,3.417502880E0,-1.119518280E-2
8.381676614E0,-4.713703156E0,5.423517227E-1,9.009718895E-1
8.441676579E0,-1.985383987E0,6.005287170E-2,8.750343323E-1
8.501676611E0,4.974441528E-1,7.479455471E-1,-6.613111496E-2
8.551676643E0,8.383398056E-1,8.688354492E-2,6.851105690E-1
8.611676642E0,-1.469850540E-1,3.937339783E-1,3.469986439E0
8.661676674E0,-2.183032036E0,-3.083753586E-2,3.953901768E0
8.721676639E0,-2.881599426E0,1.854422569E0,6.860488892E0
8.771676672E0,-7.587360382E0,-3.590193033E0,1.007273769E1
8.831676637E0,-3.072181702E0,-5.128377914E0,5.903367996E0
8.891676636E0,1.720282555E0,-4.403396606E0,-2.393992186E0
8.951676600E0,3.842302799E0,-5.143805027E0,-5.957822800E0
9.011676632E0,7.526121616E0,-7.962409973E0,-3.846574545E0
9.071676630E0,6.362776279E0,-9.096602440E0,-8.665537834E-1
9.121676662E0,-4.777164459E-1,-1.474737740E1,-2.254081249E0
9.181676660E0,-3.978585243E0,-1.622140312E1,-8.540692329E0
9.231676660E0,2.240514755E-1,6.413369179E-1,-4.129117203E1
9.291676625E0,-4.296769142E0,-2.749511480E0,-3.039252758E0
9.351676624E0,-6.354240417E0,1.004293823E1,-7.064416885E0
9.411676623E0,-8.670085907E0,1.100452709E1,-9.095571518E0
9.471676588E0,-3.932978630E0,9.326697350E0,-5.452751160E0
9.531676553E0,8.871269226E-1,8.737560272E0,-8.181643486E-1
9.581676585E0,-6.752872467E-1,4.586509705E0,-3.083400249E0
9.641676617E0,4.268394470E0,4.415963650E0,-4.012910843E0
9.701676582E0,4.234661102E0,6.008618832E0,-2.831825256E0
9.751676614E0,-3.971539736E-1,1.033322525E1,2.011444569E0
9.801676646E0,1.122368574E0,1.877981567E1,3.333954811E-1
9.861676645E0,-4.061121941E-1,1.965157509E1,-7.496308327E0
9.911676677E0,-9.257247925E0,-5.035593033E0,1.399776077E1
9.971676642E0,-2.426728630E1,-2.381264877E1,-2.338626671E1
1.002167668E1,1.006811428E1,-2.782515907E1,1.291601181E1
1.008167664E1,-2.073166609E0,-1.122920418E1,-8.874250412E0
1.014167664E1,7.411598682E0,1.803512096E0,-5.116875648E0
1.020167657E1,-1.794639587E0,-2.363307476E0,-3.348407745E0
1.026167660E1,7.201211452E-1,-2.961540222E0,-2.711447716E0
1.032167657E1,1.912570477E0,-2.769545555E0,4.794425964E-1
1.037167663E1,1.277680159E0,-2.297677755E0,2.437720299E0
1.043167663E1,1.140120387E0,-1.517798662E0,1.966144562E0
1.049167663E1,1.260030270E-1,-1.177972794E0,5.709390640E-1
1.055167656E1,-4.251265526E0,-2.374075413E0,1.315742016E0
1.061167656E1,-7.225919247E0,-9.450764656E-1,-1.170902491E0
1.067167649E1,-7.098289490E0,3.631434917E0,1.134846926E0
1.073167652E1,-4.901431084E0,4.346538067E0,-1.980386019E0
1.079160144E1,-4.924488544E0,3.937992096E0,-1.269593954E0
1.084160151E1,-3.198475838E0,2.271175146E0,-1.428354025E0
1.090160151E1,-2.994673252E0,4.199752808E-1,-8.784127235E-1
1.096160150E1,-2.540412903E0,-8.682932854E-1,-5.825805664E-1
1.102160150E1,-1.497381210E0,-2.846789360E-1,1.462573528E0
1.107160154E1,-3.592962265E0,6.308543682E-2,1.855318069E0
1.113160154E1,-3.675451279E0,2.041659117E0,1.604646683E0
1.118160157E1,-4.074015617E0,3.038344622E0,8.914804459E-2
1.124160160E1,-3.313986778E0,8.113958359E0,-6.245847225E0
1.130160150E1,5.911585331E0,6.960350037E0,-6.995906830E0
1.136160153E1,-1.045913792E1,-1.259422016E1,-3.821443796E0
1.142160149E1,-4.387412548E0,-4.256361008E0,-6.387258053E0
1.148160146E1,3.418934584E0,-1.440282583E0,-5.346158981E0
1.153160149E1,5.426308155E0,-9.500856400E0,-5.527861118E0
1.158160152E1,1.386037827E0,-1.316480541E1,-1.960890579E1
1.163160156E1,-2.840345383E0,-1.966911697E1,-4.619690418E0
1.169160152E1,4.246800423E0,-2.981352568E0,-3.524407148E0
1.174160155E1,5.014647484E0,-6.701080799E0,9.707271576E0
1.180160152E1,-7.370454788E0,-4.664514065E0,9.392944336E0
1.186160148E1,-5.524722099E0,-6.105895042E0,1.566062355E1
1.192160138E1,-8.360647202E0,-2.148339510E0,1.195099258E1
1.197160141E1,-3.152230263E0,-4.012527466E0,1.134864044E1
1.203160138E1,-1.595724106E0,-1.458760262E0,6.854552269E0
1.208160141E1,7.738265991E-1,-2.219784260E-1,2.988488197E0
1.214160144E1,3.774824142E-1,1.512894273E0,7.733316422E-1
1.220160144E1,1.659451962E0,1.002691507E0,5.959048271E-1
1.226160144E1,3.698488474E0,1.508652568E0,1.000882149E0
1.231160151E1,1.231687832E1,5.351205826E0,2.471421242E0
1.237160151E1,2.314303017E1,1.205469131E1,-7.541189194E-1
1.242160154E1,8.698462486E0,-3.724623680E0,1.302399635E0
1.248160150E1,-2.248256874E1,-1.757086372E1,-6.684159279E0
1.253160153E1,-8.941057205E0,-1.752169037E1,3.195167542E0
1.259160146E1,1.699862815E-2,-5.246478081E0,-4.897869110E0
1.264160150E1,4.897079468E0,4.988620281E-1,-6.510886192E0
1.269160150E1,3.597213745E0,1.614585638E0,-6.713160515E0
1.275160146E1,4.685378551E0,2.103539944E0,-4.951479435E0
1.280160153E1,4.311122417E0,1.191148520E0,-2.822728634E0
1.286160149E1,3.439470291E0,5.733948946E-1,-7.990579605E-1
1.292160146E1,2.081758738E0,-1.291026950E0,1.081716537E0
1.298160146E1,-2.682604790E-1,-1.801849723E0,-3.099185944E0
1.304160142E1,-4.669190884E0,-3.248494148E0,-6.388764381E-1
1.310160142E1,-4.693737984E0,-3.106923103E-1,-1.960199833E0
1.316160142E1,-5.512518883E0,1.862671852E0,-4.683604240E-1
1.321160145E1,-4.865711212E0,3.107901812E0,8.213009834E-1
1.327160142E1,-7.096762180E0,3.654306173E0,2.555447578E0
1.332160145E1,-9.727711678E0,3.627050877E0,4.958395481E0
1.338160141E1,-1.177686691E1,5.721048355E0,4.911086559E0
1.343160145E1,-8.961167336E0,4.600626945E0,6.532282829E0
1.349160144E1,-3.984332561E0,3.036821604E0,4.524065495E0
1.354160148E1,-1.335456371E0,4.899238110E0,4.887513161E0
1.360160148E1,3.907639980E0,8.495247841E0,2.295881033E0
1.366160151E1,6.050723076E0,2.032117367E0,4.410646915E0
1.372160147E1,-8.568089485E0,3.161600590E0,-2.202293634E0
1.378160144E1,-8.283988953E0,1.988216400E0,-7.353654861E0
1.384160137E1,3.030065060E0,3.844430923E0,-3.974737167E0
1.389160140E1,7.169114590E0,-2.690442562E0,-3.669400930E0
1.394160143E1,3.557424545E-1,-1.230558395E1,-5.536245346E0
1.400160140E1,1.139125824E-1,-2.042928696E1,-1.192503357E1
1.405160147E1,-1.012964725E1,-1.172470284E1,-1.206066895E1
1.411160143E1,9.021541595E0,2.075829506E1,2.070227242E1
1.417160143E1,-1.261749554E1,-4.619838715E0,7.873572350E0
1.423160139E1,-8.908936501E0,1.944052458E0,8.360346794E0
1.429160136E1,1.369766235E0,3.186691046E0,2.284633160E0
1.435160136E1,-6.162824631E-1,3.289147139E0,9.155225754E0
1.441160136E1,2.993833065E0,1.745669127E0,2.505057812E0
1.446160139E1,4.141963959E0,3.006878138E0,-1.241049290E0
1.452160139E1,2.648300171E0,1.818037629E0,1.905183792E-1
1.457160142E1,3.868741989E-1,2.753058672E0,5.155153275E-1
1.463160138E1,2.835845947E-2,3.616059303E0,2.572155952E0
1.469160135E1,9.168334961E0,7.004909515E0,8.854604721E0
1.474160138E1,1.620326424E1,1.617386436E1,9.161439896E0
1.479160141E1,1.301500988E1,1.825473213E1,3.378403664E0
1.485160141E1,-2.593389893E1,-6.645914078E0,6.683447838E0
1.490160148E1,-3.238534927E0,-2.388362885E1,-9.828804016E0
1.496160148E1,-5.089048862E0,-1.907905769E1,-2.811688900E0
1.502160147E1,4.120601654E0,-5.110023975E0,-9.837874413E0
1.508160144E1,5.525207520E0,4.035377502E-2,-6.572456360E0
1.514160141E1,2.478687525E0,-3.246882200E0,-3.281839848E0
1.520160130E1,5.776531696E0,-3.438568592E0,-1.564120293E0
1.526160133E1,4.172054768E0,-1.100733995E0,-2.821016312E-1
1.531160140E1,1.624329567E0,-2.843973637E0,3.060440063E0
1.537160143E1,-1.209731102E0,-7.031332016E0,4.276904583E0
1.543160143E1,-7.475827694E0,-4.377586365E0,2.382749557E0
1.549160143E1,-1.107769203E1,-5.675363541E-1,3.610010147E-1
1.555160139E1,-8.913120270E0,5.267052174E0,-1.321460485E0
1.561160133E1,-7.027897835E0,8.696318626E0,-1.304159045E0
1.567160126E1,-6.088091850E0,6.025242805E0,-1.049737573E0
1.572160129E1,-4.598186016E0,3.828877211E0,-1.965213656E0
1.577160132E1,-4.237898827E0,1.159237385E0,-1.564583540E0
1.582160135E1,-3.362271309E0,-1.251871586E0,-1.628752232E0
1.588160132E1,-2.257949829E0,-2.119668484E0,-1.291550636E0
1.593160135E1,-3.897533417E-1,-3.247866869E0,-1.124474525E0
1.599160132E1,2.059207916E0,-2.488403320E0,-3.620674610E-1
1.604160135E1,1.377827168E0,-1.740932941E0,9.294223785E-2
1.609160138E1,1.055503845E0,8.205133677E-1,3.252487183E-1
1.615160148E1,-2.089182854E0,1.949340343E0,1.239306450E0
1.621160148E1,-1.968090057E0,1.508381963E0,2.050991774E0
1.627160151E1,-6.138279915E0,9.343400002E-1,4.429931641E0
1.632160154E1,-6.730596542E0,4.571425915E-1,5.032556534E0
1.638160151E1,-1.352783680E0,1.885857582E-1,2.791598797E0
1.644160147E1,2.723628521E0,1.327427864E0,-1.226107597E0
1.650160137E1,2.547772408E0,-1.592982769E0,-1.589922905E0
1.655160144E1,-7.500207424E-1,-4.489530087E0,-4.765428066E0
1.661160134E1,5.179746151E-1,-7.883984089E0,-3.411036730E0
1.667160133E1,-3.767157793E0,-1.337710381E1,-4.762098789E0
1.673160133E1,5.349689484E0,-8.471192360E0,-3.195549202E1
1.679160130E1,1.761657524E1,1.718032837E0,-1.500672913E1
1.685160130E1,5.899971485E0,-3.721450806E0,-2.585916519E0
1.691160130E1,2.810578823E0,-5.159826279E-1,-5.100360870E0
1.696160133E1,3.532048464E0,-1.027984619E-1,-3.022884130E0
1.702160133E1,-2.365562916E0,-1.411551476E0,-3.354694843E0
1.707160136E1,-2.302119255E0,-3.090944290E-1,-3.879382372E0
1.713160132E1,5.110793114E0,1.166375160E0,3.294709206E0
1.719160126E1,3.362647057E0,3.778891563E-1,2.721747398E0
1.725160129E1,2.128208637E0,1.720132351E0,3.362106323E0
1.730160132E1,2.629736900E0,2.978846073E0,3.573741913E0
1.736160132E1,4.723889351E0,1.807002544E0,2.549707413E0
1.741160135E1,8.241568565E0,4.282738686E0,5.978014946E0
1.747160132E1,1.595373535E1,9.215055466E0,7.829831123E0
1.752160138E1,1.942132187E1,1.552383041E1,2.077654839E0
1.758160135E1,-6.340193748E-1,-3.339200497E0,8.949842453E0
1.764160134E1,-6.513701439E0,-1.542165756E1,-3.134741020E1
1.770160128E1,-4.959227085E0,-3.067828178E1,-1.912943363E0
1.775160134E1,-1.170471787E0,-1.156028557E1,-5.199172974E0
1.780160137E1,3.361577988E0,-3.238569021E0,-1.001727486E1
1.785160147E1,2.421856403E0,-1.265574932E0,-5.126382828E0
1.791160140E1,1.563417912E0,-3.330764771E0,-3.276628017E0
1.796160140E1,2.685765505E0,-4.047971249E0,-2.005618572E0
1.802160127E1,2.029654026E0,-4.339237213E0,1.103420258E0
1.807160733E1,9.270727634E-1,-3.688643932E0,1.446030617E0
1.813160726E1,-5.274682045E-1,-5.697517395E0,2.231264114E-1
1.818160730E1,-6.446687698E0,-4.950005054E0,1.308678627E0
1.823160736E1,-8.735036850E0,-3.769050598E0,-6.963150501E-1
1.829160736E1,-9.584115982E0,9.045944214E-1,1.315919638E0
1.834160739E1,-8.202987671E0,3.989944458E0,1.156523466E0
1.840160739E1,-9.141004562E0,6.129586697E0,-1.204326153E-1
1.846160736E1,-7.266930103E0,6.722330093E0,-4.413888454E-1
1.852160736E1,-4.630029678E0,5.794851780E0,-1.405982971E-1
1.857160739E1,-3.589061737E0,3.187089205E0,-1.378698349E-1
1.863160739E1,-6.892967701E0,-1.679343224E0,3.431575298E-1
1.869160735E1,-6.152750969E0,-4.106115818E0,4.391940594E0
1.874160739E1,-8.322582245E-1,-4.599440575E0,8.472755432E0
1.880160735E1,7.162566662E0,-3.173671246E0,1.513759518E1
1.886160738E1,4.713794708E0,1.069852591E0,1.048864174E1
1.891160738E1,-9.938888550E-1,-5.856742859E-1,5.663721085E0
1.897160738E1,-1.325425148E0,-1.217096901E1,2.340391874E0
1.902160741E1,2.465827465E0,-1.291261482E1,-3.847439766E0
1.908160738E1,8.752029419E0,-1.549407387E1,1.238832474E0
1.914160738E1,4.383244514E0,-1.531377029E1,-6.455929756E0
1.920160731E1,2.720298576E1,-1.539506793E0,-5.248868179E1
1.925160741E1,-1.043984699E1,-1.250283432E1,-1.725689316E1
1.931160734E1,-2.128896713E-1,2.948302746E0,-1.465507793E1
1.937160737E1,-1.388194275E1,-2.095072746E0,-1.260990524E1
1.943160737E1,-1.391755104E1,4.682226181E-1,-1.377222157E1
1.948160740E1,-1.674053955E1,1.093676567E0,-1.443284988E1
1.954160730E1,-1.474507141E1,7.190373421E0,-8.706163406E0
1.959160733E1,-9.976895332E0,7.442406178E0,-1.029360199E1
1.965160733E1,-2.735524178E0,7.752395630E0,-4.051628113E0
1.971160733E1,-1.266775131E-1,6.309096336E0,-2.833239555E0
1.976160736E1,1.721682549E0,4.791783333E0,-2.326821327E0
1.981160739E1,1.530204296E0,2.885483027E0,-1.685935736E0
1.987160736E1,1.084737778E0,1.653684855E0,-4.181602955E0
1.992160739E1,-1.138163090E0,1.763399363E0,-1.622106552E0
1.998160736E1,6.855101585E-1,6.990982890E-1,-2.663225412E0
2.003160742E1,6.652879715E-1,1.394532919E0,1.177911758E-1
2.009160736E1,2.791653395E0,4.337042809E0,5.383780479E0
2.015160735E1,1.284494877E1,1.109350777E1,1.187469006E1
2.021160735E1,1.515009117E1,1.536662579E1,2.163243294E0
2.026160738E1,-5.522521496E0,-9.990008354E0,5.815995216E0
2.032160735E1,-1.167751598E1,-2.058367157E1,-1.141961002E1
2.038160735E1,1.349092484E0,-2.086063576E1,8.739033699E0
2.044160735E1,4.319113731E0,-9.826102257E0,-5.281017303E0
2.050160735E1,6.023883820E0,-3.483592749E0,-5.695115089E0
2.056160728E1,3.843066692E0,-4.868374825E0,-2.241473198E0
2.062160728E1,5.939948559E0,-4.670057774E0,4.295635223E-2
2.067160731E1,5.212491035E0,-5.346387863E0,1.230304718E0
2.073160731E1,3.609519958E0,-4.616708755E0,1.019542694E0
2.078160731E1,1.063323498E0,-5.281702995E0,2.209422112E0
2.084160731E1,-2.912393093E0,-3.201248884E0,2.726106167E0
2.090160731E1,-7.762290001E0,-1.857270241E0,1.875112057E-1
2.096160727E1,-6.575450897E0,3.839909077E0,3.018759012E0
2.102160727E1,-8.360795021E0,4.543694496E0,-9.802571535E-1
2.107160730E1,-9.493813515E0,5.043812752E0,4.503222704E-1
2.112160733E1,-8.974862099E0,4.788078308E0,2.411804795E-1
2.117160736E1,-6.907214165E0,5.141475677E0,-8.252888918E-1
2.123160733E1,-3.554989338E0,4.612196922E0,1.229756832E0
2.128160736E1,-1.950697422E0,4.497125626E0,1.157265663E0
2.134160729E1,-3.181262970E0,3.565607309E0,-3.155363798E-1
2.139160733E1,-4.138612747E0,3.189912319E0,-1.768679023E-1
2.144160733E1,-5.268263817E0,2.134984970E0,-2.640267015E-1
2.150160729E1,-2.269652367E0,2.187594891E0,9.315108061E-1
2.155160736E1,-2.284166336E0,7.269964218E-1,-3.413673639E-1
2.161160732E1,2.157763958E0,5.849092007E-1,-2.039727449E0
2.167160732E1,5.069643021E0,-5.207657814E-2,-2.321894884E0
2.173160729E1,6.611393929E0,-1.572667360E0,-3.087596655E0
2.179160725E1,1.007983589E1,-4.906282902E0,3.953278065E-1
2.185160725E1,5.638740540E0,-1.940405083E1,-8.096878052E0
2.191160725E1,-4.365320206E0,-1.161761284E1,-3.377097607E0
2.196160728E1,7.304299355E0,1.040584683E0,2.761739159E1
2.202160728E1,-2.039479828E1,-1.599529266E0,3.443500400E-1
2.207160731E1,-6.086352348E0,1.914234042E0,9.264086723E0
2.213160728E1,-1.355351543E1,4.766644955E0,4.065275669E0
2.219160724E1,-8.560277939E0,5.949719429E0,6.147418976E0
2.225160731E1,-1.952208519E0,1.211363888E1,4.775422573E0
2.230160734E1,5.524553299E0,7.653100967E0,8.167130470E0
2.236160734E1,-1.571254730E-1,7.954394341E0,5.832768440E0
2.242160734E1,-5.098295212E-1,6.709815025E0,6.915029049E0
2.248160730E1,-4.004178047E-1,6.199571133E0,7.747732162E0
2.253160733E1,1.077987289E1,1.155038261E1,6.422457695E0
2.259160723E1,5.749488831E0,4.375211239E0,6.825809479E0
2.264160726E1,-2.493159103E1,-1.290349388E1,9.325161934E0
2.270160723E1,-5.783167839E0,-1.531030464E1,-1.669342518E0
2.276160726E1,7.001491785E-1,-1.316591835E1,-2.496520042E0
2.282160726E1,3.910860538E0,-4.602998257E0,-7.336644173E0
2.287160729E1,4.191905975E0,-1.676083207E0,-5.721037865E0
2.293160726E1,4.522830963E0,-7.846491337E-1,-3.703534126E0
2.298160729E1,5.098065853E0,-2.206396103E0,-1.725541115E0
2.304160726E1,4.545105934E0,-1.826950788E0,-2.199863434E0
2.310160725E1,4.544854164E0,-3.462985039E0,-1.368308067E0
2.316160722E1,6.872706413E-1,-6.908509254E0,-3.542494774E-1
2.321160725E1,-5.491155624E0,-1.049714565E1,2.720503330E0
2.327160722E1,-1.156130219E1,-5.690361977E0,-5.080791116E-1
2.332160725E1,-1.233869553E1,1.750555038E-1,-8.086101413E-1
2.338160721E1,-1.078911400E1,4.075834751E0,2.285173535E-1
2.343160725E1,-1.179455948E1,6.858808517E0,-6.500267982E-1
2.349160721E1,-1.272934723E1,6.300455093E0,-2.832924843E0
2.354160728E1,-1.217619228E1,5.689864635E0,-1.548518419E0
2.360160728E1,-9.131684303E0,4.976051807E0,-7.117934823E-1
2.365160731E1,-5.917467117E0,4.656673908E0,2.961089611E-1
2.371160730E1,-4.221882343E0,3.599363327E0,-8.071851134E-1
2.377160734E1,-3.537798405E0,1.919686794E0,-7.854446173E-1
2.383160730E1,-3.461103439E-1,3.625288010E-1,-1.287894547E-1
2.389160727E1,3.895793915E0,-7.041959763E-1,2.448803186E-2
2.394160727E1,2.599610329E0,-3.615400791E0,-1.020655513E0
2.400160723E1,4.152113914E0,-2.732399464E0,-1.319067359E0
2.405160730E1,3.520233631E0,-2.206293583E0,5.151920319E-1
2.411160726E1,-3.034658432E-1,-2.648181915E-1,1.706567168E0
2.417160726E1,-5.912912369E0,2.682641268E0,2.768328667E0
2.423160723E1,-9.177970886E0,6.746285915E0,1.690775275E0
2.429160719E1,-4.224414825E0,3.420489550E0,2.712214947E0
2.435160719E1,-3.501268387E0,3.314484119E0,-3.360073864E-1
2.441160719E1,1.720234871E0,2.938677549E0,-3.869686842E0
2.446160722E1,9.053525925E0,2.366243362E0,-1.660594463E0
2.452160722E1,1.232130432E1,-6.314528465E0,-2.594800472E0
2.457160725E1,-1.674048996E1,-1.354358768E1,-1.088774109E1
2.462160735E1,-4.779332161E0,-9.164973259E0,-1.178758812E1
2.467160738E1,-2.668473244E0,2.275871086E1,-1.445601463E1
2.473160732E1,3.355973244E0,5.763300896E0,1.759608150E0
2.479160745E1,1.169295788E0,4.060918808E0,3.122737885E0
2.485160745E1,1.459505558E0,3.289335966E0,-2.111538410E0
2.491160734E1,1.024756813E1,1.335153580E0,-5.401762962E0
2.497160734E1,6.164865494E-1,-5.822303295E0,2.974143982E0
2.502160738E1,8.572753668E-1,8.374111652E-1,-1.228085041E0
2.508160734E1,1.386513948E0,-7.992267609E-2,-2.703952789E-1
2.514160727E1,1.230006814E0,5.525786877E-1,-5.754642487E-1
2.520160720E1,1.994553804E0,5.718801022E-1,2.225718498E0
2.526160724E1,5.440893173E0,2.729561329E0,4.984304428E0
2.532160727E1,1.748116684E1,7.974792957E0,6.138595581E0
2.537162182E1,2.477279663E1,1.424943542E1,-3.565867662E0
2.543162179E1,-4.537743092E0,-1.160146523E1,1.435065746E0
2.548162182E1,-1.508757877E1,-2.057646179E1,-8.032822609E0
2.554162178E1,-5.214012623E0,-1.503545666E1,7.729988098E-1
2.560162178E1,-1.334824800E0,-7.067089558E0,-5.452966690E0
2.566162175E1,2.993551731E0,-7.080706358E-1,-7.618556976E0
2.571162178E1,2.408845663E0,1.556494951E0,-6.895496845E0
2.577162171E1,3.490940332E0,-3.939062357E-1,-4.393579483E0
2.582162171E1,4.407697201E0,-7.847532034E-1,-3.544840336E0
2.588162168E1,3.775071144E0,2.506351471E-1,-2.847520351E0
2.594162164E1,2.503235340E0,-1.431688190E0,-4.364231110E0
2.600162168E1,-1.009963512E0,-6.197148323E0,-7.965712547E-1
2.605162171E1,-3.347899437E0,-7.711398602E0,-4.522657394E-1
2.611162171E1,-6.193078518E0,-8.554470062E0,2.544582367E0
2.616162177E1,-5.874432564E0,-4.209574699E0,2.643119335E0
2.622162174E1,-1.065566063E1,-1.276594162E0,3.680055141E0
2.627162177E1,-1.289696598E1,3.336610794E-1,1.941108346E0
2.633162173E1,-1.080388737E1,2.379970074E0,3.556992531E0
2.639162170E1,-7.955123425E0,2.234835148E0,4.046597004E0
2.645162166E1,-7.933242321E0,2.108210087E0,5.342649221E-1
2.651162170E1,-1.208181000E1,-1.569543839E0,-2.404162407E0
2.657162170E1,-9.220071793E0,-3.532817841E0,1.223617315E0
2.662162173E1,-5.164108276E0,-3.245755672E0,-1.882367134E-1
2.668162169E1,2.082433224E0,-4.598505020E0,2.027699947E-1
2.673162172E1,6.211583138E0,-3.255715609E0,-1.749150276E0
2.679162169E1,8.195920944E0,-3.124424458E0,-2.047465324E0
2.685162169E1,8.999851227E0,-6.360602856E0,-4.941932678E0
2.691162166E1,5.577843666E0,-1.360072613E1,-1.106699181E1
2.696162169E1,2.121408939E0,-9.939672470E0,-4.732164860E0
2.702162165E1,6.994286537E0,8.050778389E0,6.959803581E0
2.707162168E1,-2.187115097E1,1.422035933E0,-6.530850410E0
2.713162165E1,-4.808389664E0,1.247266197E1,5.452799797E0
2.719162165E1,-1.099219894E1,8.683273315E0,5.391499996E0
2.725162168E1,-8.903724670E0,9.524831772E0,4.918124676E0
2.730162171E1,-2.798889160E0,9.846023560E0,1.833554029E0
2.736162171E1,1.783988953E0,6.147842407E0,1.166105747E0
2.741162174E1,3.945342541E0,5.105589390E0,2.656078815E0
2.747162171E1,2.342278004E0,3.548233986E0,-4.970502853E-1
2.752162174E1,2.961873293E0,3.131181717E0,2.305130482E0
2.758162171E1,3.823234081E0,5.408102989E0,5.910729408E0
2.764162171E1,1.031106758E1,1.020386124E1,4.257729530E0
2.769162171E1,1.685016823E1,1.640479851E1,-3.326079845E0
2.775162167E1,1.944031596E0,-9.781525135E-1,7.004737854E-1
2.780162170E1,-2.276535416E1,-1.325600338E1,-2.718317986E0
2.785162177E1,7.327777386E0,-1.062425518E1,-1.486787224E1
2.791162170E1,-1.093538284E0,-2.064762306E1,6.984955788E0
2.797162166E1,1.217846155E0,-9.650914669E-1,-1.062340641E1
2.803162166E1,4.876153946E0,9.386785030E-1,-7.311541557E0
2.809162166E1,1.049517632E0,-2.298814774E0,-3.468673706E0
2.815162159E1,5.127178192E0,-2.015433311E0,-2.325281620E0
2.820162162E1,4.619330883E0,-2.529538631E0,-1.271896362E-1
2.826162162E1,3.137682676E0,-4.619596481E0,1.676107407E0
2.831162166E1,-2.340149879E-1,-6.004154205E0,3.860703468E0
2.837162162E1,-3.070583344E0,-5.523150444E0,3.184933424E0
2.842162169E1,-8.714841843E0,-5.560426712E0,3.855160713E0
2.848162162E1,-1.101493454E1,-2.135729790E0,4.059663773E0
2.854162165E1,-1.206474400E1,2.220243454E0,2.544193268E0
2.860162165E1,-1.124157619E1,5.593189240E0,1.287567139E0
2.865162168E1,-9.505533218E0,5.416875362E0,1.136222005E0
2.871162168E1,-9.366324425E0,2.127563000E0,6.035320759E-1
2.877162171E1,-7.445748329E0,-8.242607117E-3,-6.008327007E-2
2.883162168E1,-4.697910309E0,-1.052779198E0,-3.190711737E-1
2.889162168E1,-2.408822536E0,-1.338070393E0,-1.532144904E0
2.895162161E1,-1.011330128E0,-2.285094738E0,-1.037262678E0
2.901162164E1,6.222076416E-1,-2.532014847E0,-1.377028346E0
2.907162164E1,1.814444542E0,-2.323075294E0,-6.025715470E-1
2.912162170E1,2.570518017E0,-9.366340637E-1,8.422330618E-1
2.918162167E1,1.419659138E0,1.099813700E0,2.357632160E0
2.924162167E1,-2.625514984E0,2.999955893E0,4.089128017E0
2.930162163E1,-1.544854164E0,3.817762375E0,5.914753914E0
2.936162163E1,1.527214050E-1,1.504281044E0,6.095294952E0
2.942162156E1,-1.199635506E0,-4.389123917E-1,1.279125690E0
2.947162159E1,1.520801544E0,-8.460588455E-1,-1.219500780E0
2.952162163E1,4.661325932E0,-1.229209423E0,-3.028077126E0
2.957162166E1,4.746704578E0,-4.327352524E0,-3.878402710E-2
2.963162162E1,2.214934826E0,-1.432215214E1,2.854511738E-1
2.969162159E1,-2.109260559E-1,-1.648876572E1,-1.359834671E1
2.975162165E1,7.638139725E-1,4.904627800E0,-5.035473633E1
2.980162168E1,2.714917660E0,6.327463150E0,-9.933081627E0
2.986162168E1,-6.565275192E0,8.689187050E0,-1.625003433E1
2.991162172E1,-1.341771126E0,8.637232780E0,-7.747873306E0
2.997162168E1,-2.056527138E0,1.104658413E1,-7.308074951E0
3.002162171E1,-3.835139275E0,1.008306313E1,-4.579089165E0
3.008162165E1,-2.601053238E0,7.988015652E0,-4.346896172E0
3.014162164E1,8.088512421E-1,4.816009998E0,-8.118367195E0
3.020162158E1,1.088110924E1,8.126346469E-1,-6.234264374E-1
3.026162161E1,2.025120735E0,3.146559238E0,2.003439426E0
3.032162161E1,-1.092400551E-1,2.235517740E0,-2.522554874E0
3.037162164E1,2.386411190E0,-1.463867664E0,1.742841721E0
3.043162160E1,-3.816390038E-1,1.407678604E0,-2.100578308E0
3.048162164E1,3.655405283E0,2.441150188E0,7.449150085E-3
3.054162160E1,2.143154383E0,8.585674763E-1,-6.141443253E-1
3.060162160E1,1.650814414E0,7.228125334E-1,-1.346302032E-2
3.066162160E1,3.966782093E0,2.917027473E0,4.430898666E0
3.071162163E1,1.040750599E1,6.219517708E0,3.289168358E0
3.077162156E1,2.426405334E1,1.297499084E1,-6.149180412E0
3.082162163E1,3.458510399E0,-4.298599243E0,-3.456025600E0
3.088162159E1,-1.515110397E1,-1.545560074E1,3.794089317E0
3.094162156E1,-9.031936646E0,-1.267625618E1,-2.354991913E0
3.099162159E1,-4.966842175E0,-1.025097370E1,-1.719573975E0
3.104162162E1,-5.992581844E-1,-2.220051765E0,-6.910437584E0
3.110162162E1,1.292646646E0,5.435298681E-1,-6.279310703E0
3.115162165E1,1.718805790E0,-1.166645527E0,-3.029688358E0
3.121162165E1,3.664327145E0,-1.138087273E0,-4.173909187E0
3.127162165E1,3.857830524E0,-8.156745434E-1,-2.819182396E0
3.133162162E1,3.998873711E0,-3.345596790E-1,-3.570850849E0
3.139162161E1,-1.979024410E0,-6.041118622E0,3.755140305E-2
3.144162161E1,-5.068501949E0,-6.431272507E0,1.156212330E0
3.149162165E1,-1.014314747E1,-5.570926666E0,3.925657511E0
3.154162168E1,-9.943593979E0,-9.262523651E-1,3.190784693E0
3.160162168E1,-1.171304226E1,3.596282005E0,3.839237690E-1
3.166162161E1,-1.045511627E1,7.139760017E0,-5.010747910E-2
3.172162157E1,-9.154440880E0,6.472690582E0,-1.227355599E0
3.178162154E1,-8.207267761E0,3.944966316E0,-1.247043490E0
3.184162154E1,-5.115402699E0,2.430117607E0,-1.223749757E0
3.190162154E1,-5.711605549E0,-1.740509510E0,1.587126255E-1
3.195162157E1,-3.643155098E0,-2.311456203E0,5.137898922E-1
3.201162157E1,-2.082567215E-1,-9.766263962E-1,1.055980444E0
3.206162160E1,1.192276478E0,5.953192711E-1,1.356763840E0
3.212162157E1,-2.006919861E0,1.837398887E0,1.929270387E0
3.217162160E1,-4.414246559E0,2.088000774E0,-1.376932979E0
3.222162176E1,-1.911163330E0,3.335790157E0,-1.291305423E0
3.228162173E1,-1.619735718E0,1.276721239E0,-1.657787800E0
3.233162179E1,3.873363018E0,1.553618908E-1,-1.645123363E0
3.239162173E1,5.756827354E0,-2.978061676E0,-2.257097483E0
3.245162176E1,6.127369404E0,-7.101868153E0,-4.513856411E0
3.251162159E1,7.059468269E0,-1.100362206E1,-5.784846306E0
3.257162156E1,1.966502666E0,-1.271926689E1,-1.006084633E1
3.263160928E1,3.555383682E-1,-1.029518890E1,8.648045540E0
3.269160928E1,-3.626011848E0,1.501315308E1,1.366256618E1
3.275160924E1,-1.006134510E1,3.284246445E0,7.676100254E0
3.281160924E1,-4.303196907E0,3.461218596E0,1.040149403E1
3.286160927E1,-5.783073425E0,4.866744041E0,4.615728378E0
3.292160931E1,-1.217104912E0,5.415341377E0,3.506775856E0
3.298160930E1,3.528581142E0,3.723907948E0,7.015218735E0
3.304160927E1,-1.064387321E0,3.165684938E0,1.472999096E0
3.310160927E1,3.479938030E0,1.441184521E0,-3.974923134E0
3.316160927E1,1.816894054E0,6.027384400E-1,3.918948174E-1
3.322160923E1,1.730331659E0,1.413612604E0,-9.533309937E-1
3.327160926E1,3.552947044E0,2.067868948E0,2.875653267E0
3.332160930E1,4.028365135E0,3.823382616E0,1.433040619E0
3.338160926E1,9.115804672E0,1.003608036E1,3.741806030E0
3.344160923E1,1.916785622E1,1.763715744E1,-3.405716419E0
3.350160929E1,-6.107577085E-1,-4.865420818E0,5.342198372E0
3.355160932E1,-2.508769989E1,-2.084379578E1,-9.151033401E0
3.361160932E1,-6.013799906E-1,-2.071408844E1,1.552003860E0
3.366160936E1,-3.620694637E0,-1.323362160E1,-9.059924126E0
3.372160935E1,7.101316452E0,-2.105136871E0,-7.780265331E0
3.377160939E1,6.275267601E0,1.744722605E0,-4.573519707E0
3.383160932E1,6.807353020E0,-2.933294535E0,-5.056994438E0
3.388160935E1,5.807645798E0,-4.385868549E0,-3.419837952E0
3.394160932E1,2.749967337E0,-7.392878532E0,-1.386940479E0
3.400160925E1,-1.032371044E0,-1.018981361E1,2.827358246E0
3.405160931E1,-4.736785889E0,-1.267021847E1,4.197328091E0
3.411160928E1,-9.349163055E0,-8.847910881E0,5.762422562E0
3.417160928E1,-1.174126816E1,-2.149507523E0,4.154096603E0
3.422160928E1,-1.286118889E1,2.614515305E0,3.018590689E0
3.428160927E1,-1.252987480E1,3.274627686E0,3.223865032E0
3.434160927E1,-1.046211910E1,1.749423504E0,3.118874550E0
3.440160924E1,-9.478604317E0,2.975559235E-1,1.690833569E0
3.446160924E1,-8.825515747E0,-2.432606697E0,6.633777618E-1
3.452160920E1,-5.398300171E0,-2.022801399E0,1.708538651E0
3.457160924E1,-1.810789108E0,-1.721898079E0,2.563236713E0
3.463160920E1,-1.423420906E-1,-1.058889389E0,2.300978422E0
3.469160920E1,-6.966261864E-1,-7.773828506E-1,-1.090128422E0
3.475160926E1,8.224077225E-1,-2.177227497E0,-1.692394257E0
3.480160930E1,4.082586765E0,-1.660973549E0,-1.087185502E0
3.486160930E1,6.376762867E0,-2.647861004E0,3.202626705E-1
3.491160936E1,5.586128235E0,-1.187507153E0,1.435014009E0
3.497160932E1,2.783313751E0,2.101850510E-2,1.109962463E0
3.502160936E1,-2.332279205E0,3.900743723E0,-4.511200190E-1
3.508160929E1,-9.427192688E0,7.530831814E0,-2.112661123E0
3.514160929E1,-6.712960243E0,5.538686275E0,5.464296341E-1
3.520160918E1,-3.022191048E0,5.663071632E0,-1.165901303E0
3.526160922E1,-1.843776703E-1,4.513016224E0,-2.664248228E0
3.532160922E1,-6.072044373E-2,1.086236835E0,-2.861795664E0
3.537160925E1,1.794992447E0,-5.996138453E-1,-3.178438187E0
3.543160921E1,-1.462471962E0,-5.360106945E0,-2.641415834E0
3.549160921E1,-5.221366882E-2,-9.074559212E0,-8.748623133E-1
3.555160918E1,5.054314613E0,-3.007745552E1,1.305113220E1
3.561160918E1,-2.357067108E0,2.060002899E1,-1.224699116E1
3.567160914E1,5.904761314E0,3.386005163E0,-3.708412647E0
3.572160917E1,6.082570553E0,5.871274948E0,-3.674649477E0
3.577160921E1,3.693617582E0,4.539231777E0,-5.737913132E0
3.582160924E1,7.594149113E0,2.991814613E0,1.437879086E0
3.588160920E1,5.659130573E0,6.592669487E-1,2.134150505E0
3.594160917E1,5.467724800E0,2.467761993E0,-3.583812714E-2
3.600160920E1,5.991466999E0,4.383750439E0,3.687858582E-3
3.605160923E1,7.512647152E0,5.019523144E0,-4.150375366E0
3.611160923E1,1.180480194E1,1.210337543E1,-1.448245525E1
3.616160926E1,9.736058235E0,1.586136341E0,-6.288420677E0
3.622160923E1,-2.653326988E1,-1.785494614E1,-5.092128754E0
3.627160926E1,3.781562805E0,-2.943285942E1,-1.248400307E1
3.633160922E1,6.481533051E-1,-2.696169662E1,-1.931930065E0
3.639160922E1,4.878936291E0,-2.136960506E0,-3.566589355E0
3.645160916E1,5.222079277E0,-7.219909430E-1,-5.404215813E0
3.651160919E1,-1.313216686E0,-2.471775532E0,-2.379941463E0
3.657160919E1,2.068676710E0,-4.539836884E0,1.536421776E0
3.662160928E1,4.084043980E0,-2.958255768E0,3.660673141E0
3.668160928E1,2.206002951E0,-2.738154411E0,4.440903664E0
3.673160935E1,-2.972874641E-1,-1.837872982E0,1.674208164E0
3.679160931E1,-3.841366768E0,3.232483864E-1,-5.921106339E-1
3.685160931E1,-4.145859718E0,1.998044014E0,-1.107413292E0
3.691160924E1,-4.297244549E0,1.847508430E0,-1.430053234E0
3.697160918E1,-3.745290756E0,1.307317734E0,-1.221460342E0
3.703160911E1,-3.606020451E0,7.529668808E-1,-1.318427324E0
3.708160914E1,-3.482687950E0,2.530717850E-2,-1.894451857E0
3.714160917E1,-3.027318001E0,-2.826581001E-1,-1.658612132E0
3.720160920E1,-3.328971863E-1,3.860187531E-1,-1.194741488E0
3.726160920E1,8.767690659E-1,-1.164688587E0,3.050446510E-1
3.731160924E1,2.156881332E0,-1.349945784E0,7.001457214E-1
3.737160923E1,2.948312759E0,-8.209457397E-1,1.630700350E0
3.743160920E1,1.954916954E0,-9.009814262E-2,1.710845947E0
3.749160920E1,5.270681381E-1,5.377967358E-1,1.109031677E0
3.755160913E1,-1.055620193E0,-2.625236511E-1,-5.057457685E-1
3.761160916E1,-1.059982300E0,-9.741051197E-1,-9.436854124E-1
3.767160913E1,6.076040268E-1,-5.217623711E-1,-1.825922728E-1
3.772160916E1,1.005472183E0,2.207520008E-1,-1.278998137E0
3.777160919E1,2.012701035E0,9.932227135E-1,-1.290262103E0
3.783160919E1,1.041229248E0,-8.017692566E-1,-6.765404344E-1
3.788160922E1,3.699922562E-1,-2.442920446E0,-2.231539965E0
3.794160919E1,1.245151520E0,-1.356571913E0,-1.650328875E0
3.800160918E1,1.156418800E0,-5.097916126E-1,-1.364413381E0
3.806160912E1,-2.064725876E0,2.430665493E-1,-1.020801067E0
3.811160915E1,-4.306078911E0,2.784140110E0,7.512537241E-1
3.817160908E1,-3.939326286E0,4.515623569E0,-4.681634307E-1
3.822160911E1,-5.388836861E0,2.289083242E0,1.132578611E0
3.827160914E1,-4.048479080E0,2.674031258E-2,6.323674917E-1
3.832160918E1,-1.832838058E0,-2.689112186E0,-7.886865139E-1
3.838160914E1,-2.827042580E0,-7.001168728E0,-2.930327177E0
3.844160911E1,6.959515572E0,-9.292611122E0,-1.028198433E1
3.850160914E1,9.389981270E0,-3.356897593E0,6.136987686E0
3.855160917E1,-5.705327988E0,1.992410278E1,-1.925069809E1
3.861160917E1,-2.471637726E-1,5.229246140E0,-1.935024261E-1
3.866160920E1,7.588710785E0,3.651396036E0,-1.243774414E0
3.872160917E1,6.860381126E0,2.625125647E0,-1.294671535E0
3.877160920E1,5.599154472E0,3.470079660E0,5.971679688E-1
3.883160916E1,5.489828110E0,2.469645977E0,1.322484016E0
3.889160916E1,6.820662975E0,6.655299664E0,2.448041916E0
3.895160909E1,1.896512604E1,1.793564034E1,3.670298576E0
3.901160913E1,1.465052891E1,1.223435116E1,2.119065762E0
3.906160916E1,-1.381924915E1,-1.162652016E1,1.862866211E1
3.912160912E1,-9.712744713E0,-2.658393478E1,1.323501587E0
3.918160912E1,-2.884399891E0,-1.909549141E1,-4.082652569E0
3.923160916E1,1.303120494E0,-9.017621994E0,-6.537840843E0
3.929160912E1,3.475314617E0,-4.560379982E-1,-6.421737194E0
3.935160912E1,2.481680632E0,-3.013678551E0,-3.269917965E0
3.941160912E1,4.624876499E0,-1.291276693E0,-2.415122509E0
3.946160915E1,4.407377243E0,-2.536962032E-1,-9.364137650E-1
3.952160908E1,2.982764006E0,-1.792675734E0,2.063751221E-3
3.957160908E1,-1.515950680E0,-5.692708492E0,1.108550072E0
3.963160905E1,-6.942511559E0,-4.407090664E0,-1.522173882E-1
3.968160925E1,-8.462317467E0,-1.632447958E0,-1.865580201E0
3.974160924E1,-8.075354576E0,3.145514250E0,-1.204759121E0
3.979160928E1,-7.994430065E0,4.503695488E0,-1.745955229E0
3.985160931E1,-4.913146019E0,5.386952400E0,-1.194180250E0
3.990160934E1,-3.037821770E0,4.457290173E0,-1.334484696E0
3.995166992E1,-3.040396214E0,2.820681572E0,-1.704362631E0
4.001166992E1,-3.173073769E0,1.713244915E-1,-2.682935715E0
4.007166991E1,-1.630007744E0,-7.933719158E-1,-1.751255393E0
4.013166991E1,3.809766769E-1,-2.310122252E-1,-6.126775742E-1
4.018166991E1,-1.994626045E0,4.915653467E-1,1.178675294E0
4.024166991E1,-5.977767944E0,2.152849674E0,2.919189453E0
4.029166994E1,-6.246580124E0,5.598829985E-1,3.281565666E0
4.035166994E1,-2.189208984E0,-3.121945858E-1,1.154671431E0
4.041166987E1,-1.115306854E0,-1.678959370E0,-1.908817768E0
4.047166991E1,1.811365128E0,-1.514624119E0,-1.106663942E0
4.053166987E1,4.071488857E0,-2.510413647E0,-1.996749401E0
4.059166987E1,5.084947109E0,-4.625410557E0,-2.796141863E0
4.065166984E1,5.542030811E0,-7.971673965E0,-3.740503550E0
4.070166987E1,9.392118454E-1,-1.538316345E1,-7.267700195E0
4.076166983E1,4.306631088E-1,-9.157581329E0,-1.040862846E1
4.081166986E1,1.843692303E0,-1.145048332E1,7.437621593E0
4.087166983E1,9.957018852E0,5.954615593E0,9.025794029E0
4.093166983E1,-3.596274376E0,6.220416546E0,9.360195160E0
4.098166986E1,4.243597984E-1,7.056944847E0,7.958917618E0
4.104166989E1,5.304267883E0,5.724381924E0,7.178045750E0
4.110166989E1,3.929737568E0,4.785937309E0,5.765521049E0
4.115166992E1,4.207092285E0,3.930733919E0,3.615702629E0
4.121166992E1,1.976923227E0,3.895100832E0,7.249853134E0
4.127166992E1,9.398123741E0,7.546989918E0,4.318651199E0
4.133166989E1,2.109374237E1,1.281858730E1,-6.729508877E0
4.139166988E1,3.490675926E0,-5.518325329E0,-9.872965813E-1
4.145166982E1,-2.205252266E1,-1.313377476E1,-1.558527374E1
4.151166985E1,-1.982032299E0,-1.335010719E1,2.880601883E-1
4.156166988E1,-2.966041088E0,-7.843326569E0,-1.365528107E0
4.162166988E1,1.431172132E0,-3.689497709E-3,-6.699126720E0
4.168166988E1,1.223463297E0,1.540960073E0,-5.192002773E0
4.174166988E1,3.984087944E0,1.022044301E0,-3.964364052E0
4.180166984E1,4.862530708E0,4.794263840E-1,-2.719971180E0
4.186166981E1,3.727171421E0,-7.365560532E-2,-2.603123188E0
4.191166987E1,9.582469463E-1,-3.879188061E0,-2.210521698E-2
4.197166980E1,-1.407778978E0,-6.004663944E0,2.173876762E-1
4.202166984E1,-4.936887741E0,-8.981894493E0,2.433809757E0
4.207166987E1,-7.070204258E0,-7.604848862E0,4.048047543E0
4.213166983E1,-9.730861664E0,-4.473481178E0,3.895556450E0
4.219166980E1,-1.321536160E1,-2.506940842E0,3.232470512E0
4.225166983E1,-1.394254494E1,1.560013771E0,3.471374750E0
4.230166986E1,-1.271909046E1,1.422458649E0,4.935056210E0
4.236166986E1,-1.209754276E1,-1.495326042E0,6.088865757E0
4.241166989E1,-1.190991402E1,-2.311916351E-1,4.758384705E0
4.247166986E1,-1.282911396E1,5.727357864E-1,1.552177548E0
4.252166989E1,-1.086612988E1,5.823287964E-1,9.087750912E-1
4.258166986E1,-1.185069466E1,-4.098749161E0,4.544222355E-2
4.264166985E1,-8.102426529E0,-5.320215225E-1,-5.710704327E0
4.270166982E1,4.380645752E-1,1.235008240E-1,-2.916109800E0
4.276166985E1,5.337557793E0,-3.540755510E-1,-1.369664788E0
4.281166988E1,8.646035194E0,-2.831008434E-1,-1.021094084E0
4.287166988E1,1.030278587E1,-3.669441700E0,-2.338271141E-1
4.293166985E1,7.329337120E0,-1.194525051E1,1.411385298E0
4.298166985E1,4.990806103E0,-7.599501610E0,-5.860905170E0
4.304166981E1,-2.059789658E0,-1.121586227E1,-1.434532833E1
4.310166981E1,5.795575142E0,2.381514740E1,3.955234528E1
4.315166984E1,-2.205889893E1,5.569082260E0,-7.570648193E-1
4.321166984E1,-1.216773415E1,8.162525177E0,5.973340511E0
4.327166981E1,-1.229899216E1,9.674589157E0,4.205733776E0
4.332166984E1,-8.875677109E0,1.039471722E1,7.801136971E0
4.338166980E1,-4.266796112E0,1.167448902E1,3.844677448E0
4.343166984E1,-2.095604897E0,1.067004490E1,5.853004456E0
4.349166980E1,3.496747017E0,8.945567131E0,5.389647484E0
4.354166983E1,-1.654918194E0,8.352302551E0,3.734863520E0
4.360166983E1,1.448592186E0,6.055747032E0,4.743814945E0
4.365166986E1,3.971043825E0,6.687984467E0,4.188732624E0
4.371166986E1,1.272643471E1,1.498363781E1,5.938808441E0
4.377166986E1,1.371076202E1,1.070222282E1,-1.121245384E0
4.383166983E1,-2.141769791E1,-7.227264881E0,6.569831848E0
4.389166982E1,4.008850574E0,-1.280889320E1,-1.393127060E1
4.395166976E1,5.942604542E-1,-2.048447227E1,-2.380072594E0
4.401166979E1,1.467482567E0,-9.954038858E-1,-9.503715515E0
4.406166982E1,5.109722137E0,4.610030651E0,-1.019254494E1
4.412166982E1,1.299697876E0,2.971069217E-1,-5.220506668E0
4.418166978E1,5.101396561E0,-2.395943403E-1,-3.835573673E0
4.424166978E1,2.888553619E0,-2.351885319E0,-2.831361771E0
4.429166985E1,2.226424217E0,-2.522515297E0,-2.804339886E0
4.435166985E1,5.666067600E-1,-4.875121117E0,-2.075968266E0
4.440166988E1,-3.391691446E0,-9.426149368E0,-6.211462021E-1
4.446166988E1,-6.252638340E0,-1.013217163E1,7.491302013E0
4.452166984E1,-9.057856560E0,-8.052136421E0,7.688245773E0
4.458166974E1,-1.157615280E1,-1.609575272E0,3.512613773E0
4.464166977E1,-1.328359604E1,2.326812744E-1,-1.280579269E-1
4.470166974E1,-1.854396057E1,1.356647491E0,-4.354647160E0
4.475166977E1,-1.971777153E1,3.635768890E-1,-3.653060913E0
4.480166984E1,-1.897237396E1,1.111865044E0,-3.628855228E0
4.486166984E1,-1.706624222E1,8.271150589E-1,-2.853804111E0
4.491166987E1,-1.339989948E1,-3.705272675E-1,-1.985770226E0
4.497166983E1,-1.208141041E1,-3.684501648E0,-2.430058956E0
4.503166983E1,-8.252107620E0,-4.071259499E0,-1.583654284E0
4.509166976E1,-4.216241837E-1,-2.401545525E0,-1.239329338E0
4.514166980E1,5.578248501E0,7.982418537E-1,-7.739261985E-1
4.520166973E1,8.728134155E0,2.554664373E0,-6.091228724E-1
4.526166976E1,8.211459160E0,1.785044193E0,-1.893177629E0
4.532166976E1,7.998089790E0,-2.533501625E0,-7.271077037E-1
4.537166982E1,7.565125465E0,-1.247484589E1,1.595466614E0
4.543166979E1,-3.508245468E0,-4.636995316E0,-2.484564209E1
4.549166979E1,8.550839424E0,4.739829254E1,1.300225258E1
4.555166975E1,-5.312706947E0,1.495259380E1,-3.110608578E0
4.561166975E1,-4.341771126E0,1.442234993E1,7.331789970E0
4.567166968E1,-1.045121479E1,1.529601288E1,6.895026684E0
4.572166971E1,-5.380628586E0,1.343325996E1,8.675416946E0
4.577166975E1,-2.427371979E0,1.075323296E1,4.440930843E0
4.582166981E1,2.986460686E0,8.512636185E0,-2.809560299E-1
4.588166974E1,9.451924324E0,6.048682690E0,-7.338471889E0
4.593166978E1,8.669956207E0,7.260609627E0,5.169571400E0
4.599166974E1,3.026663780E0,4.852625847E0,4.382414818E0
4.604166981E1,8.098509789E0,5.215401173E0,4.218507767E0
4.610166980E1,1.315994167E1,7.827793598E0,5.532670021E0
4.615166984E1,1.178398705E1,1.173834705E1,1.073844910E0
4.621166984E1,7.485026836E0,9.302166939E0,-6.464924812E0
4.627166983E1,-1.706396866E1,-6.600018978E0,2.804940224E0
4.633166980E1,6.149293423E0,-1.354275036E1,-1.922398758E1
4.639166976E1,-2.125620604E0,-2.183252716E1,3.470395088E0
4.644166976E1,-4.599070549E-2,-7.299432158E-2,-9.396687508E0
4.650166973E1,4.479472160E0,2.778759718E0,-8.621402740E0
4.655166980E1,1.217331886E0,-6.537808776E-1,-2.386308670E0
4.660166983E1,3.139594078E0,-2.209348679E0,-3.161007404E0
4.666166976E1,7.507619381E0,-4.721379280E-1,-2.352094650E-1
4.672166982E1,5.550253391E0,-1.046956539E0,3.625993729E-1
4.678166979E1,-2.977025032E0,-8.074427605E0,2.531077385E0
4.684166979E1,-8.970834732E0,-7.991159439E0,7.116900444E0
4.690166975E1,-1.386091137E1,-3.752057076E0,5.339755058E0
4.695166978E1,-1.297100830E1,2.377012730E0,1.510000944E0
4.701166975E1,-1.172860050E1,7.366137505E0,1.218660951E0
4.707166975E1,-9.526714325E0,8.210300446E0,5.056077242E-1
4.713166971E1,-6.289161682E0,6.487162590E0,-3.985887766E-1
4.719160781E1,-5.161583424E0,3.551653385E0,-8.081977367E-1
4.724160785E1,-7.466926098E0,-2.302784920E-1,-1.712112904E0
4.729160788E1,-6.448734283E0,-2.319357872E0,-1.892663002E0
4.735160788E1,-4.288593292E0,-3.410955906E0,-8.703690767E-1
4.741160791E1,8.901772499E-1,-1.626971722E0,5.059974194E-1
4.747160787E1,1.826821327E0,-1.267009974E0,2.439737558E0
4.753160787E1,1.522175789E0,-6.799626350E-1,2.460685492E0
4.759160780E1,1.828661442E0,9.159708023E-2,2.764401674E0
4.764160784E1,2.733087063E0,2.677516699E0,2.278873920E0
4.769160784E1,4.296150208E-1,3.029796600E0,3.926039457E0
4.774160787E1,-2.931790352E0,3.360615253E0,3.012697458E0
4.779160790E1,1.933055878E0,4.104897499E0,1.891370058E0
4.785160790E1,4.737892151E0,2.646261454E0,-1.077017307E0
4.791160783E1,6.289916992E0,8.556745052E-1,-3.469583273E0
4.797160780E1,5.548715591E0,-8.347511292E-2,-4.156524658E0
4.803160779E1,3.817290783E0,-4.538824081E0,1.105426908E0
4.809160779E1,5.641652584E0,-6.895383835E0,-3.306030989E0
4.815160779E1,7.640118599E0,-8.456995964E0,-5.811225891E0
4.820160782E1,7.192071915E0,-1.421788883E1,-1.192884922E1
4.826160782E1,-1.788988113E-1,-1.729059410E1,-1.270561314E1
4.831160786E1,1.514215469E-1,9.654116631E-2,8.930656433E0
4.837160782E1,-2.161810875E1,1.221829987E1,-1.050486374E1
4.842160785E1,3.359212160E0,5.910563946E0,4.342788219E0
4.848160778E1,-2.237450790E1,-7.959843636E0,6.577593327E0
4.853160782E1,-1.087105274E1,1.475276947E-1,-3.750095367E0
4.858160788E1,-3.306830406E0,-4.444519997E0,-2.259214401E0
4.864160781E1,-4.435209274E0,-2.473011017E-1,9.991832972E-1
4.870160785E1,-8.801431656E0,-1.398598194E0,-5.304307938E-1
4.875160791E1,-2.900771141E0,1.318168163E0,1.605139971E0
4.881160791E1,-2.261762619E-1,2.423485279E0,2.218326569E0
4.887160791E1,1.605824471E0,1.853781819E0,2.571150780E0
4.893160791E1,1.179250717E0,2.820394754E0,4.528031349E-1
4.899160791E1,3.287762642E0,3.333598137E0,-1.998549938E0
4.904160794E1,1.592288971E0,3.274029970E0,-2.498346806E0
4.910160787E1,7.508010864E-1,3.110104084E0,-6.078043938E0
4.916160780E1,2.945984602E0,3.036688805E0,1.207941055E0
4.921160783E1,-2.612824440E-1,1.948466182E0,1.370539665E-1
4.927160777E1,1.360271215E0,1.848797560E0,1.466355324E0
4.933160780E1,3.406718731E0,2.942663908E0,4.123994827E0
4.939160773E1,7.342012405E0,6.577861786E0,4.776008606E0
4.944160776E1,1.455965328E1,1.135630608E1,6.880331993E0
4.950160776E1,1.247582054E1,9.517113686E0,-1.539093971E0
4.955160779E1,-1.019814301E1,-1.030625725E1,1.350525951E1
4.961160779E1,-2.449372768E0,-1.613663864E1,-1.262408161E1
4.967160776E1,-4.024610519E0,-2.051997948E1,-3.182167053E0
4.972160782E1,1.288789868E0,-7.309635162E0,-8.415465355E0
4.977160785E1,1.931463122E0,-1.792681932E0,-9.912547112E0
4.982160789E1,2.607946396E0,-4.163995266E0,-5.995450974E0
4.988160788E1,4.253780842E0,-3.018905401E0,-3.657565117E0
4.994160785E1,4.249276161E0,3.961504698E-1,-1.437218666E0
4.999160788E1,2.418171644E0,1.596091390E0,2.351609230E0
5.005160781E1,-2.641845226E0,-1.386368275E0,4.815209389E0
5.011160784E1,-8.150810242E0,1.202098012E0,1.748196125E0
5.017160781E1,-6.435075760E0,2.791403055E0,4.825129509E0
5.023160781E1,-1.245636463E0,2.632999897E0,6.372344017E0
5.028160784E1,-8.768839836E-1,1.282229424E0,4.727301121E0
5.034160781E1,3.324646950E-1,3.413908958E0,2.705783367E0
5.040160777E1,-3.076848984E-1,3.599663496E0,6.437907219E-1
5.046160780E1,-8.722901344E-1,3.876881599E0,5.805444717E-2
5.052160777E1,-2.579775810E0,2.805838585E-1,-8.481168747E-2
5.058160780E1,-2.083764076E0,2.092149973E0,1.495285988E0
5.064160780E1,-8.951759338E-1,1.814258695E-1,2.716299534E0
5.069160783E1,-2.023400307E0,1.283460140E0,6.546230316E-1
5.075160783E1,-1.530926704E0,5.091322899E0,-2.721213341E0
5.081160780E1,-1.720275879E-1,5.480338097E0,-3.577562809E0
5.087160776E1,1.899006367E0,4.255650043E0,-2.176303864E0
5.092160779E1,3.283932447E0,1.435198784E-1,3.778338432E-1
5.098160772E1,8.969745636E-1,-4.545847416E0,-2.872822762E0
5.103160776E1,3.383734941E0,-5.714985847E0,-5.680228233E0
5.108160782E1,5.111790657E0,-7.434688568E0,-4.675726414E0
5.114160779E1,-7.298326492E-1,-1.420036125E1,-1.521165371E0
5.120160782E1,2.885212898E0,-5.003201485E0,-4.839962006E0
5.125160782E1,3.797092438E0,-1.601178169E1,-6.989434052E1
5.131160782E1,3.841532230E0,1.736094666E1,-2.845914602E0
5.136160785E1,3.220666409E0,1.073591137E1,1.543234444E1
5.142160781E1,-6.215991974E-1,6.916317940E0,1.052459526E1
5.148160781E1,4.642848969E-1,5.323732376E0,6.659950733E0
5.153160784E1,3.957630157E0,3.168054104E0,4.086550713E0
5.159160781E1,3.345037937E0,2.077666998E0,-7.163486481E-1
5.165160774E1,1.799423933E0,2.547307491E0,-1.065142632E0
5.170160777E1,4.240265369E0,2.280773163E0,-3.846330643E-1
5.176160774E1,3.156020880E0,1.552553654E0,2.970116615E0
5.181160777E1,4.200951099E0,3.485407352E0,5.432621002E0
5.186160780E1,8.500761032E0,7.761314392E0,6.026195526E0
5.192160777E1,2.083494568E1,1.515085602E1,3.986714363E0
5.198160780E1,5.557139397E0,6.286530495E-1,3.674378395E0
5.204160780E1,-2.030679703E1,-2.666209030E1,-1.901385117E1
5.210160776E1,-4.352058411E0,-2.153904343E1,1.932101250E0
5.216160776E1,-4.631739855E-1,-1.217797279E1,-6.651255608E0
5.222160773E1,4.856632233E0,-4.384498596E-1,-7.707458496E0
5.228160769E1,2.075318575E0,-2.195609570E0,-3.021931171E0
5.233160776E1,6.089653015E0,-8.353769779E-1,-2.678995132E0
5.239160772E1,3.878996849E0,-1.729815245E0,-1.910002232E0
5.245160776E1,1.467440367E0,-3.217511177E0,-2.459952354E0
5.251160775E1,-2.941328049E0,-6.157449722E0,1.918368340E0
5.257160775E1,-5.745133877E0,-6.395926476E0,4.344946861E0
5.262160778E1,-6.424516678E0,-3.336732388E0,2.291126251E0
5.268160775E1,-6.788900375E0,8.967380524E-1,3.918309212E-1
5.274160775E1,-7.139358997E0,3.916531324E0,-8.455350399E-1
5.279160778E1,-5.350657940E0,5.316258907E0,-6.572730541E-1
5.285160778E1,-5.038354874E0,3.503236532E0,1.726882458E-1
5.291160768E1,-5.007375240E0,1.413518906E0,-2.775263786E-1
5.296160771E1,-2.894005299E0,1.114590645E0,-1.947145462E-1
5.302160761E1,-2.894749641E0,1.403665543E-2,6.489505768E-1
5.308160764E1,-2.138053894E0,1.114006281E0,2.472977638E0
5.314160764E1,-3.493043900E0,3.239071369E0,6.266472340E-1
5.319160767E1,-3.455456734E0,1.717834234E0,3.834295273E-2
5.325160767E1,-9.522581100E-1,7.749164701E-1,-1.177764654E0
5.330160773E1,8.155937195E-1,5.894021988E-1,1.472420454E0
5.336160773E1,2.473297119E-1,-6.632516384E-1,-1.588051796E0
5.342160773E1,-1.012515545E0,-8.407828808E-1,4.708838463E-1
5.348160766E1,-2.663197517E-1,-1.928592682E0,-1.110366821E0
5.354160770E1,-1.434830189E0,-4.683984756E0,-9.226078987E-1
5.360160769E1,3.277571678E0,-6.424521446E0,-3.674688101E0
5.365160773E1,3.252123594E0,-1.342343330E1,-9.833639145E0
5.371160772E1,-5.026769638E-2,-2.720981979E1,-3.583485794E1
5.377160776E1,2.163450813E1,2.220523453E1,-2.167407227E1
5.383160772E1,1.003326988E1,1.823115587E0,8.921683311E0
5.389160772E1,4.141850471E-1,3.697390556E0,2.702513695E0
5.395160765E1,4.966042042E0,4.386708736E0,6.529817104E0
5.401160768E1,5.710778236E-1,5.561856747E0,3.433289051E0
5.406160772E1,2.802433252E0,3.934648991E0,3.492548943E0
5.412160768E1,2.942667007E0,2.841396093E0,1.575518608E0
5.418160765E1,3.665664673E0,3.292878151E0,4.015349388E0
5.423160768E1,3.863278627E0,3.524691105E0,5.039461136E0
5.429160764E1,1.006186295E1,5.533450127E0,6.558122635E0
5.435160764E1,2.293336105E1,1.487693977E1,7.447910309E-2
5.441160764E1,1.167129993E0,-4.519334316E0,1.013813496E0
5.446160767E1,-2.406389618E1,-1.963994598E1,1.406582832E1
5.451164103E1,-1.115243721E1,-1.899093246E1,-6.837178707E0
5.457164103E1,-2.571813107E0,-1.453245449E1,-1.803949356E0
5.463164100E1,2.507489681E0,-4.402820587E0,-6.840005875E0
5.469164100E1,2.514739990E0,-2.310451508E0,-5.520656586E0
5.475164103E1,2.938695908E0,-3.191254139E0,-1.732036591E0
5.480164106E1,3.279721022E0,-2.274301767E0,-9.661440849E-1
5.486164103E1,2.192160130E0,-2.496440649E0,-1.296902657E0
5.491164106E1,-3.787307739E-1,-1.962386370E0,3.332153797E0
5.497164102E1,-2.422223091E0,-1.842653036E0,3.567479610E0
5.502164105E1,-5.984492779E0,-9.801468849E-1,3.064162254E0
5.508164102E1,-5.607216358E0,2.618408442E0,1.629467010E0
5.514164098E1,-7.059987545E0,4.706243992E0,1.451558828E0
5.519164102E1,-8.183012009E0,5.064449310E0,1.561117172E-2
5.525164098E1,-8.072302818E0,4.954211235E0,-6.526203156E-1
5.530164105E1,-6.358006477E0,5.034189224E0,-1.404945254E0
5.535164108E1,-4.270769119E0,4.324246407E0,-1.266256809E0
5.541164101E1,-2.897318363E0,3.006172657E0,-1.903456926E0
5.546164104E1,-1.817650795E0,1.995995998E0,-1.478045940E0
5.552164101E1,-3.539543152E-1,1.247447252E0,-1.209532499E0
5.558164104E1,-1.116163254E0,1.748606205E0,-4.677546024E-1
5.564164104E1,-1.818856239E0,3.242312431E0,1.828765869E-2
5.570164104E1,-3.523164749E0,3.426385403E0,1.900691032E0
5.576164104E1,-1.706355095E0,2.436033249E0,2.507098675E0
5.582164104E1,-3.116828918E0,4.954214096E-1,-6.932987571E-1
5.588164100E1,8.148875237E-1,3.175907135E-1,-2.433979988E0
5.594164097E1,2.722712994E0,1.903845310E0,-6.372879982E0
5.599164100E1,5.942360878E0,-1.133017540E-1,-3.774777889E0
5.604164103E1,7.683914185E0,-1.927918434E0,-1.600416422E0
5.610164103E1,3.368552208E0,-1.135189629E1,-1.683897734E0
5.615164106E1,4.741514206E0,-1.780234337E1,-4.713953018E0
5.621164106E1,-5.028594017E0,-2.728944206E1,1.526506233E1
5.627164106E1,1.400263309E0,1.475488091E1,1.776841998E0
5.633164102E1,-3.506688118E0,-3.004557610E0,2.034320831E1
5.639164102E1,-1.014512730E1,-9.970173836E-1,6.000827789E0
5.645164095E1,-1.078317451E1,3.025657177E0,3.621548176E0
5.651164098E1,-5.742037773E0,2.270016193E0,6.580834389E0
5.656164102E1,-2.052689552E0,3.678391933E0,3.559160233E0
5.662164098E1,6.797504425E-1,2.512660980E0,3.122459412E0
5.668164098E1,1.584065437E0,2.795354843E0,1.650152922E0
5.673164101E1,1.647933960E0,1.520281196E0,7.248263359E-1
5.679164098E1,3.540475130E0,-1.009669304E-1,5.549183846E0
5.685164098E1,6.677384377E-1,2.970697880E0,2.933913708E0
5.691164098E1,5.194909573E0,3.600304365E0,3.522131920E0
5.696164101E1,9.440233231E0,6.566691399E0,4.432822227E0
5.702164094E1,1.826827621E1,8.043334961E0,-1.622084141E0
5.707164097E1,6.875262737E0,-2.818367720E0,1.622880936E0
5.713164094E1,-1.911956596E1,-1.466942215E1,-7.575667381E0
5.719164094E1,-1.163232327E0,-1.472810936E1,-2.804412365E0
5.725164097E1,-1.176203012E0,-7.931139946E0,-3.864209652E0
5.730164100E1,3.974823713E0,1.244746447E-1,-7.520285606E0
5.736164100E1,3.301623821E0,5.370917916E-2,-4.720634937E0
5.741164103E1,4.876435280E0,-1.558251381E-1,-1.679829597E0
5.747164100E1,5.353995800E0,-1.150692940E0,2.116990089E0
5.752164103E1,3.290663481E0,-2.337854147E0,1.269400120E0
5.758164099E1,2.054123878E-1,-3.610084772E0,1.557042599E0
5.764164099E1,-4.161664963E0,-2.590298653E0,1.711142063E0
5.770164092E1,-6.581492901E0,-1.504972935E0,2.692669868E0
5.776164096E1,-7.828653812E0,1.993757725E0,2.135209322E0
5.782164095E1,-8.143295288E0,6.192467690E0,1.182334900E0
5.787164099E1,-7.964498520E0,7.475839615E0,1.275609732E0
5.793164095E1,-6.649163246E0,5.920892715E0,9.885581732E-1
5.799164095E1,-4.855475903E0,3.885935545E0,8.166897297E-2
5.805164092E1,-3.269389153E0,1.395060539E0,5.663228035E-1
5.811164091E1,-3.102924347E0,1.369132996E-1,-6.582854390E-1
5.817164088E1,-2.882064819E0,-1.750239372E0,-4.777742028E-1
5.822164091E1,1.683721542E-1,-7.774100304E-1,1.391744614E-1
5.827164094E1,1.724564075E0,3.999321461E-1,1.600920916E0
5.832164098E1,1.508388996E0,1.491619229E0,2.729180336E0
5.838164094E1,-2.350690842E0,2.334782362E0,6.092412949E0
5.844164091E1,-3.986868858E0,2.672496796E0,5.111409187E0
5.850164094E1,-3.291725159E0,1.453838229E0,2.878376245E0
5.855164100E1,-2.173061371E0,2.472817898E-1,4.731254578E-1
5.861164100E1,-6.332359314E-1,-2.277704716E0,2.538895607E-1
5.866164103E1,-1.610894203E-1,-4.529821396E0,-9.936354160E-1
5.872164100E1,4.012079239E0,-3.335635900E0,-4.661031246E0
5.877164107E1,6.083014488E0,-4.936638355E0,-4.553912640E0
5.883164103E1,4.073077679E0,-1.017446899E1,-9.329084396E0
5.889164100E1,-3.139046192E0,-1.734478569E1,-1.348147774E1
5.895164093E1,1.193541050E0,-1.156148338E1,-3.948082352E1
5.901164096E1,5.681099892E0,8.565260887E0,1.101823425E1
5.907164092E1,-1.029182911E1,1.277333641E1,-2.972635508E0
5.912164099E1,-7.067928314E-1,1.300539684E1,4.046178818E0
5.918164099E1,-7.530687332E0,1.056195068E1,2.770535469E0
5.923164102E1,5.655779839E-1,9.023794174E0,4.243455410E0
5.929164098E1,1.942396164E-1,6.719466209E0,9.799518585E-1
5.935164098E1,1.450639725E0,4.666986942E0,7.528820038E-1
5.941164095E1,1.681578636E0,4.556391239E0,2.167546272E0
5.947164091E1,-4.341125488E-2,5.302767754E0,2.544109344E0
5.953164088E1,4.702808380E0,8.355825424E0,1.965447426E0
5.958164091E1,1.251029110E1,1.472818184E1,-6.386566162E-1
5.964164094E1,9.731382370E0,1.266545296E1,-4.620549202E0
5.970164091E1,-1.811315918E1,-1.306699181E1,4.948272705E0
5.976164091E1,-1.226251960E0,-1.864527512E1,-1.256882286E1
5.981164097E1,1.957474947E0,-2.535599518E1,4.392299652E-1
5.987164097E1,3.782010555E0,-9.854325294E0,-2.843451977E0
5.992164100E1,5.666399002E-2,-1.038281918E1,-1.705637455E0
5.998164097E1,6.936426163E-1,-5.571151733E0,6.220511436E0
6.003164100E1,3.751128674E0,3.038981438E0,2.783969402E0
6.009164090E1,1.194632244E1,4.963081360E0,-5.522097111E0
6.014164093E1,1.388889980E1,6.492722988E0,-8.888322830E0
6.019164106E1,9.482290268E0,1.397232533E0,-4.614109039E0
6.025164103E1,-6.323327065E0,-9.314029694E0,3.652523518E0
6.030164106E1,-2.053877449E1,-3.552462578E0,-1.529068947E0
6.036164102E1,-4.192980289E0,1.850456238E0,-3.003440380E0
6.042164102E1,5.998465061E0,3.145688057E0,-2.187990665E0
6.048164089E1,7.591846943E0,2.978222370E0,-3.833992243E0
6.054164085E1,-2.375222683E0,-2.640517950E0,-4.416298866E-1
6.059164089E1,-6.188015461E0,-3.760622501E0,-9.464159012E-1
6.065164088E1,-5.050463676E0,-2.274547338E0,-8.442711830E-1
6.070164092E1,7.536911964E-1,6.171100736E-1,-3.459115028E-1
6.075164095E1,1.160249233E0,2.527051687E0,-3.211617470E-1
6.081164095E1,-3.716890335E0,1.322865605E0,1.583452225E0
6.087164091E1,-3.170148849E0,5.251408577E0,2.338544130E0
6.092164094E1,-2.871989250E0,4.410955906E0,2.103827238E0
6.098164088E1,-2.914904594E0,2.837182283E0,3.707122803E-1
6.104164091E1,-2.173559189E0,1.613127232E0,-3.715395927E-1
6.110164091E1,-3.124870300E0,3.353109360E-1,2.138960361E-1
6.115164094E1,-2.477724075E0,-1.369945765E0,-1.143240929E-1
6.121164094E1,-2.199436665E0,-2.290594339E0,6.258635521E-1
6.127164097E1,-1.764753342E0,-2.094176531E0,-1.124106884E0
6.133164093E1,2.681105614E0,-8.616271019E-1,-3.347409487E0
6.139164090E1,4.621100426E0,-9.243826866E-1,-3.850829363E0
6.145164083E1,5.510488510E0,-3.912175417E0,-4.410953522E0
6.151164086E1,4.313073635E0,-9.737216949E0,-4.326809883E0
6.157164086E1,-1.768062592E0,-1.765348816E1,-6.466771126E0
6.162164089E1,-2.804811859E1,-8.186928558E1,3.383650970E1
6.168164086E1,3.737085342E0,2.169240952E1,-3.953495407E1
6.174164086E1,-2.105803490E0,1.243822289E1,6.933316708E0
6.180163803E1,-8.630953789E0,9.103899956E0,7.037331104E0
6.186163803E1,-5.138813019E0,7.999736309E0,7.506797791E0
6.192163800E1,-2.453714371E0,7.822403908E0,1.383801937E0
6.197163803E1,6.821283340E0,4.338128090E0,-3.279587507E0
6.202163806E1,8.894143105E-1,2.751611233E0,2.514625549E0
6.207163809E1,3.395667076E0,1.599328399E0,1.326559067E0
6.213163806E1,2.541658401E0,2.187034607E0,3.594578743E0
6.219163802E1,5.099570751E0,4.293383598E0,7.282097816E0
6.225163806E1,1.247838497E1,1.276910877E1,2.375443459E0
6.230163809E1,1.240139961E1,1.191529846E1,9.417853355E-1
6.236163809E1,-1.873829651E1,-1.313788605E1,1.207549000E1
6.241163815E1,-7.170788765E0,-2.008139610E1,-2.182734489E1
6.247163812E1,7.784941196E-1,-1.811446381E1,5.919927597E0
6.252163818E1,-8.607220650E-2,-8.101416588E0,-7.849593639E0
6.258163815E1,3.849077702E0,-1.242320299E0,-7.614045620E0
6.264163815E1,2.015252113E0,-2.725882769E0,-3.826639652E0
6.270163804E1,4.440193176E0,-2.740436792E0,-1.933146477E0
6.276163808E1,4.185173988E0,-2.750724077E0,-1.827640533E-1
6.282163804E1,3.601861477E0,-1.787913561E0,2.389345169E0
6.287163807E1,5.671825409E-1,-1.250953078E0,3.810839653E0
6.293163804E1,-2.388319492E0,8.696806431E-2,6.013841629E-1
6.298163807E1,-4.701122761E0,7.363179922E-1,-9.410591125E-1
6.304163804E1,-4.525745392E0,3.451923132E0,-1.287627935E0
6.310163803E1,-5.056616783E0,4.971072674E0,-9.312000275E-1
6.316163803E1,-8.136134148E0,4.606486797E0,-1.487525225E0
6.321163806E1,-6.341628075E0,4.228395462E0,-4.515724182E-1
6.327163803E1,-2.990855217E0,3.630002499E0,-2.357230186E-1
6.332163806E1,-3.227649689E0,2.174265862E0,-1.944594383E-1
6.338163803E1,-1.631630898E0,5.208206177E-1,-7.280071974E-1
6.344163799E1,-1.830368042E-1,-5.941290855E-1,9.425497055E-2
6.349163802E1,7.372798920E-1,-1.371272802E0,-3.981659412E-1
6.354163806E1,8.326101303E-1,-1.692615509E0,-4.712514877E-1
6.359163809E1,1.847880840E0,-9.286856651E-1,-3.679893017E-1
6.365163805E1,1.775121212E0,-4.884996414E-1,-1.008415222E-1
6.371163805E1,1.246320724E0,-5.648720264E-2,2.728259563E-1
6.377163805E1,1.595369339E0,1.108155727E0,2.323794365E-2
6.383163802E1,8.828296661E-1,1.901172161E0,5.356297493E-1
6.389163798E1,-1.839014053E0,2.184246063E0,8.148508072E-1
6.394163801E1,-4.731142998E0,2.146074295E0,9.875655174E-2
6.400163798E1,-1.902104378E0,3.814347744E0,1.752180099E0
6.405163804E1,-1.413083076E0,2.907742023E0,2.902811527E0
6.410163808E1,-4.884604454E0,1.007166505E0,2.207768917E0
6.416163801E1,-3.062376022E0,-4.767322540E-2,2.280675173E0
6.421163804E1,-3.564563751E0,5.707778931E-1,2.634992599E-1
6.427163797E1,-3.149951458E0,1.348227978E0,-6.622667313E-1
6.433163800E1,1.082046032E0,6.266117096E-1,-1.367325783E0
6.439163794E1,2.408394098E0,-9.788417816E-1,-1.203012466E0
6.444163797E1,2.166845798E-1,-3.582722664E0,-3.339337587E0
6.450163797E1,3.660900593E0,-9.472119331E0,-2.113763094E0
6.455163800E1,4.264094830E-1,-1.998870468E1,-3.397271156E0
6.461163800E1,-3.167402744E0,-1.295123672E1,-1.355605316E1
6.467163796E1,1.256906891E1,4.416605377E1,-7.366220951E-1
6.472163803E1,1.705316162E1,2.837589741E0,5.986248970E0
6.477163806E1,-9.886217117E-1,8.504473686E0,-2.421206474E0
6.482163809E1,-3.703103065E-1,7.685027599E0,1.399151802E0
6.488163806E1,6.747220993E0,5.989707947E0,4.657959461E0
6.494163802E1,3.148996353E0,3.949014664E0,2.223604679E0
6.499163806E1,4.233980179E0,3.799880028E0,1.608414173E0
6.505163795E1,3.598896503E0,3.041720867E0,3.230504990E-1
6.511163799E1,4.396460533E0,2.718949795E0,-5.662918091E-3
6.516163802E1,4.396049500E0,2.287127495E0,-2.283573151E-1
6.522163802E1,4.803960323E-1,3.988108158E0,4.038553238E0
6.527163805E1,1.614985228E0,5.049656868E0,5.947435379E0
6.533163802E1,1.154362392E1,1.203898239E1,7.413450241E0
6.539163801E1,1.100724983E1,9.406222343E0,4.182621479E0
6.545163794E1,-2.320322990E1,-1.792970276E1,1.907736778E1
6.551163791E1,-2.622571468E0,-1.386302757E1,-1.491023445E1
6.557163788E1,1.223715782E0,-1.974963570E1,7.371417522E0
6.563163791E1,6.745261550E-1,-6.992228985E0,-4.730383873E0
6.568163794E1,1.311788797E0,-2.403931379E0,-8.802625656E0
6.573163797E1,2.153414249E0,-2.364280701E0,-3.997349024E0
6.578163797E1,3.300449371E0,-2.047538519E0,-2.502812386E0
6.584163797E1,4.240948677E0,-1.598313332E0,-1.402922153E0
6.590163797E1,2.107986689E0,-1.513315678E0,-4.292249680E-1
6.596163793E1,1.030738115E0,-1.244402528E0,1.635169983E-2
6.602163793E1,-4.807123184E0,-7.027018547E0,3.640460968E-1
6.607163800E1,-6.382665634E0,-2.870045185E0,9.207305908E-1
6.612163803E1,-4.558933258E0,9.097695351E-1,7.276530266E-1
6.617163810E1,-5.471545219E0,3.327047110E0,2.288918495E0
6.623163806E1,-4.812808990E0,8.252633095E0,6.749150753E0
6.628163813E1,-7.895437241E0,4.161592484E0,2.461994648E0
6.634163802E1,-5.184113503E0,6.148589134E0,1.314134717E0
6.639163806E1,-1.784831047E0,2.371096849E0,8.029296398E-1
6.645163799E1,-9.807424545E-1,2.011640072E-1,7.011585236E-1
6.651163802E1,-5.033340454E-1,-1.761927605E-1,-1.286559105E0
6.657163799E1,1.642341614E-1,-1.772058010E-1,-1.330665946E0
6.662163802E1,1.290682793E0,-9.635806084E-2,-1.409377694E0
6.668163798E1,1.189295769E0,-8.505671024E-1,-1.489760876E-1
6.674163795E1,2.719727516E0,1.979113221E-1,6.567788124E-1
6.680163791E1,2.586981297E0,2.164690733E0,3.049454689E0
6.686163791E1,7.506685257E-1,2.061333895E0,3.925278902E0
6.692163788E1,-2.101452827E0,1.669428349E0,1.919810534E0
6.697163791E1,-1.569238663E0,1.343140721E0,1.387208223E0
6.702163794E1,-1.331538200E0,1.637695074E0,1.567126513E0
6.707163797E1,-2.717105865E0,2.315581083E0,1.549840689E0
6.713163794E1,-3.501822472E0,1.129493237E0,2.416121960E-2
6.719163790E1,-4.242582321E-1,1.546565056E0,8.799338341E-2
6.725163794E1,1.574250698E0,1.234899998E0,-1.803429127E-1
6.730163800E1,2.313350201E0,2.609347820E0,-9.064731598E-1
6.736163803E1,3.992648602E0,1.524829388E0,-1.610109806E-1
6.741163806E1,4.526301861E0,8.302111626E-1,-1.546771526E-1
6.747163803E1,3.101634979E0,-1.042292595E0,-1.530183434E0
6.752163806E1,4.828074455E0,-1.581820011E0,-9.287096262E-1
6.758163803E1,5.005741119E0,-7.304929256E0,-4.147316933E0
6.764163796E1,2.315206528E0,-1.461542130E1,-2.993759632E0
6.770163789E1,1.711664677E0,-1.664314651E1,-7.097905159E0
6.776163792E1,7.198833942E0,-1.661455154E1,1.569762826E0
6.782163792E1,-1.413962078E1,3.199564695E0,-1.426878929E1
6.787163795E1,-7.456127167E0,1.668542981E0,3.116730452E0
6.792163798E1,-1.692377281E1,7.164076805E0,-9.317256927E0
6.797163798E1,-1.142357254E1,5.798965454E0,-1.623312473E0
6.803163798E1,-9.456543922E0,8.508323669E0,-2.664401770E0
6.809163798E1,-6.288911819E0,8.530906677E0,3.972043037E0
6.815163798E1,-4.084851265E0,3.676292896E0,-3.867206573E-1
6.821163795E1,8.755702972E-1,-1.112310648E0,-4.025222778E0
6.827163791E1,3.677625656E0,-7.270200849E-1,-1.043971729E1
6.832163791E1,2.151136971E1,-3.068022251E0,-1.859994888E1
6.838163788E1,-3.121780634E0,-4.975818634E0,9.314000130E0
6.844163784E1,-5.008668900E0,5.297914743E-1,-3.677186966E-1
6.850163791E1,2.463236809E0,1.756922722E0,5.503787041E0
6.855163794E1,5.183284760E0,3.498714685E0,4.156954765E0
6.861163797E1,1.287831306E1,1.021916294E1,4.149269104E0
6.866163800E1,1.718402863E1,1.580371380E1,-8.465149879E0
6.872163797E1,-1.842917061E1,-7.327742577E0,1.294261551E1
6.877163800E1,-5.775369167E0,-1.803054619E1,-2.393634033E1
6.883163793E1,2.675182581E0,-2.084953880E1,3.510135651E0
6.889163793E1,-5.619379282E-1,-7.787248611E0,-1.021468735E1
6.895163786E1,3.022017002E0,3.357645273E-1,-8.581647873E0
6.901163789E1,5.452966690E-1,-2.674451351E0,-3.467855930E0
6.906163880E1,3.190819740E0,-1.630563736E0,-7.839736938E-1
6.912163883E1,3.940898895E0,-2.308288574E0,1.415319443E0
6.918163883E1,1.298933506E0,-1.090520620E0,6.324677467E-1
6.924163883E1,-4.010326385E0,-2.952964306E0,1.453391552E0
6.930163879E1,-9.629988670E0,1.366324425E-1,-2.727448702E0
6.936163879E1,-9.629346848E0,8.399637222E0,-3.911507130E0
6.942163872E1,-7.165091991E0,9.194313049E0,-1.699446440E0
6.948163875E1,-6.208915710E0,6.949249744E0,-3.124339104E0
6.954163875E1,-4.634681702E0,3.523622036E0,-7.326248884E-1
6.959163878E1,-4.220316887E0,8.428273201E-1,-2.672181845E0
6.965163878E1,-1.936683655E0,1.542840004E-1,-2.967496395E0
6.971163878E1,-9.139194489E-1,1.495838165E-3,-2.235278130E0
6.977163878E1,-9.305334091E-1,-5.136573315E-1,-1.761116743E0
6.982163881E1,-5.897855759E-1,-3.403162956E-1,5.232344866E-1
6.988163881E1,2.805233002E-2,-2.003641129E-1,1.941257954E0
6.994163878E1,-5.798196793E-1,2.357845306E-1,2.885514498E0
6.999163881E1,7.787027359E-1,1.925288200E0,2.249092579E0
7.005163877E1,2.037052631E0,3.988243818E0,3.766545773E0
7.011163880E1,1.044328690E0,4.467301369E0,3.336301088E0
7.017163877E1,-9.226140976E-1,2.028420925E0,2.389289141E0
7.023163877E1,-5.849770546E0,-3.091692924E-2,8.288741112E-1
7.028163880E1,-1.018409252E0,4.508924484E-1,1.348073006E0
7.034163880E1,-2.659136295E0,1.047856331E0,-9.838142395E-1
7.039163886E1,5.991792679E-2,3.859632015E0,-3.072501659E0
7.045163883E1,-1.690600395E0,4.180431366E-3,-3.180056572E0
7.051163880E1,-4.295270443E-1,-5.368665218E0,-3.523547888E0
7.057163876E1,-2.427114725E0,-1.494236755E1,-3.927791119E0
7.063163876E1,3.698523283E0,2.801849842E0,-2.479684067E1
7.069163876E1,3.226663589E1,-3.430361748E-1,7.459412098E0
7.075163876E1,-2.225566149E0,-1.203093052E0,-7.243893623E0
7.080163879E1,1.601737022E0,-1.430801392E0,-1.535127163E0
7.086163879E1,4.133770943E0,-2.145756245E0,-3.818717003E-1
7.092163879E1,2.289352417E0,7.681465149E-1,-1.020409107E0
7.098163875E1,3.436699629E0,1.099777222E-1,6.014347076E-3
7.104163878E1,1.877444267E0,5.659484863E-2,1.343611717E0
7.110163878E1,1.752417803E0,1.067405224E0,2.217160225E0
7.115163881E1,3.285954475E0,2.325720310E0,2.997963905E0
7.121163881E1,4.515060425E0,2.036890984E0,3.656216621E0
7.127163881E1,4.008759022E0,1.863624096E0,2.301154137E0
7.133163878E1,4.581861496E0,2.693668365E0,4.548019409E0
7.139163878E1,1.357994270E1,1.008425236E1,6.265616417E0
7.145163871E1,2.506998062E1,1.668484879E1,-3.199062824E0
7.151163874E1,-1.241082764E1,-1.258066177E1,1.546269035E1
7.156163877E1,-1.481705475E1,-3.445158386E1,-6.953503609E0
7.162163877E1,-4.445797920E0,-1.917984581E1,-5.823378563E-1
7.168163873E1,1.792497993E0,-1.052233315E1,-7.432732105E0
7.173163877E1,2.880191565E0,-2.612327099E0,-6.858801365E0
7.179163873E1,1.810912609E0,-3.947191000E0,-3.206793785E0
7.185163873E1,2.034751654E0,-3.828097105E0,-2.286849022E0
7.191163873E1,2.534196377E-1,-3.010288477E0,-1.872872829E0
7.197163870E1,-1.752708435E0,-4.005365372E0,1.034829140E0
7.203163866E1,-6.826525688E0,-3.308361769E0,2.348108292E-1
7.208163869E1,-8.307991028E0,-1.850325108E0,-1.642954350E-1
7.214163872E1,-7.374569893E0,1.692352295E0,1.240732431E0
7.220163872E1,-6.985891819E0,4.132519722E0,7.270839214E-1
7.225163876E1,-6.238902569E0,4.920271397E0,-6.707655787E-1
7.230163879E1,-4.956704617E0,5.663060188E0,-8.873564601E-1
7.236163879E1,-2.999734402E0,3.839384556E0,-1.033582449E0
7.241163882E1,-1.538893700E0,2.544878960E0,-1.770993233E0
7.247163878E1,-1.541300774E0,6.023945808E-1,-1.821167469E0
7.252163882E1,-2.148731232E0,-1.071599245E0,-2.212848186E0
7.258163875E1,-1.804651260E0,-2.502682924E0,-1.972472787E0
7.263163878E1,-1.828765869E-2,-2.260292530E0,-1.829032063E0
7.269163878E1,1.497683525E0,-1.680085778E0,-6.899101734E-1
7.275163874E1,2.089466572E0,2.426832914E-2,-3.110793829E-1
7.280163878E1,2.348235130E0,9.142431021E-1,1.206694722E0
7.285163884E1,1.865305424E0,1.335561275E0,1.679074645E0
7.291163874E1,1.109465599E0,2.030830383E0,1.906587124E0
7.296163877E1,-2.061843872E-2,1.850042820E0,1.882798314E0
7.302163867E1,-3.390188217E-1,2.195342541E0,1.891395092E0
7.308163870E1,-1.211834908E0,2.243471146E0,1.075034022E0
7.314163867E1,-2.223752022E0,2.880292416E0,7.864800692E-1
7.319163870E1,-5.548219681E0,2.123965263E0,4.067126274E0
7.325163870E1,-6.751728058E0,1.110235095E0,2.936893463E0
7.330163873E1,-6.940807343E0,-1.446826935E0,1.257458210E0
7.336163873E1,-1.262148857E0,-4.960756302E-1,4.012012482E-2
7.342163873E1,-1.601538181E0,1.512198925E0,-2.681735754E0
7.348163866E1,-1.198711395E-1,-3.213878870E0,-2.320548773E0
7.354163869E1,1.885733843E0,-5.203990936E0,-5.449710846E0
7.360163869E1,5.701894760E0,-1.039418793E1,-2.228967428E0
7.365163876E1,4.861044884E-2,-2.377900505E1,-1.913934231E0
7.371163875E1,-9.794569016E0,-4.730691528E1,-4.458080673E1
7.377163879E1,1.333793259E1,1.358903694E1,-1.390711784E1
7.383163875E1,1.110485935E1,9.657123566E0,1.501859188E0
7.389163875E1,5.360567570E-1,5.483786106E0,1.697512627E0
7.394163875E1,1.106966019E0,3.954523087E0,6.637751579E0
7.400163871E1,6.389737129E-1,4.440049648E0,4.849376678E0
7.405163878E1,1.355905533E0,3.526015997E0,1.760064602E0
7.410163885E1,1.209117413E0,3.456083536E0,1.717779160E0
7.415163888E1,4.755432606E-1,2.340235233E0,1.105393410E0
7.421163881E1,1.582207680E0,8.066778183E-1,-5.561981201E-1
7.427163874E1,2.300562859E0,-4.282202721E-1,-1.323859692E0
7.433163877E1,1.843070745E0,3.385818005E-1,-1.733423233E0
7.439163874E1,2.259971142E0,-2.404239178E-1,-1.228937149E0
7.445163867E1,1.003569841E0,3.790795803E-1,-4.281139374E-1
7.451163867E1,1.419224143E-1,1.249663830E0,1.244708061E0
7.456163870E1,1.792306542E0,1.663358450E0,3.124818802E0
7.462163866E1,3.957434654E0,2.865110874E0,6.999417305E0
7.467163870E1,1.215390682E1,7.442487717E0,8.238880157E0
7.473163866E1,1.623431778E1,1.354220295E1,-5.140373707E0
7.479163869E1,-3.377671242E0,-1.052364922E1,4.730529308E0
7.485163869E1,-1.341060448E1,-1.992297173E1,-1.752669716E1
7.490163872E1,-3.129323006E0,-2.685100746E1,2.935196877E0
7.496163872E1,5.284615755E-1,-9.520498276E0,-6.788176537E0
7.502163876E1,1.541381121E0,-4.050236702E0,-5.112705231E0
7.508163872E1,3.150279999E0,-2.506370544E0,-2.354805470E0
7.514163872E1,2.984549522E0,-1.527745366E0,-1.488999367E0
7.520163868E1,1.426835775E0,-1.753625512E0,-1.035293102E0
7.526163872E1,-1.897540092E-1,-2.184457541E0,-5.686182976E-1
7.532163871E1,-4.650138855E0,-3.855003595E0,2.538095474E0
7.537163878E1,-6.201081276E0,-2.233291388E0,4.971846581E0
7.543163874E1,-6.932564259E0,2.291445971E0,5.072590828E0
7.549163871E1,-1.025806713E1,4.905934334E0,3.278027296E0
7.555163868E1,-4.895333767E0,9.558718681E0,1.977078915E0
7.561163864E1,-2.116195679E0,5.606476307E0,5.010099411E-1
7.567163857E1,-3.686949730E0,4.043644428E0,-4.148126841E-1
7.572163860E1,-3.696577072E0,2.312469721E0,-1.779347181E0
7.577163864E1,-2.629003525E0,9.455554485E-1,-1.940923095E0
7.582163867E1,-1.293665886E0,-1.205089092E-1,-2.079729795E0
7.588163863E1,-1.153308868E0,-9.835003614E-1,-1.950100899E0
7.594163860E1,7.023220062E-1,-1.269674540E0,-1.406286836E0
7.599163863E1,1.689504623E0,-6.873168945E-1,-1.133744717E-1
7.604163866E1,1.509961128E0,-5.453188419E-1,2.152878284E0
7.610163866E1,2.707486153E0,1.133000970E0,2.809340477E0
7.615163873E1,2.073189735E0,1.801611066E0,4.148515224E0
7.621163872E1,-6.900501251E-2,3.116638184E0,2.411963940E0
7.627163876E1,-2.420300484E0,4.026235580E0,1.688387394E0
7.632165870E1,-3.810020447E0,3.204967976E0,4.027116299E-1
7.638165870E1,-2.917195320E0,3.765475273E0,-2.248671055E-1
7.644165863E1,-5.853967667E-1,1.601660490E0,-2.016622066E0
7.650165860E1,4.304900169E0,2.337522984E0,1.687428713E0
7.655165866E1,-9.366831779E-1,-7.422065735E-1,-3.426199436E0
7.661165863E1,-2.538263321E0,-1.152466297E0,-5.380414963E0
7.667165866E1,9.773677826E0,1.616716385E-1,-4.774128914E0
7.673165866E1,1.284872437E1,-8.112406731E0,-2.308648109E0
7.679165863E1,1.661703110E0,-2.048487282E1,-1.019848251E1
7.685165859E1,-2.425162315E1,-4.479720688E1,1.489909840E1
7.691165859E1,1.106077099E1,2.314835930E1,3.750579357E0
7.697165855E1,-2.090357399E1,-7.047624111E0,1.802195358E1
7.702165859E1,-1.604962540E1,1.181845284E1,3.963757515E0
7.707165862E1,-7.476961136E0,6.089769363E0,1.166178226E0
7.713165858E1,-6.676736832E0,5.915462494E0,3.917003632E0
7.719165855E1,8.810939789E-1,3.511802673E0,2.451528549E0
7.725165858E1,3.928479671E0,2.418895006E0,-1.204369783E0
7.730165861E1,4.547012806E0,1.164649367E0,2.405128479E-1
7.736165861E1,4.264149189E0,3.458904028E-1,-2.209307194E0
7.741165864E1,2.896018267E0,6.952548027E-1,-2.392063141E-1
7.747165861E1,1.372392416E0,1.241261721E0,1.562311172E0
7.752165868E1,4.180949211E0,3.857526779E0,5.070563316E0
7.758165864E1,1.551206398E1,8.399881363E0,6.124457359E0
7.764165864E1,1.969864273E1,1.006358051E1,1.544103622E-1
7.770165857E1,-9.455891609E0,-1.336464405E1,5.123167992E0
7.776165860E1,-8.084497452E0,-1.476249981E1,-1.721093369E1
7.782165857E1,-3.764796257E-2,-1.331470490E1,-2.156515121E-1
7.787165860E1,9.361029267E-1,-3.894719124E0,-5.381446838E0
7.793165856E1,1.818016768E0,8.708887696E-1,-6.845000267E0
7.799165856E1,1.765058160E0,2.656583488E-1,-3.600598335E0
7.805165853E1,3.135725498E0,-2.773600817E-1,-8.691987991E-1
7.811165853E1,1.871968031E0,-6.293320656E-1,8.626928329E-1
7.817165849E1,-8.918557167E-1,-1.110180855E0,2.816979408E0
7.822165852E1,-2.721019268E0,-1.717133999E0,4.469937801E0
7.827165856E1,-5.312117100E0,-6.358075142E-1,2.320288897E0
7.832165859E1,-8.353121758E0,1.198353767E0,3.995019436E0
7.838165855E1,-8.721624374E0,1.125047779E1,1.984863663E1
7.844165852E1,-4.341690063E0,5.184894562E0,3.822894692E-1
7.849165855E1,-5.123418808E0,8.438953400E0,1.525703907E0
7.854165858E1,-1.825551987E0,3.006292820E0,1.469392776E-1
7.860165858E1,-3.806295872E0,1.122165203E0,-1.449980736E-1
7.865165865E1,-1.887871742E0,5.222797394E-3,-1.646692634E0
7.871165864E1,-1.080815315E0,-4.504969120E-1,-1.669781685E0
7.877165864E1,7.916593552E-1,1.482319832E-2,-1.713874340E0
7.883165861E1,1.566879272E0,7.279495001E-1,-7.052328587E-1
7.889165861E1,1.404664993E0,1.247425795E0,6.798291206E-2
7.895165851E1,1.873533726E0,1.573101759E0,1.354236245E0
7.901165854E1,2.564815521E0,1.870347142E0,2.370441437E0
7.907165854E1,9.111127853E-1,1.873533964E0,2.963995457E0
7.912165860E1,-1.399444580E0,1.517386913E0,2.168871880E0
7.918165857E1,-6.333503723E-1,2.147141933E0,2.651907921E0
7.924165857E1,-1.233324051E0,2.465269089E0,1.768656611E0
7.930165853E1,-1.376993179E0,2.747340918E0,1.610865235E0
7.936165853E1,-4.305588722E0,3.339247227E0,3.773748875E-2
7.942165843E1,-5.893712044E0,2.033543110E0,1.445233345E0
7.947165846E1,-6.043189049E0,8.416638374E-1,4.085496902E0
7.952165849E1,-3.174119949E0,-3.823833466E-1,3.685285330E0
7.957165852E1,-2.666439533E0,-1.245797634E0,5.374321938E0
7.963165849E1,2.341962337E0,-1.831402302E0,-4.557347298E-1
7.969165849E1,9.974436760E-1,-8.240996361E0,-3.903164387E0
7.975165852E1,6.777763367E-2,-1.399244118E1,-2.888673544E0
7.980165855E1,2.286481857E0,-1.495831108E1,-2.532307625E0
7.986165855E1,5.713214874E0,-1.169672775E1,-1.302668476E1
7.991165862E1,-3.926982880E0,-1.487732792E1,-3.049982834E1
7.997165858E1,2.804498672E0,2.569536686E0,-9.468156815E0
8.002165865E1,-1.036092854E1,1.144254398E1,-1.722061920E1
8.008165861E1,1.120338440E0,1.540769291E1,-4.447672367E0
8.014165861E1,-4.409663200E0,1.381708717E1,-2.765377045E0
8.020165851E1,1.817809582E0,1.113877773E1,2.125216484E0
8.026165854E1,3.055930614E0,9.835680962E0,-1.409557343E0
8.032165851E1,3.075239897E0,7.475364685E0,-1.581811905E0
8.037165857E1,3.045934916E0,6.428197384E0,-2.579647541E0
8.043165854E1,5.441615105E0,3.746607065E0,-1.043952942E0
8.049165854E1,1.653417230E0,4.505659103E0,-6.226663589E-1
8.055165850E1,1.859206438E0,5.693120003E0,7.974309921E-1
8.061165850E1,4.211554050E0,8.316612244E0,-1.701130867E0
8.067165840E1,1.366319180E1,1.714988708E1,-8.583160400E0
8.072165843E1,5.348813057E0,1.252345085E1,-4.299290657E0
8.077165846E1,-2.619471741E1,-8.817929268E0,1.048282814E1
8.082165850E1,-6.774148941E0,-1.494453049E1,-2.387008858E1
8.088165846E1,2.240509033E0,-2.618265724E1,6.835655212E0
8.094165846E1,1.300718546E0,-9.435871124E0,-5.283641338E0
8.100165849E1,3.202707052E0,-6.105530262E-1,-7.526842117E0
8.105165852E1,2.092172623E0,-2.892875195E0,-2.685008049E0
8.111165852E1,3.377630472E0,-3.803087234E0,5.785493851E-1
8.116165856E1,2.618132114E0,-3.993029356E0,1.215070724E0
8.122165852E1,6.963572502E-1,-2.387603760E0,1.994522572E0
8.127165859E1,-1.258698940E0,-3.863275766E0,1.801392078E0
8.133165855E1,-2.224142551E0,-3.067030430E0,4.087547302E0
8.139165858E1,-5.188354492E0,-1.110753536E0,2.701979876E0
8.145165851E1,-7.237304688E0,3.353639364E0,1.472146392E0
8.151165855E1,-5.177722931E0,4.132792473E0,4.634966850E-1
8.157165851E1,-5.128654480E0,6.344090939E0,4.150409102E-1
8.163165851E1,-2.564388275E0,2.228097916E0,9.892344475E-3
8.169165844E1,-1.119248390E0,-5.163345337E-1,5.174434185E-1
8.174165847E1,-6.713008881E-1,-3.559117794E0,-5.545177460E-1
8.180165844E1,-7.888793945E-3,-2.694166183E0,-1.425348282E0
8.186165840E1,-8.092002869E-1,-2.311021805E0,-6.741515398E-1
8.191165847E1,-2.834758759E-1,-1.218636036E-1,-2.535760403E-3
8.196165850E1,1.972761154E-1,-3.677592278E-1,4.249909520E-1
8.202165847E1,5.745420456E-1,2.449411392E0,1.735379696E0
8.207165867E1,6.168937683E-2,3.870407820E0,1.457440376E0
8.213165863E1,-1.798112869E0,4.525602341E0,1.791096926E0
8.219165860E1,-2.203374863E0,3.932441235E0,1.998702645E0
8.225165863E1,-3.445587158E0,2.061803341E0,1.046629906E0
8.230165866E1,1.465950012E-1,2.580568075E0,6.591796875E-3
8.236165846E1,4.776784897E0,1.791142941E0,-6.608057022E-2
8.241165849E1,4.955574989E0,4.962964058E-1,6.180033684E-1
8.247165846E1,2.723600388E0,-1.346915245E0,-3.662026882E0
8.252165849E1,2.271907330E0,-3.049487114E0,-1.014537334E0
8.258165845E1,4.620132923E0,-4.731194019E0,-3.785093784E0
8.264165842E1,1.232949734E0,-1.102357101E1,-3.509747028E0
8.269165845E1,-5.686178207E0,-2.028953362E1,-1.024376297E1
8.275165842E1,-1.415756226E0,-1.470756721E1,-6.963262939E1
8.280165845E1,6.021290779E0,5.179600906E1,1.603802490E1
8.286165842E1,-3.828953743E0,9.904802322E0,3.622570753E0
8.292165841E1,-1.635875702E0,7.356004715E0,6.520758629E0
8.298165841E1,-3.438252449E0,7.700383186E0,-5.085878372E-1
8.304165838E1,1.389937019E1,2.487606525E0,-1.586582184E0
8.309165841E1,1.859898567E-1,2.777688503E0,-7.190589905E-1
8.315165841E1,1.866878986E0,3.038993359E0,2.536683083E0
8.320165844E1,1.437442303E0,2.617872715E0,2.166684628E0
8.326165844E1,1.883926392E-1,2.277919292E0,3.438945770E0
8.331165847E1,5.039270401E0,4.654975891E0,4.999567032E0
8.337165844E1,1.497551346E1,1.230900764E1,6.141564369E0
8.342165847E1,2.183344269E1,9.481613159E0,2.398167610E0
8.348165840E1,-1.665928650E1,-1.448404503E1,1.477817249E1
8.353165843E1,-6.006983280E0,-1.737889290E1,-1.566428089E1
8.358165853E1,2.671163082E-1,-2.288527107E1,1.256053925E0
8.364159667E1,7.752034664E-1,-7.698016644E0,-7.776954651E0
8.370159670E1,2.663553715E0,-1.769564033E0,-8.231263161E0
8.375159673E1,2.269002438E0,-1.532847762E0,-5.187087059E0
8.381159666E1,3.422044277E0,-3.107516289E0,-1.784635544E0
8.387159663E1,3.324427605E0,-3.367416859E0,7.055845261E-1
8.393159659E1,1.626654625E0,-8.471071124E-1,1.345946312E0
8.399159659E1,8.477525711E-1,-1.730439663E0,-3.381824493E-1
8.405159656E1,-2.374450684E0,-1.921958208E0,1.777020454E0
8.410159666E1,-4.370781898E0,-1.602492332E0,1.776088238E0
8.416159659E1,-5.932284355E0,1.867904663E-1,1.258531570E0
8.421159662E1,-5.818870068E0,2.899043322E0,7.699110508E-1
8.427159655E1,-4.642493248E0,4.877917767E0,5.576025248E-1
8.433159658E1,-3.968426704E0,4.813072681E0,6.180016994E-1
8.439159655E1,-3.120680809E0,2.723193169E0,6.409921646E-1
8.445159655E1,-1.683578491E0,9.051380157E-1,1.196246147E-1
8.451159654E1,-1.439705849E0,-7.848355770E-1,-8.001887798E-1
8.456159658E1,-1.551990509E0,-1.900918007E0,-1.558531523E0
8.462159654E1,4.332141876E-1,-2.090102196E0,-1.968825817E0
8.468159654E1,2.345169067E0,-1.529093504E0,-1.686965108E0
8.473159657E1,2.459633827E0,-1.507534623E0,-1.766782641E0
8.479159661E1,2.525882721E0,-8.025332689E-1,-7.957789898E-1
8.485159660E1,1.453093529E0,-1.928265095E-1,-8.849859238E-2
8.490159664E1,3.389453888E-1,1.984617710E-1,1.012167692E0
8.496159663E1,-9.280462265E-1,1.744434118E0,1.370423794E0
8.502159663E1,-2.362576485E0,2.509330750E0,2.589771509E0
8.508159660E1,-4.033873558E0,4.135079384E0,4.751502991E0
8.514159660E1,-6.700572014E0,3.785334349E0,5.706490517E0
8.520159656E1,-3.211433411E0,3.442647219E0,6.183108330E0
8.526159659E1,-8.062226295E0,1.065088511E0,-3.301205635E-1
8.532159659E1,-3.350949287E0,1.392030716E-2,-5.018273830E0
8.537159662E1,-3.618197441E-1,4.876580238E-1,-6.227203369E0
8.543159659E1,4.054054260E0,-1.639553547E0,-3.996324778E0
8.549159656E1,5.147279263E0,-5.506883621E0,-3.279084682E0
8.555159652E1,8.693040848E0,-1.397266293E1,-1.173069477E0
8.561159652E1,3.183789253E-1,-1.744165802E1,-8.626866341E0
8.567159645E1,-6.071273327E0,-4.558720779E1,-5.206481934E1
8.572159648E1,1.437728882E1,2.885059547E1,-3.506125641E1
8.577159652E1,7.920808792E-1,1.341801262E1,6.114659309E0
8.582159652E1,-5.822879791E0,9.437319756E0,-1.433012128E0
8.588159648E1,7.195611954E0,9.488190651E0,7.408592701E0
8.594159648E1,3.695656776E0,6.074647427E0,4.329420090E0
8.600159651E1,3.898995399E0,6.084717274E0,1.169072628E0
8.605159654E1,2.379576206E0,4.271392822E0,1.288734436E0
8.611159654E1,3.401265144E0,3.885448933E0,1.852118492E0
8.616159661E1,4.293449402E0,3.903993130E0,2.622946739E0
8.622159657E1,4.401820660E0,5.911653042E0,3.493370056E0
8.627159660E1,9.920283318E0,1.097364044E1,4.140987396E0
8.633159657E1,2.140901375E1,1.815238762E1,-7.687900066E0
8.639159654E1,1.378085613E-1,-6.693928242E0,-2.937023163E0
8.645159650E1,-2.652348137E1,-2.356410217E1,-2.740944290E1
8.651159653E1,-3.452905178E0,-2.127269363E1,5.181707382E0
8.657159653E1,2.557817936E0,-8.909322739E0,-5.961954117E0
8.662159656E1,1.887827277E0,-3.850894928E0,-6.683021545E0
8.668159656E1,3.120584488E0,-2.756323576E0,-3.627469063E0
8.674159656E1,4.793119907E0,-1.957239747E0,-6.189241409E-1
8.680159653E1,2.615275383E0,-2.363250017E0,4.107198715E-1
8.686159652E1,7.427556515E-1,-3.107274532E0,-1.472616196E-1
8.692159646E1,-2.874537945E0,-3.731639385E0,1.726831436E0
8.698159649E1,-4.776526928E0,-2.872179985E0,8.113842010E-1
8.704159649E1,-5.365466595E0,-1.491311550E0,1.689801931E0
8.709159652E1,-4.618102551E0,1.624863625E0,1.430366039E0
8.715159652E1,-4.316629887E0,2.949834585E0,1.250776052E0
8.721159652E1,-2.927982807E0,4.343517303E0,2.450973988E-1
8.727159652E1,-3.837568283E0,3.040147781E0,-5.092654228E-1
8.732159655E1,-3.750859737E0,1.046863079E0,-6.547384262E-1
8.738159651E1,-2.255215645E0,4.468917847E-3,-8.131434917E-1
8.744159648E1,-1.945219994E0,-1.402376652E0,-2.055209160E0
8.749159654E1,-1.703368187E0,-1.415286779E0,-1.904406786E0
8.755159648E1,1.032846451E0,-4.581354856E-1,-1.146028519E0
8.761159651E1,2.197520733E0,3.605027795E-1,-4.523642063E-1
8.767159651E1,2.483622551E0,1.185537100E0,4.783148766E-1
8.773159651E1,1.201849937E0,1.695826769E0,1.524073124E0
8.778159654E1,-6.169776917E-1,1.967713594E0,3.157866716E0
8.783159657E1,-1.601465225E0,2.125864506E0,2.758918762E0
8.789159657E1,-3.969984055E0,2.526134014E0,3.597633839E-1
8.795159657E1,-3.012857437E0,2.764194012E0,1.493998051E0
8.801159653E1,-4.095758438E0,4.242413044E-1,1.786103249E-1
8.807159650E1,-3.493589401E0,-9.625678062E-1,-4.494068623E-1
8.813159646E1,-1.888496399E0,-9.514417648E-1,2.918076515E-2
8.818159649E1,-9.712829590E-1,-4.143385887E-1,-1.183300018E-1
8.824159646E1,2.284338474E0,-1.211585045E0,-2.749328136E0
8.830159649E1,4.092512608E0,-5.039777756E0,-3.754663467E0
8.836159649E1,3.322939873E-1,-1.698774338E1,-1.423861504E0
8.842159649E1,-1.319990635E0,-1.301984978E1,-7.227848053E0
8.848159642E1,5.408216000E0,-1.270447922E1,-2.823291397E1
8.853159649E1,1.451623440E1,1.646711540E1,-2.243376732E1
8.858159655E1,4.897786617E0,1.046780014E1,-1.175683498E0
8.864159652E1,-2.646576881E0,8.193613052E0,-6.713459015E0
8.870159655E1,4.479076385E0,9.359197617E0,2.033396721E0
8.876159655E1,4.998924732E0,5.966302872E0,-8.756875992E-1
8.882159651E1,2.388788939E0,4.979628563E0,-6.331653595E-1
8.888159651E1,2.386013031E0,5.691926956E0,1.819453239E-1
8.894159648E1,3.587461472E0,4.577233791E0,-2.400674820E-1
8.900159644E1,3.740814924E0,5.405418396E0,6.123919487E-1
8.905159651E1,3.810730934E0,9.449535370E0,1.987579346E0
8.911159647E1,5.588688850E0,1.451363564E1,-3.693690300E0
8.917159647E1,1.086085510E1,1.856729126E1,-6.530461311E0
8.922159650E1,-4.563079834E0,-1.634628773E0,5.447517395E0
8.928159647E1,-2.217799377E1,-1.949281120E1,-3.278224182E1
8.934159647E1,2.438600063E0,-2.371954727E1,3.805545807E0
8.940159647E1,1.680043221E0,-1.033313942E1,-5.473459244E0
8.945159650E1,6.139820099E0,-1.580144644E0,-3.510055542E0
8.951159646E1,2.460994244E0,-3.451651812E0,-2.102921486E0
8.956159649E1,4.126785278E0,-3.780064344E0,-2.333092690E-1
8.962159646E1,3.645854950E0,-3.062894821E0,9.764156342E-1
8.967159649E1,2.564270258E0,-2.983975410E0,-6.094932556E-3
8.973159642E1,4.194307327E-1,-3.070553780E0,2.258841515E0
8.979159649E1,-2.647616863E0,-2.899569035E0,5.022148132E0
8.985159649E1,-5.299094677E0,-1.847976685E0,2.703233242E0
8.990159655E1,-6.727873325E0,2.612209320E-1,1.403263211E0
8.995159658E1,-6.860356808E0,2.961608648E0,-1.067088842E-1
9.000159662E1,-6.155433178E0,4.610086441E0,-4.682895243E-1
9.006159658E1,-5.656264305E0,4.006095409E0,-8.257894516E-1
9.012159655E1,-4.471360683E0,4.311833858E0,-9.324058294E-1
9.018159648E1,-3.144254684E0,2.866489649E0,-1.279842257E0
9.024159644E1,-2.670932770E0,6.480646133E-1,-1.172326565E0
9.030159641E1,-1.261653900E0,-1.208317280E0,-8.576208353E-1
9.035159647E1,2.603263855E-1,-2.063585997E0,-6.952736378E-1
9.041159641E1,1.280491352E0,-2.877230883E0,-3.413137197E-1
9.046159644E1,2.065550804E0,-2.410179377E0,-9.938502312E-2
9.052159637E1,2.743263721E0,-1.381132126E0,7.346662283E-1
9.058159640E1,2.021559715E0,-5.026396513E-1,1.814811587E0
9.064159640E1,1.723544121E0,8.060345650E-1,2.545336723E0
9.069159643E1,1.037868500E0,1.437193871E0,2.370651960E0
9.075159643E1,4.197025299E-2,1.394971013E0,8.951815367E-1
9.080159646E1,-1.602519035E0,1.575062037E0,8.760358095E-1
9.085159653E1,-1.830210686E0,2.384662151E0,-3.878474236E-2
9.090168589E1,-2.027336121E0,2.750484467E0,1.239555955E0
9.096168585E1,-5.358311653E0,3.553820848E0,-5.535879135E-1
9.102168585E1,8.704509735E-1,2.594049931E0,-3.940801620E-1
9.107168588E1,3.909399986E0,4.149406910E0,7.929351330E-1
9.113168588E1,3.256642818E0,1.590684414E0,-1.846888542E0
9.119168561E1,4.413771152E0,-1.578385830E0,-2.796215057E0
9.124168565E1,5.039689541E0,-4.304280758E0,-1.140280366E0
9.129168568E1,4.839104176E0,-1.435100555E1,6.063442230E0
9.135168564E1,-8.972473145E-1,-1.525805473E1,-8.282331467E0
9.141168561E1,-1.990910721E1,-7.968329620E1,3.271570587E1
9.147168564E1,-5.811591148E0,2.088207245E1,-3.572528458E1
9.152168567E1,-8.431468010E0,6.907277584E0,1.503216624E0
9.158168560E1,-5.848215103E0,7.728627205E0,2.326227427E-1
9.164168560E1,-3.579285622E0,7.342060566E0,-1.918622404E-1
9.170168557E1,-4.962856293E0,6.886662006E0,1.739179969E0
9.175168560E1,-3.219309807E0,5.912227631E0,-1.759120941E0
9.181168553E1,2.934992313E0,4.071258068E0,-4.466993332E0
9.187168553E1,1.178943634E1,8.119347095E-1,-1.458162308E0
9.192168556E1,1.203477859E0,1.480147600E0,7.123470306E-1
9.197168560E1,-2.286510468E-1,1.781060576E0,-4.798388481E-1
9.203168556E1,4.595825672E-1,1.726143599E0,-7.849311829E-2
9.208168559E1,1.123023272E0,1.941312790E0,-8.289623260E-2
9.214168562E1,3.119156837E0,5.160470009E0,3.689125061E0
9.220168559E1,7.033308029E0,7.885532379E0,4.122204781E0
9.226168559E1,1.591680050E1,1.259900475E1,-4.908512115E0
9.231168562E1,6.974647522E0,1.385808945E0,3.591585159E-1
9.237168559E1,-2.399198341E1,-1.008947182E1,4.376752853E0
9.242168565E1,3.098558664E0,-7.102198601E0,-2.397046852E1
9.248168562E1,1.866043091E0,-1.799240112E1,5.914833069E0
9.253168565E1,-2.470574379E0,-7.154639244E0,-5.409671307E0
9.259168558E1,1.469936967E0,-5.104465485E-1,-7.993734360E0
9.265168558E1,2.372891903E-1,-1.359191179E0,-3.392579079E0
9.271168558E1,2.784003973E0,-1.477380753E0,-1.336213112E0
9.277168561E1,3.476768017E0,-1.730347157E0,1.156343460E0
9.283168564E1,1.704022169E0,-2.491962910E0,1.735017776E0
9.289168564E1,-3.356152534E0,-5.492496490E0,4.690982342E0
9.295168564E1,-7.520710945E0,-4.077497482E0,3.073803186E0
9.300168567E1,-9.666172028E0,1.087841988E0,5.094029903E-1
9.306168560E1,-9.122119904E0,5.587215424E0,6.859659553E-1
9.312168557E1,-7.419397354E0,5.105730057E0,2.392858267E0
9.318168560E1,-6.229152679E0,7.218505383E0,-1.085970402E-1
9.324168560E1,-4.932781696E0,2.753493309E0,-5.684579611E-1
9.330168560E1,-6.034260750E0,2.220339775E-1,-9.435743093E-1
9.336168560E1,-4.316290379E0,-7.913293839E-1,-1.541821837E0
9.342168559E1,-1.536383629E0,-6.658940315E-1,-1.329352260E0
9.348168552E1,8.178725243E-1,-8.494114876E-1,-1.513630867E0
9.353168556E1,1.483911991E0,-9.847524166E-1,-1.178475857E0
9.358168562E1,2.312268257E0,-7.426645756E-1,-1.115363121E0
9.364168559E1,2.721066952E0,-1.590704918E-1,-6.923753023E-1
9.370168562E1,2.162798882E0,2.630195618E-1,7.677649260E-1
9.376168562E1,1.571434975E0,1.367698193E0,1.520355225E0
9.382168558E1,4.334383011E-1,2.537555695E0,2.360783339E0
9.388168558E1,8.502006531E-2,3.802140474E0,1.258713603E0
9.394168555E1,-9.370422363E-1,3.088466167E0,7.705467939E-1
9.400168551E1,-3.467046738E0,2.141496181E0,2.600759268E-2
9.405168558E1,-3.951902390E0,2.400475740E0,7.111914158E-1
9.411168551E1,-2.341327667E0,3.403776646E0,1.209795237E0
9.417168554E1,-2.437262535E0,1.862110376E0,1.010932922E-1
9.423168554E1,-2.184200287E-1,1.345427990E0,-2.736492157E-1
9.429168550E1,1.697443008E0,7.754826546E-1,-5.929934978E-1
9.435168550E1,3.638670444E0,-3.293752670E-1,-1.407661915E0
9.440168554E1,4.151427746E0,-3.303930998E0,-3.765653849E0
9.445168557E1,2.255620718E0,-1.011606216E1,-1.201402187E0
9.451168553E1,-5.471801758E-2,-1.415358925E1,-5.493862629E0
9.456168557E1,-1.632212162E0,-9.287494659E0,-9.172720909E0
9.462168553E1,9.148496628E0,2.676269531E1,8.604879379E0
9.467168556E1,6.682418823E0,6.554252625E0,5.581049919E-1
9.473168550E1,3.440019131E0,9.085643768E0,5.248250961E0
9.479168553E1,2.444509983E0,7.831544399E0,4.371570587E0
9.485168553E1,1.566535950E0,6.642831802E0,2.141805649E0
9.490168556E1,2.601072788E0,5.266834259E0,9.244365692E-1
9.496168556E1,3.237554550E0,3.564509869E0,9.205341339E-1
9.501168559E1,1.872017384E0,2.453197241E0,1.088647842E0
9.507168559E1,3.506754160E0,2.007042408E0,-1.417789459E-1
9.513168559E1,2.724903345E0,2.889504433E0,1.114050865E0
9.519168555E1,7.065592766E0,6.022613525E0,4.363163948E0
9.525168552E1,1.821130371E1,1.667949867E1,-1.663898468E0
9.530168555E1,1.336522007E1,8.568283081E0,3.739114761E0
9.535168558E1,-1.875421906E1,-1.766690826E1,1.542049217E1
9.541168551E1,-1.268484688E1,-1.816926384E1,-6.862631321E0
9.546168554E1,-5.769163132E0,-1.657165146E1,-4.556072712E0
9.552168551E1,2.076819181E0,-7.715521812E0,-4.797526360E0
9.558168554E1,2.878715038E0,-2.641306639E0,-4.144100666E0
9.564168554E1,3.331188202E0,-1.243542552E0,-2.317328930E0
9.570168554E1,3.153579712E0,-4.947768152E-1,-1.617889404E0
9.576168554E1,1.141725302E0,-2.000959873E0,-5.629348755E-2
9.582168554E1,-2.507247925E-1,-2.177881241E0,1.755780220E0
9.588168550E1,-2.709066868E0,-3.374282837E0,3.865131855E0
9.594168546E1,-4.395329952E0,-1.163312435E0,1.728022575E0
9.600168550E1,-6.581251144E0,1.113625526E0,-1.384425163E-2
9.605168553E1,-6.624025345E0,4.004597664E0,-1.030528069E0
9.611168560E1,-6.910157681E0,5.328300476E0,-1.533442855E0
9.616168563E1,-5.701554298E0,4.963004589E0,-1.036028743E0
9.622168559E1,-3.936669350E0,3.440035820E0,-1.466005087E0
9.627168562E1,-3.119728088E0,1.676867247E0,-1.399226308E0
9.633168559E1,-2.250443459E0,1.433715820E-1,-2.089249372E0
9.639168559E1,-1.965541840E0,-1.826172113E0,-1.841116190E0
9.645168549E1,-1.743373871E0,-2.962962151E0,-1.265955210E0
9.651168552E1,-4.026269913E-1,-3.617967129E0,6.973981857E-1
9.656168555E1,1.789076805E0,-2.580070019E0,1.518316507E0
9.662168562E1,3.580571651E0,-5.660337210E-1,3.616625309E0
9.668168558E1,2.681930065E0,1.389111042E0,3.569854021E0
9.674168558E1,8.163995743E-1,2.589599133E0,1.303560734E0
9.680168554E1,3.453245163E-1,2.612075329E0,1.278957367E0
9.686168551E1,3.380938530E0,2.876597166E0,-4.535627365E-1
9.692168544E1,8.858231544E0,2.669687510E0,-6.694960594E-1
9.697168547E1,7.670197964E0,-1.964215159E0,-2.918113470E0
9.703168544E1,-1.496598244E0,-8.019887924E0,-7.900667191E0
9.708168547E1,-8.934516907E-1,-1.360435200E1,-8.934358597E0
9.714168550E1,4.338722229E-1,-1.506859303E1,-5.154932022E0
9.720168547E1,5.310810089E0,-4.924552536E1,6.378547668E1
9.726168543E1,-3.476544380E0,3.033333397E1,-1.554830647E1
9.731168546E1,-8.632663727E0,-4.274078608E-1,2.895563364E0
9.737168546E1,-1.165863323E1,5.721697807E0,-8.617457151E-1
9.742168550E1,-7.373370171E0,4.987466335E0,-6.521730423E-1
9.748168546E1,-6.142416954E0,4.738449097E0,-2.971608937E-1
9.754162766E1,-3.031995773E0,3.975264788E0,8.552094698E-1
9.760162763E1,-2.523910522E0,3.248227119E0,-2.058382630E-1
9.766162759E1,1.285990715E0,1.647055149E0,-3.286496401E0
9.772162762E1,2.607918739E0,8.578516841E-1,-2.689536810E0
9.777162766E1,4.054163933E0,9.098688364E-1,-3.270903587E0
9.783162769E1,1.504088879E0,4.292812347E-1,-5.543713570E-1
9.789162772E1,8.595113754E-1,-4.129290581E-2,-1.017246246E0
9.795162768E1,2.937784195E-1,3.484725952E-1,-7.821302414E-1
9.800162775E1,3.968417645E-1,1.312402725E0,-1.778493404E0
9.806162768E1,1.941937447E0,1.447153091E0,-1.737849236E0
9.812162765E1,2.694280624E0,1.816774130E0,5.015802383E-1
9.818162768E1,5.302401066E0,4.054108620E0,4.202282906E0
9.824162768E1,1.435431099E1,9.631909370E0,8.718515396E0
9.830162764E1,1.979796791E1,1.197976017E1,1.989264488E0
9.836162764E1,-1.280348778E1,-1.181577682E1,1.306558800E1
9.842162764E1,-7.782093048E0,-1.971282578E1,-1.502169037E1
9.848162757E1,-3.238101721E0,-1.787234116E1,-6.861104965E-1
9.854162760E1,1.460376978E-1,-6.707499027E0,-6.243110657E0
9.860162760E1,2.075212479E0,-8.097321391E-1,-6.781166077E0
9.865162764E1,1.379901648E0,-1.709637642E0,-5.000039101E0
9.870162767E1,4.307828903E0,-1.548412085E0,-2.436309338E0
9.875162767E1,4.220289230E0,-1.005136251E0,5.641136169E-1
9.881162770E1,2.756649494E0,-1.367376804E0,1.240060806E0
9.887162770E1,-2.067617893E0,-4.041822910E0,3.489123821E0
9.893162766E1,-4.051539898E0,-1.370218754E0,4.408296108E0
9.899162763E1,-5.268175125E0,2.443194389E-1,3.439319372E0
9.904162766E1,-3.985989571E0,3.236751318E0,3.369708300E0
9.910162759E1,-4.841967106E0,3.729607344E0,3.180596828E-1
9.916162752E1,-3.844460964E0,4.826144695E0,-7.585680485E-1
9.921162756E1,-3.031596661E0,4.074767590E0,-1.208913565E0
9.927162749E1,-2.114712238E0,2.489600420E0,-1.472923279E0
9.933162752E1,-2.001984596E0,3.173375130E-1,-2.004726171E0
9.939162755E1,-4.765987396E-2,-6.268556118E-1,-1.588196278E0
9.944162758E1,-1.783742905E-1,-1.812392712E0,-1.319278717E0
9.950162758E1,2.820558548E-1,-1.006676555E0,7.429718971E-1
9.955162761E1,-1.579008102E-1,6.405174732E-3,1.774439573E0
9.961162761E1,-1.579898834E0,2.249910355E0,2.192935467E0
9.967162761E1,-2.886919022E0,3.923392057E0,4.449906349E0
9.973162754E1,-1.772775650E0,1.991760254E0,7.974571228E0
9.979162757E1,-3.246145248E-1,6.670023203E-1,7.351590157E0
9.985162757E1,2.824230194E-1,-4.018497467E-1,3.488329887E0
9.990162760E1,2.253042221E0,-2.425260544E-1,-8.118882179E-1
9.996162760E1,2.717799187E0,-2.438670635E0,-4.482568264E0
1.000116276E2,3.919832945E0,-4.561621189E0,-5.404495239E0
1.000716276E2,7.214206219E0,-7.915563583E0,-3.423286200E0
1.001216276E2,4.206050396E0,-1.123405933E1,-2.881555796E0
1.001816276E2,5.656599998E0,-1.204066658E1,-3.699357271E0
1.002416276E2,-1.563282394E1,-6.250184250E1,4.282477951E1
1.003016276E2,-3.652845383E0,2.146348763E1,-1.722575951E1
1.003516276E2,-1.048903751E1,3.977859020E-2,-2.967415094E0
1.004116275E2,-1.484492970E1,1.230182743E1,-9.733171463E0
1.004616276E2,-9.965635300E0,1.203126526E1,-6.718020439E0
1.005216275E2,-7.354740143E0,1.061210728E1,-3.297380924E0
1.005816275E2,-1.606369019E0,8.840210915E0,-8.152217865E-1
1.006416275E2,5.447187424E-1,5.147534370E0,-3.697494268E0
1.006916276E2,2.879141331E0,2.684768915E0,-3.493162870E0
1.007516276E2,8.003812790E0,1.975709438E0,-5.855286598E0
1.008016276E2,2.257557631E0,2.879933357E0,-1.018209457E0
1.008616276E2,3.793531418E0,4.555533409E0,1.515654564E0
1.009216276E2,4.268603802E0,8.669795036E0,1.854720116E0
1.009816275E2,1.163076019E1,1.641230202E1,-7.294284344E0
1.010416275E2,5.569843292E0,5.679413795E0,-9.723858833E-1
1.010916276E2,-2.185318756E1,-1.100765800E1,2.244471550E0
1.011516276E2,-5.176742077E0,-3.952724838E1,-3.235161304E0
1.012016276E2,1.760624409E0,-2.536708641E1,-4.753580093E0
1.012516276E2,4.867540359E0,-9.881344795E0,-5.904444695E0
1.013116276E2,5.327976704E0,-5.705347538E0,-4.453343868E0
1.013616276E2,5.224766731E0,3.123188019E-1,-2.902700424E0
1.014216276E2,3.998800755E0,-4.777736664E0,7.872037888E-1
1.014816276E2,4.656873226E0,-4.953945160E0,4.998370171E0
1.015316276E2,2.556433439E0,-4.326310635E0,4.758893967E0
1.015916276E2,-2.452558517E0,-4.491550922E0,4.652363300E0
1.016516275E2,-5.226249218E0,3.076171875E-2,3.357593298E0
1.017116275E2,-6.544059753E0,1.954390049E0,3.246051311E0
1.017616275E2,-5.476324558E0,3.996714830E0,1.393075585E0
1.018216275E2,-4.167196274E0,3.380561113E0,1.539550543E0
1.018816275E2,-2.930531502E0,2.523595333E0,2.385787964E-1
1.019416276E2,-5.096791267E0,2.226810455E-1,-1.737604141E-1
1.020016276E2,-3.372024536E0,4.414010048E-1,-1.394356847E0
1.020616276E2,-3.063216209E0,-2.007184029E-1,-5.928254128E-1
1.021216275E2,-3.830642700E0,2.265786648E0,1.182456017E-1
1.021716275E2,-2.546405792E0,3.171665907E0,-1.039795876E0
1.022316275E2,-3.344454765E0,2.386658430E0,-1.978645086E0
1.022916275E2,1.237087727E0,3.109497309E0,-1.288943768E0
1.023516275E2,4.338994026E0,6.510872841E-1,-4.476239681E0
1.024116275E2,4.806447029E0,-5.259090424E0,-3.833882093E0
1.024716275E2,7.759279728E0,-7.669247627E0,-6.378831863E0
1.025216275E2,8.913128853E0,-1.484535789E1,-1.353816795E1
1.025816275E2,3.684121609E0,-1.797344398E1,-1.053430557E1
1.026416275E2,-2.564582825E-1,-1.207262611E1,1.020083904E1
1.027016275E2,-2.579332352E0,-9.329170227E0,9.393888474E0
1.027616275E2,-1.697809029E1,-6.070456982E0,5.033565998E0
1.028216275E2,-1.264501667E1,-5.803703785E0,8.523625374E0
1.028716275E2,-1.264011478E1,-2.670739651E0,6.194773674E0
1.029316275E2,-1.035108280E1,-1.177542686E0,6.852003098E0
1.029816275E2,-6.039521217E0,2.605766058E-1,6.689250946E0
1.030416275E2,-1.319161415E0,-5.253800154E-1,3.246971846E0
1.031016275E2,3.720335484E0,7.625138760E-2,-8.895081282E-1
1.031616275E2,3.446552277E0,1.864403486E-3,-9.022808075E-1
1.032116275E2,-7.496681213E-1,-6.138811111E-1,-9.239163399E-1
1.032716275E2,1.736841202E0,-2.641046047E-2,4.280166626E-1
1.033216275E2,9.986133575E-1,1.287138581E0,1.938128471E0
1.033816275E2,6.815066814E0,7.141031265E0,1.026450157E0
1.034416275E2,1.922073936E1,9.298664093E0,-2.174888134E0
1.035016275E2,1.347794628E1,1.215948343E0,-2.656316757E-1
1.035516275E2,-2.386939240E1,-1.293337631E1,2.080220604E1
1.036116275E2,-2.467006922E0,-1.236153316E1,-9.923169136E0
1.036716275E2,-1.772545218E0,-1.026614189E1,-2.001696587E0
1.037316274E2,1.319475770E0,-1.631513596E0,-7.229321480E0
1.037816275E2,8.860782385E-1,2.066510439E0,-8.625231743E0
1.038416274E2,7.729439735E-1,4.119914472E-1,-4.544041157E0
1.038916274E2,1.434663296E0,1.495929062E-1,-3.154999733E0
1.039516274E2,-1.343272209E0,-1.388203144E0,-4.115586281E-1
1.040116275E2,-6.791207314E0,-3.215353489E-1,3.414366007E0
1.040616275E2,-8.846417427E0,-8.602681160E-1,5.408385992E-1
1.041216275E2,-8.710276604E0,4.159843922E0,2.139448643E0
1.041816275E2,-8.606313705E0,7.612579823E0,2.993394613E0
1.042416275E2,-9.264814377E0,8.649479866E0,1.704420447E-1
1.043016274E2,-5.610933304E0,9.191647530E0,2.720847130E0
1.043616274E2,-4.979508400E0,4.347507477E0,2.784324646E0
1.044216274E2,-6.686578274E0,2.536373377E0,5.572430491E-1
1.044716274E2,-4.226332664E0,1.649689436E0,1.330684423E0
1.045216274E2,-1.213981628E0,2.169585228E0,3.485324979E-1
1.045716274E2,-7.730350494E-1,1.386497855E0,2.417810678E0
1.046316274E2,-1.288454056E0,2.903525114E0,5.268084526E0
1.046916274E2,-6.011599541E0,2.355777502E0,2.297629356E0
1.047516274E2,3.396129608E-2,9.374271631E-1,-1.682660580E0
1.048016275E2,6.595629215E0,5.482926369E-1,-2.413009882E0
1.048516751E2,1.302158165E1,2.651515007E0,-2.403599024E0
1.049016751E2,1.208477592E1,-1.447038770E0,-2.308763981E0
1.049616751E2,6.929653168E0,-5.777510643E0,4.854381680E-1
1.050116752E2,4.183602333E0,-1.170734787E1,-1.165183306E0
1.050716752E2,1.147872448E0,-1.597677517E1,-7.441214561E0
1.051316752E2,5.671326637E0,3.785485744E0,-1.342147446E1
1.051916751E2,-2.789758301E1,-4.863652229E0,-1.139010048E1
1.052516751E2,-8.821452141E0,1.843812466E0,-2.173011065E0
1.053016751E2,-1.858269501E1,2.210824966E0,-4.583597183E0
1.053616751E2,-1.089418030E1,5.135597706E0,-3.064319134E0
1.054216751E2,-8.843669891E0,6.640855789E0,-1.135792494E0
1.054816751E2,-5.232262135E0,6.890660286E0,2.234559059E-1
1.055416751E2,-3.757960320E0,5.617205620E0,1.873344183E0
1.056016751E2,-5.396585464E-1,2.308676004E0,3.245069265E0
1.056616751E2,4.282017231E0,1.057967544E-1,3.826796710E-1
1.057116751E2,2.242900372E0,2.755643129E-1,-3.768380165E0
1.057716751E2,9.000253677E0,-1.768288612E-1,-2.115448713E0
1.058216751E2,5.294676781E0,1.873488426E0,-4.176650524E0
1.058816751E2,2.031140566E0,2.682749271E0,-8.800520897E-1
1.059416751E2,7.512392998E0,6.729054451E-2,5.496883392E0
1.060016751E2,3.389302254E0,5.017554283E0,4.542476654E0
1.060516751E2,1.003827953E1,8.505910873E0,5.448878288E0
1.061116751E2,1.826918030E1,1.486340618E1,9.884004593E-1
1.061616751E2,1.279982853E1,-3.550895452E0,5.030784607E0
1.062216751E2,-1.501487350E1,-1.547588921E1,-1.447945690E1
1.062716751E2,-3.028264046E0,-3.043725777E1,6.633469582E0
1.063316751E2,-5.868152380E-1,-7.376647472E0,-6.988137245E0
1.063916751E2,4.019676208E0,-4.959366322E0,-6.639370918E0
1.064516750E2,5.362142563E0,1.855222464E0,-7.230219841E0
1.065116751E2,4.490331650E0,-1.807641268E0,-1.616688251E0
1.065716751E2,7.008535385E0,-1.568914056E0,5.943813324E-1
1.066216752E2,4.816329956E0,-1.707421303E0,2.283540726E0
1.066816752E2,-1.419415474E-1,-3.718786716E0,2.020884037E0
1.067316752E2,-3.318527222E0,-2.264260769E0,3.664844513E0
1.067916752E2,-4.920842171E0,3.562374115E-1,1.342947721E0
1.068516752E2,-6.445000172E0,2.284374237E0,5.595469475E-1
1.069116751E2,-9.588296890E0,4.179720879E0,8.493542671E-2
1.069716751E2,-7.947391510E0,5.845270157E0,-2.255266905E-1
1.070316750E2,-5.818732738E0,4.421383858E0,-5.930470228E-1
1.070816751E2,-4.073732853E0,2.207287788E0,2.618253231E-2
1.071416751E2,-2.117990971E0,1.397008896E-1,-1.328374147E-1
1.072016751E2,-1.562647820E0,-1.701587200E0,-8.441592455E-1
1.072616751E2,-1.446825981E0,-3.197209597E0,-1.336614490E0
1.073116751E2,-7.167549133E-1,-2.886725903E0,-1.156549454E0
1.073716751E2,1.167358398E0,-1.691316843E0,-4.233253002E-1
1.074216752E2,3.219377518E0,7.363152504E-1,-2.249658108E-2
1.074816751E2,4.161263466E0,2.288716316E0,1.563798428E0
1.075416751E2,4.196424484E0,3.758972168E0,1.266479254E0
1.076016750E2,1.213398933E0,3.120913029E0,2.388878822E0
1.076616750E2,-1.686834335E0,1.396718264E0,1.279387593E0
1.077216750E2,-1.881505013E0,1.147414684E0,4.323889017E-1
1.077716751E2,-5.898447037E-1,2.323203802E0,1.099184513E0
1.078316751E2,-1.090149879E0,3.703301907E0,5.091860294E-1
1.078916751E2,-6.094781876E0,2.636106014E0,-9.068353176E-1
1.079516750E2,-3.758156776E0,1.883369684E0,5.217280388E-1
1.080116750E2,-2.576005936E0,6.747362614E-1,-1.125164032E-1
1.080716750E2,-1.713130951E0,-9.233231544E-1,-2.493849754E0
1.081316750E2,8.964595795E-1,-1.059148312E0,-2.399097443E0
1.081816750E2,3.007413864E0,-5.339202881E-1,-2.245886087E0
1.082316750E2,2.658182621E0,-1.382810116E0,-2.012125492E0
1.082916750E2,-2.485990524E0,-4.902467728E0,-3.235748768E0
1.083416751E2,-2.341421127E0,-5.743700027E0,-2.541409492E0
1.084016751E2,-1.424288273E0,-6.711317539E0,-2.910441399E0
1.084616751E2,3.479657173E-1,-6.189203262E0,-4.204752922E0
1.085216751E2,-2.417421913E1,-6.614967346E0,1.350386429E1
1.085716751E2,2.439935493E1,-2.247466564E0,-1.359093380E1
1.086316751E2,1.404465294E1,-1.880332470E0,-6.094142914E0
1.086916751E2,-6.198579073E-1,-8.665182114E0,-6.849923134E0
1.087416751E2,5.412102699E0,-4.021488667E0,-2.281435251E0
1.088016750E2,7.004642487E0,-4.521574974E0,-1.180939674E-1
1.088616750E2,2.287670851E0,-2.359552860E0,-2.114370823E0
1.089216750E2,4.945392609E-1,-1.296133041E0,2.020865917E0
1.089816750E2,3.135321617E0,1.988271236E0,4.095018387E0
1.090316750E2,3.558317423E0,1.798112869E0,6.113786697E-1
1.090816750E2,2.881806135E0,1.264893532E0,3.743743896E-1
1.091416750E2,3.523834229E0,1.952023745E0,9.111852646E-1
1.092016750E2,7.428976059E0,4.364444733E0,1.949306488E0
1.092516751E2,1.743068504E1,7.457506657E0,1.096091270E0
1.093116750E2,2.510315704E1,1.386785793E1,-1.996743679E0
1.093716750E2,-4.042539120E0,-8.908781052E0,8.490550995E0
1.094316750E2,-1.587505245E1,-3.356253052E1,-3.514077663E0
1.094916750E2,-9.109923363E0,-1.500968933E1,-2.303341866E0
1.095516750E2,-4.424419403E-1,-7.492060661E0,-5.853179932E0
1.096116750E2,1.272023559E0,-4.342161655E0,-5.668091297E0
1.096716750E2,1.877485871E0,-2.249040127E0,-4.299687386E0
1.097316750E2,2.188130856E0,-2.381303310E0,-1.253502369E0
1.097816750E2,1.975678205E0,-1.854190111E0,-1.017580032E0
1.098316752E2,2.040662527E0,-1.822445512E0,-5.470066071E-1
1.098916752E2,-4.372062683E-1,-3.215578079E0,1.008165359E0
1.099516752E2,-4.114315987E0,-5.128597260E0,4.286193848E-1
1.100116752E2,-7.370751381E0,-2.371883154E0,2.400674820E-1
1.100716752E2,-6.645069122E0,2.265884638E0,6.761620045E-1
1.101316750E2,-5.946453094E0,4.164871216E0,1.719017029E-1
1.101916750E2,-5.163523197E0,4.202500343E0,5.856382847E-1
1.102516749E2,-3.211903572E0,2.424801350E0,-2.221975327E-1
1.103016750E2,-4.360346794E0,1.211552620E-1,-1.037758589E0
1.103616750E2,-2.543776989E0,-7.007741928E-2,-7.184844017E-1
1.104216750E2,-1.715659142E0,-1.987080574E-1,-1.007858753E0
1.104716750E2,-1.690927505E0,-1.090151310E0,-8.540446758E-1
1.105316750E2,-1.831323624E0,-2.022631645E0,-6.884819269E-1
1.105916750E2,-4.573841095E-1,-2.261789322E0,-3.334382772E-1
1.106516750E2,4.007835388E-1,-2.199947357E0,1.089344025E-1
1.107016750E2,1.237497330E0,-1.763834357E0,-2.998843193E-1
1.107616750E2,1.025965691E0,-3.383183777E-1,7.442581654E-1
1.108216750E2,-7.908029556E-1,9.356615543E-1,1.426668644E0
1.108816750E2,-1.164169312E-1,1.645644188E0,1.075798512E0
1.109416749E2,2.115706921E0,9.748685360E-1,-8.276665211E-1
1.110016750E2,2.614200115E0,1.460409403E0,-1.342811346E0
1.110516750E2,4.884216309E0,2.139662266E0,-2.519693851E0
1.111116750E2,7.977114677E0,6.066989899E-1,-2.887523174E0
1.111616750E2,8.132526398E0,-8.767800331E0,5.184435844E-1
1.112216750E2,3.505260944E0,-2.184105873E1,-8.040082932E0
1.112716750E2,-9.551583290E0,-1.520908546E1,-3.184326744E1
1.113316750E2,3.746576786E0,4.381064606E1,1.676349068E1
1.113916750E2,-9.521828651E0,1.168233490E1,2.168530226E0
1.114516749E2,-1.153754520E1,9.300699234E0,-4.558308125E-1
1.115116750E2,-3.554514885E0,9.369656563E0,1.392617226E-1
1.115616750E2,-3.477123260E0,6.827218533E0,3.971362829E0
1.116216750E2,-2.206363678E-1,7.208858013E0,-9.051632881E-1
1.116816749E2,4.444017887E0,4.656782627E0,-2.675536871E0
1.117316750E2,5.868494511E0,3.263787508E0,-2.519370317E0
1.117916749E2,3.582087994E0,3.641468525E0,-4.454304695E0
1.118516749E2,5.780102253E0,3.922636032E0,-3.548707724E0
1.119016749E2,1.115041447E1,7.479635715E0,-1.153042221E1
1.119516750E2,1.650224113E1,5.353666306E0,-2.681756735E0
1.120116750E2,-6.294195175E0,-6.502072334E0,-2.296585560E0
1.120716750E2,-9.525018692E0,-2.381666946E1,-1.562573719E1
1.121216844E2,3.690137625E0,-2.574946594E1,1.087295151E1
1.121716844E2,-1.737992764E0,-1.377374268E1,-3.265890121E0
1.122316844E2,4.689023972E0,-1.656783700E0,-4.467031956E0
1.122916844E2,7.198867798E-1,-4.765463829E0,-2.457030773E0
1.123516844E2,1.356614590E0,-5.114816189E0,-6.394743919E-1
1.124016845E2,1.328470945E0,-6.830913544E0,-3.151316643E-1
1.124616845E2,4.229121208E-1,-4.430375099E0,1.831430435E0
1.125116845E2,-2.535438538E-2,-1.561760902E0,2.429041862E-1
1.125716845E2,-3.390235424E0,-2.855319977E-1,-6.928720474E-1
1.126316845E2,-4.426575661E0,2.567615747E0,-1.549516439E0
1.126916844E2,-5.089853287E0,3.879755259E0,1.483927488E0
1.127516844E2,-2.498733044E0,4.303092003E0,-1.225416183E0
1.128116844E2,-3.044177055E0,3.100716114E0,-2.235037804E0
1.128616844E2,-2.045981407E0,1.225318432E0,-2.560274601E0
1.129216844E2,-2.770818710E0,-3.251867294E-1,-2.740328312E0
1.129716845E2,-2.670604706E0,-1.905272007E0,-2.821010113E0
1.130316844E2,2.942552567E-1,-1.659691811E0,-2.298299313E0
1.130916844E2,1.828078747E0,-1.401001692E0,-1.477714300E0
1.131516844E2,2.130856991E0,-1.334843040E0,-1.079920888E0
1.132016845E2,2.170982838E0,-8.081477284E-1,-3.154441714E-1
1.132616844E2,1.875237465E0,-5.792145729E-1,3.024821877E-1
1.133216844E2,1.984327793E0,-2.119695097E-1,4.754702449E-1
1.133816844E2,7.796278000E-1,-6.774155498E-1,6.767087579E-1
1.134416843E2,8.173017502E-1,-3.385781646E-1,1.202469468E0
1.134916844E2,3.537435532E-1,-8.208355308E-1,9.912848473E-2
1.135416844E2,1.472753525E0,-4.895654917E-1,-1.378578246E-1
1.136016844E2,1.320728302E0,1.782494783E-1,2.846065164E-1
1.136516844E2,6.135892868E-1,1.047379971E0,4.836218953E-1
1.137116844E2,-1.510606766E0,2.830215693E0,1.054311752E0
1.137716844E2,-4.472219467E0,3.410339355E0,-1.946395785E-1
1.138316844E2,-5.761993408E0,2.400591373E0,-7.849138975E-1
1.138916844E2,4.523312092E0,2.302701712E0,2.744980812E0
1.139416844E2,3.384847641E-1,-1.001953793E1,5.690067768E0
1.140016844E2,-3.015861511E-1,-7.638275623E0,-1.213154435E0
1.140516845E2,-8.489639282E0,-1.448670673E1,-5.889107704E0
1.141116844E2,-1.967104912E0,-7.528808594E0,7.982598305E0
1.141716844E2,-6.396918297E0,1.554625416E1,-1.938248062E1
1.142316844E2,-1.789769173E0,9.543592930E-1,-5.867784023E0
1.142916843E2,6.565296173E0,-1.149783134E0,-5.378644943E0
1.143516843E2,6.575725079E0,-1.046175957E0,-5.820361376E-1
1.144116843E2,4.964443207E0,6.790075302E-1,-4.493059158E0
1.144616844E2,6.298631668E0,-4.521408081E-1,-2.493979454E0
1.145216844E2,7.035470009E0,1.669182777E0,-1.305734396E0
1.145716844E2,5.903152466E0,2.067675591E0,-1.499041080E0
1.146316844E2,9.807618141E0,2.335295677E0,-5.688345909E0
1.146916843E2,9.423347473E0,5.850893021E0,-2.043042374E1
1.147516844E2,-7.488976717E-1,-9.214205742E0,-8.331675529E-1
1.148016844E2,-5.651267529E0,-1.526004982E1,-1.602698517E1
1.148616844E2,-7.325460911E0,-4.448308563E1,-2.256489038E0
1.149116844E2,-3.597272873E0,-2.394466782E1,7.998072147E0
1.149716844E2,2.169537544E0,-7.653531551E0,1.889039516E0
1.150216845E2,-1.295922279E0,-6.740008354E0,6.356139183E-1
1.150816844E2,-7.155704498E-1,-7.295497894E0,6.708049774E-1
1.151416844E2,7.656979561E-1,-7.235531807E0,-9.312391281E-2
1.152016843E2,8.193688393E-1,-5.481649399E0,4.388079643E-1
1.152616843E2,1.668862820E0,-2.489164829E0,1.514716148E0
1.153216843E2,4.585838318E-2,-1.216890335E0,2.734112740E-1
1.153716844E2,-3.025710106E0,2.897511959E0,6.653518677E0
1.154316844E2,-4.695638657E0,-1.722809315E0,-4.795236111E0
1.154816844E2,-1.725161552E0,-8.380923271E-1,-2.034312010E0
1.155416844E2,-9.166035652E-1,-1.417806149E0,-8.676013947E-1
1.156016844E2,6.426477432E-1,-9.802284241E-1,-2.397180080E0
1.156616844E2,-4.262752533E-1,-1.066602707E0,-3.440889359E0
1.157216843E2,5.196437836E-1,-4.720427990E-1,-2.770292044E0
1.157816843E2,1.365546227E0,6.349778175E-2,-1.945524693E0
1.158316843E2,1.000102997E0,2.028663158E-1,-1.348894835E0
1.158916844E2,3.147401810E-1,-5.649983883E-1,-7.101449966E-1
1.159516843E2,-1.323985100E0,-8.503921032E-1,-8.922256231E-1
1.160016844E2,-9.376287460E-1,1.383286119E-1,-1.739944220E-1
1.160516844E2,1.256108284E0,1.469970942E0,1.451806545E0
1.161116844E2,1.352703094E0,1.382929206E0,9.804347157E-1
1.161616845E2,-4.469423294E-1,1.383826613E0,1.444013119E-1
1.162216844E2,-3.533907890E0,2.680202484E0,9.102014899E-1
1.162716844E2,-6.531552315E0,3.221363544E0,3.198410034E0
1.163316844E2,-6.460349083E0,1.795360565E0,7.527037859E-1
1.163916843E2,9.495396614E-1,-2.268581390E-1,9.673106670E-2
1.164416843E2,3.764294147E0,-4.888839722E-1,-9.973564744E-1
1.165016843E2,4.618148804E0,-1.244112015E0,-3.818698406E0
1.165516844E2,5.563354969E0,-2.024632931E0,-2.337131500E0
1.166016844E2,8.316884995E0,-5.236589432E0,1.001199603E0
1.166616843E2,2.761264324E0,-1.863191223E1,6.454112530E-1
1.167216843E2,-3.224514008E0,-2.152939606E1,-1.374062347E1
1.167816843E2,7.126490593E0,3.471204758E0,-2.081089592E1
1.168416843E2,-2.114676666E1,-4.665910721E0,-3.840561867E0
1.169016843E2,-3.691777229E0,1.352463436E1,-4.554368973E0
1.169516843E2,-1.077863121E1,8.043260574E0,7.438566685E-1
1.170116843E2,-7.522932053E0,7.247773170E0,-1.093104482E-1
1.170616843E2,-4.765375137E0,5.878530502E0,2.058149815E0
1.171216843E2,4.542188644E-1,6.044051170E0,1.499535918E0
1.171716843E2,3.610249519E0,3.797850847E0,-2.211519480E0
1.172216843E2,6.549757957E0,1.052989006E0,-1.887474060E-1
1.172816843E2,2.910534620E0,7.636225224E-1,-2.910730839E0
1.173316844E2,3.814425945E0,-7.945921421E-1,4.449663162E-1
1.173916843E2,1.863642097E0,-7.170798779E-1,4.266681671E-1
