"Time (s)","Acceleration x (m/s^2)","Acceleration y (m/s^2)","Acceleration z (m/s^2)"
5.199585300E-2,-2.729473412E-1,2.039922237E0,1.270162773E1
1.039889590E-1,8.284190893E-1,2.461314440E0,1.099211597E1
1.559823170E-1,-2.051893473E0,1.620923996E0,1.129618835E1
2.079756100E-1,-2.600182533E0,4.118152559E-1,9.565128326E0
2.599700310E-1,-2.853975534E0,-2.679193497E0,1.260825157E1
3.119633890E-1,-1.154279900E1,-5.643305779E0,5.197970390E0
3.639568140E-1,-6.838048935E0,5.351204395E0,3.890696526E0
4.159501070E-1,7.972934842E-1,2.427794695E0,6.249057055E-1
4.679433670E-1,7.599428177E0,2.037527800E0,-1.147815323E1
5.199366260E-1,-1.606558442E0,-5.650488734E-1,6.433416367E0
5.719301840E-1,-3.869148016E0,-1.611346960E0,9.557945251E0
6.239235100E-1,-9.220352173E0,-3.055573463E1,1.065691757E1
6.759176270E-1,-5.640911579E0,-1.995388603E1,1.993473244E1
7.279111540E-1,-3.141288519E0,-6.754249096E0,1.250290298E1
7.799043130E-1,-6.996070862E0,-5.205153465E0,1.316372299E1
8.318979050E-1,-8.322499275E0,-3.672817469E0,1.222277260E1
8.838942280E-1,-9.996097565E0,-5.001639843E0,1.063057995E1
9.358885220E-1,-9.067118645E0,-1.814860344E0,8.219545364E0
9.878817480E-1,-5.209941864E0,8.834874034E-1,7.812518597E0
1.039875075E0,-3.548315287E0,-6.656084061E-1,1.659232497E0
1.091868367E0,-6.014418125E0,-2.171607256E0,1.843591630E-1
1.143861859E0,-4.383917332E0,-9.359220505E0,5.016005516E0
1.195855251E0,-9.021627426E0,-5.425426483E0,-1.160744381E1
1.247848444E0,4.292934895E0,-4.944177628E0,-1.591474438E1
1.299842629E0,1.357553840E0,-3.062277555E0,3.033546209E0
1.351836087E0,-1.345821857E1,-1.810550690E1,4.113364220E0
1.403829613E0,5.281770229E0,-2.130904579E1,2.253012657E1
1.455822706E0,-2.123721838E0,-1.269683933E1,1.825873947E1
1.507816265E0,-7.534782887E0,-9.816526413E0,1.044382668E1
1.559809391E0,-8.243488312E0,-9.407105446E0,1.213179016E1
1.611802716E0,-9.284997940E0,-8.387145042E0,9.443019867E0
1.663796671E0,-8.461367607E0,1.462901950E0,1.543349552E1
1.715790460E0,-1.328104210E1,-1.302485466E0,3.356773376E0
1.767783820E0,-1.026665020E1,-1.980065227E0,3.902668059E-1
1.819777246E0,-3.577046633E0,7.110996246E-1,-3.430995703E0
1.871770471E0,-5.219519138E0,-2.609759569E-1,1.460507631E0
1.923767692E0,-2.130904645E-1,1.465296149E0,-6.778192043E0
1.975766052E0,1.080536175E1,4.910657406E0,-9.117398262E0
2.027761576E0,-3.732674360E0,2.691164970E0,4.216318130E0
2.079754870E0,-1.436564885E-2,2.382303476E0,1.965699673E0
2.131748162E0,4.726298332E0,-8.379961848E-1,1.160505009E1
2.183741521E0,-8.947404861E0,-2.454371071E1,1.490914917E1
2.235734746E0,-1.294105530E1,-1.727469254E1,1.811508369E1
2.287728072E0,-1.287640953E1,-8.624177933E0,7.920260906E0
2.339722192E0,-1.212700176E1,-5.087833881E0,9.007262230E0
2.391715814E0,-7.963357925E0,-3.823656797E0,8.188420296E0
2.443709073E0,-7.302538395E0,-1.549095750E0,7.106207848E0
2.495702533E0,-1.018045616E1,9.601042271E-1,5.166844845E0
2.547695792E0,-1.171758080E1,-3.574652195E0,2.106961906E-1
2.599689151E0,-4.721509933E0,-9.672870040E-1,2.873129770E-2
2.651682478E0,-3.232270956E0,-5.549929142E0,-9.098244458E-2
2.703675770E0,-6.823683381E-1,-6.170046329E0,5.839636326E0
2.755669990E0,-2.078230619E0,-8.502069473E0,-1.422917557E1
2.807663548E0,6.524398804E0,-8.145322800E0,-1.222277260E1
2.859656741E0,-4.379128456E0,-1.130097675E1,7.367183685E0
2.911650266E0,-4.582642078E0,-1.459310532E1,9.364008904E0
2.963643559E0,-5.236279011E0,-2.447427750E1,2.959563065E1
3.015640513E0,-3.701548815E0,-1.201447105E1,2.309517479E1
3.066531475E0,-8.751074791E0,-5.815693378E0,9.203592300E0
3.118524833E0,-6.507638931E0,-6.378347874E0,8.937828064E0
3.170518259E0,-4.058295727E0,-2.243435383E0,9.265843391E0
3.222511551E0,-2.834821463E0,-3.519583941E-1,6.794951916E0
3.274506274E0,-6.153286457E0,-2.825244188E0,4.467716694E0
3.326502331E0,-6.907482624E0,-4.288146019E0,-3.735068798E0
3.378495657E0,-2.825244367E-1,-3.105374336E0,-2.334417820E0
3.430488983E0,-4.288146019E0,-5.269798756E0,-1.527547359E1
3.482482243E0,8.978530884E0,3.596200705E0,-4.723904133E0
3.534475569E0,-2.367937803E0,-1.929785490E0,-9.098244458E-2
3.586468962E0,-2.686376333E0,-1.730342484E1,1.311583710E1
3.638462585E0,-5.205153465E0,-2.530987930E1,2.887016487E1
3.690456704E0,-7.328875065E0,-1.108309841E1,1.800255203E1
3.742449930E0,-1.274233055E1,-3.359167576E0,1.152125072E1
3.794443189E0,-1.130097675E1,-6.040755272E0,1.147575951E1
3.846436715E0,-8.676852226E0,-6.454965115E0,8.964164734E0
3.898429908E0,-4.891503334E0,-1.113337755E0,9.316123009E0
3.950423267E0,-7.099024773E0,-2.753416061E0,4.333637238E0
4.002416626E0,-6.174834728E0,-2.317657948E0,3.019180536E0
4.054410050E0,-6.589044094E0,-3.038334846E0,-4.046324492E-1
4.106404302E0,-9.929058075E0,-1.865140080E0,-7.858009815E0
4.158397629E0,8.691217422E0,1.125309169E-1,1.508393139E-1
4.210390988E0,2.458920240E0,2.712713242E0,-1.601530457E1
4.262384314E0,2.853975534E0,3.265790939E0,-1.211503029E0
4.314379168E0,-2.767781734E0,-3.193962574E0,5.075862408E0
4.366378089E0,2.214704275E0,-3.266987991E1,2.204408836E1
4.418374279E0,-2.406246185E0,-2.217816734E1,2.326277351E1
4.470367572E0,-1.266331959E1,-9.986519814E0,8.336864471E0
4.522361031E0,-1.308471203E1,-4.106181145E0,8.174054146E0
4.574354290E0,-1.023552513E1,-7.201978683E0,1.019961071E1
4.626347617E0,-8.394327164E0,-4.206740856E0,4.575459003E0
4.678341009E0,-6.299336910E0,-1.359948039E0,2.880312681E0
4.730334235E0,-3.162837029E0,-2.513988614E-1,3.069460392E0
4.782328025E0,-2.130904675E0,-5.147690773E-1,3.689577579E0
4.834322079E0,-8.233911514E0,-1.848380208E0,1.509590244E1
4.886315271E0,-5.839636326E0,-1.652049571E-1,-1.167448425E1
4.938308664E0,4.182797909E0,-1.383890867E0,-7.613793850E0
4.990301990E0,1.314456820E0,2.200338602E0,-1.118126392E0
5.042295316E0,-2.502017260E0,-6.033572555E-1,-2.736656189E0
5.094288643E0,4.455745220E0,-1.854844666E1,1.675034714E1
5.146282068E0,-5.068679810E0,-2.354290390E1,2.922691345E1
5.198275756E0,-8.806142807E0,-9.651321411E0,1.601769829E1
5.250269778E0,-1.198095131E1,-6.122160912E0,1.082930470E1
5.302263004E0,-9.593858719E0,-5.772596359E0,9.004867554E0
5.354256330E0,-6.296942711E0,-5.727105141E0,5.782173634E0
5.406250487E0,-5.600208759E0,-4.012804508E0,4.790944099E0
5.458246776E0,-2.427794695E0,8.691217303E-1,6.727912426E0
5.510240403E0,-3.943370581E0,7.470137477E-1,7.034379482E0
5.562233696E0,-5.341627121E0,7.278595567E-1,3.663240433E0
5.614226989E0,-5.248250484E0,2.133298874E0,5.911464691E0
5.666220348E0,2.035133600E0,-1.443747759E0,-8.107014656E0
5.718213708E0,-4.525179267E-1,-3.423812866E0,-5.171633363E-1
5.770207034E0,2.897072554E0,2.554691315E0,-9.500482559E0
5.822201020E0,-4.695172787E0,-4.264203548E0,1.123633194E1
5.874194777E0,-2.762993097E0,-2.352135658E1,1.036002731E1
5.926188202E0,-2.439765930E0,-2.186691093E1,2.387331390E1
5.978181395E0,-8.564320564E0,-1.157631874E1,1.167687798E1
6.030174787E0,-1.030016994E1,-6.553130150E0,1.228502369E1
6.082168113E0,-9.433443069E0,-7.987300873E0,1.126745701E1
6.134161404E0,-9.550762177E0,-8.765439987E0,7.618582249E0
6.186154797E0,-4.290540695E0,-5.312895775E0,6.802134514E0
6.238148684E0,-2.233858347E0,-4.189980924E-1,2.798907280E0
6.290142407E0,-5.619362831E0,1.869928598E0,4.355185986E0
6.342135766E0,-2.861158371E0,1.910631299E0,-5.387118340E0
6.394129092E0,-4.692778587E-1,3.062277555E0,-2.949746609E0
6.446123414E0,6.241874218E0,3.591412306E-2,-8.130957603E0
6.498122068E0,4.877137661E0,3.433390141E0,-8.183630943E0
6.550119161E0,-5.219519138E-1,-1.132491946E0,-3.960130453E0
6.602113454E0,-6.653689861E0,-1.143984509E1,1.923560333E1
6.654106780E0,-3.332830429E0,-2.501298904E1,2.665067291E1
6.706100106E0,-1.052044392E1,-1.896505165E1,1.713103676E1
6.758093532E0,-1.323076248E1,-6.548341751E0,7.465348721E0
6.810086691E0,-1.134646797E1,-4.580247879E0,8.286584854E0
6.862080415E0,-9.684841156E0,-6.648900986E0,9.217958450E0
6.914074501E0,-8.937828064E0,-4.745452881E0,6.756643295E0
6.966067760E0,-6.572284222E0,-2.466103077E0,4.326454639E0
7.018061285E0,-6.567495823E0,4.189980924E-1,2.578634024E0
7.070054345E0,-4.295329094E0,-4.644893110E-1,-2.801301479E-1
7.122047804E0,-1.429382086E0,6.320885420E-1,3.184385598E-1
7.174041197E0,-1.352765322E0,9.313728809E-1,-2.020767927E0
7.226034656E0,3.677606106E0,-1.089395046E0,-2.274561167E0
7.278028411E0,1.240234375E0,1.082212210E0,-7.204372883E0
7.330022333E0,-2.616942406E0,-2.705530524E-1,6.091034889E0
7.382015725E0,-2.643279314E0,-6.256239891E0,1.516294193E1
7.434008784E0,-5.027976990E0,-1.803607178E1,2.631068611E1
7.486002110E0,-1.158589554E1,-7.977723598E0,1.953967667E1
7.537996334E0,-1.308231735E1,-3.735068798E0,1.133449650E1
7.589994922E0,-1.003201103E1,-4.829252243E0,1.085803604E1
7.641991812E0,-7.704776287E0,-2.985660791E0,6.258634567E0
7.693985673E0,-5.612180233E0,-1.338399649E0,4.450956821E0
7.745978765E0,-3.782954216E0,-2.513988614E-1,5.674431324E0
7.797972258E0,-5.389512539E0,2.439765930E0,4.920234680E0
7.849965551E0,-6.814105988E0,1.070240855E0,2.068653345E0
7.901958777E0,-6.203566074E0,2.729473412E-1,3.792531252E0
7.953952104E0,-5.178816319E0,-2.372726440E0,4.309694767E-1
8.005946224E0,3.251425266E0,-4.506025314E0,-9.203592300E0
8.057939913E0,3.773377180E0,-5.109382629E0,1.561067224E0
8.109933272E0,5.506832004E-1,7.422251999E-2,-2.317657948E0
8.161926465E0,3.071854591E0,-1.028819847E1,1.009665680E1
8.213919758E0,-4.422225475E0,-3.171216965E1,3.188934708E1
8.265913351E0,-9.641744614E0,-1.579263687E1,1.718849945E1
8.317906576E0,-1.041749001E1,-3.852388144E0,9.658504486E0
8.369899869E0,-9.591464996E0,-7.139727592E0,1.067128277E1
8.421893791E0,-7.884346962E0,-4.913052082E0,8.605023384E0
8.473887547E0,-7.063110828E0,-2.458920240E0,6.603409767E0
8.525880840E0,-4.012804508E0,-8.332076073E-1,7.824490070E0
8.577874232E0,-6.598621368E0,-1.029538140E-1,6.143709183E0
8.629868123E0,-6.177228928E0,1.795706153E-1,3.062277555E0
8.681864213E0,-4.472505569E0,4.620950520E-1,2.128510237E0
8.733858339E0,-2.681587696E0,-3.375927508E-1,-1.053480953E-1
8.785851864E0,1.216291547E0,-9.002473354E-1,-6.280182838E0
8.837844790E0,5.540351868E0,2.753416002E-1,-4.304905891E0
8.889838249E0,4.357580245E-1,2.181184292E0,-4.364762783E0
8.941831609E0,-4.225894928E0,-7.031985283E0,1.850295639E1
8.993824868E0,-5.236279011E0,-1.935771179E1,1.830183601E1
9.045819054E0,-1.172715759E1,-1.011102295E1,1.746144676E1
9.097812578E0,-1.083409309E1,-6.919454098E0,1.113577175E1
9.149805904E0,-8.865999222E0,-5.370358467E0,1.006313705E1
9.201799396E0,-9.129369736E0,-4.917840481E0,8.217150688E0
9.253792556E0,-7.862798691E0,-5.099805355E0,5.789356709E0
9.305785849E0,-5.473312378E0,-2.672010660E0,7.029590607E0
9.357779242E0,-6.598621368E0,-4.616161823E0,6.062304020E0
9.409772501E0,-3.091008663E0,-2.645673752E0,3.809291124E0
9.461766654E0,-7.357606411E0,-6.464542150E-1,4.862771988E0
9.513760378E0,7.388731956E0,3.234665155E0,-8.480521202E0
9.565700608E0,-1.668809533E0,6.727912426E-1,-4.788549542E-1
9.617694101E0,-1.321639657E0,-3.950553536E-1,9.785401344E0
9.669687592E0,-6.605803967E0,-2.305686712E0,6.533976078E0
9.721685846E0,-8.889942169E0,-1.107352066E1,1.683893394E1
9.773683367E0,-9.086273193E0,-7.180429935E0,1.597699547E1
9.825677361E0,-1.050368404E1,-7.664073467E0,1.228741837E1
9.877670754E0,-8.444606781E0,-5.497254848E0,1.020918751E1
9.929663947E0,-8.444606781E0,-4.041535854E0,8.008849144E0
9.981657272E0,-6.907482624E0,-2.784541607E0,5.822876453E0
1.003365063E1,-6.160469055E0,-6.296942830E-1,6.636929989E0
1.008564396E1,-3.919427872E0,4.771789551E0,5.928224564E0
1.013763732E1,-3.215511084E0,3.574652195E0,5.777385235E0
1.018963153E1,-8.140534401E0,-1.934574008E0,4.338426113E0
1.024162496E1,-8.892336845E0,-9.859623909E0,-3.778165579E0
1.029361828E1,6.232297421E0,-5.700768471E0,-7.783787251E0
1.034561168E1,3.701548815E0,1.874717116E0,-1.181574631E1
1.039760500E1,4.764606953E-1,-3.088614643E-1,1.726272106E0
1.044959833E1,-7.901106775E-2,-3.200905991E1,1.280458164E1
1.050159162E1,-4.125335693E0,-1.767214203E1,1.879505730E1
1.055358541E1,-7.242681503E0,-7.977723598E0,1.096338463E1
1.060557933E1,-8.296162605E0,-5.533169270E0,1.010144520E1
1.065757272E1,-1.112380123E1,-6.081458092E0,1.070959091E1
1.070956602E1,-1.011581135E1,-6.773403645E0,7.482108593E0
1.076155947E1,-7.228315830E0,-4.388705730E0,7.764633179E0
1.081355560E1,-4.642498970E0,-1.673598051E0,6.612987041E0
1.086555002E1,-8.288979530E0,-4.182797909E0,3.816473961E0
1.091754332E1,-3.313676357E0,-3.119740009E0,1.462901950E0
1.096953667E1,-1.292908430E0,-2.968900800E-1,-2.880312681E0
1.102153003E1,2.221887112E0,1.185166001E0,-1.208869362E1
1.107352336E1,9.251478195E0,4.479688168E0,-7.367183685E0
1.112551682E1,-4.376734257E0,-3.696760416E0,5.925830364E0
1.117751011E1,-4.604190350E0,-2.142875862E1,1.604882431E1
1.122950426E1,-2.305686712E0,-1.831859589E1,2.411274147E1
1.128149779E1,-4.652075768E0,-8.518829346E0,1.620445251E1
1.133349108E1,-8.933039665E0,-6.677632332E0,1.026425648E1
1.138548441E1,-8.566715240E0,-4.539545059E0,9.107821465E0
1.143747786E1,-9.526819229E0,-5.985687256E0,8.164477348E0
1.148947102E1,-7.156487465E0,-5.791750908E0,8.078283310E0
1.154146465E1,-5.712739468E0,-3.785348415E0,4.477293968E0
1.159345804E1,-4.328848839E0,-2.478074312E0,5.444581032E0
1.164545199E1,-5.952167034E0,-4.285751879E-1,6.186806202E0
1.169744542E1,9.840469360E-1,5.387118459E-1,-1.171758080E1
1.174943874E1,4.793338299E0,3.071854591E0,-4.968120098E0
1.180143220E1,1.472478986E0,-1.228263021E0,-1.968093872E0
1.185342949E1,-6.016812801E0,-5.820482254E0,1.113577175E1
1.190542758E1,-2.241041183E0,-1.984614372E1,1.364976025E1
1.195742321E1,-9.313729286E0,-2.444794083E1,2.115581131E1
1.200941640E1,-1.005356026E1,-8.442213058E0,1.200728798E1
1.206140996E1,-1.201447105E1,-6.237085819E0,8.324893951E0
1.211340315E1,-9.871595383E0,-6.914665699E0,8.863605499E0
1.216539641E1,-9.663292885E0,-4.841223717E0,7.642525196E0
1.221738994E1,-1.488760090E1,-4.743058205E0,5.123748183E-1
1.226938415E1,-7.319298267E0,-4.103786945E0,-1.719089270E0
1.232137744E1,-2.959323645E0,-1.300091267E0,8.619389534E-1
1.237337080E1,-3.991255999E0,4.884320498E-1,3.639297783E-1
1.242536406E1,6.416656375E-1,-8.499675393E-1,1.879505754E0
1.247735762E1,9.014444351E0,1.649655342E0,1.556278616E-1
1.252935085E1,1.084845924E1,-1.460507661E-1,-7.601822376E0
1.258134411E1,1.723877907E0,-5.449369431E0,1.699935079E0
1.263333753E1,-1.012778282E1,-1.630740547E1,1.516533661E1
1.268533169E1,3.292127848E0,-1.998979950E1,1.283810139E1
1.273732518E1,-9.869200706E0,-2.079667091E1,1.845267677E1
1.278931857E1,-1.046298122E1,-6.938608170E0,1.002243423E1
1.284131176E1,-1.303922081E1,-7.695199013E0,1.119323444E1
1.289330542E1,-9.747093201E0,-7.494080067E0,9.380768776E0
1.294530228E1,-7.175641537E0,-3.766194344E0,3.893090725E0
1.299730063E1,-4.592218876E0,-2.420611858E0,4.168432236E0
1.304929522E1,-3.526766777E0,-3.340013266E0,4.764606953E0
1.310128848E1,-5.552323341E0,-6.974522591E0,-9.696813226E-1
1.315328181E1,-1.331216812E0,-2.777358770E0,2.185972929E0
1.320527517E1,-4.300117493E0,-3.612960577E0,-1.249811459E1
1.325726856E1,4.173221111E0,8.379961550E-2,-6.059909344E0
1.330926182E1,1.735849261E0,2.921015322E-1,2.224281311E0
1.336125521E1,-7.120573044E0,-3.397475958E0,1.050607777E1
1.341324940E1,-1.596981287E0,-1.517491341E1,1.221559048E1
1.346524286E1,-1.148054790E1,-1.988684654E1,2.007120514E1
1.351718989E1,-1.189475727E1,-9.931451797E0,1.194024849E1
1.356918319E1,-1.047495270E1,-7.874769688E0,8.602629662E0
1.362117654E1,-1.053241444E1,-9.871595383E0,1.064494610E1
1.367316997E1,-1.106633854E1,-9.261054993E0,3.723097324E0
1.372516343E1,-7.541965485E0,-4.896292210E0,1.987248063E0
1.377715695E1,-3.541132450E0,1.577827096E0,2.545114040E0
1.382915101E1,-3.703943014E0,2.423006058E0,1.793311834E0
1.388114420E1,-3.782954216E0,2.051893473E0,1.369525194E0
1.393313756E1,-4.094209969E-1,5.746259689E-1,3.203539610E0
1.398513098E1,5.614574432E0,2.648067951E0,-1.128661156E1
1.403712657E1,4.350397110E0,7.518022656E-1,1.491633177E0
1.408912160E1,3.591412306E-2,-2.128510237E0,5.250644684E0
1.414111492E1,1.687963724E0,-5.217124939E0,3.550709486E0
1.419310825E1,-6.644112587E0,-3.691492844E1,1.765298843E1
1.424510154E1,-8.571503639E0,-2.207521439E1,2.002092552E1
1.429709500E1,-9.167677879E0,-1.310147190E1,9.296969414E0
1.434908826E1,-1.123154354E1,-6.148497581E0,8.540378571E0
1.440108178E1,-1.149491310E1,-5.092622280E0,6.160469055E0
1.445307597E1,-1.016369629E1,-4.862771988E0,2.834821463E0
1.450506929E1,-6.658478260E0,-2.561874151E0,3.577046633E0
1.455706262E1,-6.337645531E0,-1.652049571E-1,1.395862222E0
1.460905595E1,-6.838048935E0,-4.549122155E-1,-9.337671995E-1
1.466104927E1,-3.296916485E0,-1.115732074E0,3.342407703E0
1.471304276E1,7.067899227E0,2.657644987E0,-5.308107376E0
1.476503599E1,9.445414543E0,7.087053657E-1,-4.972908974E0
1.481702968E1,4.826858044E0,1.017566800E0,-1.300091267E0
1.486902360E1,-9.093455315E0,-1.097056675E1,1.361863518E1
1.492101696E1,-3.600989342E0,-1.631458855E1,1.396101665E1
1.497301035E1,-1.363778973E1,-2.435695839E1,2.071526527E1
1.502500361E1,-6.993676662E0,-8.056735039E0,1.114774323E1
1.507699980E1,-7.884346962E0,-6.919454098E0,9.292180061E0
1.512899845E1,-7.345634937E0,-4.793338299E0,7.546754360E0
1.518099361E1,-1.036481571E1,-1.465296149E0,5.324867249E0
1.523298707E1,-7.826884270E0,-2.899466753E0,4.898686409E0
1.528498030E1,-2.214704275E0,-2.921015263E0,6.004841328E0
1.533697366E1,-3.806896925E0,-5.480494976E0,1.079817891E0
1.538896702E1,-1.446141958E0,3.759011328E-1,7.355212212E0
1.544096028E1,2.035133600E0,2.298503816E-1,-1.562743187E1
1.549295367E1,4.764606953E-1,1.721483588E0,-2.030344963E0
1.554494749E1,1.015172482E0,-1.977671027E0,1.083169937E1
1.559694131E1,-3.996044636E0,-8.593051910E0,8.636149406E0
1.564893464E1,-2.105525208E1,-2.622449112E1,1.353483582E1
1.570092800E1,-1.549335194E1,-8.413481712E0,9.320911407E0
1.575292146E1,-1.036721039E1,-1.027143860E1,1.243586349E1
1.580491475E1,-1.146139336E1,-5.889915943E0,7.170853138E0
1.585690791E1,-1.002243423E1,-5.451763630E0,6.526793003E0
1.590890137E1,-8.854028702E0,-4.884320736E0,1.857957244E0
1.596089532E1,-5.365570068E0,-3.579440832E0,2.023162127E0
1.601288898E1,-4.783761024E0,-3.040729046E0,1.288119793E0
1.606488250E1,-5.413455486E0,-3.026363373E0,8.715160489E-1
1.611687583E1,-4.450956821E0,4.357580245E-1,8.142929077E0
1.616887085E1,3.878725290E0,4.419831276E0,-9.737515450E0
1.622086638E1,1.230178356E1,5.056708336E0,-8.447001457E0
1.627285973E1,6.237085819E0,1.721483588E0,6.275394440E0
1.632485303E1,-9.203592300E0,-8.248276711E0,1.571601963E1
1.637684638E1,-2.394274712E0,-1.980544090E1,1.301767254E1
1.642883971E1,-1.274233055E1,-2.156762695E1,1.487323475E1
1.648083307E1,-9.790189743E0,-8.542772293E0,5.956955910E0
1.653282640E1,-9.586676598E0,-7.688016415E0,7.752661705E0
1.658482058E1,-7.173247337E0,-6.246663094E0,6.304125786E0
1.663681400E1,-5.825270653E0,-5.224307537E0,7.740690231E0
1.668880740E1,-5.621757030E0,-4.958543301E0,1.031453609E1
1.674080072E1,-4.223500729E0,-4.685595989E0,3.402264595E0
1.679279398E1,-8.906702042E0,3.007209063E0,-2.518777132E0
1.684478744E1,2.571451187E0,2.023162127E0,-1.350610447E1
1.689678084E1,1.055875206E1,2.334417820E0,5.966532707E0
1.694877406E1,1.063058019E0,1.793311834E0,-8.739103317E0
1.700076818E1,-4.120546818E0,-2.956929445E0,6.500456333E0
1.705276177E1,-7.805335999E0,-1.447578526E1,1.515097141E1
1.710475506E1,-3.634509087E0,-2.210155106E1,2.371529198E1
1.715674869E1,-1.041749001E1,-1.306316376E1,1.412382698E1
1.720874371E1,-9.634561539E0,-5.188393593E0,6.988888264E0
1.726074237E1,-9.890748978E0,-6.778192043E0,7.012830734E0
1.731273909E1,-7.855615616E0,-4.613767624E0,5.442186832E0
1.736473279E1,-7.309720993E0,-1.173194647E0,5.183605194E0
1.741672608E1,-6.131737709E0,2.018373728E0,2.267378330E0
1.746871951E1,-5.372752666E0,2.542719841E0,1.060663700E0
1.752071273E1,-4.410254002E0,3.447755575E-1,1.007989645E0
1.757270616E1,-4.060689926E0,-2.609759569E0,4.283357620E0
1.762469974E1,3.270579338E0,-5.899493217E0,-4.285751820E0
1.767669376E1,3.371139050E0,-2.116539001E0,-1.170800400E1
1.772868709E1,9.720755816E-1,-8.425453186E0,8.023215294E0
1.778068048E1,5.437397957E0,-2.206324196E1,1.113337803E1
1.783267374E1,-9.924268723E0,-2.433061981E1,1.758115959E1
1.788466717E1,-8.933039665E0,-1.012059975E1,1.391552544E1
1.793666046E1,-9.883566856E0,-7.417463303E0,1.202883625E1
1.798865395E1,-1.250050831E1,-7.575485706E0,9.402317047E0
1.804064751E1,-1.099450970E1,-6.799740314E0,3.519583941E0
1.809264150E1,-8.952193260E0,-6.217931747E0,4.491659641E0
1.814463472E1,-7.099024773E0,-1.078141975E1,-1.455719113E0
1.819662811E1,-4.707144260E0,-5.382329941E0,-8.308133483E-1
1.824862164E1,-2.490045786E0,1.723877907E0,-2.382303476E0
1.830061669E1,9.294574738E0,3.390293121E0,-9.996097565E0
1.835261538E1,1.277106190E1,6.265817165E0,-4.800520897E0
1.840461144E1,8.190814018E0,2.906649590E0,-3.747040033E0
1.845660476E1,-9.490905762E0,-9.110215187E0,1.896505165E1
1.850859816E1,-2.518777132E0,-2.472806931E1,1.309668350E1
1.856059155E1,-9.019232750E0,-2.529551315E1,1.949418640E1
1.861258481E1,-5.789356709E0,-1.023791885E1,8.557138443E0
1.866457837E1,-6.919454098E0,-6.517216206E0,8.990502357E0
1.871657160E1,-7.905895233E0,-5.238673210E0,7.221132755E0
1.876856545E1,-5.688796997E0,-8.365595818E0,5.643305779E0
1.882055917E1,-2.343995094E0,-4.970514297E0,5.803721905E0
1.887255243E1,-2.559479713E0,-3.217905283E0,3.557892323E0
1.892454602E1,-4.285751820E0,1.793311834E0,4.051113129E0
1.897653925E1,2.818061352E0,-2.418217510E-1,-1.842155075E1
1.902853244E1,-8.786988258E-1,-6.009629965E-1,3.275367975E0
1.908052600E1,2.672010660E0,-8.212362528E-1,-4.625739098E0
1.913251923E1,-8.413481712E0,-6.917059898E0,1.119084072E1
1.918451328E1,1.836408734E0,-2.256125069E1,7.151699066E0
1.923650694E1,-7.561120033E0,-2.480708122E1,2.073920822E1
1.928850019E1,-7.034379482E0,-1.047734642E1,9.809344292E0
1.934049355E1,-7.498868465E0,-7.039167881E0,9.500482559E0
1.939248778E1,-8.375173569E0,-8.808537483E0,9.632167816E0
1.944448400E1,-6.605803967E0,-6.581861496E0,8.537983894E0
1.949647753E1,-7.443800449E0,-4.144489765E0,4.972908974E0
1.954847078E1,-6.447782040E0,-8.691217303E-1,5.480494976E0
1.960046418E1,-3.873936653E0,-6.608198285E-1,-2.897072434E-1
1.965245757E1,-1.039115310E0,9.409499764E-1,-2.925803900E0
1.970445100E1,2.485257149E0,1.053480864E0,-1.956122518E0
1.975644439E1,3.232270956E0,4.632921696E0,-5.248250484E0
1.980843864E1,4.034353256E0,1.292908430E0,-6.847625732E0
1.986043186E1,-1.721483588E0,-2.487651587E0,6.083852291E0
1.991242532E1,-1.255557728E1,-2.411274147E1,9.938634872E0
1.996441848E1,-7.161275864E0,-3.126444054E1,2.309517479E1
2.001641191E1,-6.732700825E0,-1.429142666E1,1.262261677E1
2.006840517E1,-8.487704277E0,-8.221940041E0,8.758256912E0
2.012039853E1,-8.722343445E0,-7.190007210E0,8.322499275E0
2.017239225E1,-9.567522049E0,-8.281796455E0,5.293741703E0
2.022438627E1,-9.986519814E0,-5.217124939E0,4.517996788E0
2.027637953E1,-7.649707794E0,-2.846792698E0,1.082212210E0
2.032837302E1,-7.168458939E0,-9.481328130E-1,-9.744698405E-1
2.038036625E1,-6.943397224E-2,2.300898075E0,6.871568561E-1
2.043236064E1,4.601796150E0,1.877111435E0,-1.412622184E-1
2.048435932E1,6.469330311E0,4.642498970E0,-9.007262230E0
2.053635595E1,6.960156918E0,1.247417212E0,-1.604164094E-1
2.058834981E1,-1.240234375E0,2.552296877E0,5.760625362E0
2.064034297E1,2.916226625E0,-1.321639657E0,-3.938581944E0
2.069233626E1,-1.303922081E1,-3.788940048E1,1.505041122E1
2.074432958E1,-9.239506721E0,-2.281504440E1,2.061949539E1
2.079434812E1,-1.093704700E1,-1.443508244E1,7.458166122E0
2.084634161E1,-1.241431522E1,-6.612987041E0,8.269824982E0
2.089833500E1,-1.032650757E1,-6.519610405E0,6.179623127E0
2.095032918E1,-7.625765324E0,-2.066259146E0,4.869955063E0
2.100232261E1,-9.802161217E0,-3.926610649E-1,3.969707727E0
2.105431584E1,-1.527547359E0,-1.053480953E-1,1.819648892E-1
2.110630926E1,-2.856369734E0,6.062304020E0,1.125309169E-1
2.115830265E1,-5.408666611E0,3.991255999E0,-3.052700281E0
2.121029591E1,-7.304932594E0,2.157241583E0,1.867534369E-1
2.126228924E1,1.213897347E0,2.174001455E0,-6.895511627E0
2.131428319E1,9.426259995E0,1.508393168E0,-1.295302629E0
2.136627692E1,2.988054991E0,1.316851079E-1,1.067846537E0
2.141827024E1,-8.978530765E-1,-4.764606953E0,8.913885117E0
2.147026357E1,-1.210066509E1,-3.092206001E1,2.233140182E1
2.152225746E1,-1.890519333E1,-1.676471138E1,1.617093277E1
2.157425385E1,-1.815818024E1,-4.359974384E0,4.891503334E0
2.162624761E1,-1.177264881E1,-3.426207304E0,9.055147171E0
2.167824097E1,-9.601041794E0,-2.645673752E0,6.198777676E0
2.173023419E1,-8.731920242E0,-8.140534163E-1,4.977697372E0
2.178222765E1,-8.698400497E0,4.743058205E0,2.705530643E0
2.183422098E1,-3.536343813E0,3.146077156E0,3.095797300E0
2.188621420E1,-2.712713242E0,-4.644893110E-1,2.449343204E0
2.193820796E1,-1.279739857E1,-8.008849144E0,1.310865498E1
2.199020202E1,-3.134105682E0,-6.249057055E-1,-2.710319042E0
2.204219528E1,3.974496126E0,-6.158074856E0,-9.095849991E0
2.209418867E1,-2.231464148E0,-6.148497581E0,3.220299721E0
2.214618193E1,4.034353256E0,2.935380936E0,-4.690384388E0
2.219817539E1,-1.405439258E0,-8.688823700E0,1.471042442E1
2.225016871E1,1.901054144E0,-3.023490143E1,1.910391808E1
2.230216197E1,-1.167208958E1,-1.897462845E1,1.749496651E1
2.235415599E1,-1.348216152E1,-8.810931444E-1,1.191391182E1
2.240614971E1,-1.536406136E1,-6.431022167E0,9.110215187E0
2.245814304E1,-1.260825157E1,-5.528380394E0,7.915472507E0
2.251013636E1,-1.014693642E1,-6.045543671E0,2.719896078E0
2.256212996E1,-4.345608711E0,-2.846792698E0,3.059883118E0
2.261412828E1,-3.318464994E0,-1.735849261E0,3.447755814E0
2.266612576E1,-4.319271564E0,-1.731060743E0,2.181184292E0
2.271811979E1,-2.952140808E0,-1.486844659E0,2.150058746E0
2.277011298E1,-9.900326729E0,2.411034822E0,-1.075029373E0
2.282210638E1,1.089873886E1,1.170800328E0,-2.016697693E1
2.287409970E1,1.067367744E1,1.350371003E0,1.366652107E1
2.292609303E1,-2.564268351E0,-1.221080124E-1,8.140534163E-1
2.297808635E1,-1.046298146E0,-5.944984436E0,4.525179386E0
2.303007968E1,-3.572257996E0,-3.008406258E1,2.559240341E1
2.308207380E1,-1.211503029E1,-2.076075745E1,1.959474564E1
2.313406742E1,-1.333611107E1,-4.716721535E0,5.384724140E0
2.318606088E1,-1.709512138E1,-2.166818619E0,7.419857502E0
2.323805421E1,-1.160265541E1,-3.529160976E0,5.245856285E0
2.329004737E1,-8.341653824E0,-2.367937803E0,4.750241280E0
2.334204073E1,-6.814105988E0,-6.153286099E-1,4.685595989E0
2.339403405E1,-6.272999763E0,7.302538157E-1,2.054287672E0
2.344602754E1,-4.252232075E0,2.066259146E0,2.279349566E0
2.349802180E1,-2.379909277E0,-6.249057055E-1,1.182771802E0
2.355001506E1,-3.031152010E0,-8.499675393E-1,9.912297726E-1
2.360200852E1,8.188419938E-1,-4.247443676E0,3.256213665E-1
2.365400194E1,4.340820312E0,-2.681587934E-1,-4.958543301E0
2.370599816E1,-3.938581944E0,-3.541132450E0,6.280182838E0
2.375799239E1,-6.706363678E0,-4.685595989E0,5.262616158E0
2.380998565E1,-2.205127001E0,-1.895786858E1,1.798100471E1
2.386197914E1,-1.052523232E1,-1.675274086E1,2.449822044E1
2.391397237E1,-1.150927925E1,-6.881145954E0,1.625951958E1
2.396596579E1,-1.512224007E1,-9.313728809E-1,1.234009266E1
2.401795912E1,-8.087860107E0,-3.842811108E0,9.138946533E0
2.406995248E1,-5.868367672E0,-3.050306082E0,8.085466385E0
2.412194673E1,-5.159662247E0,-5.499649048E0,8.305739403E0
2.417394012E1,-5.758230686E0,-1.226347542E1,6.263422966E0
2.422593338E1,-8.437424660E0,-1.014454269E1,1.311583710E1
2.427792677E1,-2.353572130E0,3.670423269E0,-7.948992252E-1
2.432992010E1,2.719896078E0,1.819648862E0,-1.812226677E1
2.438191349E1,1.227544689E1,5.578660488E0,-1.056114578E1
2.443390678E1,5.779779434E0,-5.111776829E0,4.958543301E0
2.448590011E1,-6.790163517E0,-5.197970390E0,1.836887550E1
2.453789436E1,-7.829278469E0,-1.663542175E1,2.624125242E0
2.458988782E1,-1.190912247E1,-2.129707527E1,1.975755501E1
2.464188124E1,-8.997684479E0,-1.467690468E1,1.147575951E1
2.469387457E1,-8.051946640E0,-7.130150318E0,1.056354046E1
2.474587202E1,-8.585869789E0,-6.794951916E0,9.064723969E0
2.479787015E1,-8.020820618E0,-6.047938347E0,8.624177933E0
2.484986544E1,-8.925856590E0,-1.085324764E1,4.431802750E0
2.490185873E1,-7.376760483E0,-7.051139355E0,2.339206457E0
2.495385219E1,-5.004034519E0,-2.755810261E0,4.027170181E0
2.500584542E1,-4.597007751E0,3.821262598E0,-7.551542759E0
2.505783878E1,1.705681419E1,5.320078850E0,-8.257853508E0
2.510983220E1,6.610592842E0,1.975276709E0,-8.861210823E0
2.516182579E1,3.174808502E0,5.578660369E-1,-1.901054144E0
2.521381978E1,-2.248224020E0,-1.278303337E1,6.691998005E0
2.526581331E1,2.798907280E0,-3.898358154E1,2.439526558E1
2.531780650E1,-6.699181080E0,-2.455089378E1,8.341653824E0
2.536979986E1,-8.526012421E0,-1.082691097E1,7.441406250E0
2.542179322E1,-1.002961731E1,-5.164450645E0,6.988888264E0
2.547378654E1,-9.826104164E0,-7.920260906E0,8.147717476E0
2.552577984E1,-5.818087578E0,-6.591438770E0,6.411868095E0
2.557777402E1,-6.004841328E0,-4.209135056E0,6.052726746E0
2.562976751E1,-4.343214512E0,-1.936968327E0,2.241041183E0
2.568176090E1,-3.440572977E0,6.129343510E-1,2.815667152E0
2.573375430E1,-2.078230619E0,9.984126091E-1,-5.437397957E0
2.578574759E1,4.819674969E0,4.003227711E0,-5.344021320E0
2.583774494E1,1.869928598E0,3.940976381E0,-4.642498970E0
2.588974313E1,-1.675992459E-2,3.658451796E0,-5.643305779E0
2.594173763E1,-2.442160368E0,-9.081484795E0,1.059466648E1
2.599373085E1,-4.367157459E0,-2.352853775E1,2.015979385E1
2.604572424E1,-5.856396198E0,-1.841676140E1,2.123482323E1
2.609771764E1,-8.839662552E0,-1.015172482E1,1.087719059E1
2.614971076E1,-8.128562927E0,-7.051139355E0,1.413340378E1
2.620170449E1,-1.085085297E1,-6.976916790E0,7.726325035E0
2.625369781E1,-9.457385063E0,-6.057515144E0,5.995264053E0
2.630569150E1,-5.312895775E0,-3.155654192E0,3.021574736E0
2.635768516E1,-4.929811954E0,1.656838179E0,1.972882390E0
2.640967852E1,-3.600989342E0,2.339206457E0,1.544307232E0
2.646167194E1,-3.292127848E0,9.696813226E-1,-1.168406129E0
2.651366550E1,2.152452946E0,3.639297783E-1,5.880339146E0
2.656565849E1,8.940221786E0,1.994430900E0,-1.235685253E1
2.661765189E1,8.992896080E0,-2.918621063E0,-1.070959091E1
2.666964541E1,-7.666468143E0,-2.772330856E1,7.776604652E0
2.672163940E1,7.419857502E0,-3.943370438E1,3.230355453E1
2.677363306E1,-2.114144564E0,-1.719328690E1,1.323315716E1
2.682562615E1,-7.295355320E0,-8.796566010E0,1.057072353E1
2.687761971E1,-1.036721039E1,-6.256239891E0,7.917866707E0
2.692961526E1,-8.863605499E0,-8.181237221E0,7.862798691E0
2.698161032E1,-8.303344727E0,-5.973715782E0,3.624932051E0
2.703360365E1,-4.771789551E0,-4.022381604E-1,1.905842781E0
2.708559687E1,-5.430215359E0,6.464541703E-2,1.089395046E0
2.713759023E1,-2.382303476E0,-7.661679387E-2,1.127703428E0
2.718958366E1,-9.241901040E-1,-2.071047783E0,1.886688590E0
2.724157695E1,2.674404860E0,1.711906433E0,-7.000859737E0
2.729357028E1,1.065931129E1,1.273754239E0,-1.358990383E1
2.734556440E1,-9.122186899E-1,-6.308914185E0,9.826104164E0
2.739755789E1,-1.225868702E0,-2.283180428E1,7.489291668E0
2.744955122E1,-1.822043180E0,-3.164991951E1,2.177353477E1
2.750154467E1,-4.197163582E0,-1.385566807E1,8.789382935E0
2.755353807E1,-8.786988258E0,-7.656890869E0,8.111803055E0
2.760553116E1,-9.763853073E0,-5.121353626E0,9.823709488E0
2.765752462E1,-8.966559410E0,-6.313702583E0,6.759037971E0
2.770951848E1,-7.108602047E0,-7.338452339E0,4.345608711E0
2.776151216E1,-6.009629726E0,-1.055156898E1,1.771763325E0
2.781350565E1,-4.292934895E0,-3.766194344E0,-2.624125242E0
2.786549901E1,-5.944984436E0,6.416656375E-1,1.849098396E1
2.791749237E1,1.394425678E1,9.866806030E0,-9.579493523E0
2.796948876E1,9.012050629E0,6.447782040E0,-8.236305237E0
2.802148718E1,2.396669149E0,2.808484316E0,4.585036278E0
2.807348321E1,6.567495823E0,-1.823719215E1,1.120760059E1
2.812350837E1,-8.236305118E-1,-4.654949188E1,1.660908508E1
2.817550163E1,-3.543526649E0,-1.835211563E1,1.103760719E0
2.822749529E1,-1.032171917E1,-8.114197731E0,1.106154919E0
2.827948855E1,-4.575459003E0,-1.169603252E1,8.813325882E0
2.833148164E1,-3.533949614E0,-8.188420296E0,8.408693314E0
2.838347539E1,-4.458139896E0,-3.869148016E0,4.649681568E0
2.843546935E1,-4.901080608E0,2.363149166E0,2.051893473E0
2.848746268E1,-3.670423269E0,1.388679445E-1,1.738243461E0
2.853945603E1,-4.711932659E0,-5.506832153E-2,1.485647488E1
2.859144933E1,4.788549617E-3,1.716695070E0,-1.636726189E1
2.864344262E1,1.429860878E1,4.453351021E0,-4.948966026E0
2.869543601E1,-7.707170486E0,-4.295329094E0,2.437371731E0
2.874742930E1,-3.457332850E0,-3.876330853E0,3.969707727E0
2.879942352E1,-2.976083517E0,-3.244242477E1,2.390443993E1
2.885141695E1,-3.984073162E0,-1.403284454E1,2.112229156E1
2.890341034E1,-6.804529190E0,-9.423865318E0,9.718361855E0
2.895540377E1,-7.355212212E0,-3.984073162E0,9.689630508E0
2.900739706E1,-8.739103317E0,-6.373559475E0,6.799740314E0
2.905939298E1,-9.009655952E0,-1.281655312E1,5.123748302E0
2.911139173E1,-7.075081825E0,-1.193306541E1,2.518777132E0
2.916338706E1,-2.592999697E0,-3.505218267E0,4.860377908E-1
2.921538038E1,-9.912297726E-1,5.298530102E0,4.137306690E0
2.926737368E1,1.325709915E1,6.143709183E0,-1.963305283E1
2.931936704E1,6.021601200E0,2.444554567E0,-4.867560863E0
2.937136030E1,3.696760416E0,5.746259689E-1,-1.166011810E0
2.942335376E1,-9.706390381E0,-1.474633884E1,1.754763985E1
2.947534718E1,-1.407833576E0,-2.873369217E1,1.892434883E1
2.952734133E1,-8.035185814E0,-1.997543526E1,1.415495300E1
2.957933472E1,-7.046350956E0,-9.526819229E0,8.490098000E0
2.963132812E1,-8.420664787E0,-7.905895233E0,6.964945316E0
2.968332144E1,-8.502069473E0,-7.506051540E0,4.087027073E0
2.973531470E1,-5.609786034E0,-5.530774593E0,4.496448040E0
2.978730803E1,-2.561874151E0,-1.376708031E0,3.802108288E0
2.983930132E1,-1.556278586E0,9.624984860E-1,2.348783493E0
2.989129511E1,-9.524425507E0,-6.991282701E-1,1.554123783E1
2.994328900E1,1.107112694E1,4.180403709E0,-1.383411980E1
2.999528236E1,-9.146129489E-1,-3.974496126E0,-1.398256540E0
3.004727575E1,-6.423839092E0,-4.027170181E0,4.692778587E0
3.009926907E1,5.770202160E0,-1.804804420E1,9.665687561E0
3.015126397E1,-6.536370516E-1,-1.954925346E1,2.424921608E1
3.020325979E1,-2.652856588E0,-9.079090118E0,1.422678089E1
3.025525305E1,-7.216344357E0,-7.546754360E0,1.036002731E1
3.030724641E1,-8.150111198E0,-8.315316200E0,9.258660316E0
3.035923980E1,-6.744672298E0,-6.234691620E0,8.552350044E0
3.041123309E1,-7.477320194E0,-3.569863796E0,5.925830364E0
3.046322642E1,-7.242681503E0,-2.516382933E0,1.460507631E0
3.051521974E1,-3.057488918E0,-2.868341208E0,7.996878028E-1
3.056721403E1,-5.751048088E0,-4.980091572E0,8.676852226E0
3.061920739E1,1.963305324E-1,-2.753416002E-1,-5.578660369E-1
3.067120075E1,1.056114578E1,1.616135478E0,-8.600234985E0
3.072319421E1,6.177228928E0,6.823683381E-1,1.917814136E0
3.077518736E1,-3.517189741E0,-3.919427872E0,1.269683933E1
3.082718082E1,4.549122229E-2,-1.446860313E1,4.597007751E0
3.087917422E1,-1.608234406E1,-2.632505226E1,2.395711327E1
3.093116757E1,-7.525205612E0,-6.361588001E0,1.383651447E1
3.098316183E1,-1.088197899E1,-3.917033672E0,7.441406250E0
3.103515518E1,-9.840469360E0,-4.472505569E0,7.484503269E0
3.108714848E1,-6.737489223E0,-2.576239586E0,5.964138508E0
3.113914184E1,-7.987300873E0,-2.672010660E0,7.254652500E0
3.119113682E1,-5.952167034E0,-4.628133297E0,4.110970020E0
3.124313581E1,-4.786155224E0,-3.529160976E0,2.389486313E0
3.129513180E1,-5.312895775E0,-2.741444588E0,-2.123721838E0
3.134712513E1,-3.143682718E0,4.812492430E-1,-4.980091453E-1
3.139911849E1,4.903474808E0,2.640885115E0,-5.796539307E0
3.145111182E1,7.671256542E0,4.355185986E0,-4.290540695E0
3.150310514E1,-5.444581032E0,-3.809291124E0,5.528380394E0
3.155509877E1,-2.825244367E-1,-9.198803902E0,1.111422348E1
3.160709176E1,-2.477835083E1,-3.269861221E1,2.158917618E1
3.165908575E1,-1.084606457E1,-4.826858044E0,1.289316940E1
3.171107944E1,-1.230896664E1,-6.091034889E0,8.456578255E0
3.176307280E1,-8.909096718E0,-4.853195190E0,8.265036583E0
3.181506619E1,-1.093225861E1,-5.382329941E0,7.235498428E0
3.186705948E1,-1.118126297E1,-5.221913338E0,5.607391834E0
3.191905281E1,-8.490098000E0,-7.429434776E0,4.857983589E0
3.197104627E1,-3.469304085E0,-3.663240433E0,1.604164124E0
3.202303952E1,-2.827638626E0,1.266571403E0,-1.668809533E0
3.207503335E1,6.943397224E-2,5.097411156E0,3.586623669E0
3.212702724E1,6.167652130E0,6.840443134E0,-1.439677429E1
3.217902043E1,5.135719299E0,1.738243461E0,1.529941559E0
3.223101385E1,-4.508419514E0,-1.822043180E0,5.243461609E0
3.228300811E1,-2.837215662E0,-3.282550812E0,1.286922741E1
3.233500430E1,-6.299336910E0,-1.901054192E1,1.614220047E1
3.238699786E1,-1.897941589E1,-1.636247444E1,1.873041153E1
3.243899129E1,-1.222756100E1,-5.540351868E0,8.107014656E0
3.249098454E1,-9.701601982E0,-3.603383541E0,8.631361008E0
3.254297794E1,-7.841249943E0,-2.140481710E0,6.895511627E0
3.259497120E1,-1.021158218E1,-1.410227895E0,2.657644987E0
3.264696459E1,-9.821314812E0,5.004034638E-1,2.032739401E0
3.269895861E1,-6.624958515E0,1.637683988E0,9.912297726E-1
3.275095220E1,-4.709538460E0,1.271359921E0,2.595393896E0
3.280294549E1,-8.849239349E0,-6.344828010E-1,1.272557068E1
3.285493882E1,-5.679219723E0,-3.222693920E0,-7.082264900E0
3.290693238E1,8.497281075E0,-4.185192585E0,-8.844450951E0
3.295892554E1,-6.488484740E-1,-2.351177931E0,3.660846233E0
3.301091886E1,2.399063349E0,2.377514839E0,-5.061496735E0
3.306291225E1,5.796539307E0,-1.755961227E1,1.219883060E1
3.311490617E1,-7.266623974E0,-2.130425644E1,2.688531113E1
3.316690006E1,-7.889135361E0,-1.019482231E1,1.881181717E1
3.321889342E1,-8.684034348E0,-5.727105141E0,1.318527126E1
3.327088658E1,-7.735901833E0,-4.625739098E0,1.042946148E1
3.332288094E1,-6.694392204E0,-5.863578796E0,7.649707794E0
3.337487972E1,-6.136526108E0,-4.683201313E0,6.759037971E0
3.342687665E1,-7.688016415E0,-5.035160065E0,2.317657948E0
3.347887091E1,-4.678412914E0,-4.525179386E0,1.692752242E0
3.353086444E1,-2.736656189E0,-3.514795303E0,-1.082212210E0
3.358285757E1,-1.594586968E0,8.140534163E-2,2.406246185E0
3.363485092E1,3.962524891E0,6.703969836E-2,-7.199584484E0
3.368684428E1,1.910631299E0,6.895511150E-1,-1.295302629E0
3.373883777E1,-1.343188167E0,-1.173194647E0,7.070293427E0
3.379083179E1,1.082212210E0,-6.636929989E0,1.025946712E1
3.384282528E1,-1.646542740E1,-3.072572899E1,2.116778374E1
3.389481864E1,-8.834874153E0,-8.612206459E0,1.714779663E1
3.394681194E1,-9.433443069E0,-5.008822918E0,1.049410629E1
3.399880530E1,-9.457385063E0,-4.156461239E0,8.250671387E0
3.405079872E1,-8.413481712E0,-3.579440832E0,7.158881664E0
3.410279202E1,-6.512427330E0,-4.714327335E0,4.513207912E0
3.415478567E1,-5.557111740E0,-8.135746002E0,6.239480019E0
3.420677956E1,-3.474092722E0,-6.354405403E0,5.648094177E0
3.425877298E1,-2.712713242E0,-1.984853864E0,2.913832426E0
3.431076641E1,-2.329629421E0,2.039922237E0,-3.998439014E-1
3.436275963E1,-7.829278708E-1,2.997632027E0,-3.112557173E0
3.441475386E1,3.160442710E-1,3.543526828E-1,1.355159521E0
3.446675268E1,-8.284190893E-1,-1.690358043E0,-8.475732803E-1
3.451874930E1,-3.002420664E0,-5.140508175E0,1.348934460E1
3.457074299E1,-1.462901950E0,-1.525871372E1,1.148533630E1
3.462273629E1,-1.556518078E1,-1.632416534E1,2.155086708E1
3.467472968E1,-1.087479591E1,-3.282550812E0,1.261782837E1
3.472672317E1,-1.209108734E1,-5.758230686E0,9.890748978E0
3.477871626E1,-8.636149406E0,-3.751828671E0,6.952973843E0
3.483070986E1,-7.503657341E0,-3.579440832E0,4.427014351E0
3.488270358E1,-6.919454098E0,-3.842811108E0,2.813272953E0
3.493469730E1,-6.198777676E0,-5.296135902E0,5.020794392E0
3.498669072E1,-5.616968632E0,-5.930618763E0,3.878725290E0
3.503868408E1,-4.752635479E0,-7.175641537E0,1.184926605E1
3.509067731E1,-4.130124092E0,4.276175022E0,-1.369525194E0
3.514267070E1,1.462423038E1,2.564268351E0,-1.637444496E1
3.519466416E1,4.075055599E0,-4.525179267E-1,-9.577099085E-1
3.524665735E1,-1.903448462E0,-3.399870098E-1,4.510813713E0
3.529865124E1,-2.633702159E-1,-1.991557693E1,8.241093636E0
3.535064506E1,-1.137280583E0,-3.232031631E1,2.284377670E1
3.540258368E1,-6.428627968E0,-1.673119164E1,8.126168251E0
3.545457704E1,-8.722343445E0,-7.587456703E0,7.051139355E0
3.550657097E1,-8.047157288E0,-5.755836487E0,8.236305237E0
3.555856709E1,-8.039975166E0,-5.473312378E0,7.130150318E0
3.561056105E1,-3.363956213E0,-9.194015265E-1,7.587456703E0
3.566255431E1,-2.202732801E0,4.304905891E0,9.739910126E0
3.571454763E1,-1.077423692E0,5.286558628E0,1.095620155E1
3.576654109E1,-5.684008598E0,9.864411950E-1,5.011217117E0
3.581853438E1,-5.049525738E0,-1.292908341E-1,-4.788549617E-2
3.587052764E1,-4.798126698E0,-6.727912426E-1,-3.440572977E0
3.592252170E1,1.446141958E0,-6.629746914E0,2.645673752E0
3.597451535E1,-1.819648892E-1,-4.893897533E0,-5.796539307E0
3.602650871E1,-4.161249638E0,-2.942563772E0,-2.619336605E0
3.607850211E1,-2.645673752E0,-7.051139355E0,5.904281616E0
3.613049530E1,7.963357925E0,-2.751979446E1,2.146467400E1
3.618248872E1,-5.207547665E0,-2.130904579E1,2.170410156E1
3.623448218E1,-8.820508003E0,-1.073114014E1,1.357793236E1
3.628647554E1,-1.370482922E1,-2.537931204E0,1.366173172E1
3.633846959E1,-1.361863518E1,-4.187586784E0,8.590658188E0
3.639046305E1,-1.002004051E1,-3.701548815E0,2.655250788E0
3.644245638E1,-6.363982677E0,-3.830839634E0,2.959323645E0
3.649444977E1,-9.660899162E0,-7.259441376E0,4.134912491E0
3.654644336E1,-5.104593754E0,-9.438231468E0,2.633702382E-2
3.659844164E1,-6.701575279E0,-8.291373253E0,7.695199013E0
3.665043930E1,8.274613380E0,2.748627424E0,-9.500482559E0
3.670243313E1,9.098244667E0,5.403878212E0,-1.318766594E1
3.675442642E1,2.506805658E0,-9.816526771E-1,-3.708731651E0
3.680641968E1,3.567469358E0,-5.585843086E0,1.635289764E1
3.685841311E1,-4.695172787E0,-3.192047119E1,1.485408115E1
3.691040650E1,-7.197190285E0,-2.307362556E1,1.942475128E1
3.696239972E1,-4.470110893E0,-1.073114014E1,9.076695442E0
3.701439312E1,-7.788576126E0,-6.354405403E0,9.392740250E0
3.706638730E1,-9.354432106E0,-4.134912491E0,6.775797844E0
3.711838072E1,-9.057541847E0,-1.987248063E0,6.282577038E0
3.717037412E1,-5.300924301E0,7.302538157E-1,5.487678051E0
3.722236754E1,-3.519583941E-1,-2.346389294E-1,5.437397957E0
3.727436074E1,-4.364762783E0,-7.326480865E0,1.597460175E1
3.732635409E1,3.174808502E0,-2.078230619E0,-4.506025314E0
3.737834745E1,1.268965602E-1,-7.302538157E-1,-1.494266891E1
3.743034121E1,2.830032825E0,2.822849989E0,-5.837242126E0
3.748233510E1,-1.678386688E0,-7.182824612E0,1.068325424E1
3.753432845E1,-1.261064529E1,-2.774964523E1,1.862266922E1
3.758632181E1,3.488458395E0,-2.282701683E1,2.234816170E1
3.763831534E1,-4.292934895E0,-1.081733322E1,1.515097141E1
3.769031146E1,-6.754249096E0,-7.594639778E0,7.860404015E0
3.774230585E1,-1.018045616E1,-7.601822376E0,1.006074238E1
3.779429905E1,-7.142121792E0,-6.256239891E0,3.102980137E0
3.784629251E1,-4.970514297E0,-2.703136206E0,3.711125851E0
3.789828573E1,-2.341600657E0,1.539518714E0,4.022381783E0
3.795027912E1,-5.116565228E0,3.328042030E0,2.372726440E0
3.800227262E1,-1.236164093E1,1.075029373E0,5.796539307E0
3.805426594E1,-4.070267081E-1,2.044710636E0,-1.148533630E1
3.810626013E1,6.979310989E0,-2.099778891E0,3.102980137E0
3.815825352E1,4.398283005E0,1.386285067E0,-9.134158134E0
3.821024678E1,3.356773376E0,-3.548315287E0,3.912245035E0
3.826224017E1,-1.395862222E0,-3.728125381E1,1.448296833E1
3.831423350E1,-6.028783798E0,-2.678954124E1,2.077272797E1
3.836622686E1,-7.556331158E0,-1.043903828E1,1.023791885E1
3.841822012E1,-8.243488312E0,-3.320859194E0,8.166871071E0
3.847021377E1,-6.945791245E0,-6.648900986E0,1.050128937E1
3.852220786E1,-8.202785492E0,-6.392713547E0,8.521224022E0
3.857420115E1,-6.797346115E0,-3.998438835E0,5.583448887E0
3.862619451E1,-6.541158676E0,-1.245022863E-1,2.892283916E0
3.867818797E1,-5.449369431E0,3.356773376E0,3.414235830E0
3.873018542E1,-4.568276405E0,1.699935079E0,6.356799603E0
3.878218348E1,-1.539518714E0,1.580221355E-1,-8.547561169E-1
3.883417891E1,3.617749214E0,-3.541132450E0,-5.083045483E0
3.888617213E1,-8.619388938E-2,-2.456526041E0,-1.939362645E0
3.893816556E1,3.234665155E0,1.077423692E-1,-3.062277555E0
3.899015892E1,3.289733648E0,-1.630022240E1,2.298503876E0
3.904215228E1,-1.352765274E1,-3.780799484E1,2.198423195E1
3.909414560E1,-1.065452290E1,-1.367849159E1,1.527547359E1
3.914613972E1,-1.027383327E1,-6.153286457E0,1.184687138E1
3.919813318E1,-7.647313595E0,-5.195576191E0,1.052044392E1
3.925012664E1,-9.028810501E0,-6.191594601E0,8.391933441E0
3.930211987E1,-7.587456703E0,-7.673650742E0,5.219519138E0
3.935411326E1,-4.620950222E0,-4.972908974E0,2.868341208E0
3.940610658E1,-2.662433624E0,-1.012778282E0,2.059076309E0
3.945809988E1,-2.664827824E0,2.257801056E0,-4.369551659E0
3.951009327E1,4.527573586E0,-1.134886265E0,-8.772623062E0
3.956208742E1,5.743865490E0,2.789330244E0,-1.213179016E1
3.961408091E1,2.044710636E0,-2.897072554E0,3.744645834E0
3.966607437E1,-4.441379547E0,-2.543677521E1,6.591438770E0
3.971806760E1,8.978530765E-1,-3.263396454E1,2.223563004E1
3.977006109E1,-5.614574432E0,-1.475831032E1,1.018045616E1
3.982205821E1,-6.361588001E0,-4.944177628E0,8.025609016E0
3.987405643E1,-7.000859737E0,-9.519637108E0,1.201447105E1
3.992605096E1,-8.602629662E0,-6.505244732E0,9.646533012E0
3.997804422E1,-8.911490440E0,-5.581054688E0,3.656057596E0
4.003003761E1,-2.935380936E0,-4.496448040E0,4.484476566E0
4.008203097E1,-2.442160249E-1,-5.004034638E-1,3.234665155E0
4.013402426E1,-1.077423692E-1,1.027143836E0,1.024749637E0
4.018601769E1,4.194769382E0,4.103786945E0,-9.182044029E0
4.023801124E1,3.356773376E0,1.642472506E0,-8.715160370E0
4.029000530E1,-3.866753817E0,-2.238646984E0,1.230417824E1
4.034199869E1,-8.250671387E0,-1.454282475E1,3.227482557E0
4.039399208E1,-1.202644253E1,-2.270730209E1,2.504650879E1
4.044598528E1,-7.963357925E0,-9.081484795E0,1.401368999E1
4.049797863E1,-1.065452290E1,-5.217124939E0,1.066888809E1
4.054997193E1,-1.064973450E1,-6.639324188E0,7.896318436E0
4.060196542E1,-8.370385170E0,-5.085439682E0,4.723904133E0
4.065395931E1,-9.220352173E0,-5.348809719E0,3.814079762E0
4.070595317E1,-3.119740009E0,-2.997632027E0,1.719089270E0
4.075794633E1,-4.470110893E0,-2.772570133E0,-3.057488918E0
4.080993952E1,-4.486870766E0,4.065478802E0,3.349590540E0
4.086193318E1,7.257047176E0,4.058295727E0,-1.632895470E1
4.091392870E1,1.434888935E1,1.747820675E-1,-4.884320736E0
4.096592356E1,9.265843630E-1,-9.919480324E0,4.110970020E0
4.101791722E1,-7.558725357E0,-3.613679123E1,2.468018532E1
4.106991024E1,-1.051086617E1,-2.018613052E1,1.656598663E1
4.112190377E1,-7.977723598E0,-4.003227711E0,1.072395706E1
4.117389703E1,-1.159068394E1,-5.071074009E0,9.294574738E0
4.122589029E1,-9.517242432E0,-6.057515144E0,9.641744614E0
4.127788391E1,-9.409500122E0,-5.238673210E0,3.481275558E0
4.132987806E1,-4.939388752E0,-4.692778587E0,1.680780888E0
4.138187132E1,-7.781392932E-1,-1.077423692E0,2.487651587E0
4.143386471E1,-1.747820675E-1,6.895511150E-1,4.003227711E0
4.148585807E1,-5.502043724E0,-1.053480864E0,-6.349617004E0
4.153785133E1,6.464542150E-1,1.381496549E0,-1.012538815E1
4.158984462E1,2.679193497E0,-8.236305118E-1,-3.579440832E0
4.164183805E1,-3.830839694E-1,-1.400650740E0,2.573845387E0
4.169383170E1,1.201925993E0,-1.452845955E1,8.097437859E0
4.174582559E1,-9.519637108E0,-2.110792732E1,2.776640511E1
4.179781908E1,-7.242681503E0,-4.513207912E0,1.932658577E1
4.184981241E1,-1.503365135E1,-3.052700281E0,1.186842060E1
4.190180584E1,-1.204559612E1,-3.335224867E0,9.670475960E0
4.195380226E1,-9.038387299E0,-4.793338299E0,3.584229469E0
4.200580098E1,-7.688016415E0,-4.850800991E0,1.580221355E-1
4.205779564E1,-1.030016994E1,-1.361384678E1,-4.822069645E0
4.210978913E1,-5.731894016E0,-9.811738014E0,-1.573038578E0
4.216178242E1,-2.418217659E0,-1.467690468E0,2.904255390E0
4.221377578E1,-1.537124395E0,8.329682350E0,7.709564686E0
4.226576917E1,1.454521942E1,5.042342663E0,-1.000327969E1
4.231776240E1,4.929811954E0,3.136500120E-1,-3.112557232E-1
4.236975589E1,1.106154919E0,1.915419847E-1,3.612960577E0
4.242174961E1,-2.602576733E0,-3.787982178E1,1.477267551E1
4.247374343E1,-8.253065109E0,-2.479271507E1,1.917814064E1
4.252573673E1,-6.325674057E0,-1.008708000E1,9.184437752E0
4.257773002E1,-2.810878515E0,-4.857983589E0,1.174870682E1
4.262972344E1,-4.292934895E0,-4.292934895E0,1.281894779E1
4.267980648E1,-6.081458092E0,-2.032739401E0,7.953781128E0
4.273179981E1,-7.922655106E0,-5.746259689E-1,4.400677204E0
4.278379317E1,-2.657644987E0,-1.110943556E0,4.771789551E0
4.283578705E1,-1.014454269E1,-6.047938347E0,8.602629662E0
4.288778078E1,9.840469360E-1,-5.300924301E0,-1.107112694E1
4.293977424E1,2.801301479E0,-5.315290093E-1,-1.085803604E1
4.299176750E1,-3.632114887E0,4.213923812E-1,2.997632027E0
4.304376248E1,1.762186289E0,-1.668809533E0,7.424646378E0
4.309575818E1,-4.616161823E0,-2.743599510E1,1.656359291E1
4.314775147E1,-8.703188896E0,-1.930503845E1,2.222126389E1
4.319974489E1,-1.279739857E1,-6.150891781E0,1.274233055E1
4.325173815E1,-1.325709915E1,-4.223500729E0,9.349642754E0
4.330373164E1,-9.505270958E0,-3.950553417E0,9.450202942E0
4.335572484E1,-1.261303997E1,-4.405465603E0,-1.316851079E-1
4.340771826E1,-7.422251701E0,-5.339232922E0,-1.209108829E0
4.345971245E1,-8.140534163E-1,-1.110943556E0,1.187560320E0
4.351170577E1,3.249030828E0,1.046298146E0,1.484450340E0
4.356369913E1,-6.998465061E0,-9.203592300E0,3.207849503E1
4.361569256E1,-1.664021015E0,1.467690468E0,-1.706399727E1
4.366768588E1,1.157153034E1,2.432583094E0,3.794925690E0
4.371967921E1,-2.320052385E0,4.740664065E-1,-1.510787368E0
4.377167257E1,9.577099085E-1,-1.177504349E1,9.708784103E0
4.382366586E1,-1.027383327E1,-3.088614464E1,3.037376976E1
4.387566005E1,-2.650462151E0,-8.571503639E0,1.534969616E1
4.392765364E1,-5.995264053E0,-4.419831276E0,1.219883060E1
4.397964686E1,-5.027976990E0,-4.604190350E0,1.232333279E1
4.403164026E1,-6.064698219E0,-5.712739468E0,9.368797302E0
4.408363544E1,-7.819701672E0,-6.028783798E0,7.379155159E0
4.413563440E1,-2.736656189E0,-4.506025314E0,3.612960577E0
4.418763032E1,-3.600989342E0,-3.919427872E0,4.664047241E0
4.423962352E1,-2.537931204E-1,2.197944164E0,9.071907043E0
4.429161688E1,7.067899227E0,5.267404765E-2,-1.634810829E1
4.434361020E1,5.300924301E0,7.829278708E-1,-3.184385538E0
4.439560359E1,-6.754249096E0,-1.443747759E0,1.325470543E1
4.444759685E1,2.988054991E0,-6.533976078E0,-8.068706393E-1
4.449959025E1,-1.704963112E1,-2.559000969E1,2.475440788E1
4.455158377E1,-5.411061287E0,-4.958543301E0,1.906082153E1
4.460357782E1,-1.400890160E1,-7.053533554E0,1.070001411E1
4.465557125E1,-1.036481571E1,-4.087027073E0,9.727938652E0
4.470756461E1,-1.180377483E1,-2.904255390E0,5.655277252E0
4.475955783E1,-1.031453609E1,-2.059076309E0,4.151672363E0
4.481155132E1,-7.661679268E0,-2.657645047E-1,5.051919937E0
4.486354472E1,-3.311282158E0,1.177983165E0,4.462928295E0
4.491553804E1,-2.094990492E0,-2.578634024E0,1.098972082E0
4.496753147E1,-1.437283134E1,-1.760270882E1,2.795076370E1
4.501952562E1,-1.149251908E-1,-6.222720146E0,-1.579024220E1
4.507151901E1,2.947352171E0,6.464541703E-2,-1.528744507E1
4.512351237E1,8.978530765E-1,1.606558442E0,2.564268351E0
4.517550666E1,-8.370385170E0,-7.800547123E0,1.359708691E1
4.522750275E1,3.744645834E0,-2.775682831E1,2.296827888E1
4.527949635E1,-7.996878028E-1,-1.364018345E1,2.443357468E1
4.533148961E1,-2.755810261E0,-2.880312681E0,1.580460835E1
4.538348297E1,-1.074790001E1,-3.423812866E0,1.266331959E1
4.543547626E1,-9.421471596E0,-6.000052452E0,1.013257122E1
4.548746965E1,-8.854028702E0,-6.356799603E0,4.410254002E0
4.553946301E1,-5.710345268E0,-4.549122334E0,5.221913338E0
4.559145647E1,-6.668055534E0,-4.417437077E0,2.660039425E0
4.564345069E1,-2.276955366E0,-1.347976685E0,3.802108288E0
4.569544398E1,-5.382329941E0,6.804529190E0,-3.938581944E0
4.574743737E1,6.747066498E0,-6.943397224E-2,-1.375271416E1
4.579943066E1,4.697566986E0,1.692752242E0,3.507612705E0
4.585142392E1,-1.795706153E-1,1.204320192E0,-8.643332124E-1
4.590341722E1,-1.620923996E0,-2.298503876E0,8.609811783E0
4.595541071E1,-4.393494129E0,-2.101215553E1,1.305837440E1
4.600740436E1,-1.566813469E1,-3.028039360E1,1.626909637E1
4.605939828E1,-7.992089272E0,-9.194015503E0,1.047495270E1
4.611139168E1,-8.353624344E0,-7.575485706E0,9.074301720E0
4.616338497E1,-8.334470749E0,-6.612987041E0,9.035993576E0
4.621537942E1,-8.154899597E0,-4.118152618E0,1.008947372E1
4.626737838E1,-6.390319347E0,-1.127703428E0,6.304125786E0
4.631937517E1,-6.531581879E0,4.065478802E0,4.532361984E0
4.637136950E1,-5.511620522E0,1.407833576E0,2.877918243E0
4.642336269E1,-4.910657406E0,-9.241901040E-1,2.135693073E0
4.647535602E1,6.344828010E-1,-2.437371731E0,-4.865166187E0
4.652734928E1,-1.711906433E0,-2.683982134E0,2.375120640E0
4.657934270E1,8.650514603E0,1.956122518E0,-3.567469358E0
4.663133619E1,-4.367157459E0,-7.051139355E0,-6.632141471E-1
4.668333028E1,-5.791750908E0,-1.423875237E1,1.041509533E1
4.673532370E1,4.788549542E-1,-2.687334061E1,2.732346344E1
4.678731703E1,-4.515602112E0,-1.527068520E1,2.148382759E1
4.683931026E1,-9.890748978E0,-5.923435688E0,9.785401344E0
4.689130372E1,-1.191870022E1,-6.421444893E0,7.738296032E0
4.694329698E1,-9.553156853E0,-6.440599442E0,3.615355015E0
4.699529047E1,-5.044736862E0,-2.681587696E0,2.746233225E0
4.704728393E1,-5.497254848E0,-2.569056988E0,-4.309694767E-1
4.709927804E1,-8.317710876E0,-3.838022470E0,-1.709512234E0
4.715127150E1,5.506832153E-2,-4.443774223E0,-1.357553840E0
4.720326476E1,5.703162670E0,-4.343214512E0,1.238558388E1
4.725525802E1,5.118959427E0,2.729473352E0,-2.163227272E1
4.730725238E1,-2.229069948E0,-1.345582485E0,6.929031372E0
4.735925113E1,-1.149251908E-1,-8.820508003E0,1.052523232E1
4.741124776E1,-4.666441441E0,-3.074009514E1,1.526589584E1
4.746324148E1,-3.818868399E0,-1.656359291E1,1.964262962E1
4.751523468E1,-2.382303476E0,-1.113816643E1,1.176546669E1
4.756722807E1,-8.382355690E0,-7.137333393E0,1.186123753E1
4.761922139E1,-1.197376823E1,-6.545947552E0,7.237892628E0
4.767121482E1,-1.012778282E1,-7.156487465E0,6.246663094E0
4.772320805E1,-1.152843285E1,-6.610592842E0,1.577827096E0
4.777520174E1,-4.549122334E0,-6.893116951E0,-2.063864946E0
4.782719572E1,-3.088614464E0,-2.880312681E0,-1.331216812E0
4.787918912E1,-4.788549542E-1,5.267404765E-2,-2.695953369E0
4.793118237E1,9.967366219E0,6.177228928E0,-1.346300697E1
4.798317577E1,5.054314137E0,-1.388679445E-1,-7.963357925E0
4.803516916E1,-2.442160249E-1,-4.359974384E0,7.800547123E0
4.808716242E1,-3.567469358E0,-1.819648933E1,1.463141346E1
4.813915584E1,-4.448562622E0,-2.642082214E1,2.270490837E1
4.819114943E1,-6.217931747E0,-1.670724869E1,1.271599388E1
4.824314349E1,-7.731113434E0,-9.785401344E0,8.363202095E0
4.829513681E1,-8.602629662E0,-5.839636326E0,9.615407944E0
4.834713044E1,-1.085324764E1,-4.929811954E0,7.963357925E0
4.839912403E1,-9.871595383E0,-5.497254848E0,5.660065651E0
4.845112032E1,-3.718308687E0,-6.368771076E0,4.388705730E0
4.850311434E1,-1.613741279E0,-2.336812258E0,4.199557781E0
4.855510760E1,-1.975276709E0,-9.936240315E-1,1.254121113E1
4.860710070E1,-2.238646984E0,-1.412622184E-1,-1.590516758E1
4.865909412E1,6.306519985E0,1.465296149E0,-2.751021862E0
4.871108748E1,-7.230709791E-1,-3.998439014E-1,1.910631299E0
4.876308077E1,-1.872322917E0,-3.399870157E0,1.233530426E1
4.881507450E1,-5.490072250E0,-2.377754402E1,1.946784782E1
4.886706842E1,-1.410227871E1,-1.136562252E1,1.949179077E1
4.891906174E1,-1.226108170E1,-4.017592907E0,1.083888245E1
4.897105520E1,-9.773429871E0,-4.618556023E0,9.972154617E0
4.902304846E1,-1.036960411E1,-5.420638084E0,6.806923389E0
4.907504175E1,-9.759063721E0,-5.439792156E0,2.954535007E0
4.912703518E1,-9.823709488E0,-5.753442287E0,2.099778891E0
4.917902850E1,-4.965725899E0,-4.395888329E0,6.081457734E-1
4.923102233E1,-1.209108829E0,-1.292908430E0,1.429382086E0
4.928301611E1,4.213923812E-1,-1.340793848E0,-1.774157643E0
4.933500941E1,-4.388705730E0,2.849186957E-1,7.173247337E0
4.938700277E1,6.938608170E0,1.798100352E0,-1.233051491E1
4.943899659E1,-2.071047783E0,-3.452544212E0,1.522279930E1
4.949099501E1,-4.903474808E0,1.055875182E0,8.997684479E0
4.954299247E1,-5.961744308E0,-2.188127708E1,2.364346313E1
4.959498723E1,-1.144463348E1,-1.093944168E1,1.909913063E1
4.964698056E1,-1.032650757E1,-5.099805593E-1,1.088437366E1
4.969897388E1,-1.252923965E1,-4.841223717E0,7.486897469E0
4.975096721E1,-1.086043072E1,-4.544333458E0,8.025609016E0
4.980296053E1,-7.568302631E0,-3.464515686E0,2.485257149E0
4.985495379E1,-6.272999763E0,-2.442160368E0,3.979284763E0
4.990694801E1,-5.059102535E0,-2.049499273E0,2.262589693E0
4.995889512E1,-9.098244667E0,-3.007209063E0,3.445361376E0
5.001088845E1,-7.283383846E0,5.506832153E-2,3.787742853E0
5.006288184E1,1.268247414E1,-1.865140080E0,-1.314696312E1
5.011487510E1,4.697566986E0,2.370332032E-1,1.197137356E0
5.016686849E1,-1.795706153E0,3.543526828E-1,-2.035133541E-1
5.021886188E1,5.341627121E0,-1.215573311E1,6.249057293E0
5.027085524E1,-6.057515144E0,-3.660367203E1,3.288296890E1
5.032284943E1,-8.681640625E0,-1.561785412E1,1.728905869E1
5.037484285E1,-1.187320900E1,-1.810071707E0,8.186025620E0
5.042683621E1,-1.172715759E1,-2.858764172E0,8.925856590E0
5.047882954E1,-1.040312386E1,-4.838829517E0,7.326480865E0
5.053082313E1,-9.560338974E0,-3.723097324E0,4.544333458E0
5.058282145E1,-5.403878212E0,-3.478881359E0,2.552296877E0
5.063481887E1,-2.245829821E0,-2.604970932E0,3.533949614E0
5.068681286E1,-1.879505754E0,-2.803695917E0,2.877918243E0
5.073880622E1,2.609759569E-1,-1.314456820E0,-8.403904438E-1
5.079079945E1,-1.168406129E0,1.877111435E0,5.909070015E0
5.084279294E1,7.599428177E0,1.314456820E0,-9.929058075E0
5.089478627E1,-1.309668303E0,-1.312062621E0,4.513207912E0
5.094677946E1,-1.015651417E1,-7.589851379E0,1.314456844E1
5.099877318E1,-8.253065109E0,-1.700892830E1,1.153322220E1
5.105076720E1,-8.461367607E0,-1.469126987E1,2.354051018E1
5.110276060E1,-5.183605194E0,-4.027170181E0,1.282373619E1
5.115475396E1,-9.775823593E0,-3.033546209E0,9.689630508E0
5.120674718E1,-6.996070862E0,-4.168432236E0,9.615407944E0
5.125874051E1,-5.923435688E0,-3.636903524E0,9.201197624E0
5.131073393E1,-5.118959427E0,-9.960182905E-1,6.703969479E0
5.136272723E1,-5.779779434E0,-2.094990492E0,9.454991341E0
5.141472098E1,-3.802108288E0,-1.252205729E0,6.423839092E0
5.146671487E1,-2.059076309E0,-2.106961906E-1,1.592192769E0
5.151870826E1,3.447755575E-1,-1.771763414E-1,-8.379961550E-2
5.157070155E1,-6.536370516E-1,4.285751879E-1,-1.343188167E0
5.162269508E1,5.521197796E0,2.202732801E0,-9.234718323E0
5.167469126E1,-4.120546818E0,-2.114144564E0,8.846845627E0
5.172668556E1,-5.691191196E0,-1.350371003E0,6.466936111E0
5.177867888E1,-8.382355690E0,-1.487084103E1,1.122436047E1
5.183067228E1,-1.494266891E1,-1.449254513E1,2.060033989E1
5.188266554E1,-1.058030033E1,-7.431828976E0,1.143745041E1
5.193465886E1,-8.470944405E0,-3.890696526E0,1.061621475E1
5.198665236E1,-9.100638390E0,-6.407079220E0,8.607418060E0
5.203864624E1,-7.237892628E0,-6.067092419E0,8.035185814E0
5.209063990E1,-6.083852291E0,-6.332856655E0,6.706363678E0
5.214263329E1,-4.843617916E0,-4.154066563E0,6.960156918E0
5.219462655E1,-4.156461239E0,-2.545114040E0,2.250618219E0
5.224662008E1,-8.236305237E0,-1.436564922E0,3.469304085E0
5.229861327E1,1.987248063E0,3.079037428E0,-3.442967176E0
5.235060659E1,4.944177628E0,1.211503029E0,-5.727105141E0
5.240260002E1,-1.381496549E0,-1.369525194E0,8.736708641E0
5.245459387E1,-6.792557716E0,-2.214704275E0,6.713546753E0
5.250658773E1,-8.940221786E0,-1.297696972E1,1.111422348E1
5.255858089E1,-1.309428883E1,-8.384750366E0,1.674795151E1
5.261057428E1,-1.127464008E1,-4.400677204E0,1.155237579E1
5.266256781E1,-8.964164734E0,-3.426207304E0,8.324893951E0
5.271456523E1,-9.596253395E0,-4.331243038E0,6.330462456E0
5.276656318E1,-7.743084908E0,-3.543526649E0,3.277762175E0
5.281855758E1,-7.302538395E0,-3.033546209E0,4.532361984E0
5.287055093E1,-5.499649048E0,-2.360754967E0,6.107795238E0
5.292254436E1,-3.553103924E0,-3.428601503E0,3.756617069E0
5.297453762E1,-2.451737404E0,-3.871542454E0,3.847599506E0
5.302653094E1,-4.003227711E0,6.560313106E-1,1.374313712E0
5.307852440E1,5.655277252E0,1.652049661E0,-5.638517380E0
5.313051773E1,-3.234665155E0,-2.633702278E0,2.063864946E0
5.318251202E1,-7.113390446E0,-8.786988258E0,1.322597408E1
5.323450544E1,-2.513988495E0,-2.221887016E1,1.423156929E1
5.328649870E1,-6.861991405E0,-1.251966286E1,1.487802410E1
5.333849203E1,-6.581861496E0,-6.962551117E0,9.124581337E0
5.339048539E1,-7.929838181E0,-6.979310989E0,7.187613010E0
5.344247868E1,-7.168458939E0,-7.518023014E0,6.636929989E0
5.349447204E1,-6.086246490E0,-7.427040577E0,7.386337757E0
5.354646566E1,-3.083826065E0,-3.881119490E0,6.380742550E0
5.359845985E1,-2.423006058E0,-1.316851139E0,4.802915096E0
5.365045314E1,-2.059076309E0,1.553884387E0,3.979284763E0
5.370244640E1,-1.302485466E0,1.759791970E0,8.858817071E-2
5.375443979E1,7.925049663E-1,-7.661679387E-1,3.088614643E-1
5.380643558E1,-9.217958450E0,-1.625712633E0,1.331935120E1
5.385843044E1,-9.098244458E-2,1.702329397E0,5.992869854E0
5.391042377E1,-1.405439258E0,-8.300951004E0,3.510006905E0
5.396241699E1,-1.013975334E1,-1.528744507E1,1.794987869E1
5.401441042E1,-7.503657341E0,-6.191594601E0,1.687484932E1
5.406640378E1,-9.335277557E0,-1.604164124E0,9.258660316E0
5.411839707E1,-9.136552811E0,-3.414235830E0,9.217958450E0
5.417039040E1,-8.159688950E0,-4.144489765E0,6.890722752E0
5.422238468E1,-6.517216206E0,-3.419024467E0,5.739076614E0
5.427437797E1,-5.834847927E0,-1.913025618E0,4.249837875E0
5.432637140E1,-5.001639843E0,2.274561077E-1,4.582642078E0
5.437836472E1,-4.443774223E0,-8.667274714E-1,4.199557781E0
5.443035818E1,-3.802108288E0,-2.061470509E0,1.400650740E0
5.448235138E1,-1.177983165E0,-4.592218876E0,-4.187586784E0
5.453434480E1,-3.579440832E0,-3.227482557E0,-5.856396198E0
5.458633823E1,1.450930476E0,3.591412306E-1,4.575459003E0
5.463833238E1,4.936994553E0,-1.501449776E1,4.865166187E0
5.469032574E1,-1.972882390E0,-2.586535072E1,1.714061356E1
5.474231903E1,-8.595446587E0,-1.308950043E1,8.925856590E0
5.479431239E1,-8.214756966E0,-4.312088966E0,8.104619980E0
5.484630894E1,-1.030256462E1,-9.210775375E0,1.158350182E1
5.489830756E1,-1.083888245E1,-8.083071709E0,8.324893951E0
5.495030252E1,-1.089873886E1,-6.912271500E0,4.225894928E0
5.500229588E1,-6.727912426E0,-1.027143860E1,-5.387118459E-1
5.505428908E1,-1.352765322E0,-8.004060745E0,-9.696813226E-1
5.510628243E1,9.720755816E-1,-4.125335693E0,1.817254543E0
5.515827593E1,7.795758724E0,4.072661400E0,-9.055147171E0
5.521026902E1,8.353624344E0,2.106482887E1,7.611399651E0
5.526226248E1,5.099805355E0,4.558699131E0,2.932986736E0
5.531425607E1,-6.138920784E0,-1.879505730E1,7.120573044E0
5.536625025E1,1.288119793E0,-3.581356430E1,1.189475727E1
5.541824341E1,-3.505218267E0,-1.575672245E1,5.734288216E0
5.547023677E1,-7.034379482E0,-8.667274475E0,3.313676357E0
5.552223013E1,-5.212336063E0,-9.828497887E0,6.031178474E0
5.557422339E1,-7.620976925E0,-1.033368969E1,8.413481712E0
5.562621678E1,-7.539571285E0,-4.223500729E0,3.457332850E0
5.567821011E1,-7.333663940E0,1.565855742E0,-1.151646137E0
5.573020386E1,-1.144463301E0,-1.175588965E0,2.698347807E0
5.578219782E1,3.404658794E0,8.384750366E0,1.254360580E1
5.583419111E1,2.418217659E0,7.767027378E0,1.091549873E1
5.588618444E1,-9.026415944E-1,3.174808502E0,4.266597748E0
5.593817969E1,-3.112557173E0,-1.308471203E1,-7.008042336E0
5.599017512E1,2.427794695E0,-3.167625666E0,1.972882390E0
5.604216851E1,-9.440625191E0,-1.087240219E1,-7.709565163E-1
5.609416183E1,-4.386311531E0,-1.419326115E1,3.244242430E0
5.614615509E1,-3.447755575E-1,-2.599942970E1,2.160354233E1
5.619814849E1,-2.628913641E0,-1.076226521E1,1.531378174E1
5.625014188E1,-6.541158676E0,-5.863578796E0,9.591464996E0
5.630213524E1,-9.871595383E0,-8.865999222E0,9.615407944E0
5.635412889E1,-8.248276711E0,-9.486116409E0,9.708784103E0
5.640612288E1,-1.075029373E1,-5.980898380E0,3.263396502E0
5.645811614E1,-1.081254482E1,-9.818921089E0,1.077423692E-1
5.651010950E1,-5.363175392E0,-7.235498428E0,-1.575432777E0
5.656210296E1,-2.401457548E0,-4.628133297E0,-1.592192769E0
5.661409632E1,6.941002846E0,4.237866402E-1,-7.587456703E0
5.666608945E1,6.249057055E-1,5.042342663E0,3.577046633E0
5.671808284E1,4.187586784E0,3.974496126E0,-5.303318501E0
5.677007679E1,2.403851986E0,-3.861965179E0,1.152364445E1
5.682207048E1,-8.432636261E0,-2.994280052E1,9.000079155E0
5.687406394E1,-5.123748302E0,-2.728994370E1,1.863942909E1
5.692605737E1,-4.189980984E0,-1.499294853E1,6.225114346E0
5.697805285E1,-5.375146866E0,-9.483722687E0,4.977697372E0
5.703005138E1,-4.355185986E0,-6.505244732E0,6.349617004E0
5.708204797E1,-5.365570068E0,-7.233104229E0,5.949772835E0
5.713404150E1,-1.549095750E0,-5.025582790E0,3.897879362E0
5.718603492E1,-3.433390141E0,-2.439765930E0,4.563488007E0
5.723802082E1,-2.399063349E0,5.506832153E-2,3.646480560E0
5.729001411E1,-1.836408734E0,1.970488191E0,9.840469360E-1
5.734200747E1,-6.919454336E-1,2.430188894E0,-5.542746067E0
5.739400112E1,4.687990189E0,3.732674360E0,9.035993576E0
5.744599515E1,-7.398309112E-1,1.364736706E-1,-1.541913033E0
5.749798847E1,-4.448562622E0,-7.946598053E0,3.718308687E0
5.754998183E1,-3.933793545E0,-2.743599510E1,1.152125072E1
5.760197522E1,-5.992869854E0,-1.966178513E1,1.198573971E1
5.765396845E1,-3.584229469E0,-1.068804264E1,8.854028702E0
5.770596187E1,-7.611399651E0,-9.589070320E0,6.340039730E0
5.775795517E1,-6.227508545E0,-9.026415825E0,6.857203007E0
5.780994866E1,-4.455745220E0,-6.244268894E0,4.005621910E0
5.786194288E1,-2.217098475E0,-3.435784340E0,2.183578730E0
5.791393617E1,-9.313728809E-1,-7.302538157E-1,2.755810261E0
5.796592949E1,-1.029538155E0,-7.901107073E-1,1.510787368E0
5.801792295E1,-9.816526622E-2,4.142095447E-1,-1.723877788E-1
5.806991834E1,3.198751211E0,1.278542757E0,-5.482889175E0
5.812191713E1,1.007989645E0,-6.632141471E-1,1.616374969E1
5.817391286E1,-1.664021015E0,-5.712739468E0,1.831620216E0
5.822590612E1,-1.541434097E1,-2.427076340E1,4.723904133E0
5.827789971E1,-7.371972084E0,-7.680833817E0,9.093455315E0
5.832989287E1,-2.260195494E0,-8.458972931E0,1.633853149E1
5.838188623E1,-4.407859802E0,-1.114534950E1,1.646542740E1
5.843387972E1,-1.007510853E1,-9.100638390E0,8.494887352E0
5.848587298E1,-1.091789341E1,-6.624958515E0,3.040729046E0
5.853786667E1,-7.558725357E0,-8.231516838E0,-2.736656189E0
5.858986052E1,-3.656057596E0,-8.719948769E0,-1.592192769E0
5.864185388E1,1.216291547E0,-9.129369736E0,-4.534756660E0
5.869384721E1,2.585816860E0,-6.586649895E0,-6.347222328E0
5.874584050E1,8.200390816E0,-2.887495518E0,-1.852689934E1
5.879783396E1,1.498097706E1,2.257561684E1,-1.802888989E0
5.884982725E1,8.571503758E-1,-1.344624710E1,1.170800400E1
5.890182051E1,5.894704342E0,-2.897551346E1,1.181095791E1
5.895381476E1,-5.157268047E0,-1.572080803E1,7.589851379E0
5.900580819E1,-7.601822376E0,-1.229460144E1,9.256266594E0
5.905780155E1,-9.117398262E0,-1.124830341E1,6.529187202E0
5.910979497E1,-8.346442223E0,-7.556331158E0,5.854001999E0
5.916178940E1,-6.122160912E0,-3.984073162E0,-5.315290093E-1
5.921378552E1,-3.682394743E0,-9.864412308E0,-5.406272411E0
5.926577898E1,5.482889414E-1,-7.874769688E0,-6.601015568E0
5.931777224E1,5.724710941E0,-2.935380936E0,-8.054340363E0
5.936976556E1,6.771008968E0,2.157720375E1,4.448562622E0
5.942175906E1,1.781340480E0,-1.151646137E0,9.960183144E0
5.947375235E1,1.134886265E0,-8.408693314E0,1.165293503E1
5.952574564E1,4.872349262E0,-4.428929520E1,1.223953247E1
5.957773956E1,-1.810071707E0,-1.795945549E1,3.375927448E0
5.962973322E1,-5.648094177E0,-1.388679409E1,1.359948039E0
5.968172658E1,-4.391099930E0,-9.981731415E0,5.796539307E0
5.973371997E1,-3.095797300E0,-6.454965115E0,8.961771011E0
5.978571333E1,-3.004814863E0,-7.752661705E0,7.209161282E0
5.983770659E1,-4.333637238E0,-6.826077461E0,4.369551659E0
5.988969998E1,-4.285751820E0,-3.383110285E0,2.604970932E0
5.994169334E1,-3.244242430E0,-3.050306082E0,-4.886714935E0
5.999368733E1,6.615381241E0,1.731060743E0,-1.207193375E1
6.004568095E1,-4.869955063E0,5.949772835E0,3.114951611E0
6.009767438E1,3.016786277E-1,1.534730196E0,-5.722316742E0
6.014966764E1,2.432583094E0,-5.250644684E0,1.406397057E1
6.020166236E1,9.577099234E-3,-3.711604691E1,1.661387253E1
6.025366108E1,-6.579467297E0,-2.291081619E1,1.322597408E1
6.030565744E1,-6.294548512E0,-1.109746361E1,5.485283375E0
6.035765100E1,-6.421444893E0,-8.277008057E0,7.635342598E0
6.040964432E1,-7.889135361E0,-5.880339146E0,6.447782040E0
6.046163768E1,-8.241093636E0,-5.142902374E0,5.595420361E0
6.051363097E1,-5.973715782E0,-4.565882206E0,5.557111740E0
6.056562433E1,-4.498842239E0,-3.366350412E0,4.764606953E0
6.061761769E1,-5.837242126E0,-3.253819466E0,9.050358534E-1
6.066961118E1,-4.929811954E0,-2.152452946E0,-1.999219418E0
6.072160537E1,1.903448462E0,2.657644987E0,-3.414235830E0
6.077359869E1,5.214730740E0,6.172440529E0,-6.696786404E0
6.082559195E1,-3.031152010E0,-1.661626697E0,4.946571827E0
6.087758535E1,3.878725171E-1,-5.233884811E0,9.131764412E0
6.092957870E1,-7.565908432E0,-3.422855377E1,1.676950073E1
6.098157206E1,-7.800547123E0,-1.744947433E1,1.349652672E1
6.103356549E1,-8.061523438E0,-1.167208958E1,8.353624344E0
6.108555891E1,-8.588263512E0,-8.528407097E0,7.620976925E0
6.113755310E1,-8.221940041E0,-5.786962032E0,5.794145107E0
6.118954642E1,-9.897932053E0,-5.334444046E0,3.665634632E0
6.124153962E1,-7.031985283E0,1.256994247E0,3.258608103E0
6.129353378E1,-9.270631790E0,-3.950553536E-1,8.691217303E-1
6.134553007E1,-7.139727592E0,-5.719922543E0,5.818088055E-1
6.139752366E1,-7.841249943E0,-7.661679387E-2,4.300117493E0
6.144951702E1,2.231464148E0,2.873129770E-2,-6.189200401E0
6.150151038E1,8.535589218E0,3.591412306E-1,-8.854028702E0
6.155350374E1,-5.123748183E-1,-2.332023621E0,-2.533142805E0
6.160549703E1,-1.237840056E0,-4.975303173E0,4.644893110E-1
6.165749042E1,1.151646137E0,-3.003378296E1,1.067607117E1
6.170948408E1,2.499622822E0,-3.228679657E1,1.661387253E1
6.176147820E1,-4.573064804E0,-1.690836906E1,9.160495758E0
6.181347162E1,-1.078381348E1,-4.879531860E0,7.386337757E0
6.186546478E1,-1.729384613E1,-4.348002911E0,2.731867552E0
6.191745801E1,-9.787795067E0,-5.626545906E0,5.190787792E0
6.196945147E1,-8.588263512E0,-3.071854591E0,4.903474808E0
6.202144476E1,-8.238699913E0,1.479661822E0,1.309668303E0
6.207343812E1,-7.460560322E0,-2.209915638E0,2.080624819E0
6.212543198E1,-5.075862408E0,-2.710319042E0,2.842004299E0
6.217742576E1,-2.406246185E0,-6.416656375E-1,2.480468750E0
6.222941906E1,-7.853221297E-1,1.233051538E0,3.241847992E0
6.228141252E1,3.069460392E0,1.087000728E0,-6.823683381E-1
6.233340657E1,4.929811954E0,-1.790917516E0,-7.230710030E0
6.238540493E1,-4.671230316E0,-6.737489223E0,5.763019562E0
6.243740242E1,-3.517189741E0,-4.549122334E0,2.662433624E0
6.248939678E1,1.292908430E0,-2.165860939E1,9.299363136E0
6.254139017E1,-6.363982677E0,-2.670095253E1,2.430188942E1
6.259338343E1,-9.435836792E0,-1.356356716E1,1.620684624E1
6.264537683E1,-1.503365135E1,-2.485257149E0,1.209108734E1
6.269737008E1,-1.109746361E1,-4.125335693E0,1.066170597E1
6.274936361E1,-6.984099388E0,-4.283357620E0,7.096630573E0
6.280135766E1,-5.717528343E0,-3.586623669E0,5.202759266E0
6.285335125E1,-6.359193802E0,-4.984879971E0,2.923409462E0
6.290534441E1,-5.839636326E0,-5.830059052E0,1.726272106E0
6.295733777E1,-1.381496549E0,-2.983266354E0,-2.774964571E0
6.300933113E1,-1.731060743E0,7.613793612E-1,9.677659035E0
6.306132449E1,1.386285067E0,-2.585816681E-1,-1.013496494E1
6.311331778E1,4.355185986E0,5.770202279E-1,-2.353572130E0
6.316531114E1,8.595446348E-1,-1.948939681E0,4.261809349E0
6.321730533E1,-3.751828671E0,-2.971295118E0,1.374313712E0
6.326929878E1,-3.237059593E0,-2.084455681E1,1.329301357E1
6.332129217E1,-6.567495823E0,-2.302813530E1,2.511115456E1
6.337328557E1,-4.637710094E0,-6.251451492E0,1.819648933E1
6.342527936E1,-8.379961967E0,-2.322446585E0,1.249811459E1
6.347727788E1,-1.346540165E1,-6.510033131E0,8.600234985E0
6.352927497E1,-1.030256462E1,-3.181991339E0,5.739076614E0
6.358126879E1,-6.677632332E0,-3.914639235E0,6.859597206E0
6.363326222E1,-9.217957854E-1,-4.065478802E0,6.354405403E0
6.368525548E1,-2.648067951E0,-7.810124397E0,5.806116581E0
6.373724884E1,-2.528354168E0,-4.953754425E0,2.858764172E0
6.378924227E1,-1.237840056E0,8.763045669E-1,5.006428719E0
6.384123546E1,1.541913033E0,1.699935079E0,-3.433390141E0
6.389322915E1,2.949746609E0,2.377514839E0,-7.606611252E0
6.394522330E1,-5.602602959E-1,-3.088614643E-1,-1.498816013E0
6.399721646E1,-4.283357620E0,-2.875524044E0,5.480494976E0
6.404920985E1,-1.283331299E1,-9.189227104E0,1.050368404E1
6.410120314E1,-1.091549873E1,-2.333460236E1,1.537363815E1
6.415319654E1,-1.329061985E1,-1.398256493E1,1.303203773E1
6.420518986E1,-1.139435387E1,-8.492492676E0,7.872375488E0
6.425718326E1,-1.099690437E1,-5.164450645E0,8.542772293E0
6.430917671E1,-1.077902508E1,-6.112583637E0,8.418270111E0
6.436117083E1,-9.790189743E0,-6.495667458E0,6.859597206E0
6.441316422E1,-4.283357620E0,-2.456526041E0,5.626545906E0
6.446515752E1,-3.811685562E0,-3.148471355E0,6.907482624E0
6.451516707E1,-1.028580475E1,-7.417463303E0,1.168406105E1
6.456716323E1,-2.358360767E0,-1.230657220E0,3.304099143E-1
6.461915739E1,-6.727912426E-1,-7.901106775E-2,-7.613793850E0
6.467115072E1,3.701548815E0,4.498842239E0,-9.253871918E0
6.472314401E1,4.094209969E-1,4.237866402E-1,-4.812492430E-1
6.477513730E1,-5.384724140E0,-8.858816624E-1,7.661679387E-2
6.482713082E1,-2.686376333E0,-5.243461609E0,9.402317047E0
6.487912408E1,1.336005330E0,-2.804653549E1,1.271599388E1
6.493111774E1,-5.188393593E0,-2.161311913E1,1.759552574E1
6.498311169E1,-6.189200401E0,-1.123633194E1,1.050607777E1
6.503510498E1,-7.872375488E0,-6.560312748E0,8.559532166E0
6.508709834E1,-1.295781517E1,-9.265843391E0,9.794978142E0
6.513909170E1,-1.109028053E1,-8.394327164E0,5.389512539E0
6.519108499E1,-1.018285084E1,-1.316851139E0,1.879505754E0
6.524307839E1,-8.722343445E0,-4.788549617E-2,1.170800328E0
6.529507168E1,-4.201952457E0,5.267404765E-2,1.534730196E0
6.534706537E1,-3.670423269E0,-1.795706153E-1,-2.712713242E0
6.539905939E1,-1.127703428E0,-1.144463301E0,-5.293741703E0
6.545105268E1,6.399896622E0,-1.733454943E0,-1.779903984E1
6.550304614E1,3.624932051E0,-4.324060440E0,1.452606487E1
6.555503980E1,5.952167034E0,-1.350371003E0,4.326454639E0
6.560703725E1,-5.693585396E0,-1.304879761E1,7.992089272E0
6.565903521E1,-3.869148016E0,-2.002092552E1,1.651810265E1
6.571103054E1,-1.177504349E1,-2.140960503E1,1.765059471E1
6.576302370E1,-5.401484013E0,-6.998465061E0,1.663542175E1
6.581501709E1,-7.544359684E0,-1.125309181E1,1.319005966E1
6.586701035E1,-8.698400497E0,-8.478127480E0,7.867587090E0
6.591900371E1,-8.928250313E0,-5.097411156E0,3.981678963E0
6.597099717E1,-8.221940041E0,-8.186025620E0,-1.077423692E0
6.602299102E1,-5.463735104E0,-4.405465722E-1,2.296109438E0
6.607498488E1,-6.689603806E0,1.266571331E1,-5.152479172E0
6.612697814E1,-3.009603500E0,5.973715782E0,1.340793848E0
6.617897140E1,-9.241901040E-1,3.567469358E0,-1.587404251E0
6.623096482E1,-5.961744189E-1,-4.077449799E0,-3.984073162E0
6.628295812E1,-3.711125851E-1,-1.024031353E1,-8.004060745E0
6.633495144E1,2.248224020E0,-3.208328247E0,8.020820618E-1
6.638694470E1,-2.264983892E0,-4.376734257E0,1.116929245E1
6.643893892E1,-1.829225898E0,-1.142547894E1,7.788576126E0
6.649093251E1,6.294548512E0,-2.655011368E1,2.828117371E1
6.654292570E1,-3.210722446E0,-1.190912247E1,2.415583801E1
6.659491910E1,-9.495694160E0,-2.798907280E0,1.348934460E1
6.664691276E1,-1.195221996E1,-8.071100235E0,1.039833546E1
6.669891008E1,-6.577073097E0,-7.604216576E0,7.000859737E0
6.675090800E1,-5.640911579E0,-7.340846539E0,3.208328247E0
6.680290246E1,-5.238673210E0,-9.194015503E0,2.604970932E0
6.685489575E1,-2.992843628E0,-8.260248184E0,2.085413456E0
6.690688924E1,-4.874743462E0,-3.493247032E0,5.341627121E0
6.695888240E1,-4.453351021E0,4.206740856E0,3.883513689E0
6.701087576E1,4.482082367E0,-8.954587579E-1,-9.792584419E0
6.706286932E1,7.067899227E0,1.865140080E0,3.545921087E0
6.711486281E1,-8.092648983E-1,-2.473285913E0,7.896318436E0
6.716685680E1,-4.142095447E-1,-2.363149166E0,3.924216509E0
6.721885019E1,-1.714300752E0,-2.823807716E1,2.350699043E1
6.727084342E1,-7.218738556E0,-1.682217407E1,1.901293564E1
6.732283684E1,-7.594639778E0,-7.872375488E0,1.244544029E1
6.737483020E1,-9.912297249E0,-3.524372578E0,9.751881599E0
6.742682349E1,-9.208380699E0,-3.998438835E0,7.326480865E0
6.747881705E1,-9.081484795E0,-5.889915943E0,6.885934353E0
6.753081041E1,-7.300143719E0,-7.295355320E0,4.936994553E0
6.758280453E1,-7.704776287E0,-7.233104229E0,3.174808502E0
6.763479782E1,-6.684815407E0,-3.210722446E0,6.220325947E0
6.768679121E1,-7.422251701E0,2.604970932E0,-1.407833576E0
6.773878460E1,2.705530524E-1,1.750214934E0,-3.845205307E0
6.779078029E1,2.156283951E1,4.975303173E0,-6.921848297E0
6.784277522E1,5.004034638E-1,-1.544307232E0,9.337671995E-1
6.789476854E1,-6.031178474E0,-1.867534369E-1,1.072635174E0
6.794676177E1,-2.147664547E0,-6.553130150E0,5.023188591E0
6.799875523E1,-3.663240433E0,-3.128120041E1,2.325559044E1
6.805074856E1,-6.759037971E0,-1.952052307E1,2.150298119E1
6.810274185E1,-9.423865318E0,-9.680052757E0,1.002243423E1
6.815473574E1,-1.109028053E1,-3.840416908E0,8.226728439E0
6.820672959E1,-8.197997093E0,-4.848406315E0,5.863578796E0
6.825872285E1,-7.970541000E0,-5.286558628E0,7.654496670E0
6.831071624E1,-6.088640690E0,9.577099234E-3,5.006428719E0
6.836270957E1,-2.073441982E0,1.908236980E0,4.788549423E0
6.841470286E1,-7.726325035E0,-5.197970390E0,7.022408009E0
6.846669619E1,-3.917033672E0,-2.873129845E0,3.945764780E0
6.851868958E1,-3.438178539E0,-1.225868702E0,-5.554717541E0
6.857068337E1,7.110996246E-1,-2.906649590E0,-5.889915943E0
6.862267715E1,4.254626274E0,9.409499764E-1,-4.587430477E0
6.867467061E1,-5.027977228E-1,-4.934600353E0,-3.299310684E0
6.872666387E1,2.592999697E0,-2.261631966E1,1.564898014E1
6.877865720E1,-2.269772530E0,-2.481905174E1,2.597548676E1
6.883065372E1,-3.902667999E0,-1.171997547E1,2.059555244E1
6.888265217E1,-5.162056446E0,-5.018400192E0,1.572080803E1
6.893464727E1,-1.054678059E1,-6.725517750E0,1.087000751E1
6.898664093E1,-9.227535248E0,-6.440599442E0,6.529187202E0
6.903863425E1,-6.881145954E0,-7.324086666E0,4.048718929E0
6.909062728E1,-3.050306082E0,-3.703943014E0,4.290540695E0
6.914262071E1,-1.005595446E0,-3.330436230E0,4.812492371E0
6.919461383E1,-1.295302629E0,-4.067873001E0,3.991255999E0
6.924660722E1,7.326480746E-1,-3.833234072E0,5.303318501E0
6.929860131E1,-5.413455486E0,6.799740195E-1,-6.126949310E0
6.935059503E1,6.519610405E0,3.761405706E0,-1.340315056E1
6.940258823E1,2.748627424E0,1.532335877E0,-6.301731110E0
6.945458162E1,1.379102230E0,-1.326667690E1,1.930024910E1
6.950657494E1,3.402264595E0,-2.910959244E1,1.590277290E1
6.955856814E1,-6.047938347E0,-2.157002258E1,1.885730934E1
6.961056160E1,-6.000052452E0,-6.976916790E0,1.344145870E1
6.966255516E1,-7.338452339E0,-6.488484859E0,1.051804924E1
6.971454921E1,-9.316123009E0,-8.217150688E0,8.078283310E0
6.976654260E1,-7.948992252E0,-6.687209606E0,6.301731110E0
6.981853589E1,-4.620950222E0,-8.059128761E0,5.032765865E0
6.987052928E1,7.058321953E0,-3.591412306E-1,-4.549122155E-1
6.992252450E1,7.307326794E0,5.253038883E0,5.061496735E0
6.997452030E1,-6.907482624E0,-4.836435318E0,1.749496651E1
7.002651329E1,-2.842004299E0,-8.020820618E-1,-4.582642078E0
7.007850661E1,-1.960911036E0,-2.892283916E0,-1.490436077E1
7.013049991E1,1.180377483E0,-2.655250788E0,4.228289127E0
7.018249330E1,-1.110704041E1,-4.010410309E0,-2.109356165E0
7.023448679E1,-9.002473354E-1,-1.991557693E1,9.744698524E0
7.028647998E1,1.185166001E0,-2.457962608E1,2.686615753E1
7.033847404E1,-1.043903828E0,-8.171659470E0,1.693709946E1
7.039046763E1,-4.501236439E0,-5.312895775E0,1.384609127E1
7.044246112E1,-1.114774323E1,-8.051946640E0,1.099211597E1
7.049445434E1,-1.025467873E1,-7.862798691E0,8.964164734E0
7.054644757E1,-8.250671387E0,-6.708757877E0,3.160442829E0
7.059844110E1,-6.119766235E0,-3.778165579E0,2.657645047E-1
7.065043429E1,-3.407052994E0,-4.098998547E0,2.310475111E0
7.070242775E1,-2.657644987E0,-3.354378939E0,1.561067224E0
7.075442193E1,-6.651295185E0,3.136500120E-1,-5.157268047E0
7.080641526E1,1.095859623E1,5.545140266E0,-1.300809479E1
7.085840875E1,3.294522047E0,9.577099234E-2,1.015172482E0
7.091040204E1,-1.297696948E0,-5.937801600E-1,9.093455315E0
7.096239766E1,-9.878777504E0,-2.557085419E1,1.278782177E1
7.101439649E1,-8.068706512E0,-2.926282692E1,2.237689209E1
7.106639218E1,-6.105400562E0,-9.433443069E0,1.189475727E1
7.111838537E1,-7.680833817E0,-3.708731651E0,7.271412373E0
7.117037880E1,-8.791776657E0,-6.193988800E0,5.947378635E0
7.122237209E1,-6.797346115E0,-6.730306625E0,7.053533554E0
7.127436542E1,-5.961744308E0,-4.515602112E0,4.802915096E0
7.132635874E1,-5.825270653E0,-1.774157643E0,4.551516533E0
7.137835217E1,-8.245882034E0,-2.636096478E0,5.645699978E0
7.143034582E1,-2.413429022E0,1.446141958E0,3.806896806E-1
7.148233968E1,5.832453251E0,-1.338399649E0,-9.258660316E0
7.153433304E1,1.826831698E0,-1.137280583E0,1.043903828E0
7.158632643E1,3.567469358E0,1.608952641E0,-1.769369125E0
7.163831969E1,-4.139701366E0,-4.829252243E0,8.794171333E0
7.169031305E1,-3.897879362E0,-1.830183601E1,2.059555244E1
7.174230641E1,-4.211529255E0,-3.030673027E1,2.153171349E1
7.179429980E1,-8.389538765E0,-8.846845627E0,9.062330246E0
7.184432568E1,-1.094423008E1,-5.712739468E0,5.116565228E0
7.189631963E1,-8.966559410E0,-8.901913643E0,6.033572674E0
7.194831296E1,-7.137333393E0,-3.830839634E0,5.054314137E0
7.200030642E1,-1.068564892E1,-7.996878028E-1,9.720755816E-1
7.205230088E1,-7.168458939E0,-1.549095750E0,-4.549122229E-2
7.210429696E1,-6.821289062E0,-3.584229469E0,1.168406129E0
7.215629039E1,-4.987274647E0,-3.663240433E0,-2.777358890E-1
7.220828365E1,4.678412914E0,-2.609759569E-1,3.646480560E0
7.226027714E1,5.135719299E0,1.585009933E0,-1.316851079E-1
7.231227037E1,5.980898380E0,6.464542150E-1,-5.154873848E0
7.236426370E1,-1.546701550E0,-5.458946705E0,1.527547359E1
7.241625702E1,2.133298874E0,-9.079090118E0,8.569109917E0
7.246825058E1,-1.345821857E1,-2.593478394E1,1.630501175E1
7.252024483E1,-9.409500122E0,-8.528407097E0,1.397059345E1
7.257223802E1,-1.285964966E1,-5.624151707E0,7.695199013E0
7.262423138E1,-9.347249031E0,-6.524398804E0,8.772623062E0
7.267622478E1,-7.441406250E0,-7.259441376E0,6.368771076E0
7.272821804E1,-5.607391834E0,-6.572284222E0,5.832453251E0
7.278021143E1,-4.300117493E0,-9.093455315E0,4.558699131E0
7.283220476E1,-4.676018715E0,-1.188278580E1,4.168432236E0
7.288419848E1,-4.218712330E0,-2.964112282E0,9.684841156E0
7.293619246E1,3.057488918E0,3.761405706E0,-8.533195496E0
7.298818576E1,2.389486313E0,5.408666611E0,7.733507752E-1
7.304017905E1,6.356799603E0,3.715914488E0,-3.586623669E0
7.309217374E1,5.435003638E-1,1.527547359E0,1.608952641E0
7.314417243E1,-3.933793545E0,-1.848140717E1,1.286922741E1
7.319616939E1,-1.374313712E0,-3.859331512E1,2.402654839E1
7.324816355E1,-8.509252548E0,-1.692033958E1,1.019961071E1
7.330015687E1,-8.741497040E0,-4.022381783E0,6.981705189E0
7.335215010E1,-1.071198559E1,-7.139727592E0,6.098217964E0
7.340414339E1,-8.928250313E0,-8.660092354E0,6.823683262E0
7.345613705E1,-6.665660858E0,-1.137041092E1,7.120573044E0
7.350813028E1,2.274561167E0,-6.701575279E0,2.406246185E0
7.356012433E1,1.410227895E0,-3.663240433E0,4.285751820E0
7.361211775E1,-4.211529255E0,1.637683988E0,1.107352066E1
7.366411108E1,-5.004034519E0,4.443774223E0,-2.126116037E0
7.371610441E1,3.253819466E0,3.905062199E0,-1.425551224E1
7.376809780E1,5.770202279E-1,1.860351562E0,-6.416656375E-1
7.382009103E1,-7.302538157E-1,1.939362645E0,-3.960130453E0
7.387208448E1,-4.917840481E0,-8.729525566E0,4.795732498E0
7.392407788E1,3.742251635E0,-3.141527939E1,1.221319580E1
7.397607199E1,-6.914665699E0,-2.798428345E1,1.347497845E1
7.402806542E1,-7.764633179E0,-1.115013790E1,8.008849144E0
7.408005881E1,-9.086273193E0,-6.256239891E0,3.629720688E0
7.413205220E1,-7.980117798E0,-7.788576126E0,7.197190285E0
7.418404659E1,-7.728719234E0,-7.213950157E0,5.964138508E0
7.423604538E1,-9.555550575E0,-3.917033672E0,6.143709183E0
7.428804194E1,-6.802134514E0,2.293715239E0,3.059883118E0
7.434003540E1,-7.185218811E0,6.751855016E-1,3.158048391E0
7.439202892E1,-5.171633720E0,2.332023621E0,5.889915824E-1
7.444402215E1,-1.199531674E0,2.217098475E0,1.987248063E-1
7.449601541E1,-9.409499764E-1,2.154847383E0,6.727912426E-1
7.454800880E1,-2.154847383E-1,1.393467903E0,-6.598621368E0
7.460000220E1,-3.495641351E-1,5.171633363E-1,1.589798450E0
7.465199565E1,1.151646137E0,-2.343995094E0,5.075862408E-1
7.470398980E1,2.190761566E0,-1.025707340E1,6.373559475E0
7.475598316E1,1.405439258E0,-2.442639160E1,1.467211628E1
7.480797649E1,-6.385530949E0,-2.073920822E1,1.987248039E1
7.485996988E1,-4.884320736E0,-1.051326084E1,1.563461494E1
7.491196311E1,-3.234665155E0,-9.016839027E0,1.381975460E1
7.496395647E1,-5.557111740E0,-9.071907043E0,1.137759399E1
7.501594989E1,-4.848406315E0,-6.038361073E0,1.053480911E1
7.506794348E1,-5.679219723E0,1.364736706E-1,6.088640690E0
7.511993750E1,-5.772596359E0,1.189954638E0,3.806896925E0
7.517193096E1,-3.433390141E0,1.096577883E0,1.716695070E0
7.522392422E1,-2.590605259E0,-1.573038578E0,2.324840784E0
7.527591818E1,-2.382303476E0,-1.067846537E0,3.069460392E0
7.532791453E1,1.690358043E0,-2.930592299E0,2.372726440E0
7.537990819E1,-6.177229285E-1,-5.260221958E0,-1.632895470E0
7.543190152E1,1.412622184E-1,-3.936187744E0,-7.613793612E-1
7.548389485E1,-2.315263748E0,-4.893897533E0,-1.503604531E0
7.553588827E1,-3.186779737E0,-1.636486816E1,7.099024773E0
7.558788150E1,-8.561926842E0,-2.390683365E1,1.955164719E1
7.563987489E1,-6.608198643E0,-1.590995598E1,1.844309807E1
7.569186855E1,-7.369577885E0,-9.284997940E0,1.345343018E1
7.574386243E1,-1.056114578E1,-7.462954521E0,1.029059315E1
7.579585596E1,-9.505270958E0,-1.055156898E1,1.047016335E1
7.584784925E1,-8.068706512E0,-1.270881081E1,7.496474266E0
7.589984254E1,-5.037554264E0,-1.177025509E1,4.249837875E0
7.595183604E1,-2.506805658E0,-8.482915878E0,1.683175206E0
7.600382930E1,-2.296109438E0,-3.361561775E0,6.751855016E-1
7.605582259E1,-2.837215662E0,-1.860351562E0,7.182824425E-3
7.610781674E1,-3.902668059E-1,-9.816526622E-2,-4.395888329E0
7.615981026E1,9.342460632E0,2.150058746E0,-3.160442829E0
7.621180359E1,1.166011810E0,-7.733507752E-1,4.230683804E0
7.626379692E1,8.308133483E-1,-4.673624516E0,2.114144564E0
7.631579091E1,3.919427872E0,-3.421657944E1,9.397528648E0
7.636778936E1,-1.781340480E0,-2.542240906E1,1.361384678E1
7.641978638E1,-5.798933506E0,-1.392989063E1,6.651295185E0
7.647178031E1,-7.752661705E0,-8.801354408E0,7.707170486E0
7.652377360E1,-9.761458397E0,-6.802134514E0,9.024022102E0
7.657576693E1,-8.614601135E0,-5.588237286E0,6.227508545E0
7.662776029E1,-3.945764780E0,-3.320859194E0,7.110996246E0
7.667975361E1,6.656084061E-1,2.992843390E-1,4.568276405E0
7.673174684E1,-5.818088055E-1,-1.822043180E0,4.096604347E0
7.678374030E1,-4.857983589E0,-3.282550812E0,7.182824612E-1
7.683573422E1,-4.094210148E0,-3.395081758E0,2.104567528E0
7.688772811E1,-3.351984918E-2,1.405439258E0,-7.003253937E0
7.693972133E1,-3.296916485E0,1.429382086E0,-4.549122155E-1
7.699171459E1,-1.110943556E0,-2.853975534E0,5.042342663E0
7.704370815E1,1.273754239E0,-2.761317062E1,8.087860107E0
7.709570131E1,-3.313676357E0,-2.350459671E1,1.532575321E1
7.714769467E1,-6.964945316E0,-1.175588894E1,1.085803604E1
7.719968803E1,-7.812518597E0,-9.081484795E0,1.174391747E1
7.725168215E1,-7.436617374E0,-8.717555046E0,7.987300873E0
7.730367564E1,-7.053533554E0,-8.083071709E0,5.959350109E0
7.735566896E1,-9.009655952E0,-9.790189743E0,3.890696526E0
7.740766272E1,-2.286532402E0,-7.103813171E0,2.054287672E0
7.745965891E1,-3.423812985E-1,-1.898659945E0,5.985686779E-1
7.751165287E1,1.101366401E0,3.067065954E0,-5.569083214E0
7.756364640E1,-3.122134447E0,6.519610405E0,-5.099805355E0
7.761563969E1,1.360905838E1,6.538764477E0,-1.109506989E1
7.766763301E1,3.715914488E0,-1.297696948E0,4.680807114E0
7.771962628E1,-3.368744612E0,-1.874238396E1,8.777411461E0
7.777161957E1,-4.331243038E0,-4.298680878E1,1.345103550E1
7.782361292E1,-6.059909344E0,-1.695146561E1,9.536396980E0
7.787560718E1,-5.525986195E0,-7.853221416E0,8.600234985E0
7.792760054E1,-6.323279858E0,-8.662486076E0,8.755863190E0
7.797959393E1,-7.934626579E0,-6.972128391E0,5.387118340E0
7.803158745E1,-8.415876389E0,-5.791750908E0,4.759818554E0
7.808358078E1,-4.541939259E0,-4.245049000E0,3.562680960E0
7.813557397E1,-4.331243038E0,-5.281770229E0,5.736682415E0
7.818756746E1,-4.151672363E0,1.963305324E-1,1.836408734E0
7.823956099E1,1.429382086E0,1.980065227E0,-1.186842060E1
7.829155511E1,7.963357925E0,3.380716085E0,6.644112587E0
7.834354837E1,5.370358467E0,3.845205307E0,-8.236305237E0
7.839554169E1,5.578660369E-1,-2.772570133E0,4.917840481E0
7.844753522E1,-1.630501151E0,-1.798339844E1,1.488281250E1
7.849953310E1,-7.225921154E0,-3.544484329E1,1.795945549E1
7.855153086E1,-1.063536835E1,-1.739201164E1,1.007271385E1
7.860352602E1,-8.863605499E0,-4.065478802E0,8.710371971E0
7.865551935E1,-6.857203007E0,-8.296162605E0,9.105426788E0
7.870751268E1,-6.359193802E0,-7.029590607E0,7.398309231E0
7.875950594E1,-9.984126091E0,-7.699987888E0,3.627326250E0
7.881149956E1,-9.239506721E0,-7.858009815E0,2.456526041E0
7.886349272E1,-4.568276405E0,-5.296135902E0,6.703969240E-1
7.891548671E1,-4.860377789E0,-2.068653345E0,2.250618339E-1
7.896748047E1,1.156434774E0,2.039922237E0,-8.535589218E0
7.901947376E1,5.832453251E0,5.293741703E0,-1.652049661E0
7.907146705E1,1.068085957E1,3.306493521E0,-7.886741161E0
7.912343371E1,-1.295542145E1,-7.783787251E0,8.918673515E0
7.917542697E1,-2.142875910E0,5.123748183E-1,7.412674904E0
7.922742039E1,-3.026363373E0,-1.654683304E1,1.396580505E1
7.927941362E1,-1.343906403E1,-1.803367805E1,1.725314522E1
7.933140781E1,-1.620205688E1,-1.035284424E1,8.573898315E0
7.938340136E1,-9.996097565E0,-6.342433929E0,9.596253395E0
7.943539479E1,-1.126506329E1,-7.925049782E0,8.547560692E0
7.948738835E1,-8.693612099E0,-8.248276711E0,1.836408734E0
7.953938147E1,-6.723123550E0,-9.026415825E0,2.734261751E0
7.959137913E1,-4.498842239E0,-1.005116558E1,1.999219418E0
7.964337695E1,-1.326428294E0,-1.261782765E0,-1.174152374E1
7.969537134E1,4.996851444E0,3.184385538E0,-1.840239525E1
7.974736467E1,1.489717770E1,1.065691757E1,-1.308471203E1
7.979935803E1,3.014391899E0,3.778165579E0,-8.772623062E0
7.985135132E1,-3.201145411E0,-1.410227895E0,1.035044956E1
7.990334471E1,-9.648927450E-1,-4.589824677E1,2.054287672E0
7.995533811E1,-6.763826370E0,-3.147992516E1,1.228981304E1
8.000733146E1,-4.467716694E0,-1.262261677E1,1.460507631E0
8.005932568E1,-1.434170604E0,-8.454184532E0,2.901860952E0
8.011131907E1,-3.799714088E0,-8.988107681E0,9.323306084E0
8.016331243E1,-7.616188049E0,-9.103033066E0,8.669669151E0
8.021530569E1,-1.260585690E1,5.023188591E0,7.695199013E0
8.026729902E1,-1.108070374E1,3.129317284E0,8.150111198E0
8.031929254E1,-5.293741703E0,-3.567469418E-1,1.290514112E0
8.037128574E1,-8.856422424E0,-7.836461544E0,7.182824612E-2
8.042327910E1,8.332076073E-1,-4.314483166E0,-1.076226521E1
8.047527341E1,3.790137053E0,-6.651295185E0,-1.901054144E0
8.052726671E1,-1.261782765E0,-3.050306082E0,-2.176395893E0
8.057926003E1,1.256994247E0,-4.149278164E0,-1.276148438E0
8.063125359E1,2.523565531E0,-2.719177818E1,1.275430202E1
8.068324938E1,-3.052700281E0,-2.401696968E1,1.862985229E1
8.073524407E1,-6.876357079E0,-1.504083443E1,1.401129627E1
8.078723743E1,-1.013496494E1,-7.647313595E0,1.382693672E1
8.083923076E1,-1.042467213E1,-4.386311531E0,9.067118645E0
8.089122412E1,-8.087860107E0,-2.683982134E0,8.949799538E0
8.094321738E1,-1.671922112E1,-6.727912426E0,1.841197371E0
8.099521077E1,-6.715940952E0,-4.400677204E0,-1.901054144E0
8.104720416E1,1.197137356E0,-3.464515686E0,-3.974496126E-1
8.109919828E1,-1.194743156E0,-1.013735962E1,1.291232395E1
8.115119184E1,5.485283375E0,-5.861184597E0,-1.215094471E1
8.120318513E1,4.668835640E0,-6.426233768E0,-1.003201103E1
8.125517839E1,1.098972082E0,-8.497281075E0,1.544307232E0
8.130717182E1,-1.120520592E0,-1.294584370E1,-4.328848839E0
8.135916511E1,-2.370332032E-1,-3.391250992E1,1.182771778E1
8.141115840E1,-4.884320736E0,-2.906888962E1,1.065691757E1
8.146315192E1,-1.252684593E1,-1.674316406E1,3.785348415E0
8.151514608E1,-1.912786102E1,-2.571451187E0,2.461314440E0
8.156713953E1,-1.327625370E1,-8.856422424E0,6.991282463E0
8.161913279E1,-1.081015110E1,-2.614548206E0,6.452570438E0
8.167112615E1,-8.403904915E0,-6.830865860E0,4.697566986E0
8.172312287E1,-4.168432236E0,-1.069043732E1,1.149251938E0
8.177512116E1,-5.521197796E0,-1.032411289E1,-1.513181686E0
8.182711716E1,2.087807655E0,-3.770982742E0,-2.693559170E0
8.187911055E1,2.583422422E0,3.241847992E0,-1.190433407E1
8.193110378E1,2.106961906E-1,5.324867249E0,-8.844450951E0
8.198309710E1,1.477267504E0,-1.156434774E0,2.195549965E0
8.203509046E1,-4.245049000E0,-6.421444893E0,1.469845295E1
8.208708379E1,-1.527786732E1,-4.492377853E1,2.138087463E1
8.213907768E1,-1.198573971E1,-1.825395203E1,1.272796535E1
8.219107146E1,-7.587456703E0,-1.039833546E1,5.813299179E0
8.224306482E1,-5.190787792E0,-7.704776287E0,5.425426483E0
8.229505815E1,-2.973689318E0,-7.352818012E0,1.002004051E1
8.234705151E1,-5.051919937E0,-9.205986977E0,1.005834866E1
8.239904487E1,-4.989668846E0,-6.821289062E0,5.463735104E0
8.245103813E1,4.721509933E0,3.146077156E0,-2.106961727E0
8.250303152E1,3.471698523E0,-1.975276709E0,-9.560338974E0
8.255502554E1,1.304879785E0,6.766220570E0,-7.580274105E0
8.260701913E1,4.288146019E0,-1.508393139E-1,6.462147713E0
8.265901252E1,3.028757572E0,9.816526622E-2,1.307274103E0
8.271100588E1,-1.226108170E1,-2.384937096E1,6.775797606E-1
8.276299917E1,-1.318287754E1,-2.854693794E1,1.684611702E1
8.281499569E1,-8.245882034E0,-1.927151871E1,1.141111374E1
8.286699418E1,-7.580274105E0,-8.494887352E0,5.406272411E0
8.291898911E1,-7.711959362E0,-7.371972084E0,5.446975231E0
8.297098270E1,-7.759844780E0,-2.545114040E0,6.337645531E0
8.302297589E1,-2.842004299E0,-6.347222328E0,3.047911882E0
8.307496918E1,-2.729473412E-1,-8.547560692E0,-4.647287369E0
8.312696255E1,-1.075029373E0,-2.217098475E0,-1.011820507E1
8.317895590E1,9.629773140E0,3.076643229E0,-1.027862167E1
8.323094923E1,8.978530884E0,3.802108288E0,-1.901054144E0
8.328294342E1,-4.908263385E-1,-6.941002846E0,9.112609863E0
8.333493684E1,-3.438178539E0,-4.262527466E1,1.399453640E1
8.338693017E1,-4.699961662E0,-2.276237106E1,1.190912247E1
8.343892356E1,-7.084659100E0,-1.084606457E1,5.516408920E0
8.349091688E1,-7.893924236E0,-9.402317047E0,5.573871613E0
8.354291014E1,-7.551542759E0,-6.179623127E0,4.975303173E0
8.359490354E1,-5.499649048E0,-6.596227169E0,1.474873304E0
8.364689729E1,2.473285913E0,-9.229928970E0,-2.655250788E0
8.369889125E1,-2.511354828E1,-1.503365135E1,-1.684851265E1
8.375088457E1,7.156487465E0,1.430818653E1,-8.190814018E0
8.380287797E1,2.719896078E0,1.344385338E1,-6.725517750E0
8.385487119E1,1.077423692E0,-2.657645047E-1,1.419804955E1
8.390686655E1,-6.265817165E0,-5.800370026E1,6.174834728E0
8.395886184E1,-8.707977295E0,-2.751979446E1,-4.723904133E0
8.401085517E1,-1.087000728E0,-1.832817459E1,6.519610405E0
8.406284856E1,-8.858816624E-1,-7.783787251E0,8.537983894E0
8.411484182E1,-6.012023926E0,-7.733507752E-1,6.122160912E0
8.416683518E1,-8.382355690E0,-1.915419847E-1,2.059076279E-1
8.421882870E1,-5.818088055E-1,2.154847234E-2,4.422225475E0
8.427082226E1,-7.110996246E0,-9.718361855E0,1.332413960E1
8.432281628E1,6.457359314E0,1.156195259E1,-1.482056141E1
8.437480984E1,5.573871613E0,-1.675992310E-1,2.272166729E0
8.442680296E1,-7.089447498E0,-1.195700836E1,1.225868702E1
8.447879636E1,-1.213657856E1,-2.981111526E1,1.400650787E1
8.453078971E1,-9.708784103E0,-1.453324795E1,1.228502369E1
8.458278317E1,-7.151699066E0,-1.094662476E1,5.339232922E0
8.463477630E1,-6.423839092E0,-7.846038342E0,3.847599506E0
8.468676989E1,-3.308887720E0,-4.944177628E0,4.628133297E0
8.473876397E1,1.029538140E-1,-5.054314137E0,8.363202095E0
8.479075720E1,3.493247032E0,-5.083045483E0,3.177202702E0
8.484275069E1,2.202732801E0,6.943396926E-1,-2.100976181E1
8.489474402E1,2.494834423E0,8.686429024E0,-1.172236919E1
8.494673964E1,-2.628913641E0,-3.979284763E0,7.891529560E0
8.499873839E1,3.895485163E0,-1.485168648E1,3.754222870E0
8.505073415E1,-1.177264881E1,-2.157959938E1,1.653725624E1
8.510272748E1,-8.990502357E0,-1.308710575E1,9.296969414E0
8.515472070E1,-6.864386082E0,-6.883540154E0,7.544359684E0
8.520671396E1,-8.305739403E0,-5.236279011E0,6.232297421E0
8.525870735E1,-4.388705730E0,-7.091842175E0,3.735068798E0
8.531070071E1,-2.437371731E0,-6.016812801E0,5.913858891E0
8.536269411E1,-2.468497276E0,-3.040729046E0,-1.316851079E-1
8.541468783E1,-9.929058075E0,-6.038361073E0,1.140871906E1
8.546668172E1,1.950376320E1,1.498576641E1,-7.795758724E0
8.551867501E1,6.304125786E0,1.620923996E0,7.161275864E0
8.557066853E1,2.712713242E0,-1.387721634E1,9.653716087E0
8.562266169E1,-1.176067829E1,-2.742402458E1,1.314696312E1
8.567465525E1,-1.379341698E1,-1.592432213E1,8.051946640E0
8.572664854E1,-8.727131844E0,-8.523618698E0,7.699987888E0
8.577864167E1,-8.791776657E0,-6.866780281E0,6.998465061E0
8.583063562E1,-7.386337757E0,-1.568249941E0,4.070267200E0
8.588262931E1,-8.039975166E0,-2.719896078E0,7.398309112E-1
8.593462264E1,-2.894678354E0,-4.371945858E0,1.862745762E0
8.598661610E1,3.208328187E-1,-3.246636629E0,2.480468750E0
8.603861059E1,-3.227482557E0,-4.714327335E0,6.421444893E0
8.609060665E1,2.190761566E0,-8.691217303E-1,-2.470891714E0
8.614260007E1,1.491633177E0,-1.163617611E0,-5.339232922E0
8.619459333E1,6.301731110E0,-1.714300752E0,-5.035160065E0
8.624658672E1,-4.841223717E0,-2.230745888E1,1.209348202E1
8.629858002E1,-7.853221416E0,-2.481187057E1,2.191240311E1
8.635057338E1,-1.036960411E1,-1.682935715E1,9.646533012E0
8.640250654E1,-8.868393898E0,-5.248250484E0,8.020820618E0
8.645450069E1,-6.340039730E0,-5.844424725E0,6.256239891E0
8.650649421E1,-7.453377247E0,-7.127756119E0,9.550762177E0
8.655848750E1,-4.264203548E0,-8.066311836E0,2.767781734E0
8.661048086E1,-2.964112282E0,-7.932232380E0,2.061470509E0
8.666247426E1,-2.748627424E0,-2.930592299E0,2.475680113E0
8.671446758E1,1.108549237E0,1.324033976E0,-4.539545059E0
8.676646094E1,2.059076309E1,1.089395046E0,5.906675816E0
8.681845427E1,-1.670006752E1,-9.313728809E-1,2.214704275E0
8.687044822E1,-2.540325642E0,-2.652856588E0,8.111803055E0
8.692244198E1,2.988054991E0,-3.815276718E1,5.487678051E0
8.697443520E1,-4.273780346E0,-2.028668976E1,1.554602623E1
8.702642856E1,-3.713520288E0,-1.199771118E1,7.146910191E0
8.707842332E1,-5.490072250E0,-9.383162498E0,9.522030830E0
8.713042234E1,-5.760625362E0,-7.252258301E0,1.157871342E1
8.718241863E1,-9.155706406E0,-1.188757420E1,6.323279858E0
8.723441196E1,-8.035185814E0,-1.247896004E1,3.241847992E0
8.728640522E1,-4.367157459E0,-5.676825523E0,-1.300091267E0
8.733839867E1,1.000806928E0,-1.364736706E-1,-5.437397957E0
8.739039200E1,7.941809654E0,-1.527547359E0,9.529213905E-1
8.744238529E1,5.497254848E0,1.288119793E0,-2.542719841E0
8.749437859E1,5.913859010E-1,-2.032739401E0,-6.483695984E0
8.754637218E1,5.382329941E0,-6.957762718E0,-3.165231228E0
8.759836630E1,-3.114951611E0,-3.578722382E1,1.266810799E1
8.765035959E1,-7.869981289E0,-2.621970367E1,1.204799080E1
8.770235298E1,-1.118126297E1,-1.555081463E1,4.424619675E0
8.775434631E1,-1.251966286E1,-6.572284222E0,5.269798756E0
8.780633953E1,-9.392740250E0,-6.296942711E0,6.383136749E0
8.785833302E1,-7.453377247E0,-4.283357620E0,5.370358467E0
8.791032652E1,-4.750241280E0,-4.953754425E0,6.684815407E0
8.796232021E1,-1.403045058E0,-6.380742550E0,3.409447432E0
8.801431396E1,-3.747040033E0,-7.015225410E0,4.836435318E0
8.806630729E1,-6.232297421E0,-5.593026161E0,-2.193155766E0
8.811830058E1,8.894730568E0,3.517189741E0,-1.546462059E1
8.817029474E1,-1.776551962E0,4.601796150E0,-3.833234072E0
8.822229099E1,3.711125851E-1,1.525153041E0,3.028757572E0
8.827428458E1,-5.355992794E0,-1.202883625E1,1.346540165E1
8.832627804E1,-6.426233768E0,-3.421897507E1,1.941996384E1
8.837827137E1,-8.499675751E0,-1.796184921E1,1.043424988E1
8.843026460E1,-7.403097630E0,-7.158881664E0,5.707951069E0
8.848225802E1,-9.440625191E0,-4.848406315E0,3.955342054E0
8.853425135E1,-5.497254848E0,-4.077449799E0,4.790944099E0
8.858624501E1,-6.476513386E0,-4.352791786E0,5.909070015E0
8.863823892E1,-9.024022102E0,-3.567469418E-1,3.675211906E0
8.869023232E1,-9.878777504E0,1.259388566E0,-2.719896078E0
8.874222564E1,-1.128421688E1,-6.057515144E-1,7.501263142E0
8.879421900E1,-3.205934048E0,8.188419938E-1,-2.470891714E0
8.884621236E1,7.316903591E0,-8.092648983E-1,-1.337681293E1
8.889820562E1,4.462928295E0,-2.971295118E0,-5.030371189E0
8.895019895E1,-2.624125242E0,-5.001639843E0,4.206740856E0
8.900219317E1,-4.429408312E-1,-2.856609344E1,1.118126392E0
8.905418676E1,-1.850774407E0,-3.518386841E1,2.459638596E1
8.910618002E1,-5.777385235E0,-1.412143326E1,8.061523438E0
8.915817341E1,-9.450202942E0,-5.061496735E0,5.818087578E0
8.921016746E1,-7.058321953E0,-7.965752125E0,1.126985168E1
8.926216612E1,-7.731113434E0,-1.020439911E1,9.438231468E0
8.931416331E1,-8.463761330E0,-8.039975166E0,5.255433083E0
8.936615767E1,-5.712739468E0,-2.916226625E0,2.746233225E0
8.941815096E1,-6.761432171E0,6.488484740E-1,1.757397652E0
8.947014442E1,-6.086246490E0,6.727912426E-1,4.309694767E-1
8.952213775E1,1.002961731E1,3.806896806E-1,-1.261303997E1
8.957413101E1,8.954587936E0,-1.879505754E0,6.493273258E0
8.962612437E1,1.970488191E0,-3.246636629E0,-1.362342358E0
8.967811869E1,5.521197796E0,-1.278303337E1,-2.463708878E0
8.973011201E1,1.996825218E0,-3.923498154E1,1.415734673E1
8.978210554E1,-1.400650740E0,-2.616942406E1,1.488520622E1
8.983409873E1,-9.727938652E0,-1.595065880E1,6.641718388E0
8.988609202E1,-1.393707371E1,-2.145270348E0,4.288146019E0
8.993808545E1,-1.418128967E1,-7.867587090E0,5.648094177E0
8.999007874E1,-9.613013268E0,-6.217931747E0,4.249837875E0
9.004207223E1,-6.023995399E0,-1.817254543E0,4.965725899E0
9.009406642E1,6.656084061E-1,-7.637736797E-1,3.950553417E0
9.014605971E1,4.261809289E-1,-3.445361376E0,5.324867249E0
9.019805307E1,4.644893110E-1,-7.271412373E0,1.100887585E1
9.025004646E1,3.028757572E0,-5.748653889E0,-4.913052082E0
9.030204042E1,1.070240855E0,-6.720729351E0,-7.278595448E0
9.035403897E1,-2.633702382E-2,-1.704723716E0,-3.112557173E0
9.040603606E1,1.580221415E0,-1.331216812E1,4.757423878E0
9.045802975E1,6.148497581E0,-2.977280807E1,1.837845421E1
9.051002311E1,-3.720703125E0,-1.658035278E1,1.472239590E1
9.056201640E1,-7.850827217E0,-8.023215294E0,1.375750351E1
9.061400976E1,-1.046776962E1,-7.027196407E0,9.304151535E0
9.066600306E1,-1.009665680E1,-9.112609863E0,1.012059975E1
9.071799655E1,-5.660065651E0,-7.592245579E0,7.101418972E0
9.076999010E1,-4.371945858E0,-9.076695442E0,3.545921087E0
9.082198399E1,-6.715940952E0,-1.425790691E1,1.817254543E0
9.087397748E1,-5.741470814E0,-8.798959732E0,-3.110162973E0
9.092597081E1,-3.996044636E0,1.525153041E0,-4.570670605E0
9.097796407E1,1.036002731E1,8.411087036E0,-6.469330311E0
9.102995743E1,5.940196037E0,5.178816319E0,-4.367157459E0
9.108195079E1,4.707144260E0,7.209161282E0,2.566662550E0
9.113394411E1,2.370332003E0,-3.186779737E0,9.598648071E0
9.118593797E1,4.094209969E-1,-6.349377441E1,1.992036629E1
9.123793166E1,-3.368744612E0,-2.613111496E1,4.570670605E0
9.128992511E1,-6.565101624E0,-1.146378803E1,2.585816681E-1
9.134191847E1,-6.912271500E0,-9.466962814E0,5.123748302E0
9.139391213E1,-8.782199860E0,-6.744672298E0,7.108602047E0
9.144590835E1,-5.595420361E0,-7.300143719E0,3.026363373E0
9.149790245E1,-1.958516836E0,-2.545114040E0,2.286532402E0
9.154989601E1,-6.294548512E0,-3.926610649E-1,-4.498842239E0
9.160188916E1,5.004034638E-1,2.542719841E0,-1.398256540E0
9.165388242E1,3.055094719E0,2.504411459E0,-8.028003693E0
9.170587588E1,-4.788549617E-3,5.430215359E0,-1.316372299E1
9.175786944E1,-2.966506481E0,-3.481275558E0,3.988861799E0
9.180986283E1,-4.992063046E0,-2.333699608E1,4.726298332E0
9.186185712E1,6.201171875E-1,-3.649592972E1,2.344473839E1
9.191385011E1,-4.747847080E0,-1.316132832E1,1.149491310E1
9.196584347E1,-7.360000610E0,-8.186025620E0,8.296162605E0
9.201783710E1,-8.966559410E0,-1.019721603E1,7.099024773E0
9.206983036E1,-5.200365067E0,-1.095141315E1,4.051113129E0
9.212182352E1,-6.890722752E0,-1.063776302E1,2.978477955E0
9.217381698E1,-5.731894016E0,-7.965752125E0,2.490045726E-1
9.222581083E1,-2.229069948E0,-3.940976381E0,5.818088055E-1
9.227780452E1,1.517970204E0,2.997632027E0,-5.961744189E-1
9.232979788E1,9.002472878E0,3.943370581E0,-3.457332850E0
9.238179127E1,7.472531796E0,-4.166038036E-1,-9.387951851E0
9.243378486E1,-3.569863796E0,-1.137519932E1,5.734288216E0
9.248578282E1,5.770202279E-1,-2.849665833E1,6.232297421E0
9.253778084E1,-4.989668846E0,-3.077121925E1,1.860351562E1
9.258977547E1,-4.249837875E0,-1.351568127E1,1.083169937E1
9.264176896E1,-5.834847927E0,-9.021627426E0,8.238699913E0
9.269376226E1,-7.280989647E0,-6.454965115E0,7.841249943E0
9.274575555E1,-7.235498428E0,-6.771008968E0,5.080651283E0
9.279774901E1,-4.209135056E0,-5.008822918E0,3.229876757E0
9.284974223E1,-1.347976685E0,-5.219519138E0,4.714327335E0
9.290173618E1,2.585816681E-1,-4.561093330E0,2.655250788E0
9.295373021E1,-5.430215359E0,-6.344828129E0,5.521197796E0
9.300572320E1,4.381523132E0,4.956148863E-1,-1.589559078E1
9.305771653E1,5.825270653E0,-1.831620216E0,-4.340820312E0
9.310970992E1,-2.657645047E-1,-8.250671387E0,6.964945316E0
9.316170321E1,4.249837875E0,-2.006641769E1,5.147690773E0
9.321369654E1,-1.235206413E1,-3.668747330E1,1.527786732E1
9.326568993E1,-8.384750366E0,-1.233769798E1,1.190672874E1
9.331768409E1,-9.507665634E0,-8.696005821E0,8.516435623E0
9.336967758E1,-1.026904488E1,-7.460560322E0,8.741497040E0
9.342167094E1,-6.818894863E0,-9.998491287E0,6.474119186E0
9.347366429E1,-5.389512539E0,-1.216291618E1,4.987274647E0
9.352565795E1,-3.351984918E-2,-9.203592300E0,2.322446585E0
9.357765557E1,1.807677507E0,-6.306519985E0,2.643279314E0
9.362774397E1,7.661679387E-1,-2.423006058E0,-2.662433624E0
9.367973832E1,-2.552296877E0,4.075055599E0,-1.155716419E1
9.373173185E1,2.466103077E0,5.772596359E0,-8.497281075E0
9.378372508E1,-3.215511084E0,-7.302538157E-1,5.482889175E0
9.383571834E1,-1.155237579E1,-1.396341038E1,1.117408085E1
9.388771203E1,-1.184208298E1,-3.010800552E1,1.413101006E1
9.393970502E1,-6.320885658E0,-1.098972130E1,1.467211628E1
9.399169874E1,-8.839662552E0,-5.882733345E0,9.720755577E0
9.404369266E1,-1.121957207E1,-3.842811108E0,5.930618763E0
9.409568609E1,-9.275420189E0,-4.654470444E0,2.516382933E0
9.414767941E1,-7.412674904E0,-3.775771379E0,1.699935079E0
9.419967274E1,-8.090254784E0,-1.035284424E1,-5.554717779E-1
9.425166610E1,-4.699961662E0,-1.227065849E1,4.501236439E0
9.430365932E1,-6.754249096E0,-6.627352715E0,1.036002731E1
9.435565282E1,4.546727657E0,6.830865860E0,-8.674457550E0
9.440764634E1,7.302538157E-1,3.107768774E0,1.436564922E-1
9.445964053E1,1.283331275E0,3.768588543E0,1.259388566E0
9.451163365E1,-4.692778587E-1,-3.064671755E0,7.307326794E0
9.456362708E1,-6.040755272E0,-3.074727631E1,7.345634937E0
9.461562054E1,-1.038875866E1,-2.322686005E1,1.622360611E1
9.466761632E1,-6.919454098E0,-8.832479477E0,9.787795067E0
9.471961112E1,-7.834067345E0,-3.929004908E0,8.624177933E0
9.477160444E1,-7.360000610E0,-6.548341751E0,6.828471661E0
9.482359774E1,-8.346442223E0,-8.516435623E0,5.207547665E0
9.487559113E1,-8.291373253E0,-1.193306541E1,3.062277555E0
9.492758456E1,-5.444581032E0,-1.116210938E1,9.816526622E-2
9.497957771E1,-1.125309110E0,-2.499622822E0,-3.543526649E0
9.503157174E1,7.060716629E0,8.320104599E0,-5.288952827E0
9.508356542E1,1.073832226E1,8.590658188E0,-8.712765694E0
9.513555885E1,6.270605564E0,1.362342358E0,-1.221080184E0
9.518755218E1,3.567469358E0,-1.453803635E1,9.648927450E-1
9.523954540E1,-8.526012421E0,-3.765236664E1,2.290602684E1
9.529153880E1,-6.950579643E0,-1.933137512E1,1.150688457E1
9.534353209E1,-8.267431259E0,-7.731113434E0,7.508445740E0
9.539552545E1,-5.940196037E0,-6.612987041E0,1.035044956E1
9.544751947E1,-8.679245949E0,-7.273807049E0,5.707951069E0
9.549951309E1,-5.351204395E0,-5.624151707E0,6.217931747E0
9.555150648E1,-9.648927450E-1,-2.164424419E0,7.616188049E0
9.560349974E1,-7.661679387E-1,1.436564885E-2,8.985713005E0
9.565549313E1,-1.723877907E0,-1.039115310E0,1.465296149E0
9.570748996E1,-8.051946640E0,3.591412306E-2,-3.335224867E0
9.575948831E1,5.940196037E0,-4.908263206E0,-1.029538155E1
9.581148317E1,3.624932051E0,-6.567495823E0,-9.648927689E0
9.586347650E1,-1.934574008E0,-7.199584484E0,5.535563469E0
9.591546979E1,-1.438959122E0,-1.708315086E1,1.759791970E0
9.596746322E1,8.954587936E0,-3.453501892E1,2.525241661E1
9.601945647E1,-1.527547359E0,-1.404960442E1,1.211742496E1
9.607144977E1,-7.084659100E0,-1.136083412E1,1.051086617E1
9.612344319E1,-1.166490650E1,-1.120281219E1,1.247896004E1
9.617543731E1,-9.706390381E0,-7.716747761E0,4.424619675E0
9.622743084E1,-8.607418060E0,-7.635342598E0,4.015198708E0
9.627942416E1,-2.430188894E0,-6.423839092E0,4.003227711E0
9.633141749E1,3.550709486E0,-1.764580488E0,5.731894016E0
9.638341098E1,-1.254600048E0,-2.413429022E0,6.033572674E0
9.643540417E1,1.951334000E0,3.543526828E-1,-1.039833546E1
9.648739756E1,-5.027977228E-1,2.090201855E0,-3.689577579E0
9.653939082E1,-1.573038578E0,2.478074312E0,-3.282550812E0
9.659138488E1,-3.395081758E0,-1.984853864E0,9.996097565E0
9.664337853E1,-3.689577579E0,-2.005444527E1,9.914691925E0
9.669537186E1,-1.156195259E1,-1.752848625E1,2.114623451E1
9.674736515E1,-1.042706680E1,-7.149304390E0,1.282373619E1
9.679936054E1,-9.526819229E0,-4.398283005E0,1.013735962E1
9.685135580E1,-9.282603264E0,-6.744672298E0,6.761432171E0
9.690334926E1,-8.722343445E0,-5.933012962E0,1.426987767E0
9.695534265E1,-7.118178844E0,-8.353624344E0,4.221106529E0
9.700733584E1,-4.017592907E0,-1.253402901E1,2.049499273E0
9.705932920E1,-4.125335693E0,-9.016839027E0,-3.759011328E-1
9.711132260E1,3.804502726E0,7.034379482E0,-1.959235001E1
9.716331609E1,-6.711152077E0,8.724737167E0,5.578660369E-1
9.721530991E1,1.271359921E0,6.050332546E0,7.996878028E-1
9.726730356E1,-1.628106833E0,3.438178539E0,8.401510239E0
9.731929686E1,-6.938608170E0,-1.028341007E1,1.327385998E1
9.737129018E1,-7.474925995E0,-3.325408173E1,2.339924812E1
9.742328371E1,-6.043149471E0,-1.389158249E1,1.049171257E1
9.747527693E1,-5.712739468E0,-4.886714935E0,6.428627968E0
9.752727016E1,-6.778192043E0,-5.712739468E0,6.660872459E0
9.757926392E1,-6.574678421E0,-6.469330311E0,5.197970390E0
9.763125794E1,-5.312895775E0,-3.464515686E0,6.488484859E0
9.768325126E1,-2.796513081E0,1.405439258E0,7.060716629E0
9.773524499E1,-1.247417212E0,1.675992459E-2,6.021601200E0
9.778723791E1,-1.236164093E1,-9.244295120E0,1.323076248E1
9.783923384E1,-1.807677507E0,-9.098244667E0,-7.932232380E0
9.789123252E1,6.593832970E0,-3.749434233E0,-1.399693012E1
9.794322792E1,2.952140808E0,-6.502850533E0,1.016130257E1
9.799522124E1,-1.630501151E0,-1.315653992E1,7.496474266E0
9.804721460E1,-1.903448462E0,-3.205215836E1,2.249421120E1
9.809920806E1,-5.367964268E0,-1.257712555E1,1.561067200E1
9.815120145E1,-8.284191132E0,-9.783006668E0,1.043664360E1
9.820319465E1,-6.292154312E0,-8.382355690E0,9.979337692E0
9.825518797E1,-6.229903221E0,-8.523618698E0,4.168432236E0
9.830718173E1,-5.365570068E0,-7.020013809E0,3.620143414E0
9.835917571E1,-3.838022470E0,-6.691998005E0,4.491659641E0
9.841116901E1,-3.014391899E0,-6.646506786E0,3.308887720E0
9.846316227E1,-3.191568375E0,-7.249864101E0,6.555524349E0
9.851515576E1,-1.108549237E0,7.324086666E0,-8.775016785E0
9.856714902E1,1.627149200E1,7.000859737E0,-4.484476566E0
9.861914231E1,-1.077423692E-1,-6.703969240E-1,5.557111740E0
9.867113570E1,-4.980091453E-1,-5.114171028E0,5.540351868E0
9.872312956E1,-1.359948039E0,-4.097322464E1,1.811987114E1
9.877512328E1,-2.391880512E0,-1.958037949E1,1.033847904E1
9.882711670E1,-4.886714935E0,-1.195940304E1,5.327261448E0
9.887911006E1,-7.225921154E0,-8.011243820E0,6.071880817E0
9.893110469E1,-7.108602047E0,-7.297749519E0,6.787769318E0
9.898310071E1,-6.871568680E0,-8.480521202E0,5.650488377E0
9.903509407E1,-4.314483166E0,-6.093429565E0,5.801327705E0
9.908708740E1,-3.220299721E0,-5.116565228E0,3.883513689E0
9.913908072E1,-3.964919090E0,-1.467690468E0,2.499622822E0
9.919107398E1,1.436564922E0,3.373533249E0,8.356019258E-1
9.924306737E1,2.197944164E0,5.547534943E0,-9.395133972E0
9.929506070E1,2.463708878E0,6.703969479E0,-8.696005821E0
9.934705455E1,4.597007751E0,2.722290516E0,1.237840056E0
9.939904828E1,-6.584255695E-1,-2.357402992E1,3.363956213E0
9.945104167E1,-7.144515991E0,-4.244330978E1,2.273603439E1
9.950303503E1,-4.944177628E0,-1.674555779E1,6.560312748E0
9.955502839E1,-6.713546753E0,-9.938634872E0,7.707170486E0
9.960702165E1,-5.355992794E0,-7.379155159E0,6.249057293E0
9.965901500E1,-6.612987041E0,-4.273780346E0,5.317684174E0
9.971100833E1,-4.601796150E0,-2.166818619E0,1.812466025E0
9.976300222E1,-3.263396502E0,1.060663700E0,1.745426297E0
9.981499601E1,-2.159635782E0,1.582615614E0,-1.652049571E-1
9.986698947E1,-7.099024773E0,-4.788549617E-2,1.484210968E1
9.991898272E1,6.323279858E0,9.289786339E0,-1.529462719E1
9.997097761E1,5.411061049E-1,4.764606953E-1,-1.570644259E0
1.000229764E2,-1.755003452E0,-5.631334305E0,4.723904133E0
1.000749731E2,-6.170046329E0,-3.477444839E1,1.793790627E1
1.001269671E2,-5.260221958E0,-1.988684654E1,1.843831062E1
1.001789604E2,-6.124555111E0,-9.208380699E0,1.185166073E1
1.002309539E2,-5.056708336E0,-8.415876389E0,7.221132755E0
1.002829472E2,-4.980091572E0,-8.214756966E0,7.637736797E0
1.003349404E2,-5.952167034E0,-5.516408920E0,5.420638084E0
1.003869337E2,-5.401484013E0,-1.616135478E0,1.177983165E0
1.004389279E2,-4.625739098E0,1.388679385E0,1.194743156E0
1.004909214E2,-9.687235832E0,-3.639297724E0,1.075987053E1
1.005429148E2,7.063110828E0,5.791750908E0,-1.518927956E1
1.005949080E2,1.275190735E1,3.603383541E0,-4.242654800E0
1.006469015E2,-3.950553536E-1,-2.276955366E0,4.127729893E0
1.006988947E2,-3.488458395E0,-2.157481003E1,2.604970932E0
1.007508881E2,-3.878725171E-1,-3.926131821E1,2.641363907E1
1.008028815E2,-4.836435318E0,-1.498337173E1,7.381549358E0
1.008548756E2,-8.315316200E0,-5.973715782E0,6.624958515E0
1.009067991E2,-9.375980377E0,-6.387925148E0,7.664073467E0
1.009587923E2,-6.498061657E0,-4.043930054E0,8.473338127E0
1.010107853E2,-9.043175697E0,-1.136801720E1,1.515576005E0
1.010627801E2,-2.226675510E0,-9.304151535E0,2.253012657E0
1.011147790E2,3.136499882E0,-3.986467600E0,3.957736254E0
1.011667753E2,5.514014721E0,5.815693378E0,-5.042342663E0
1.012187687E2,1.378144550E1,5.248250484E0,-1.442071724E1
1.012707620E2,9.095849991E0,-5.545140266E0,7.039167881E0
1.013227555E2,-2.736656189E0,-2.358600044E1,9.000079155E0
1.013747487E2,-9.641744614E0,-2.990928078E1,-2.583422422E0
1.014267421E2,-1.306076908E1,-1.755482292E1,4.711932659E0
1.014787354E2,-4.383917332E0,-1.032171917E1,1.552447796E1
1.015307293E2,1.652049571E-1,-1.280218697E1,1.179180336E1
1.015827231E2,-3.653663397E0,-8.432636261E0,8.186025620E0
1.016347163E2,-8.693612099E0,-1.245501709E1,6.368771076E0
1.016867097E2,-2.250618339E-1,-6.878751755E0,4.422225475E0
1.017387031E2,2.190761566E0,1.352765322E0,6.064698219E0
1.017906963E2,-3.598595142E0,-9.581888199E0,-1.953728199E0
1.018426898E2,-9.969759941E0,-9.153312683E0,-1.409030724E1
1.018946832E2,4.520390987E0,-1.501210332E0,-1.496900654E1
1.019466768E2,1.422199249E0,2.849187136E0,1.585009933E0
1.019986708E2,-4.946571827E0,3.435784340E0,-5.650488734E-1
1.020506641E2,3.557892323E0,-1.268965626E1,9.402317047E0
1.021026574E2,-8.686429024E0,-3.340013504E1,2.344473839E1
1.021546515E2,-7.027196407E0,-1.050607777E1,1.130815983E1
1.022066478E2,-6.699181080E0,-5.092622280E0,8.358413696E0
1.022586414E2,-4.472505569E0,-8.286584854E0,8.277008057E0
1.023106348E2,-7.551542759E0,-7.869981289E0,5.499649048E0
1.023626281E2,-5.401484013E0,-8.992896080E0,6.490879059E0
1.024146215E2,-4.788549617E-3,-6.244268894E0,5.181210518E0
1.024666147E2,-8.976136208E0,-6.431022167E0,9.799766541E0
1.025186081E2,1.024270725E1,4.644893169E0,-1.042946148E1
1.025706021E2,5.643305779E0,6.289760113E0,-9.359220505E0
1.026225957E2,9.577099234E-2,3.464515686E0,8.028003693E0
1.026745891E2,-1.245022863E-1,1.201925993E0,-1.290514112E0
1.027265826E2,-1.149491310E1,-2.544874763E1,-2.451737404E0
1.027785758E2,-9.615407944E0,-2.810399818E1,1.386524582E1
1.028305692E2,-9.854835510E0,-2.042795181E1,8.377567291E0
1.028825624E2,-9.296969414E0,-1.096098995E1,3.811685562E0
1.029345557E2,-9.943423271E0,-5.796539307E0,2.126116037E0
1.029865498E2,-6.804529190E0,-6.062304020E0,3.957736254E0
1.030385435E2,-3.167625666E0,-5.552323341E0,4.019987583E0
1.030905368E2,3.663240373E-1,-4.000833035E0,3.682394743E0
1.031425302E2,-7.345634937E0,1.771763414E-1,8.786988258E0
1.031945244E2,4.218712330E0,5.837242126E0,-1.349173832E1
1.032465230E2,2.099778891E0,3.751828671E0,-4.063084126E0
1.032985198E2,-2.475680113E0,-2.360754967E0,4.824463844E0
1.033505135E2,-2.171607256E0,-2.171846771E1,1.611346960E0
1.034025068E2,-1.177264881E1,-3.124528694E1,1.374313736E1
1.034545002E2,-5.722316742E0,-1.322597408E1,8.470944405E0
1.035064935E2,-6.735095024E0,-7.846038342E0,4.295329094E0
1.035584868E2,-8.631361008E0,-6.943397045E0,6.210748672E0
1.036104803E2,-7.826884270E0,-6.629746914E0,6.249057293E0
1.036624737E2,-5.023188591E0,-4.139701366E0,4.805309772E0
1.037144678E2,-1.762186289E0,-4.022381604E-1,8.308133125E0
1.037664612E2,-2.973689318E0,-1.656838179E0,9.481328011E0
1.038184546E2,-8.624177933E0,-7.685621977E-1,2.674404860E0
1.038704478E2,1.841197371E0,-8.427847624E-1,-8.839662552E0
1.039224412E2,7.855615616E0,-3.548315287E0,-5.813299179E0
1.039744345E2,-2.401457548E0,-3.828445435E0,2.178790092E0
1.040264279E2,-1.728666425E0,-6.268211365E0,2.521171331E0
1.040784213E2,1.953728199E0,-2.880312538E1,1.863942909E1
1.041304154E2,-4.472505569E0,-1.884294319E1,1.988924026E1
1.041824089E2,-8.023215294E0,-8.533195496E0,1.102802944E1
1.042344023E2,-8.650514603E0,-5.681613922E0,9.914691925E0
1.042863960E2,-6.512427330E0,-9.775823593E0,8.935433388E0
1.043383923E2,-9.038387299E0,-1.442790031E1,1.568249941E0
1.043903862E2,-4.613767624E0,-1.151885605E1,-5.377541065E0
1.044423796E2,-1.596981287E0,-8.906702042E0,8.236305118E-1
1.044943729E2,2.353572130E0,1.130097747E0,-3.002420664E0
1.045463662E2,1.117168617E1,1.539518738E1,6.057515144E0
1.045983595E2,6.878751755E0,8.619389534E-1,-4.630527496E0
1.046503528E2,3.342407703E0,2.281744003E0,4.431802750E0
1.047023465E2,4.022381783E0,-1.013975334E1,1.058269501E0
1.047543406E2,-8.921068192E0,-4.422225571E1,1.549095821E1
1.048063338E2,-4.685595989E0,-2.015979385E1,5.104593754E0
1.048583273E2,-8.942616463E0,-7.592245579E0,4.834040642E0
1.049103206E2,-8.942616463E0,-3.694365978E0,6.170046329E0
1.049623139E2,-9.380768776E0,-7.376760483E0,6.778192043E0
1.050143073E2,-5.415849686E0,-2.755810261E0,6.371165276E0
1.050663007E2,-3.378321648E0,-6.249057055E-1,5.581054688E0
1.051182941E2,-5.396695614E0,-8.047157288E0,-5.794144869E-1
1.051702883E2,-6.816500187E0,-9.763853073E0,8.664880753E0
1.052222816E2,1.948939681E0,-2.652856588E0,-8.221940041E0
1.052742750E2,2.427794695E0,5.851607800E0,-1.238797760E1
1.053262686E2,-6.871568561E-1,-9.026415944E-1,2.185972929E0
1.053782667E2,1.146857619E0,-1.134886265E0,8.171659470E0
1.054302643E2,-1.939362645E0,-3.034982681E1,1.253881741E1
1.054822591E2,-1.084127617E1,-2.386134338E1,1.336484241E1
1.055342527E2,-1.171039772E1,-6.684815407E0,7.529994488E0
1.055862461E2,-1.111901188E1,-6.076669693E0,7.716747761E0
1.056382392E2,-9.823709488E0,-7.357606411E0,7.537177086E0
1.056902326E2,-9.658504486E0,-3.605777979E0,-2.772570133E0
1.057422259E2,-6.162863255E0,-3.933793545E0,-4.788549617E-2
1.057942198E2,-4.491659641E0,-1.204320192E0,9.098244309E-1
1.058462137E2,-3.347196102E0,1.094183564E0,1.450930476E0
1.058982069E2,-1.576629925E1,-4.008016109E0,-4.606584549E0
1.059502002E2,6.093429565E0,1.252205729E0,-1.041270161E1
1.060021938E2,9.787795067E0,1.762186289E0,-3.007209063E0
1.060541871E2,4.297723293E0,-8.547561169E-1,1.398256540E0
1.061061804E2,-1.683175206E0,-2.283898735E1,1.052044392E1
1.061581737E2,-6.074275017E0,-3.309127045E1,1.905842781E1
1.062101676E2,-9.213169098E0,-1.334568787E1,8.408693314E0
1.062621614E2,-8.145322800E0,-4.046324253E0,7.817307472E0
1.063141546E2,-8.868393898E0,-7.771816254E0,9.466962814E0
1.063661480E2,-7.055927753E0,-6.759037971E0,1.013017654E1
1.064181415E2,-6.225114346E0,-6.531581879E0,6.553130150E0
1.064701396E2,-2.205127001E0,-3.967313290E0,5.341627121E0
1.065221373E2,1.197137404E-2,-3.790137053E0,3.069460392E0
1.065741313E2,6.129343510E-1,-3.495641232E0,-2.152452946E0
1.066261246E2,-7.405491829E0,-3.471698523E0,-8.614601135E0
1.066781181E2,1.161462688E1,5.097411156E0,7.182824612E-1
1.067301113E2,2.047105074E0,-2.607365370E0,5.435003757E0
1.067821047E2,-1.003201127E0,-1.683654022E1,2.789330244E0
1.068340980E2,-3.572257996E0,-2.251097107E1,1.539997578E1
1.068860914E2,-2.932986736E0,-1.518449116E1,1.402805614E1
1.069380856E2,-3.835628271E0,-9.517242432E0,9.488511086E0
1.069900790E2,-8.341653824E0,-5.873156071E0,7.558725357E0
1.070420723E2,-1.103760719E1,-9.057541847E0,5.576265812E0
1.070940657E2,-1.114534950E1,-1.071437931E1,1.015172482E0
1.071460591E2,-3.086220264E0,-7.568302631E0,-1.915419847E-1
1.071980525E2,-4.788549617E-2,-4.197163582E0,4.357580245E-1
1.072500458E2,-3.617749214E0,-3.538738251E0,2.209915638E0
1.073020391E2,1.429382038E1,1.289795876E1,-5.023188591E0
1.073540333E2,7.419857502E0,1.819648892E-1,-1.793311834E0
