"Time (s)","Gyroscope x (rad/s)","Gyroscope y (rad/s)","Gyroscope z (rad/s)"
5.199277400E-2,-1.971918821E0,9.151799679E-1,2.079826832E0
1.039861090E-1,-1.734292269E0,-1.129996777E0,2.117089748E0
1.559794670E-1,-1.014693022E0,-1.167870522E0,2.484219790E0
2.079726940E-1,-5.339420438E-1,1.876394749E-1,2.128085136E0
2.599660520E-1,-5.339420438E-1,1.215725660E0,1.154976964E0
3.119592450E-1,-2.932611406E-1,7.087075114E-1,6.247459054E-1
3.639534350E-1,-3.730859235E-2,3.678447306E-1,2.243280411E-2
4.159470570E-1,7.433772087E-1,2.361708879E0,1.769817024E-1
4.679404490E-1,1.868789494E-1,-7.915775180E-1,9.185721278E-1
5.199338420E-1,-4.056603312E-1,-3.164178133E0,9.026896358E-1
5.719270680E-1,-1.511326432E0,-3.608887911E0,2.460094839E-1
6.239203610E-1,-4.698210239E0,9.029626846E-1,-1.499232531E0
6.759138530E-1,-5.906501770E0,1.988470197E0,-1.486404300E0
7.279071450E-1,-4.943778515E0,3.492316604E-2,-2.355665445E0
7.799010650E-1,-2.376311541E0,2.365374088E0,5.722115636E-1
8.318948220E-1,7.763639092E-1,2.722730160E0,-3.318690360E-1
8.838880810E-1,1.304762363E0,1.690367937E0,2.118010223E-1
9.358813740E-1,1.953501225E0,1.057511568E0,8.330509663E-1
9.878766980E-1,2.470904112E0,4.313747287E-1,1.263710976E0
1.039872257E0,2.626674891E0,4.344290495E-1,2.126863480E0
1.091865583E0,2.602240324E0,-7.378213406E-1,1.687040687E0
1.143858709E0,2.478845358E0,-1.224681020E0,6.956063509E-1
1.195852102E0,1.293766737E0,-1.253391623E0,-5.392535031E-2
1.247845494E0,1.029262066E0,-4.021326080E-2,-9.607505053E-2
1.299838953E0,6.523582935E-1,-1.075019002E0,8.012859821E-1
1.351832113E0,-2.299953461E0,-4.864827156E0,8.532095551E-1
1.403826033E0,-4.315197945E0,-5.976094678E-2,-1.347737908E0
1.455819722E0,-5.388488293E0,2.696463108E0,-2.139419079E0
1.507813414E0,-4.947443485E0,-3.660200596E0,-1.259773374E0
1.559806441E0,-8.858004212E-1,2.678137064E0,-3.092670143E-1
1.611799899E0,-3.427412212E-1,3.921247721E0,2.694357395E0
1.663793193E0,9.290801883E-1,7.890546322E-2,1.472015977E0
1.715786451E0,1.126389623E0,1.375161529E0,2.312566757E0
1.767780042E0,1.720761538E0,-2.555249445E-2,2.917934179E0
1.819774128E0,2.499003887E0,1.234051585E0,2.909992933E0
1.871767388E0,1.630353570E0,-1.442759871E0,3.931970358E0
1.923760914E0,7.097796202E-1,-2.905782223E0,3.688235044E0
1.975754106E0,3.927405477E-1,3.446318507E-1,3.361422062E0
2.027749428E0,3.762471676E-1,-1.938171625E0,3.220923424E0
2.079748185E0,-1.402592421E0,-4.167218685E0,1.687040687E0
2.131744876E0,-3.029326677E0,4.578538895E0,-2.432935834E-1
2.183738638E0,-3.797183990E0,7.264226079E-1,-1.128437400E0
2.235731797E0,-5.551589489E0,-1.033480048E0,-1.882244945E0
2.287725256E0,-5.573580265E0,2.560240030E0,-3.110084295E0
2.339718515E0,-1.417253137E0,3.262735128E0,-9.702231884E-1
2.391711707E0,1.112950683E0,3.718440771E0,1.849229634E-1
2.443705630E0,1.329196930E0,-2.738508955E-2,1.382829666E0
2.495699449E0,1.708544254E0,-1.268052340E0,1.688262343E0
2.547692808E0,1.819721818E0,-2.570704222E-1,1.790276885E0
2.599686201E0,1.370124936E0,-3.254873455E-1,1.633895278E0
2.651679527E0,9.700081944E-1,-3.370937705E-1,1.779892087E0
2.703672853E0,8.264548182E-1,-2.528878212E0,2.147633076E0
2.755666213E0,2.131461501E-1,-3.090263367E0,1.516609311E0
2.807659505E0,1.343246818E0,-1.789731264E0,1.067623258E0
2.859653394E0,4.886463881E-1,4.606962204E-1,1.966206074E0
2.911647349E0,-2.367759466E0,-2.798880577E0,-3.071247041E-2
2.963640476E0,-4.852759361E0,9.964250326E-1,-9.231866002E-1
3.015633934E0,-6.738500595E0,6.586166024E-1,-1.680659533E0
3.067627227E0,-6.050665855E0,5.932540298E-1,-1.824823737E0
3.119622382E0,-1.240713120E0,3.675679922E0,1.476601809E-1
3.170258538E0,1.207023978E0,5.167413235E0,2.270726562E-1
3.222254763E0,2.867966652E0,3.157666206E0,1.907562971E0
3.274248156E0,3.196612120E0,1.780165195E0,3.012618065E0
3.326241415E0,2.918668270E0,-1.354795337E0,4.046813011E0
3.378234808E0,2.444026232E0,-3.600946665E0,3.621650934E0
3.430228168E0,2.181354046E0,-2.327903509E0,2.879449368E0
3.482221493E0,2.070787430E0,-1.552104712E0,1.430477142E0
3.534214819E0,7.366576791E-1,-2.626005888E0,-1.449442804E-1
3.586208841E0,6.089867949E-1,-1.622965097E0,-1.633622885E0
3.638202496E0,-4.483797073E0,-3.452506542E0,-4.031879902E0
3.690195956E0,-4.523502827E0,1.083778858E0,-5.204130173E0
3.742189181E0,-5.827700138E0,3.273119926E0,-4.475978851E0
3.794182474E0,-5.502109051E0,2.246866226E0,-4.625640392E0
3.846175800E0,-2.012235880E0,3.885206699E0,-3.727058172E0
3.898169259E0,2.466627836E0,5.456352234E0,-9.332188405E-3
3.950162518E0,1.827662945E0,2.196164370E0,3.183660507E0
4.002156537E0,2.502669096E0,-9.638414979E-1,2.128085136E0
4.054150161E0,3.235707283E0,-5.875484943E-1,2.888001680E0
4.106143520E0,3.164846897E0,-1.621132612E0,2.641823053E0
4.158136812E0,2.593077183E0,-1.222848415E0,2.101818085E0
4.210131070E0,2.186851740E0,-2.332466692E-1,1.550206780E0
4.262127358E0,1.546054125E0,-7.879123092E-1,1.695592642E0
4.314120918E0,1.988931417E0,-2.039575100E0,1.230724216E0
4.366114311E0,-5.712048411E-1,6.378471851E-1,9.912650585E-1
4.418107504E0,-3.477701664E0,-2.762839556E0,-1.062463880E0
4.470100830E0,-6.366483212E0,2.610331059E0,-2.891394615E0
4.522094290E0,-6.968185425E0,-8.441119194E-1,-2.847412109E0
4.574087681E0,-3.553448915E0,1.490615010E0,-3.166894436E0
4.626081932E0,4.709312618E-1,6.340885162E0,1.622288942E0
4.678075258E0,1.216797709E0,2.838794708E0,1.289367318E0
4.730068517E0,2.134928226E0,-8.764877915E-1,2.110370159E0
4.782061976E0,2.523438454E0,1.827525496E-1,2.875173569E0
4.834055269E0,2.564366341E0,-1.299206495E0,2.643044710E0
4.886048595E0,2.668824434E0,-4.146736562E-1,2.161682844E0
4.938041887E0,2.061624289E0,-1.120833874E0,1.760344505E0
4.990035246E0,1.404333353E0,-1.501690000E-1,2.071274996E0
5.042029498E0,5.259091854E-1,-8.276185393E-1,2.429852724E0
5.094022823E0,5.821087360E-1,-6.391990185E0,1.016310573E0
5.146016316E0,-7.318623662E-1,2.191888332E0,-1.031309724E0
5.198009642E0,-5.205228329E0,9.377819896E-1,-3.334271669E0
5.250003830E0,-6.870447159E0,-9.030420333E-2,-3.910928488E0
5.302002584E0,-7.818510056E0,-2.494058847E0,-4.658016682E0
5.353999373E0,-4.740772545E-1,6.207716465E0,-1.312918544E0
5.405992833E0,2.046963692E0,8.491130829E0,2.473834991E0
5.457986359E0,1.642570853E0,-4.635428786E-1,1.739574909E0
5.509979618E0,2.440971613E0,-1.317532420E0,2.760941744E0
5.561972878E0,2.456854343E0,1.114932895E0,3.330268145E0
5.613966337E0,1.875310540E0,-1.432986021E0,3.076148272E0
5.665959563E0,1.789178491E0,-2.978475094E0,2.060279369E0
5.717953154E0,1.368903160E0,-2.103716135E0,1.002871513E0
5.769947340E0,2.087891579E0,4.393159449E-1,1.021197557E0
5.821940599E0,1.639516473E0,-1.604028344E0,1.644280076E0
5.873933925E0,-1.754450798E0,-3.996176481E0,-3.043800890E-1
5.925927251E0,-3.448380232E0,1.283531785E0,-1.516947627E0
5.977920644E0,-6.296233654E0,9.784228355E-2,-2.620170116E0
6.029913904E0,-7.885094166E0,-2.949764490E0,-3.417349339E0
6.081907329E0,-2.601721048E0,3.261513472E0,-1.468689203E0
6.133900952E0,1.111118078E0,5.478343487E0,7.151539922E-1
6.185894972E0,1.214965224E0,1.620729327E0,1.698036075E0
6.237888265E0,2.004813910E0,-5.380684137E-1,2.476278543E0
6.289881691E0,2.579027414E0,-9.070310593E-1,2.622886181E0
6.341875415E0,2.155086756E0,-1.312321723E-1,2.742615700E0
6.393871770E0,1.775128484E0,-2.079281569E0,2.074329138E0
6.445865731E0,2.043298483E0,-1.784844398E0,1.178189874E0
6.497858957E0,1.775739551E0,-4.794253707E-1,9.686630964E-1
6.549852250E0,1.806893587E0,-1.941836834E0,1.388938308E0
6.601845676E0,6.731277108E-1,-1.884415388E0,4.750839472E-1
6.653838969E0,-1.755672455E0,-4.815450683E-2,-1.283596992E0
6.705832295E0,-4.052525997E0,8.253828287E-1,-2.202949286E0
6.757826216E0,-6.913818836E0,5.285022855E-1,-3.268909216E0
6.809820038E0,-6.387252808E0,-6.620740891E-1,-3.201713800E0
6.861813363E0,-1.555308700E0,1.852247357E0,-3.114971161E0
6.913806723E0,7.959116101E-1,5.588299274E0,1.413983941E0
6.965800048E0,1.391505241E0,7.013771534E-1,1.968649507E0
7.017793340E0,2.582692385E0,4.350398779E-1,2.106094122E0
7.069786732E0,2.995637417E0,1.051726714E-1,3.490925789E0
7.121780091E0,3.314508915E0,-1.815387726E0,2.673587799E0
7.173773813E0,2.842309952E0,-4.158953726E-1,2.917934179E0
7.225767768E0,2.396989584E0,-4.110084474E-1,2.195280552E0
7.277761027E0,1.772074223E0,-8.373923898E-1,2.162293673E0
7.329754353E0,1.445261359E0,-2.837365150E0,1.409096956E0
7.381748210E0,-1.014082074E0,-2.030412197E0,-9.635037184E-1
7.433746430E0,-3.160662651E0,2.278631210E0,-2.979359150E0
7.485743989E0,-6.462388992E0,1.616453290E0,-4.360525608E0
7.537738782E0,-7.266899109E0,-4.470494986E-1,-3.635428190E0
7.589732108E0,-5.959036350E0,-6.028201580E-1,-4.362358093E0
7.641725367E0,4.416097701E-1,5.648164272E0,-8.553805351E-1
7.693718860E0,1.148991704E0,4.551049709E0,2.228267193E0
7.745712019E0,1.773295999E0,-1.270495892E0,2.515373707E0
7.797705544E0,2.486786604E0,-8.422793150E-1,2.705963850E0
7.849699829E0,2.577194691E0,-4.000128806E-1,3.267348766E0
7.901693155E0,2.379274368E0,-4.226149023E-1,3.379748344E0
7.953686546E0,1.679833651E0,-5.667791367E-1,3.010174751E0
8.005679706E0,1.263834357E0,-2.039575100E0,2.711461782E0
8.057673099E0,7.384902835E-1,-1.469637990E0,1.993694901E0
8.109666391E0,1.339322049E-2,-2.219169617E0,1.498894095E0
8.161659817E0,-4.606382251E-1,-1.071353793E0,-5.453621596E-2
8.213653607E0,-3.172879934E0,1.175408602E0,-1.612853527E0
8.265647327E0,-5.404981613E0,6.463993192E-1,-2.328176737E0
8.317641053E0,-5.721409798E0,2.920974493E-1,-1.896294951E0
8.369634112E0,-4.238839626E0,2.598724604E0,-3.552961349E0
8.421627371E0,-1.405448169E-1,4.262721539E0,3.138155341E-1
8.473621096E0,1.106231213E0,1.857134104E0,5.184553862E-1
8.525619251E0,2.031692028E0,-1.373732090E0,1.731022954E0
8.577616740E0,2.329794168E0,4.930721223E-1,2.230710745E0
8.629611001E0,1.811780572E0,-1.015154123E0,2.443902493E0
8.681604093E0,1.477026343E0,-1.493461728E0,1.678488493E0
8.733597552E0,8.753240705E-1,2.945408821E-1,1.590523958E0
8.785590812E0,6.315888762E-1,-4.812579751E-1,1.390771031E0
8.837584105E0,2.669022679E-1,-1.569819808E0,1.348621249E0
8.889577365E0,1.690829277E0,-9.155831337E-1,1.737131596E0
8.941571353E0,-1.359831929E0,-2.923497200E0,1.165972590E0
8.993565241E0,-3.610259533E0,-2.363010049E-1,-8.315567970E-1
9.045558533E0,-5.496611118E0,2.821690321E0,-1.097283244E0
9.097551759E0,-7.874098778E0,-8.618270159E-1,-3.231646299E0
9.149545086E0,-5.036018848E0,1.706250429E0,-4.383738518E0
9.201538545E0,2.198656797E-1,6.572402954E0,5.972570181E-1
9.253531804E0,1.194195628E0,3.118571043E0,1.499505043E0
9.305525230E0,2.082393885E0,-8.312837481E-1,1.289978147E0
9.357518853E0,2.597353220E0,9.994793534E-1,2.466504574E0
9.409512841E0,2.562533855E0,-3.389263749E-1,2.663203478E0
9.461506168E0,2.554592609E0,-1.723757982E0,2.216660738E0
9.513499526E0,2.535044909E0,-3.725239635E-1,2.099985600E0
9.565493150E0,2.007257223E0,-8.428902030E-1,2.346775055E0
9.617489108E0,1.394559622E0,-1.528280973E0,1.861137152E0
9.669483600E0,5.943260789E-1,-1.705431938E0,1.753624916E0
9.721477092E0,-4.062712193E-1,-1.700545073E0,5.001294017E-1
9.773470218E0,-2.710454941E0,-8.325054646E-1,-1.443643808E0
9.825463510E0,-5.017082214E0,2.530918360E0,-2.759447575E0
9.877456803E0,-6.320668221E0,8.876910210E-1,-2.805262566E0
9.929450196E0,-5.001199722E0,2.835129499E0,-3.043499708E0
9.981444183E0,1.461495087E-2,2.802753687E0,-8.211721182E-1
1.003343777E1,9.638995528E-1,1.987248540E0,5.053260550E-2
1.008543123E1,1.569266915E0,-5.301271677E-1,1.239887238E0
1.013742462E1,2.064067841E0,1.167791039E-1,1.916725993E0
1.018941785E1,1.888749480E0,-1.440603435E-1,2.506211042E0
1.024141121E1,2.012755156E0,-1.613802075E0,2.395033360E0
1.029340450E1,2.168525934E0,-1.843487382E0,2.353494644E0
1.034539780E1,1.957166433E0,-2.363333702E0,1.604573727E0
1.039739185E1,1.147159100E0,-2.071340084E0,1.610071540E0
1.044938564E1,2.210873961E-1,-1.779957533E0,4.341559708E-1
1.050132587E1,-2.623712063E0,-5.796073079E-1,-1.959214091E0
1.055331943E1,-4.579702854E0,3.741042614E0,-2.187066793E0
1.060531279E1,-3.864990234E0,4.502791405E0,-1.954327106E0
1.065731024E1,-2.690907240E0,9.145690799E-1,-2.273809671E0
1.070930816E1,-5.797569752E-1,9.811534286E-1,-1.571314573E0
1.076130269E1,8.014093637E-1,9.652709365E-1,-2.582555078E-2
1.081329598E1,1.557660580E0,3.690664768E-1,7.921229601E-1
1.086528934E1,2.012144327E0,3.751751184E-1,1.558148026E0
1.091728260E1,2.040244102E0,3.403557837E-1,1.938106179E0
1.096927589E1,1.813002229E0,-3.682478964E-1,1.773783445E0
1.102126928E1,1.373790145E0,-9.852218032E-1,1.615569353E0
1.107326264E1,7.879703641E-1,-8.227316141E-1,8.471009135E-1
1.112525660E1,5.106375217E-1,-6.632958651E-1,3.443588018E-1
1.117725029E1,-2.217898965E-1,-1.986429930E0,8.361052871E-1
1.122924361E1,-1.839971900E0,-2.949153662E0,2.490638196E-1
1.128123687E1,-2.982290030E0,8.327131867E-1,-8.052896261E-1
1.133323036E1,-5.887565136E0,3.043147326E-1,-2.446684599E0
1.138522376E1,-6.642594814E0,-8.465553522E-1,-3.641536951E0
1.143721688E1,2.522415221E-1,4.215074062E0,-8.761499524E-1
1.148921057E1,9.956645370E-1,4.967049122E0,5.966461301E-1
1.154120466E1,1.141661406E0,2.133245468E0,1.473237753E0
1.159319802E1,2.324907303E0,9.182342887E-1,1.797607183E0
1.164519134E1,2.409206867E0,1.205340981E0,2.903273106E0
1.169718467E1,2.527714491E0,-1.381062508E0,3.035830975E0
1.174918039E1,2.155697823E0,-1.994371176E0,2.706574678E0
1.180117529E1,1.745196223E0,-1.630295515E0,2.608836174E0
1.185316864E1,6.767928600E-1,-2.283921480E0,2.699244499E0
1.190516194E1,9.858906865E-1,-1.524004936E0,1.423757672E0
1.195715529E1,1.734399050E-1,-3.071613908E-1,1.091756672E-1
1.200914869E1,-4.205242157E0,-9.675067067E-1,-2.479060411E0
1.206114208E1,-6.191775799E0,2.300011396E0,-3.557848454E0
1.211313527E1,-5.965145111E0,-3.045670271E0,-3.014789343E0
1.216512946E1,-1.908388853E0,2.674471855E0,-2.097269535E0
1.221712298E1,1.075687885E0,4.655508041E0,8.318293095E-1
1.226911634E1,1.290101528E0,3.329930305E0,6.394066811E-1
1.232110963E1,1.874699593E0,6.720556021E-1,2.039509773E0
1.237310306E1,2.300472736E0,5.935777724E-2,1.863580704E0
1.242509628E1,2.588190079E0,-1.290654421E0,2.252091169E0
1.247708998E1,2.310246468E0,-8.129577637E-1,2.373653173E0
1.252908317E1,1.962664127E0,-1.484298706E0,1.814711452E0
1.258107729E1,2.384161234E0,-3.084154844E0,1.766453147E0
1.263307071E1,1.339581609E0,-7.530930042E-1,7.682992816E-1
1.268506404E1,-2.283460140E0,-9.076418877E-1,-1.425928712E0
1.273705740E1,-4.718979836E0,8.895236254E-1,-3.288456678E0
1.278905392E1,-6.116639614E0,1.555977702E0,-3.198048830E0
1.284105221E1,-6.222319126E0,-7.097215652E-1,-3.185220718E0
1.289304840E1,-6.811605692E-1,3.572443962E0,-3.086871386E0
1.294504173E1,1.017655730E0,5.381216049E0,1.471405149E0
1.299703522E1,1.758024454E0,1.342785597E0,2.316842794E0
1.304902831E1,2.320020437E0,-1.420157790E0,2.277747393E0
1.310102174E1,2.625453234E0,3.892250061E-1,3.077980757E0
1.315301520E1,2.304748774E0,-2.802833021E-1,4.214190006E0
1.320500938E1,4.464966655E-1,-2.007810116E0,4.709601879E0
1.325700277E1,4.149302468E-2,-8.380032778E-1,4.487857819E0
1.330899606E1,-2.529440224E-1,-1.122666478E0,4.217244625E0
1.336098932E1,-7.581295967E-1,-3.327889919E0,3.752986908E0
1.341298295E1,-8.326551318E-1,-1.569208980E0,8.971918225E-1
1.346497611E1,-3.546118736E0,2.598724604E0,-1.511449814E0
1.351696937E1,-5.753174782E0,1.858966827E0,-4.090522766E0
1.356896283E1,-5.733016014E0,6.586166024E-1,-3.796085835E0
1.362095688E1,-5.198509216E0,7.752918601E-1,-4.554169655E0
1.367295044E1,-4.056603312E-1,6.994510651E0,-6.452429295E-1
1.372494390E1,2.434863091E0,4.855260849E0,5.175433680E-2
1.377693709E1,2.835590601E0,3.757859766E-1,6.894977093E-1
1.382893062E1,3.459284067E0,4.869634509E-1,1.935051918E0
1.388092667E1,3.155683994E0,7.453594208E-1,2.626551151E0
1.393292542E1,2.709752560E0,-1.877085090E0,1.906952024E0
1.398492048E1,2.439749956E0,-3.090263367E0,8.715355396E-1
1.403691381E1,1.985266209E0,-1.242396116E0,3.706260026E-1
1.408890714E1,2.918668270E0,-1.404275417E0,7.041584253E-1
1.414090036E1,8.020202518E-1,1.522990823E0,3.278654218E-1
1.419289389E1,-2.196106434E0,-2.516660929E0,-1.344072700E0
1.424488715E1,-4.439814568E0,1.541927695E0,-2.977526426E0
1.429688037E1,-5.497832775E0,3.120403528E0,-3.270741701E0
1.434887459E1,-4.946832657E0,2.223653316E0,-3.416127682E0
1.440086818E1,-4.221536815E-1,2.477773190E0,-3.287845850E0
1.445281515E1,4.190077484E-1,4.013488293E0,3.162589669E-1
1.450480851E1,1.321255684E0,-1.251235306E-1,1.810435414E0
1.455680187E1,2.379885197E0,-1.124499083E0,2.134193897E0
1.460879520E1,2.216784239E0,1.262151480E0,3.654026508E0
1.466078876E1,1.521008611E0,-7.842471600E-1,3.982672215E0
1.471278215E1,8.484460115E-1,-6.889521480E-1,3.838508129E0
1.476477627E1,6.816797853E-1,-1.668780088E0,3.524523258E0
1.481676949E1,9.645104408E-1,-3.928981543E0,2.870286703E0
1.486876288E1,1.109285474E0,-1.637625813E0,1.629619241E0
1.492075618E1,-6.475629807E-1,3.415775001E-1,7.120996714E-1
1.497275130E1,-3.887592316E0,2.340652347E-1,-3.077708244E0
1.502474692E1,-4.972488880E0,1.706250429E0,-2.089328289E0
1.507674022E1,-6.534471035E0,9.249538779E-1,-2.960422039E0
1.512873351E1,-7.804460049E0,-5.670661852E-2,-4.359303474E0
1.518072687E1,-2.450027764E-1,2.880333424E0,-1.946996689E0
1.523272020E1,2.156308651E0,4.725146294E0,4.646992385E-1
1.528471352E1,2.401876211E0,3.268843651E0,2.908160210E0
1.533670698E1,2.774504185E0,5.596564412E-1,2.785376310E0
1.538870110E1,2.312690020E0,-6.828435063E-1,3.741380453E0
1.544069456E1,1.883251667E0,-1.574706793E0,3.825068951E0
1.549268798E1,1.414718151E0,-8.685464859E-1,3.817127705E0
1.554468121E1,9.168629050E-1,-1.128775120E0,3.724886894E0
1.559667453E1,-6.235406920E-2,-2.709083557E0,3.515360355E0
1.564866809E1,-1.142776161E-1,-2.954040527E0,2.216049910E0
1.570066125E1,-3.453267097E0,7.471920252E-1,-2.172405958E0
1.575265481E1,-5.285252094E0,2.194331884E0,-2.039237499E0
1.580464893E1,-6.262025356E0,9.084604383E-1,-3.675134420E0
1.585664222E1,-5.271202087E0,3.186883777E-2,-2.152858496E0
1.590863555E1,-1.490556955E0,3.515633345E0,-1.763737202E0
1.596062894E1,1.940673113E0,2.530918360E0,9.906542301E-1
1.601262426E1,2.481899738E0,8.198850155E-1,6.949954033E-1
1.606462312E1,2.508167028E0,1.300025105E0,1.897789121E0
1.611661894E1,1.999316216E0,1.180295587E0,2.489717484E0
1.616861233E1,1.734811544E0,-2.379827261E0,2.588066816E0
1.622060559E1,1.973048925E0,-4.671182632E0,1.715140343E0
1.627259899E1,2.073230743E0,-1.787898660E0,7.072127461E-1
1.632459231E1,2.202123404E0,-1.940614939E0,-2.582555078E-2
1.637658554E1,4.361119568E-1,2.631100416E0,-9.476212263E-1
1.642857900E1,-3.334759235E0,-1.527670145E0,-3.110695124E0
1.648057262E1,-5.097105503E0,8.559260368E-1,-3.108862638E0
1.653256657E1,-4.453253269E0,6.751386642E0,-3.585948229E0
1.658455997E1,-2.456335068E0,4.308536530E0,-3.868778706E0
1.663655326E1,1.831939101E0,-1.446712166E-1,-8.309459090E-1
1.668854672E1,1.560714841E0,5.352218151E-1,1.107940316E0
1.674054008E1,2.405541420E0,5.572129488E-1,2.763996124E0
1.679253327E1,2.651720285E0,-1.233844042E0,2.539808512E0
1.684452663E1,2.101941347E0,-1.874317825E-1,3.184271336E0
1.689652052E1,1.094013810E0,-1.581426263E0,3.018115997E0
1.694851430E1,7.696443796E-1,-9.815565944E-1,2.710239887E0
1.700050763E1,4.214512110E-1,-1.524615884E0,2.181230545E0
1.705250116E1,6.627429724E-1,-3.059109449E0,1.359005928E0
1.710449565E1,-2.511114478E-1,-1.233844042E0,1.184298515E0
1.715649150E1,-4.995701790E0,-1.517896295E0,-2.326954842E0
1.720848500E1,-6.389696121E0,1.687313557E0,-1.760682821E0
1.726047835E1,-4.898574352E0,3.836337566E0,-2.983634949E0
1.731247158E1,-4.540607452E0,1.142421842E0,-2.643993855E0
1.736446504E1,8.362287283E-1,3.974393129E0,-1.600636125E0
1.741645840E1,1.756802559E0,2.282296419E0,1.776226878E0
1.746845162E1,1.385396600E0,-6.492459178E-1,1.875187159E0
1.752044578E1,1.822776079E0,-1.446425080E0,2.456119776E0
1.757243933E1,2.071398258E0,-5.588378310E-1,2.500102282E0
1.762443266E1,3.134303808E0,-2.242993355E0,1.754846692E0
1.767642605E1,3.186838150E0,-2.188730240E-2,2.027292490E0
1.772841931E1,2.780001879E0,2.917596102E0,3.308276892E0
1.778041270E1,3.359300792E-1,-4.762812614E0,2.579514742E0
1.783240606E1,-3.403176069E0,-4.315048218E0,-8.474393487E-1
1.788439939E1,-4.312754631E0,3.574276447E0,-1.909123063E0
1.793639331E1,-5.781274319E0,2.975952029E-1,-2.579853058E0
1.798838703E1,-4.812442303E0,-8.141794801E-1,-1.443032980E0
1.804038039E1,-3.249848843E0,1.539484262E0,-2.997684956E0
1.809237392E1,1.634629607E0,5.111824036E0,1.019364834E0
1.814436844E1,1.856984496E0,2.813138247E0,1.913671613E0
1.819636706E1,1.975492477E0,-1.184363842E0,2.197113037E0
1.824836399E1,2.185630083E0,-5.789964199E-1,2.525758505E0
1.830035805E1,1.702435613E0,-2.216402441E-1,2.663814306E0
1.835235141E1,1.103176713E0,1.008966118E-1,2.628384113E0
1.840434470E1,3.915188015E-1,-1.425044775E0,2.410305023E0
1.845633799E1,-1.613142341E-1,-1.999258041E0,1.556926250E0
1.850833145E1,-7.000974417E-1,-4.597268105E0,8.080055118E-1
1.856032487E1,-9.700998664E-1,-2.344397068E0,-7.897082716E-2
1.861231899E1,-3.585213900E0,5.303348899E-1,-1.357511878E0
1.866431248E1,-6.995674610E0,-6.883413196E-1,-1.799167395E0
1.871630574E1,-6.834406376E0,2.953637123E0,-2.451571465E0
1.876829904E1,-6.011372209E-1,5.192458630E0,-2.086273909E0
1.882029246E1,5.760000944E-1,4.569986820E0,4.420972168E-1
1.887228572E1,1.900966763E0,1.450908780E0,1.486676812E0
1.892427915E1,2.921722651E0,8.485956192E-1,1.880074024E0
1.897627270E1,2.896677256E0,2.023002505E-1,3.376082897E0
1.902826676E1,2.316966057E0,-1.637625813E0,3.529410124E0
1.908026002E1,1.761078715E0,-2.312021017E0,3.315607309E0
1.913225344E1,1.119059324E0,-6.223678589E-1,3.159225941E0
1.918424677E1,-2.028530687E-1,-3.994020224E-1,3.076759100E0
1.923624129E1,-1.830808997E0,-4.300387859E0,9.674413204E-1
1.928823991E1,-2.781925917E0,-1.361514807E0,-3.308615446E0
1.934023650E1,-5.652381897E0,3.249296188E0,-3.106418848E0
1.939223003E1,-5.687811852E0,2.805197001E0,-3.474159956E0
1.944422349E1,-5.327401638E0,-7.298801541E-1,-3.282958984E0
1.949621681E1,2.100918293E-1,2.414243460E0,-1.701429009E0
1.954821007E1,2.043909311E0,3.827174664E0,1.567311049E0
1.960020370E1,2.155697823E0,1.156471848E0,2.795760870E0
1.965219706E1,2.456854343E0,1.589288116E-1,2.121365786E0
1.970419058E1,2.754345417E0,-1.632128000E0,2.300960302E0
1.975618450E1,3.133081913E0,-2.158082962E0,1.494007230E0
1.980817776E1,3.080547571E0,-8.343380690E-1,9.356763363E-1
1.986017115E1,3.787318707E0,6.030278206E-1,1.294865131E0
1.991216461E1,1.128222346E0,-1.865478635E0,4.891338646E-1
1.996415777E1,-2.033005476E0,-1.862424374E0,-2.006250620E0
2.001615123E1,-4.830157280E0,2.114308357E0,-3.089925528E0
2.006814462E1,-6.436732769E0,5.370543599E-1,-3.599997997E0
2.012013851E1,-6.344491959E0,-1.147711873E0,-3.044721603E0
2.017213213E1,1.306793541E-1,2.085597992E0,-2.357498407E0
2.022412552E1,1.086683512E0,4.591367245E0,2.073107481E0
2.027611891E1,1.754970074E0,1.035520434E0,2.632049084E0
2.032811264E1,2.356672287E0,-2.271380275E-1,2.342499018E0
2.038010903E1,2.942492247E0,1.705352515E-1,2.688859701E0
2.043210289E1,2.807491064E0,5.303348899E-1,3.236805677E0
2.048409608E1,2.364002705E0,-9.216918349E-1,3.292394638E0
2.053608950E1,2.037800550E0,-1.638847709E0,3.079202414E0
2.058808290E1,1.036592484E0,-2.664490223E0,2.459174395E0
2.064007629E1,-3.425426781E-2,-1.574095964E0,2.838831246E-1
2.069206955E1,-1.675038338E0,1.404483080E0,-1.506562829E0
2.074406383E1,-4.254111290E0,1.044683456E0,-3.649478197E0
2.079605712E1,-6.004240036E0,5.120089054E-1,-3.764320850E0
2.084805058E1,-6.213767052E0,7.936177850E-1,-3.727058172E0
2.090004381E1,-3.335980892E0,6.708338857E-1,-3.799140215E0
2.095203717E1,1.888138652E0,4.541275978E0,8.752006888E-1
2.100403046E1,1.575375557E0,2.512592554E0,2.417635441E0
2.105602385E1,2.261988163E0,-8.297382295E-2,2.646709919E0
2.110801734E1,2.616900921E0,-2.310903184E-2,2.794539213E0
2.116001153E1,2.445247889E0,7.035334408E-2,3.540405750E0
2.121200486E1,1.994429231E0,-1.226800680E-1,4.080410480E0
2.126399822E1,1.009103537E0,9.609948993E-1,4.141497135E0
2.131599151E1,9.755060077E-1,-5.318089008E0,3.911201000E0
2.136798543E1,1.152045965E0,-3.118974209E0,2.283855915E0
2.141998382E1,-8.063879609E-1,2.688845396E-1,5.606051087E-1
2.147198094E1,-3.576661825E0,5.340000391E-1,-2.983024120E0
2.152397514E1,-3.654852629E0,2.157680035E0,-2.880398989E0
2.157596843E1,-5.213170052E0,1.909668565E0,-4.077694893E0
2.162796155E1,-6.957190037E0,3.250841796E-1,-5.753909111E0
2.167995491E1,-5.131726265E-1,3.040380239E0,-2.041680813E0
2.172997344E1,2.321242094E0,5.336622715E0,4.256038368E-1
2.178196684E1,2.290087938E0,2.416075945E0,3.165945292E0
2.183396020E1,2.827649355E0,-4.647646248E-1,2.417635441E0
2.188595438E1,2.740295649E0,7.704049349E-1,3.161058426E0
2.193794787E1,2.553370953E0,-1.740862012E0,3.509862661E0
2.198994116E1,2.157530308E0,-1.673666835E0,3.032776594E0
2.204193459E1,1.226571679E0,2.612774372E0,2.506211042E0
2.209392785E1,6.042984501E-2,5.498825908E-1,2.591121197E0
2.214592127E1,-3.018132448E-1,-1.206354976E0,2.039509773E0
2.219791457E1,-8.912982345E-1,-1.954664946E0,1.389549136E0
2.224990829E1,-3.245572805E0,-5.075252056E-1,-1.962268472E0
2.230190224E1,-5.119707584E0,1.129593611E0,-3.189496517E0
2.235389557E1,-6.433678627E0,-2.167533040E-1,-4.318375587E0
2.240588883E1,-6.966352940E0,2.406912804E0,-5.023924828E0
2.245788252E1,7.427663207E-1,5.329903126E0,7.591363192E-1
2.250987878E1,1.158765554E0,2.080710888E0,3.345849216E-1
2.256187304E1,1.488632798E0,-1.533167958E0,2.489717484E0
2.261386629E1,2.214340925E0,-1.398777604E0,2.581958294E0
2.266585952E1,2.137982368E0,4.527550042E-1,3.001622677E0
2.271785291E1,1.477637172E0,-6.645175219E-1,2.968024969E0
2.276984624E1,1.102565885E0,-3.146463156E0,1.824485183E0
2.282183956E1,7.500966787E-1,-2.137924671E0,4.170517623E-1
2.287383309E1,7.720878124E-1,-8.358469605E-2,1.754588261E-2
2.292582728E1,1.382342339E0,-2.144644022E0,1.873354435E0
2.297782064E1,-8.094422817E-1,-2.747568130E0,-8.507947624E-2
2.302981393E1,-2.381809235E0,-9.058093429E-1,-8.743174076E-1
2.308180719E1,-5.025634289E0,1.851960123E-1,-1.990978956E0
2.313380071E1,-7.451379776E0,-4.824796915E-1,-3.872444153E0
2.318579394E1,-6.892438412E0,1.210838795E0,-4.708107471E0
2.323778723E1,4.513836205E-1,7.058651924E0,7.145431638E-1
2.328978119E1,1.053085804E0,4.806391716E0,1.981477618E0
2.334177491E1,1.656620741E0,-8.447228074E-1,2.026070833E0
2.339376830E1,2.440360785E0,-7.500386834E-1,2.892888784E0
2.344576166E1,2.106217623E0,-6.284765005E-1,4.140275478E0
2.349775508E1,1.475193739E0,-2.104326963E0,3.681515694E0
2.354975264E1,1.484356642E0,-1.895411015E0,3.025446177E0
2.360175059E1,1.521619558E0,-8.832072616E-1,2.429852724E0
2.365374505E1,9.217498302E-1,-3.654807061E-2,1.949712634E0
2.370573825E1,1.153267860E0,2.232816458E0,2.378540039E0
2.375773164E1,-1.320736408E0,-5.295486927E0,9.289568663E-1
2.380972500E1,-4.833211422E0,6.402906775E-1,-4.057536125E0
2.386171822E1,-4.741581917E0,6.329889774E0,-2.231049061E0
2.391371168E1,-6.329831600E0,-1.572874188E0,-3.975680113E0
2.396570494E1,-6.657255173E0,-1.570430636E0,-4.572495461E0
2.401769870E1,4.984202385E-1,5.805767059E0,1.336102784E-1
2.406969275E1,2.171580076E0,6.028732777E0,2.411526918E0
2.412168611E1,1.888749480E0,-5.136338472E-1,2.330281734E0
2.417367947E1,2.205788612E0,-1.300428271E0,3.767036915E0
2.422567270E1,1.890582204E0,-1.305315137E0,4.141497135E0
2.427766599E1,1.384785652E0,-8.154012561E-1,3.806132078E0
2.432965931E1,9.712299109E-1,-7.518712878E-1,3.283842325E0
2.438165274E1,1.771050990E-1,-2.301636457E0,2.588677645E0
2.443364696E1,2.271960676E-1,-2.040185928E0,1.582582593E0
2.448564029E1,-1.075581014E-1,-2.349894762E0,1.031582117E0
2.453763384E1,-7.715685964E-1,-1.962606192E0,-1.479986012E-1
2.458962714E1,-2.508869410E0,1.381593943E-1,-1.264049411E0
2.464162299E1,-4.545494080E0,3.493642092E0,-2.837638140E0
2.469361772E1,-5.106268406E0,8.944106102E-1,-2.912163734E0
2.474561098E1,-6.230260372E0,-1.962606192E0,-4.029436111E0
2.479760440E1,-1.187567830E0,2.701349735E0,-1.494956374E0
2.484959770E1,9.840580821E-1,4.613969326E0,8.367161751E-1
2.490159112E1,1.597366810E0,1.393487453E0,1.561813235E0
2.495358438E1,2.536266565E0,-1.632128000E0,2.356548786E0
2.500557767E1,2.570475101E0,-8.422793150E-1,2.610057831E0
2.505757192E1,2.729300022E0,-1.912515283E0,1.942382336E0
2.510956532E1,2.207621098E0,-2.368220806E0,1.172692060E0
2.516155871E1,2.805658102E0,-8.905376792E-1,1.406042576E0
2.521355210E1,4.134290218E0,-7.139976025E-1,3.132958651E0
2.526554536E1,4.043469727E-1,-1.202689767E0,-6.675352156E-2
2.531753879E1,-3.291998625E0,-2.061566353E0,-2.687976360E0
2.536953211E1,-6.867393017E0,1.675707221E0,-6.334841728E0
2.542152534E1,-5.726907730E0,4.833269596E0,-4.729487896E0
2.547351956E1,-4.139879227E0,1.993968010E0,-3.640315294E0
2.552551311E1,-1.123427033E0,4.851308465E-1,-3.822963953E0
2.557750654E1,1.374400973E0,3.079475641E0,-8.779825568E-1
2.562949976E1,2.015198708E0,1.694033146E0,1.950934291E0
2.568149642E1,2.520995140E0,-4.754364118E-2,1.963762522E0
2.573349481E1,2.750680447E0,-2.253054380E-1,2.464672089E0
2.578549070E1,2.892401218E0,-3.792434633E-1,3.096306562E0
2.583748406E1,2.362170219E0,-5.792835355E-2,3.506808043E0
2.588947745E1,1.218019485E0,-6.608523726E-1,3.416400194E0
2.594147068E1,1.900355935E0,-1.615634799E0,2.905106068E0
2.599346407E1,-2.456945896E0,-6.417646408E0,9.796586037E-1
2.604545747E1,-3.945013762E0,3.737988234E0,-2.954924345E0
2.609745096E1,-5.510661125E0,1.449687123E0,-3.426512480E0
2.614944511E1,-6.815469265E0,-7.127758861E-1,-4.304936409E0
2.620143850E1,-7.147780418E0,-3.584740460E-1,-6.171740532E0
2.625343176E1,7.305490375E-1,8.078797340E0,-1.276877522E0
2.630542519E1,2.136760712E0,6.408080101E0,2.603949308E0
2.635741845E1,2.170358419E0,1.572470903E0,3.278344393E0
2.640941180E1,2.661494255E0,-1.121444702E0,2.424965858E0
2.646140520E1,3.253422260E0,-1.048751831E0,2.849517107E0
2.651339915E1,3.504487991E0,-2.136989832E-1,3.048659086E0
2.656539277E1,2.909505367E0,-5.716660023E-1,2.835467339E0
2.661738623E1,3.579013586E0,-1.338301897E0,2.293629885E0
2.666937956E1,1.829495549E0,-1.136716485E0,2.198945522E0
2.672137285E1,-4.991227090E-1,-1.723146915E0,4.701970220E-1
2.677336931E1,-2.499706268E0,1.932270646E0,-1.625070810E0
2.682536790E1,-4.814885616E0,5.202739313E-2,-2.593903065E0
2.687736282E1,-6.934587955E0,-2.133648396E0,-3.576174259E0
2.692935618E1,-5.675594807E0,-1.310202122E0,-2.948204756E0
2.698134954E1,-1.290804029E0,2.138132334E0,-1.056355238E0
2.703334283E1,1.188086987E0,2.903546333E0,7.359234095E-1
2.708533609E1,1.550330162E0,1.455795765E0,2.745059013E0
2.713732958E1,2.458686829E0,1.486338973E0,2.947255611E0
2.718932314E1,2.335902929E0,-5.423445106E-1,3.643031120E0
2.724131670E1,1.781848192E0,-1.089172717E-2,3.919753075E0
2.729331042E1,1.066524863E0,5.706519485E-1,3.873938322E0
2.734530378E1,6.945080161E-1,-6.944499612E-1,3.207484245E0
2.739729727E1,8.506298065E-3,-1.292487025E0,2.578293085E0
2.744929083E1,-1.203450322E0,-1.711540580E0,1.272263050E0
2.750128415E1,-2.912040472E0,-9.827783108E-1,-9.555624127E-1
2.755327721E1,-7.532014370E0,-1.137327313E0,-4.170546532E0
2.760527074E1,-9.531375885E0,-6.376394629E-1,-3.289678574E0
2.765726456E1,-7.494140625E0,-3.830021143E0,-5.471689224E0
2.770925838E1,2.033723146E-1,8.901632309E0,-6.800622344E-1
2.776125151E1,1.827662945E0,6.597448826E0,4.192198753E0
2.781324490E1,2.172190905E0,-3.227201104E-2,1.449414015E0
2.786524006E1,2.999913216E0,-9.406285882E-1,2.105483294E0
2.791723565E1,2.639503002E0,1.320183635E0,3.288118362E0
2.796922888E1,2.079339504E0,-2.124772668E-1,3.206873178E0
2.802122220E1,1.550330162E0,-4.849231541E-1,2.795760870E0
2.807321556E1,8.753240705E-1,-2.246658564E0,2.107316017E0
2.812520885E1,2.988658100E-2,-2.414035559E0,8.428248167E-1
2.817720225E1,8.730791509E-2,-2.216402441E-1,-4.109717906E-2
2.822919564E1,-4.414769173E0,-1.697490692E0,-2.793045282E0
2.828118949E1,-7.078141689E0,3.201972246E-1,-2.867570639E0
2.833318325E1,-7.274839878E0,-8.386141062E-1,-3.101531982E0
2.838517654E1,-1.741622686E0,6.262407303E-1,-4.199867725E0
2.843716993E1,8.631067276E-1,6.579122543E0,1.170859456E0
2.848916339E1,1.569266915E0,4.529058456E0,2.607003689E0
2.854115649E1,2.139204264E0,2.077980340E-1,1.395046949E0
2.859314988E1,2.533823252E0,1.720807515E-2,2.643655539E0
2.864514364E1,2.466017008E0,-2.336455822E0,2.355327129E0
2.869713762E1,1.615081906E0,-1.884415388E0,2.097542048E0
2.874913092E1,6.926753521E-1,-5.032491088E-1,2.173289299E0
2.880112431E1,1.717096448E0,-5.063358307E0,9.466719627E-1
2.885311770E1,-9.481087327E-1,-2.652884007E0,-1.330022812E0
2.890511312E1,-4.426986217E0,1.205951810E0,-2.049011230E0
2.895711185E1,-5.944375515E0,7.862874269E-1,-2.947593927E0
2.900910827E1,-6.058607578E0,2.065762877E-1,-4.718492031E0
2.905913360E1,-3.504579782E0,4.599308014E0,-6.370272160E0
2.911112689E1,2.905840158E0,1.187043762E1,3.109134912E0
2.916312042E1,1.497795820E0,1.180906415E0,4.557496548E0
2.921511384E1,2.179521561E0,-4.486701012E0,2.599673271E0
2.926710697E1,2.751291275E0,-1.538341939E-1,2.550803900E0
2.931910059E1,2.630950689E0,2.201662064E0,3.535518885E0
2.937109461E1,1.589425564E0,6.256299019E-1,3.098139286E0
2.942308797E1,1.347522974E0,-2.932660103E0,2.564853907E0
2.947508136E1,1.214965224E0,-2.402429104E0,1.764009595E0
2.952707465E1,8.258439898E-1,-2.088120729E-1,2.087768316E0
2.957906791E1,-4.345741272E0,-4.653467655E0,-1.598192692E0
2.963106134E1,-4.313365459E0,5.025081635E0,-1.810773849E0
2.968305463E1,-5.564417362E0,-1.863646030E0,-1.912788272E0
2.973504865E1,-7.326763630E0,-1.620521665E0,-3.031282425E0
2.978704228E1,8.643285036E-1,2.926148415E0,7.426429391E-1
2.983903567E1,2.194182158E0,4.190639496E0,1.148257494E0
2.989102896E1,2.174023628E0,1.311020613E0,2.557523727E0
2.994302235E1,2.302916288E0,-4.354430735E-1,2.059057713E0
2.999501751E1,2.407984972E0,-1.406107903E0,2.319896936E0
3.004701636E1,2.859414339E0,-1.806835532E0,2.462839365E0
3.009901239E1,2.301694393E0,-1.125720859E0,2.613723040E0
3.015100571E1,2.428754330E0,-2.241771460E0,2.498880625E0
3.020299894E1,-8.998503685E-1,-2.500167370E0,7.921229601E-1
3.025499236E1,-4.372008324E0,-4.739275873E-1,-2.107043505E0
3.030698562E1,-6.724450111E0,3.559615612E0,-2.819312334E0
3.035897898E1,-6.512479782E0,1.068507195E0,-2.844968796E0
3.041097248E1,-5.177128792E0,-3.456458747E-1,-3.988508224E0
3.046296649E1,1.624244928E0,4.147268295E0,-3.190408647E-1
3.051495998E1,2.216173410E0,3.802740097E0,2.331503391E0
3.056695338E1,2.262599230E0,6.152451634E-1,3.297892332E0
3.061894677E1,2.152032375E0,-5.545617938E-1,2.792706728E0
3.067094000E1,1.791621923E0,-1.376786351E0,3.296059608E0
3.072293329E1,1.646846890E0,-1.506900787E0,2.569741011E0
3.077492665E1,1.296210170E0,-8.795421124E-1,2.153741598E0
3.082692024E1,1.084850788E0,-2.487339258E0,8.061729074E-1
3.087891426E1,-6.567259431E-1,-3.899659872E0,2.243280411E-2
3.093090768E1,-4.639567375E0,2.003130913E0,-2.641550541E0
3.098290101E1,-5.257152557E0,-4.311670363E-1,-1.374005079E0
3.103489434E1,-6.438565254E0,-4.204481602E0,-2.142473698E0
3.108688876E1,-3.971082270E-1,7.453594208E-1,-1.620183825E0
3.113888488E1,4.629900455E-1,5.472845554E0,1.111605644E0
3.119087831E1,1.420215845E0,2.601167917E0,1.971703887E0
3.124287174E1,1.856373668E0,3.919922188E-2,2.039509773E0
3.129486499E1,2.314522743E0,1.167791039E-1,2.781711102E0
3.134685835E1,2.453188896E0,6.219646335E-1,3.015061617E0
3.139885175E1,1.933342695E0,1.528201550E-1,3.144565105E0
3.145084500E1,9.791711569E-1,-1.584480643E0,2.813476086E0
3.150283916E1,-1.350470334E-1,-1.368845224E0,2.053559780E0
3.155483272E1,8.331743479E-1,-2.589964867E0,1.760955334E0
3.160682601E1,-1.930379987E0,-2.328514338E0,-9.885491729E-1
3.165881947E1,-4.838709354E0,1.906003475E0,-1.698374629E0
3.171081269E1,-5.712857246E0,2.957302570E0,-2.952481031E0
3.176280608E1,-4.960882187E0,1.938379288E0,-2.650713682E0
3.181479941E1,-4.752989709E-1,2.043448210E0,-2.585350752E0
3.186679277E1,1.565601826E0,4.056859970E0,1.923445463E0
3.191878699E1,2.035968065E0,1.666544199E0,2.083492279E0
3.197078035E1,2.439139128E0,-6.687935591E-1,2.294851542E0
3.202277381E1,2.350563765E0,-5.814398527E-1,2.534921646E0
3.207476710E1,2.112326145E0,-1.257056832E0,2.378540039E0
3.212676142E1,2.087891579E0,-1.408551335E0,1.982699394E0
3.217876034E1,1.564990997E0,-8.599944711E-1,2.186728239E0
3.223075686E1,9.119760394E-1,-4.678189456E-1,1.977201581E0
3.228275039E1,9.608452320E-1,-1.537443995E0,1.213619947E0
3.233474382E1,-4.319275618E-1,-5.093577504E-1,-1.052380279E-1
3.238673708E1,-3.611481190E0,7.844548225E-1,-3.027617455E0
3.243873040E1,-5.157580853E0,1.811930180E0,-3.943304539E0
3.249072410E1,-5.483783245E0,1.242603779E0,-3.975680113E0
3.254271709E1,-3.836279631E0,4.567543507E0,-3.228592157E0
3.259471088E1,1.802617550E0,2.903546333E0,7.450863719E-1
3.264670476E1,1.651122928E0,1.150363207E0,9.008570313E-1
3.269869812E1,2.309024811E0,-8.880942464E-1,1.927721500E0
3.275069145E1,2.442804098E0,6.787751317E-1,2.625329494E0
3.280268481E1,2.285811901E0,-6.804000139E-1,3.098750353E0
3.285467810E1,2.855138540E0,-3.167232513E0,2.842797518E0
3.290667146E1,2.481288910E0,-1.921067357E0,2.387092352E0
3.295866482E1,1.769019842E0,-3.896281719E-1,2.463450432E0
3.301065854E1,5.554292351E-2,-2.487950087E0,8.886396885E-1
3.306265243E1,-5.473811030E-1,-9.082527757E-1,-4.809201658E-1
3.311464576E1,-4.489905357E0,-2.339613857E-3,-3.653754234E0
3.316663918E1,-4.749523163E0,2.172340631E0,-3.044721603E0
3.321863304E1,-4.952330589E0,7.759026885E-1,-2.863905430E0
3.327062936E1,-5.017082214E0,2.499153614E0,-3.235922337E0
3.332262319E1,8.398939371E-1,4.689105511E0,3.913954198E-1
3.337461658E1,1.889360309E0,1.958537817E0,7.701318264E-1
3.342660987E1,2.065900326E0,-9.375742674E-1,1.784779072E0
3.347860327E1,2.450745583E0,-9.968282580E-1,2.018740416E0
3.353059656E1,1.999927044E0,6.543405056E-1,2.299127579E0
3.358258985E1,1.020709991E0,-2.027034163E-1,2.869065046E0
3.363458381E1,8.669704944E-2,-1.191694260E0,2.733452797E0
3.368657749E1,-3.720627427E-1,-1.505679011E0,2.196502209E0
3.373857079E1,4.397771657E-1,-1.103118777E0,1.490952849E0
3.379056415E1,1.022542596E0,-3.613775015E0,2.846462965E0
3.384255764E1,-2.291401386E0,-4.960732937E0,7.731862068E-1
3.389455080E1,-2.844234467E0,2.519311905E0,6.491805315E-1
3.394654422E1,-5.577245712E0,2.304000407E-1,-7.185467482E-1
3.399853752E1,-8.250391960E0,-1.140992403E0,-2.623224497E0
3.405053130E1,-3.032991648E0,2.780762434E0,-9.390690923E-1
3.410252539E1,4.709312618E-1,3.781970501E0,-1.858722419E-1
3.415451872E1,1.580873370E0,1.997022390E0,1.352286458E0
3.420651191E1,2.446469545E0,-1.257343888E-1,1.619845510E0
3.425850573E1,2.783667088E0,-2.277488858E-1,1.704755783E0
3.431050422E1,2.550316572E0,1.534310281E-1,2.149465561E0
3.436250151E1,1.996261835E0,-6.586959958E-2,2.369987965E0
3.441449624E1,1.166706800E0,-8.160121441E-1,2.288132191E0
3.446648970E1,4.562705457E-1,-1.828826666E0,2.165958881E0
3.451848283E1,5.692805648E-1,-2.535597801E0,1.534935236E0
3.457047625E1,-1.047679663E0,-2.576812804E-1,1.067322046E-1
3.462246954E1,-3.909583569E0,5.175067186E-1,-1.856588721E0
3.467446294E1,-5.219889164E0,1.845527768E0,-2.188288689E0
3.472645699E1,-5.109933376E0,2.550466299E0,-3.204157352E0
3.477845055E1,-4.055580139E0,3.882763386E0,-3.314724207E0
3.483044384E1,1.621801376E0,3.184544325E0,7.322582603E-1
3.488243723E1,2.280925035E0,2.740445375E0,3.303088844E-1
3.493443056E1,2.922333479E0,8.027807474E-1,2.200778246E0
3.498642388E1,3.010908842E0,-3.212112784E-1,1.900232553E0
3.503841734E1,2.845975399E0,-1.346243143E0,2.053559780E0
3.509041080E1,2.392713308E0,-3.132413149E0,1.173303008E0
3.514240482E1,2.572307587E0,-2.515439272E0,9.399523735E-1
3.519439831E1,2.279703379E0,-3.981803060E-1,1.001649737E0
3.524639174E1,1.215576053E0,-6.694045067E-1,5.538855791E-1
3.529838490E1,-2.875648066E-2,-1.879528522E0,-6.996099353E-1
3.535037868E1,-2.378755093E0,-6.406937838E-1,-2.337950468E0
3.540237710E1,-4.075128078E0,1.238938570E0,-3.020286798E0
3.545437429E1,-5.722020626E0,1.209006190E0,-3.402077913E0
3.550636832E1,-5.075725079E0,1.648829103E0,-2.796099424E0
3.555836158E1,-4.197102487E-1,4.184530735E0,-4.399921894E-1
3.561035494E1,1.569877863E0,3.018388987E0,2.570050657E-1
3.566234850E1,1.999316216E0,1.784764975E-1,1.670547247E0
3.571434169E1,2.601629257E0,-7.714189291E-1,2.058446884E0
3.576633512E1,2.132484913E0,-2.375227362E-1,2.453676462E0
3.581832877E1,1.340803385E0,-1.279047966E0,2.363879442E0
3.587032263E1,1.043311954E0,-2.195956707E0,1.829372168E0
3.592231589E1,8.783783913E-1,-1.351740956E0,2.081048489E0
3.597430941E1,2.021505684E-1,-8.908247948E-2,2.273471117E0
3.602630264E1,5.650045276E-1,-6.229786873E-1,2.476278543E0
3.607829590E1,-2.595001459E0,-4.462266445E0,-2.261893451E-1
3.613028949E1,-4.327414989E0,2.008018017E0,-2.839470863E0
3.618228268E1,-5.558308601E0,2.588950634E0,-2.361774206E0
3.623427637E1,-6.725061417E0,-1.127553344E0,-4.561500072E0
3.628627036E1,-1.302410483E0,6.836620569E-1,-3.607328415E0
3.633820901E1,1.278495073E0,6.392808437E0,6.125286222E-1
3.639020230E1,2.149588823E0,3.074588537E0,2.687027216E0
3.644219606E1,2.084837198E0,-4.885883629E-1,1.747516274E0
3.649419205E1,2.531990767E0,-2.796724141E-1,2.051727057E0
3.654618634E1,2.481899738E0,-7.927992344E-1,2.552025795E0
3.659817967E1,2.910116196E0,-2.010253668E0,2.206887007E0
3.665017296E1,3.078715086E0,-1.815998554E0,1.644280076E0
3.670216639E1,2.784888983E0,3.550165296E-1,1.373666763E0
3.675415964E1,1.674946666E0,-4.763710201E-1,1.255769730E0
3.680615297E1,3.902970850E-1,-1.709707975E0,5.575507879E-1
3.685814683E1,-9.658237696E-1,-3.486715078E0,-4.094489217E-1
3.691014065E1,-1.931601644E0,1.903559923E0,-1.413100481E0
3.696213404E1,-4.775790691E0,2.055665255E0,-1.318416357E0
3.701412737E1,-6.646259785E0,-1.871587276E0,-2.656211138E0
3.706612056E1,-8.205187798E0,-1.781790018E0,-3.739886284E0
3.711811405E1,-4.520860910E-1,5.781332493E0,-3.743198887E-2
3.717010738E1,1.225960732E0,6.141132355E0,9.949303269E-1
3.722210067E1,2.440360785E0,2.540081501E0,1.610071540E0
3.727409479E1,2.882627249E0,7.123727202E-1,2.218493462E0
3.732608828E1,2.828871012E0,-7.982970476E-1,3.416400194E0
3.737808164E1,1.843545556E0,-1.473303080E0,2.955807686E0
3.743007510E1,1.243675828E0,-2.005977631E0,2.821417332E0
3.748206849E1,6.932862401E-1,-3.437234879E0,2.482387304E0
3.753406601E1,1.808726192E0,-4.979669571E0,2.677864075E0
3.758606420E1,9.919993281E-1,-3.295514107E0,7.652449608E-1
3.763805839E1,-3.036046028E0,1.468013048E0,-1.637898922E0
3.769005168E1,-5.872904301E0,-6.022092700E-1,-3.801583767E0
3.774204501E1,-7.720160484E0,2.028787374E0,-3.983010530E0
3.779403837E1,-7.357306480E0,2.221820831E0,-3.111305952E0
3.784603169E1,-7.151705027E-2,3.439275265E0,-1.831543207E0
3.789802505E1,1.977324963E0,4.649399281E0,7.823491693E-1
3.795001838E1,2.304137945E0,3.244409084E0,2.375485897E0
3.800201236E1,2.635226727E0,1.405093908E0,1.963151693E0
3.805400609E1,2.391491652E0,9.322842360E-1,2.854403973E0
3.810599938E1,2.299861908E0,-1.800726891E0,2.919766665E0
3.815799280E1,2.618122578E0,-4.587494373E0,1.362671137E0
3.820998610E1,2.437917471E0,-4.566724777E0,3.770443797E-2
3.826197936E1,2.445247889E0,7.832331061E-1,-4.790875614E-1
3.831397275E1,-1.360442758E0,1.942655325E0,-1.220677972E0
3.836596640E1,-4.859478951E0,-1.199024677E0,-2.934154987E0
3.841796036E1,-7.417782784E0,-8.602815121E-2,-3.110695124E0
3.846995368E1,-6.538136482E0,-1.494683385E0,-1.790615201E0
3.852194718E1,-2.447171926E0,-9.821674824E-1,-4.201700211E0
3.857394053E1,1.667005539E0,4.691548824E0,3.176330090E0
3.862593625E1,2.004203081E0,3.780748844E0,2.796982765E0
3.867793118E1,2.488619089E0,9.662055224E-2,2.107316017E0
3.872992437E1,2.301083565E0,1.190680146E0,3.392576456E0
3.878191777E1,1.761689544E0,-6.889521480E-1,3.192212582E0
3.883391106E1,1.688385725E0,-5.832724571E-1,2.698022366E0
3.888590445E1,1.156932950E0,5.297240019E-1,2.533088923E0
3.893789781E1,3.927405477E-1,-5.172989964E-1,2.724900723E0
3.898989114E1,1.482524157E0,-3.533751726E0,2.861123562E0
3.904188532E1,-3.432497501E0,-2.604014635E0,-3.318690360E-1
3.909387871E1,-5.130092144E0,1.365998507E0,-1.004431725E0
3.914587211E1,-7.101354599E0,-6.749022007E-1,-3.060604095E0
3.919786550E1,-8.330414772E0,-1.097620964E0,-3.360538721E0
3.924985876E1,-1.282251954E0,3.050764799E0,-1.064296484E0
3.930185222E1,1.871034384E0,4.755690098E0,1.403599143E0
3.935384544E1,1.219852090E0,1.333011866E0,2.459174395E0
3.940583890E1,1.791621923E0,-1.875252485E0,1.307082415E0
3.945783319E1,2.393934965E0,6.231864095E-1,2.556301832E0
3.950982648E1,2.415926218E0,-2.601247430E-1,2.666868448E0
3.956181977E1,2.100719690E0,1.117987275E0,3.016283512E0
3.961381316E1,1.458089471E0,-9.296330810E-1,3.191601753E0
3.966580982E1,1.233901978E0,-1.667558193E0,2.399309635E0
3.971780814E1,1.271164775E0,-9.339091182E-1,2.112202883E0
3.976980417E1,-1.373270869E0,-1.952221394E0,-6.030932069E-1
3.982179746E1,-2.918149233E0,6.852075458E-2,-8.999736905E-1
3.987379082E1,-5.766613960E0,3.409666419E-1,-2.094826221E0
3.992578418E1,-8.189305305E0,6.485556066E-2,-3.129631758E0
3.997777761E1,-5.056787968E0,2.027565479E0,-3.651310682E0
4.002977083E1,7.794182301E-1,3.794798851E0,5.847385526E-2
4.008176489E1,9.974971414E-1,2.284128904E0,2.575238705E0
4.013375851E1,1.648679495E0,-1.341356158E0,1.771340013E0
4.018575183E1,2.464184523E0,2.035219669E-1,2.484830618E0
4.023774513E1,2.299861908E0,-1.273550153E0,2.949088097E0
4.028973859E1,2.265653372E0,-1.177644253E0,2.625329494E0
4.034173178E1,2.031692028E0,-1.704820991E0,2.297905684E0
4.039372514E1,1.646235943E0,-1.743305564E0,1.751181364E0
4.044571860E1,3.939622939E-1,-2.074394464E0,-1.987004131E-1
4.049771258E1,-3.279781342E0,-1.972056329E-1,-1.972042203E0
4.054970624E1,-6.516145706E0,7.707286626E-2,-2.929878950E0
4.060169970E1,-7.830727577E0,-2.729529142E-1,-3.774094820E0
4.065369283E1,-2.108752728E0,-6.406937838E-1,-4.008056164E0
4.070568625E1,6.486930251E-1,6.745277882E0,2.256366968E0
4.075768261E1,1.364016294E0,1.516882181E0,2.891055822E0
4.080968116E1,1.588814735E0,-1.087236285E0,9.240698814E-1
4.086167615E1,2.310246468E0,1.336066127E0,3.234973192E0
4.091366955E1,2.284590006E0,-5.759420991E-1,3.179995298E0
4.096566287E1,2.482510567E0,-2.399374723E0,2.415802717E0
4.101765616E1,2.508167028E0,-1.480633497E0,1.953377843E0
4.106964959E1,1.659064174E0,-1.205744147E0,1.313801885E0
4.112164295E1,1.162430763E0,-1.261943698E0,-3.648557663E-1
4.117363637E1,-3.211975336E0,4.002205729E-1,-2.493110418E0
4.122563059E1,-5.549145699E0,1.991524577E0,-2.556640387E0
4.127762395E1,-4.455696583E0,1.695254922E0,-1.899960041E0
4.132961731E1,-2.286514521E0,-6.586959958E-2,-2.369104624E0
4.138161060E1,8.722697496E-1,3.190042257E0,4.500384927E-1
4.143360390E1,1.787956834E0,2.196164370E0,2.224601984E0
4.148559719E1,2.371333122E0,-5.240185261E-1,2.101207256E0
4.153759072E1,2.081172228E0,1.112813205E-1,3.041328907E0
4.158958447E1,1.831328273E0,-4.238366485E-1,3.037663460E0
4.164157843E1,1.648068547E0,-2.287586451E0,2.679696560E0
4.169357165E1,1.558271527E0,-1.174589992E0,2.007744789E0
4.174556488E1,1.173426270E0,1.149465069E-1,1.988808036E0
4.179755837E1,-1.414198875E0,-3.497099638E0,3.999475539E-1
4.184955349E1,-6.552797318E0,-1.835546255E0,-2.609174490E0
4.190154889E1,-8.263219833E0,2.223653316E0,-3.096034288E0
4.195354248E1,-6.908931732E0,1.478397727E0,-4.708107471E0
4.200553560E1,9.028130174E-1,5.356781483E0,-4.021185338E-1
4.205752910E1,1.492298007E0,4.541275978E0,2.250869036E0
4.210952236E1,1.860649824E0,3.550165296E-1,1.515998244E0
4.216151561E1,2.872853518E0,-6.822326183E-1,2.015075207E0
4.221350911E1,2.712806702E0,1.644266099E-1,2.979631424E0
4.226550322E1,1.802617550E0,-1.669390917E0,2.687638044E0
4.231749668E1,1.834382534E0,-2.131815910E0,1.748738050E0
4.236948991E1,1.601032019E0,-8.300620317E-1,7.676883936E-1
4.242148333E1,1.059805393E0,1.944487929E0,6.106960177E-1
4.247347666E1,9.999406338E-1,-1.014543295E0,-1.321161091E-1
4.252546992E1,-3.141725779E0,-2.093331337E0,-2.527929783E0
4.257746324E1,-5.474620342E0,-1.142825127E0,-1.986092210E0
4.262945690E1,-6.441008568E0,1.015074775E-1,-2.177903891E0
4.268145089E1,-1.843026280E0,3.075199366E0,-2.015413761E0
4.273344434E1,7.959116101E-1,5.513773441E0,1.255769730E0
4.278543767E1,1.647457719E0,2.995176077E0,1.410929561E0
4.283743116E1,2.773282528E0,-7.390431166E-1,2.181841612E0
4.288942669E1,2.715250254E0,-6.926173568E-1,2.398087740E0
4.294142571E1,1.438541889E0,-7.695863843E-1,2.492160797E0
4.299342096E1,-2.963154614E-1,-1.720092654E0,2.680307388E0
4.304541429E1,-1.592831127E-2,-8.392249942E-1,3.178773403E0
4.309740768E1,-2.272876948E-1,-3.288287669E-2,3.804299593E0
4.314940114E1,7.574270368E-1,-3.740224123E0,1.815933108E0
4.320139437E1,-2.379365921E0,-2.489783049E0,-9.546418488E-2
4.325338766E1,-5.643218517E0,1.862631917E0,-2.601844311E0
4.330538122E1,-5.651160240E0,5.059002638E-1,-2.527929783E0
4.335737467E1,-7.417171478E0,-2.271704197E0,-4.588988781E0
4.340936869E1,1.216186881E0,2.840627193E0,-8.559914231E-1
4.346136205E1,2.106217623E0,3.263345957E0,1.650388718E0
4.351335528E1,2.327961683E0,1.497658342E-1,1.735909820E0
4.356534870E1,2.765341043E0,1.857134104E0,1.373666763E0
4.361543184E1,2.904618502E0,2.856509686E0,2.625329494E0
4.366742517E1,2.585746765E0,3.553403169E-2,2.387703180E0
4.371941843E1,2.591244698E0,-3.483049870E0,1.148257494E0
4.377141225E1,2.838644981E0,-5.180644512E0,7.817382812E-1
4.382340607E1,1.597977638E0,-7.078889608E-1,3.559652269E-1
4.387539943E1,-7.483556867E-1,-2.986092567E-1,-6.983881593E-1
4.392739282E1,-4.249224663E0,2.010785043E-1,-2.681256771E0
4.397938728E1,-6.605331421E0,2.749931812E-1,-3.070988655E0
4.403138334E1,-6.855786800E0,1.351337790E0,-3.440562248E0
4.408337680E1,4.581031203E-1,4.590145588E0,-1.940888047E0
4.413537022E1,1.990764022E0,5.047683716E0,2.277747393E0
4.418736341E1,2.004813910E0,-2.326358259E-1,1.529437423E0
4.423935697E1,2.716471910E0,-3.945150971E-1,2.414581060E0
4.429135033E1,2.258933783E0,1.023913980E0,3.462215185E0
4.434334349E1,9.223607183E-1,-1.764685750E0,3.759706259E0
4.439533764E1,7.262729406E-1,-2.788496017E0,3.084089279E0
4.444733110E1,5.149135590E-1,-3.479995251E0,1.671768904E0
4.449932439E1,8.044636846E-1,5.522325516E0,5.270075202E-1
4.455131782E1,-5.913633704E-1,-3.780217171E-1,2.711461782E0
4.460331124E1,-4.547937393E0,-5.095122814E0,-3.213320255E0
4.465530447E1,-5.861908913E0,1.854690671E0,-1.731972218E0
4.470729783E1,-6.699404716E0,-3.570403576E0,-2.468675852E0
4.475929119E1,-3.910194397E0,1.087443948E0,-3.428955793E0
4.481128518E1,4.715421498E-1,3.242576599E0,2.686416149E0
4.486327890E1,9.608452320E-1,1.466791272E0,1.236222029E0
4.491527232E1,1.664561987E0,-2.674551308E-1,1.444527149E0
4.496726548E1,2.149588823E0,3.605143428E-1,1.881295800E0
4.501925997E1,2.325518131E0,8.785280585E-1,2.676031590E0
4.507125889E1,2.176466942E0,-1.334025860E0,2.139080763E0
4.512325538E1,2.484954119E0,-1.924121737E0,1.073120952E0
4.517524878E1,3.924763441E0,-4.616816044E0,9.784368873E-1
4.522724224E1,1.348133802E0,8.379238844E-2,-6.873926520E-1
4.527923546E1,-4.055580139E0,-6.773456931E-1,-2.683700085E0
4.533122886E1,-4.098340988E0,1.178462863E0,-2.890172720E0
4.538322218E1,-4.793505192E0,2.482049227E0,-2.617115974E0
4.543521551E1,-3.442271471E0,2.891939878E0,-2.832751513E0
4.548720893E1,7.928572893E-1,3.802740097E0,-5.719391108E-1
4.553920302E1,2.199679852E0,3.642693281E0,-1.779309958E-1
4.559119651E1,3.078715086E0,-4.876537248E-2,9.967628717E-1
4.564318987E1,2.852083921E0,1.407537341E0,1.812878728E0
4.569518316E1,2.108661175E0,2.637105249E-2,2.376096725E0
4.574717659E1,2.434252262E0,-1.480633497E0,2.468337059E0
4.579916981E1,2.153865099E0,-2.865465164E0,1.293032527E0
4.585116337E1,1.306594968E0,-2.572860479E0,-1.910603233E-2
4.590315660E1,-1.326035708E-1,-3.658044338E-1,3.877302110E-1
4.595515078E1,5.869956613E-1,-5.325706005E-1,6.656739116E-1
4.600714434E1,-9.090133309E-1,-1.084182024E0,3.465010971E-2
4.605913763E1,-6.338994503E0,-7.133867741E-1,-2.653767824E0
4.611113159E1,-6.687798500E0,-1.429931641E0,-2.617726803E0
4.616312781E1,-6.595558167E0,-4.155612469E0,-2.749062777E0
4.621512161E1,5.417916775E-1,3.549231052E0,1.733466268E0
4.626711490E1,1.762911201E0,5.468569279E0,2.025460005E0
4.631910829E1,1.467252612E0,2.378202200E0,9.845455885E-1
4.637110152E1,2.777558327E0,-3.566414416E-1,2.404196262E0
4.642309491E1,2.099498034E0,8.211067319E-1,2.512930393E0
4.647508834E1,2.095221996E0,-3.816869259E-1,2.922210217E0
4.652708166E1,2.251603603E0,-2.363010049E-1,2.864177942E0
4.657907592E1,2.460519314E0,-1.418936133E0,1.985142827E0
4.663106927E1,2.564366341E0,7.838439345E-1,2.346775055E0
4.668306270E1,-3.818365932E-1,-3.685245991E0,5.367813110E-1
4.673505593E1,-4.036643505E0,-1.423212171E0,-2.728293419E0
4.678704925E1,-5.166133404E0,2.976239204E0,-2.557251215E0
4.683904254E1,-6.147182465E0,-8.917593956E-1,-3.650089025E0
4.689103587E1,-6.161232948E0,3.635686636E-1,-3.177890062E0
4.694302956E1,-2.359207392E0,2.529085875E0,-2.422250032E0
4.699502361E1,1.632797003E0,1.143032670E0,2.211773872E0
4.704701687E1,1.153878689E0,-1.715492904E-1,1.484844208E0
4.709901026E1,1.585149527E0,-8.398358822E-1,2.549582243E0
4.715100422E1,1.954112053E0,-3.957368433E-1,3.048659086E0
4.720300287E1,2.109882832E0,1.381593943E-1,3.074315786E0
4.725500010E1,1.492908835E0,-1.086301655E-1,3.812851667E0
4.730699483E1,9.272476435E-1,-1.822107196E0,3.708393812E0
4.735898812E1,1.102565885E0,-2.718246698E0,2.574627638E0
4.741098134E1,-3.647323549E-1,-1.366401792E0,1.856250286E0
4.746297460E1,-1.208948135E0,-1.214907050E0,-8.019255847E-2
4.751496796E1,-3.390347958E0,-8.969334513E-2,-1.878579855E0
4.756696139E1,-6.129467964E0,3.333595514E0,-3.000739336E0
4.761895547E1,-6.582118511E0,-1.067688584E0,-2.881620646E0
4.767094896E1,-4.904683113E0,-1.204522491E0,-4.278669357E0
4.772294229E1,1.061027050E0,5.899229527E0,8.776441813E-1
4.777493562E1,2.776947498E0,5.237662792E0,1.730412006E0
4.782692898E1,2.762286901E0,1.784764975E-1,1.806770086E0
4.787892224E1,2.794662714E0,-6.632958651E-1,2.707185507E0
4.793091580E1,2.202734470E0,-1.509344101E0,2.486052275E0
4.798290919E1,9.327453971E-1,-6.193135381E-1,2.558745384E0
4.803490314E1,-7.624056339E-1,-2.399374723E0,2.366933584E0
4.808689683E1,-8.454833627E-1,-5.589313030E0,1.651610494E0
4.813888996E1,1.316368818E0,-5.023041248E0,-8.608783484E-1
4.819088328E1,-1.066616535E0,5.323794365E0,4.320222139E-2
4.824287717E1,-5.828921795E0,-1.182531238E0,-2.625057220E0
4.829487559E1,-6.148404121E0,1.593851328E0,-1.586586356E0
4.834687272E1,-5.865573883E0,2.444786549E0,-2.883453131E0
4.839886678E1,3.273779750E-1,2.864450932E0,-1.325135946E0
4.845085997E1,1.679222822E0,5.097163677E0,5.990896225E-1
4.850285333E1,2.937605143E0,3.555950403E0,1.492174506E0
4.855484672E1,3.158127546E0,1.566362262E0,2.149465561E0
4.860684008E1,3.318785191E0,3.370143473E-2,2.648542404E0
4.865883331E1,2.842309952E0,-1.739640355E0,3.593550920E0
4.871082696E1,1.097068071E0,-3.080489397E0,3.331489801E0
4.876282098E1,8.582198620E-1,-1.498959422E0,3.114632607E0
4.881481431E1,1.546665072E0,-2.087833405E0,1.825096250E0
4.886680770E1,-5.424941182E-1,-2.324238539E0,-1.718223393E-1
4.891880096E1,-4.954163074E0,8.846367002E-1,-3.749049425E0
4.897079435E1,-6.384809494E0,4.197682738E-1,-2.961643696E0
4.902278775E1,-6.830741405E0,2.082543373E0,-3.585948229E0
4.907478110E1,-2.686020374E0,1.659213901E0,-1.990978956E0
4.912677456E1,7.647574544E-1,3.940795660E0,-7.551986575E-1
4.917876881E1,1.489243627E0,3.068480015E0,1.689484000E0
4.923076211E1,2.077506781E0,1.317129254E0,2.698022366E0
4.928275570E1,2.524660110E0,5.675976276E-1,2.635714293E0
4.933474919E1,2.883238077E0,-1.314478159E0,3.123184919E0
4.938674521E1,2.714028597E0,-3.170286894E0,3.017505169E0
4.943873954E1,2.637670517E0,-2.348062277E0,2.492771864E0
4.949073293E1,2.056126595E0,-2.297971249E0,1.762176991E0
4.954272602E1,1.483745813E0,1.000090241E0,5.263966322E-1
4.959471938E1,-2.510701895E0,-3.415243626E0,-2.178514719E0
4.964671281E1,-4.371397495E0,2.104534626E0,-2.305574656E0
4.969870610E1,-6.158789158E0,3.324145377E-1,-3.326941490E0
4.975069962E1,-5.831975937E0,2.215101242E0,-2.339172125E0
4.980269374E1,1.072022676E0,4.567543507E0,1.015088797E0
4.985468710E1,1.578429937E0,2.064828396E0,9.695836902E-2
4.990668039E1,2.205788612E0,-8.777095079E-1,1.665660262E0
4.995867382E1,2.442193270E0,-2.918897271E-1,1.947269201E0
5.001066708E1,1.830717325E0,2.163501382E-1,2.935649157E0
5.006266034E1,1.418994188E0,-8.673248291E-1,2.837910652E0
5.011465380E1,5.747783780E-1,-7.518712878E-1,3.189769030E0
5.016664756E1,2.247525901E-1,-1.450700998E0,2.425576687E0
5.021864141E1,1.154077128E-1,-1.823939800E0,1.368779778E0
5.027063473E1,1.116615891E0,1.656483263E-1,-5.554457307E-1
5.032262809E1,-2.067824602E0,-1.779957533E0,-1.869416833E0
5.037462162E1,-4.815496445E0,-4.998710379E-2,-2.090549946E0
5.042661941E1,-5.720798969E0,2.007406950E0,-1.673329115E0
5.047861726E1,-5.374438286E0,-1.437872887E0,-3.000128508E0
5.053061252E1,1.237567186E0,3.984777927E0,5.312835574E-1
5.058260578E1,1.621190548E0,3.728825092E0,1.421925068E0
5.063459921E1,1.783069849E0,3.146994710E-1,1.905119538E0
5.068659247E1,2.192349672E0,-1.037145376E0,2.337612152E0
5.073858583E1,2.004813910E0,-6.156483293E-1,2.955196857E0
5.079057912E1,1.044533849E0,-7.341561913E-1,2.674809933E0
5.084257317E1,6.205932498E-1,-5.393940024E-3,2.360213995E0
5.089452038E1,2.809522152E-1,4.961264431E-1,2.208719492E0
5.094651378E1,1.817278266E0,-2.258875847E0,3.001011610E0
5.099850710E1,-1.050734043E0,-5.488520622E0,1.256991506E0
5.105050036E1,-3.346365690E0,7.618528008E-1,-2.132088900E0
5.110249382E1,-5.354279995E0,2.770377636E0,-1.628736019E0
5.115448708E1,-7.836225033E0,-2.604014635E0,-4.108848572E0
5.120648040E1,-4.855813503E0,1.732517719E0,-4.100296974E0
5.125847466E1,1.407998562E0,7.885152340E0,2.014163136E-1
5.131046805E1,2.268096924E0,5.199788570E0,1.511722326E0
5.136246147E1,2.776336670E0,-6.877304316E-1,1.454911709E0
5.141445487E1,3.354826212E0,-6.015984416E-1,2.151298046E0
5.146644826E1,2.708530664E0,-1.721601635E-1,3.028500795E0
5.151844581E1,2.278481483E0,-2.195956707E0,2.627162218E0
5.157044380E1,1.824608684E0,-2.665101290E0,1.726746798E0
5.162243812E1,1.693883538E0,-1.912515283E0,9.350655079E-1
5.167443148E1,8.423373699E-1,-6.840652227E-1,2.643354535E-1
5.172642481E1,1.004827499E0,-3.194721460E0,-6.183648705E-1
5.177841820E1,-2.381198406E0,3.030930161E-1,-2.727071762E0
5.183041146E1,-5.315795422E0,1.328735709E0,-3.561513662E0
5.188240479E1,-5.146585464E0,3.500972748E0,-3.023341417E0
5.193439828E1,-4.246170044E0,-1.060969114E0,-2.542590380E0
5.198639240E1,1.033889409E-2,-3.804652095E-1,-1.758239388E0
5.203838592E1,8.679937124E-1,3.040380239E0,1.175135493E0
5.209037922E1,1.448926568E0,2.085597992E0,2.351661921E0
5.214237244E1,2.291309834E0,-2.354170799E0,1.215452671E0
5.219436584E1,2.443415165E0,-6.883413196E-1,1.800661445E0
5.224635919E1,2.110493660E0,-2.766180933E-1,2.742004871E0
5.229835249E1,2.205788612E0,-1.262554526E0,2.120754957E0
5.235034618E1,2.717693567E0,-1.079295039E0,2.000414371E0
5.240234013E1,2.430586815E0,-1.029814959E0,1.489120245E0
5.245433352E1,8.484460115E-1,-1.111670852E0,7.084344625E-1
5.250632691E1,-3.547599912E-2,1.366609335E0,8.993769065E-3
5.255832027E1,-2.788034916E0,4.350398779E-1,-2.000141859E0
5.261031609E1,-4.762351036E0,2.450284481E0,-3.350765228E0
5.266231089E1,-4.640789032E0,2.045280695E0,-3.114360094E0
5.271430421E1,-5.523489475E0,-3.838066384E-2,-3.508979321E0
5.276629754E1,-1.301799655E0,2.548346519E-1,-9.237974882E-1
5.281829086E1,2.717892230E-1,1.017805338E0,1.684295982E-1
5.287028419E1,9.779494405E-1,-7.500386834E-1,1.401766539E0
5.292227755E1,1.563769221E0,-3.175460696E-1,1.950934291E0
5.297427144E1,2.149588823E0,-1.153820515E0,2.261864662E0
5.302626522E1,2.379274368E0,-1.083571076E0,2.334557772E0
5.307825848E1,2.466627836E0,-1.310202122E0,2.024849176E0
5.313025184E1,1.777572036E0,5.447085574E-2,2.004690647E0
5.318224540E1,6.340323091E-1,-1.316310763E0,1.673601508E0
5.323423863E1,5.497329235E-1,-2.150752783E0,7.267604470E-1
5.328623189E1,-2.100200415E0,-2.129372358E0,-1.810163021E0
5.333822535E1,-4.302980423E0,3.040991068E0,-1.962879300E0
5.339021900E1,-4.194857597E0,3.693395138E0,-1.645840168E0
5.344221306E1,-3.645078659E0,1.767337084E0,-1.914620876E0
5.349420625E1,-4.478100240E-1,2.227929354E0,-2.066416591E-1
5.354619954E1,8.350069523E-1,1.126539350E0,3.281751275E-2
5.359819297E1,1.365848899E0,-1.965947598E-1,1.184298515E0
5.365018962E1,1.551551938E0,-5.875484943E-1,1.447581410E0
5.370218798E1,1.388450980E0,-6.199243665E-1,1.814100623E0
5.375418284E1,9.693973660E-1,-1.062801600E0,1.834869981E0
5.380617626E1,1.047588110E0,-2.296749592E0,1.368779778E0
5.385816962E1,8.288983107E-1,-2.171522141E0,1.015699744E0
5.391016288E1,2.204765379E-1,-1.521561503E0,2.081358284E-1
5.396215627E1,1.411663771E0,-1.070132136E0,5.795419216E-1
5.401414967E1,-2.454502344E0,-1.117168665E0,-1.870027661E0
5.406614292E1,-5.051290512E0,1.965257287E0,-1.598192692E0
5.411813718E1,-5.606566906E0,8.990103751E-2,-1.876747251E0
5.417013060E1,-3.863768578E0,-6.810109019E-1,-1.958603144E0
5.422212393E1,1.142272234E0,2.271300793E0,-3.618014157E-1
5.427411732E1,1.388450980E0,2.885831356E0,1.250882864E0
5.432611058E1,1.531393290E0,5.743172169E-1,1.632062793E0
5.437810394E1,1.954112053E0,-8.923702836E-1,2.146411419E0
5.443009733E1,2.144702196E0,-8.538857698E-1,1.924056292E0
5.448209079E1,2.512442827E0,-1.090290666E0,2.073107481E0
5.453408494E1,2.324907303E0,-8.392249942E-1,1.558148026E0
5.458607850E1,1.772685170E0,-3.114374280E-1,1.194072366E0
5.463807166E1,6.065434217E-1,-2.943331897E-1,5.807636380E-1
5.469006499E1,-1.519267678E0,-1.573485017E0,-7.558094859E-1
5.474206038E1,-2.553462744E0,-4.452169240E-1,-1.416154861E0
5.479405567E1,-2.505204201E0,1.125317574E0,-1.183415174E0
5.484604896E1,-4.111779690E0,1.230997324E0,-2.041069984E0
5.489804232E1,-2.164952040E0,1.108824253E0,-9.500646591E-1
5.495003568E1,-1.600925177E-1,2.851011992E0,4.030018747E-1
5.500202897E1,1.082407355E0,2.352545977E0,3.211458921E-1
5.505402240E1,1.599810362E0,-7.433191538E-1,8.648159504E-1
5.510601566E1,1.930899143E0,-8.459445238E-1,1.060292840E0
5.515800978E1,1.771463394E0,-1.106173038E0,1.107940316E0
5.521000330E1,1.108063698E0,-2.613464594E-1,1.291199923E0
5.526199666E1,6.425843835E-1,-9.223026633E-1,9.796586037E-1
5.531398998E1,4.385554194E-1,-1.279047966E0,4.952425063E-1
5.536598351E1,-5.196936056E-2,-4.898100793E-1,1.213929728E-1
5.541797664E1,-9.383348227E-1,-2.177019835E0,-3.837925792E-1
5.546997006E1,-2.138486505E-1,9.157908559E-1,3.590195477E-1
5.552196342E1,-4.477687836E0,-2.349283934E0,-2.264035940E0
5.557395757E1,-6.886940479E0,-2.025525331E0,-2.832140446E0
5.562595103E1,-2.935253382E0,4.383061886E0,-1.291538358E0
5.567794439E1,1.905441433E-1,7.338428020E0,4.335451126E-1
5.572993772E1,5.222439766E-1,1.540706038E0,1.213009119E0
5.578193334E1,1.550940990E0,-8.551074862E-1,5.251749158E-1
5.583393233E1,2.293142319E0,9.090713263E-1,2.210551977E0
5.588592782E1,2.388437271E0,-3.593720123E-2,3.269181728E0
5.593792108E1,1.701824665E0,-2.206341267E0,3.102415323E0
5.598991440E1,1.274219155E0,-3.340107441E0,1.563034892E0
5.604190776E1,8.496677279E-1,-2.327903509E0,6.497913599E-1
5.609390115E1,-4.545295835E-1,3.635686636E-1,-2.329088748E-1
5.614589435E1,-2.988398790E0,-4.764034271E0,-2.680035114E0
5.619788781E1,-5.430637836E0,3.706223488E0,-3.559680939E0
5.624988120E1,-4.805111885E0,2.857731342E0,-3.810135841E0
5.630187558E1,-3.353696108E0,7.575767040E-1,-6.304298401E0
5.635386884E1,1.524062991E0,7.302998066E0,2.400531292E0
5.640586203E1,1.745196223E0,3.004339218E0,3.792693138E0
5.645785546E1,1.965718508E0,-1.583258867E0,8.623725176E-1
5.650984872E1,3.016406775E0,-1.544450521E-1,1.624732256E0
5.656184208E1,2.758621693E0,2.670806646E0,2.993681431E0
5.661383544E1,1.070800900E0,7.209248543E-1,2.919155836E0
5.666582906E1,4.501618743E-1,-3.771989107E0,1.873354435E0
5.671782311E1,1.156322122E0,-3.531308174E0,8.025077581E-1
5.676981641E1,1.951668739E0,2.694954276E-1,1.057849407E0
5.682180976E1,2.162417173E0,-7.442171127E-2,-9.775536060E-1
5.687380442E1,-2.669939399E-1,8.101111650E-1,-2.283583403E0
5.692580038E1,-2.916927338E0,-3.341329098E0,-2.637274504E0
5.697779384E1,-5.009751320E0,2.866894484E0,-2.473562479E0
5.702978713E1,-5.755007267E0,-2.600960493E0,-3.191329241E0
5.708178035E1,-4.631015301E0,-1.849596024E0,-3.952467203E0
5.713377381E1,-6.540839374E-2,5.428252220E0,2.197723866E0
5.718576707E1,7.213860750E-1,3.291445732E0,1.627786636E0
5.723776050E1,1.375011802E0,-7.634777427E-1,6.351306438E-1
5.728975409E1,2.023750782E0,3.158173291E-3,2.110370159E0
5.734174808E1,2.028026819E0,1.128371954E0,3.414567709E0
5.739374140E1,9.364106059E-1,-2.060955524E0,3.609433651E0
5.744573480E1,2.866485156E-2,-3.032842159E0,3.983283043E0
5.749772809E1,-6.738302112E-1,-2.825147867E0,3.448164940E0
5.754972158E1,-1.648771167E0,-4.392016888E0,2.688859701E0
5.760171477E1,-4.814076126E-1,1.825980067E0,9.967628717E-1
5.765370807E1,-3.592544317E0,3.800620437E-1,-9.995447397E-1
5.770570192E1,-5.390320778E0,9.915381670E-1,-1.562151670E0
5.775769581E1,-5.807541370E0,6.335710883E-1,-2.198673248E0
5.780968917E1,-1.259039044E0,-4.592668116E-1,-1.959824920E0
5.786168256E1,2.405541420E0,3.340925694E0,8.990244269E-1
5.791367745E1,2.139815092E0,1.665933371E0,3.167777777E0
5.796567604E1,1.866758466E0,-4.519364238E-1,2.018129587E0
5.801767290E1,1.889971256E0,1.479332447E-1,1.925888896E0
5.806966683E1,1.955944657E0,-7.347670197E-1,1.280815244E0
5.812166018E1,1.648679495E0,-3.462567329E-1,7.786839604E-1
5.817364608E1,1.131887436E0,1.965153590E-2,2.044706494E-1
5.822563944E1,2.443002760E-1,1.320507377E-1,-4.491551518E-1
5.827763276E1,-1.243767500E0,-1.239952683E0,-1.183415174E0
5.832962625E1,-2.300564289E0,-2.992524862E0,-1.442422032E0
5.838162047E1,-3.579105139E0,3.589548111E0,-1.290316701E0
5.843361373E1,-5.158191681E0,2.651258945E0,-2.375213385E0
5.848560706E1,-4.946221828E0,-2.605236292E0,-3.245696306E0
5.853760055E1,1.106231213E0,1.873627543E0,-6.403559446E-1
5.858959374E1,2.051239729E0,3.538846254E0,2.828136921E0
5.864158714E1,2.170969248E0,8.968539834E-1,2.556912661E0
5.869358050E1,2.531379938E0,-7.756950259E-1,2.419467926E0
5.874557385E1,2.630339861E0,-2.301923484E-1,2.469559193E0
5.879756810E1,2.200290680E0,-8.948137164E-1,2.015075207E0
5.884956150E1,1.674335837E0,-1.502013803E0,5.196771026E-1
5.890155482E1,9.174737334E-1,-4.610994160E-1,-7.713823020E-2
5.895354815E1,-2.132377923E-1,-1.434494853E-1,-9.573950171E-1
5.900554287E1,-2.211988688E0,7.038206458E-1,-2.362996101E0
5.905754169E1,-3.303605080E0,-2.468402624E0,-1.794891357E0
5.910953798E1,-3.650576353E0,5.334179401E0,-2.204782009E0
5.916153144E1,-5.260206699E0,1.960981369E0,-1.925005674E0
5.921352504E1,3.139389455E-1,-2.431139946E0,-1.155315399E0
5.926551813E1,-4.203211069E-1,-1.651064992E0,-1.327579379E0
5.931751155E1,1.393948674E0,2.451506138E0,3.803998530E-1
5.936950505E1,2.641335487E0,3.384297371E0,1.787222505E0
5.942149824E1,2.522827625E0,-1.761124469E-2,1.937495351E0
5.947349183E1,1.860038877E0,-1.195970297E0,2.049283743E0
5.952548585E1,1.232069373E0,-2.580190897E0,2.112202883E0
5.957747914E1,7.855269313E-1,-1.142214060E0,1.473848581E0
5.962947253E1,1.025795415E-1,-2.332466692E-1,7.976207733E-1
5.968146579E1,-1.108766198E0,-4.307106972E0,-1.535273552E0
5.973345922E1,-5.227219582E0,-2.173641771E-1,-1.064296484E0
5.978545251E1,-5.877180099E0,3.334206343E0,-2.741121531E0
5.983744584E1,-6.689631462E0,2.223653316E0,-5.001322746E0
5.988943989E1,1.847210646E0,5.907781601E0,1.032804012E0
5.994143345E1,5.643936992E-1,1.345839977E0,3.185493231E0
5.999342687E1,1.968772769E0,-9.998825788E-1,1.666882038E0
6.004542023E1,2.084837198E0,-2.692877054E-1,2.902662277E0
6.009741419E1,1.477026343E0,-4.158953726E-1,3.321716070E0
6.014941058E1,-1.148884818E-1,-2.920442820E0,2.530645609E0
6.020140417E1,6.340323091E-1,-3.474497557E0,1.280815244E0
6.025339750E1,-4.533078372E-1,-3.378591776E0,1.257602334E0
6.030539089E1,-3.580326796E0,-1.250948071E0,-8.950867653E-1
6.035738422E1,-5.457516193E0,2.351324320E0,-2.517544985E0
6.040937761E1,-4.760518551E0,1.430750251E0,-3.186442375E0
6.046137094E1,-5.142309666E0,1.670209527E0,-6.490612507E0
6.051336469E1,2.422034979E0,5.141145706E0,2.771937370E0
6.056535851E1,1.662729383E0,1.650661707E0,3.340041876E0
6.061735187E1,2.388437271E0,-1.542330980E0,2.917934179E0
6.066934523E1,2.812988520E0,-2.436313778E-1,2.738339663E0
6.072133859E1,3.201498985E0,-8.178447485E-1,2.278969049E0
6.077333195E1,2.927220345E0,5.504934192E-1,2.729787588E0
6.082532528E1,2.530768871E0,-4.360539317E-1,2.570351839E0
6.087731854E1,1.392726898E0,-2.063686103E-1,2.094487906E0
6.092931252E1,3.047759533E-1,-1.337691069E0,6.412393451E-1
6.098130621E1,-2.264523268E0,3.321378231E0,-2.451571465E0
6.103329957E1,-3.255346775E0,-2.749400616E0,-2.256705284E0
6.108529300E1,-6.262636185E0,-4.300387859E0,-3.335493326E0
6.113728709E1,-8.309035301E0,2.340652347E-1,-3.380697489E0
6.118928567E1,6.328105927E-1,5.013474941E0,4.625654966E-2
6.124128250E1,2.023139954E0,3.419116735E0,2.382816076E0
6.129327626E1,1.564990997E0,4.075509608E-1,2.403585434E0
6.134526958E1,2.100108862E0,3.134777248E-1,2.190393448E0
6.139726301E1,2.142869473E0,-5.698334575E-1,2.226434469E0
6.144925623E1,2.373165846E0,-1.484909534E0,2.097542048E0
6.150124959E1,2.464184523E0,-1.777513981E0,1.869078517E0
6.155324302E1,1.681055307E0,-5.796073079E-1,1.745683670E0
6.160523638E1,3.518125713E-1,-2.440302849E0,1.619845510E0
6.165723056E1,-4.752989709E-1,-2.608901501E0,8.535192162E-2
6.170922402E1,-2.417239428E0,1.809199452E-1,-1.041083574E0
6.176121728E1,-4.237617970E0,-2.057577372E-1,-1.964711785E0
6.181321064E1,-5.964534283E0,7.429159880E-1,-1.966544390E0
6.186520403E1,-7.853329659E0,3.201037884E0,-3.171170712E0
6.191719732E1,1.847821474E0,3.113073349E0,1.415515244E-1
6.196919068E1,1.525895476E0,3.174770594E0,1.016921401E0
6.202118411E1,2.037800550E0,1.253599405E0,2.862956285E0
6.207317830E1,2.411039352E0,-3.755782843E-1,2.317453623E0
6.212517162E1,2.037800550E0,7.978938818E-1,3.041939735E0
6.217716491E1,1.766576409E0,-4.134519398E-1,3.018726826E0
6.222915884E1,1.439152718E0,-1.343188882E0,2.771326303E0
6.228115499E1,1.142883062E0,-1.802559495E0,2.585623264E0
6.233314899E1,1.770241737E0,-1.398777604E0,3.088976383E0
6.238514231E1,6.334214211E-1,-4.164775372E0,1.648555994E0
6.243713564E1,-2.747107029E0,-2.299192905E0,-1.828179210E-1
6.248912907E1,-5.023801804E0,4.485076427E0,-1.253664732E0
6.254112236E1,-6.403135300E0,-1.407940507E0,-3.075875759E0
6.259311578E1,-8.364012718E0,-2.743902922E0,-3.797307730E0
6.264510927E1,-3.044598103E0,1.943877101E0,-3.071599722E0
6.269710339E1,9.993296862E-1,7.549787521E0,1.363892794E0
6.274909685E1,2.144091368E0,7.843002796E0,2.480554342E0
6.280109004E1,2.328572512E0,8.766955137E-1,1.560591459E0
6.285308334E1,3.061000109E0,-1.476357460E0,2.558134556E0
6.290507673E1,2.423256636E0,7.734592557E-1,3.654026508E0
6.295707005E1,2.032913685E0,-5.264619589E-1,4.011382580E0
6.300906341E1,1.511845708E0,-2.604625463E0,3.276511908E0
6.306105710E1,1.380509615E0,-2.440302849E0,2.751778841E0
6.311305106E1,9.516822696E-1,-2.249712944E0,2.258199692E0
6.316504442E1,6.175389290E-1,-2.771391869E0,1.089003563E0
6.321703768E1,-4.343709946E-1,-9.003115296E-1,3.419153094E-1
6.326903133E1,-2.730002642E0,1.056900740E0,-1.461969733E0
6.332102932E1,-4.660336971E0,1.764282703E0,-3.149790525E0
6.337302712E1,-4.877193928E0,8.247719407E-1,-2.455236673E0
6.342502204E1,-7.537512302E0,-2.183739424E0,-4.086857796E0
6.347701550E1,-2.247418880E0,1.433193684E0,-2.758225918E0
6.352900869E1,1.009714365E0,5.913890362E0,1.179411650E0
6.358100209E1,1.926623225E0,3.072756052E0,2.578903913E0
6.363299541E1,2.874075174E0,-1.630906343E0,2.085324764E0
6.368498887E1,3.240594149E0,-1.312034726E0,2.896553755E0
6.373698289E1,2.599796534E0,-1.246672153E0,3.014450788E0
6.378897655E1,1.789789319E0,-8.935920000E-1,2.551414967E0
6.384096964E1,1.494741440E0,-2.480009079E0,2.136026621E0
6.389296296E1,1.225349903E0,-2.954040527E0,1.618012786E0
6.394495646E1,1.935175300E0,-1.827605009E0,7.090453506E-1
6.399694982E1,6.898195297E-2,1.167467237E0,1.084727407E0
6.404894301E1,-2.668305159E0,-1.349297523E0,-1.837651849E0
6.410093644E1,-4.222957134E0,2.435012579E0,-2.372769833E0
6.415293045E1,-5.320071220E0,1.860188484E0,-3.077708244E0
6.420492404E1,-7.119069099E0,-1.282713175E0,-3.422847271E0
6.425691750E1,-2.307283878E0,2.198607922E0,-1.517558455E0
6.430891080E1,1.466030717E0,4.541275978E0,1.019975781E0
6.436090429E1,1.952890396E0,4.168037415E0,7.432537675E-1
6.441290228E1,2.643779039E0,2.047113180E0,2.093265772E0
6.446489986E1,2.850251436E0,-5.521183610E-1,2.944812298E0
6.451689406E1,2.735408783E0,-3.016348600E0,2.508654356E0
6.456888755E1,2.815432072E0,-4.477538586E0,1.260656595E0
6.462088084E1,2.294363976E0,-1.916180372E0,4.139974415E-1
6.467287407E1,2.455021381E0,-7.249932289E-1,6.620087028E-1
6.472486759E1,2.918057442E0,-2.649218798E0,1.806468964E-1
6.477686079E1,1.057361960E0,7.276443243E-1,-1.118663430E0
6.482885428E1,-1.477728844E0,1.376383305E0,-2.355054617E0
6.488084863E1,-3.751980305E0,1.613398910E0,-4.620753765E0
6.493284182E1,-4.827103138E0,1.669598460E0,-4.989105701E0
6.498483511E1,-5.327401638E0,2.403858662E0,-3.616491556E0
6.503682844E1,-4.794116020E0,8.834149837E-1,-3.558459282E0
6.508882186E1,3.597538173E-1,2.475940704E0,-3.440863490E-1
6.514081509E1,8.924282789E-1,3.217530966E0,9.344545603E-1
6.519280858E1,1.452591777E0,9.906401485E-2,1.918558478E0
6.524480198E1,2.056126595E0,-1.294319630E0,2.454287291E0
6.529679603E1,2.322463751E0,-8.538857698E-1,3.120741129E0
6.534878955E1,2.773282528E0,-2.426863670E0,2.803702116E0
6.540078284E1,2.822151661E0,-3.109200239E0,1.743851066E0
6.545277630E1,2.368889570E0,-1.327306271E0,1.597243428E0
6.550278809E1,2.759843349E0,4.240443408E-1,1.687040687E0
6.555478272E1,1.122724533E0,4.130487740E-1,7.902904153E-1
6.560677598E1,-1.043403745E0,-2.526434898E0,-1.455861092E0
6.565876930E1,-2.806360722E0,-8.673248291E-1,-3.218818188E0
6.571076266E1,-4.911402225E0,1.882790565E0,-3.216985703E0
6.576275608E1,-6.818523407E0,-1.928397655E0,-3.438118935E0
6.581474941E1,-6.949860096E0,-2.852637053E0,-3.107640743E0
6.586674293E1,-5.907524824E-1,3.779527187E0,-9.415125847E-1
6.591873695E1,1.332251310E0,6.130136490E0,1.597243428E0
6.597073018E1,1.581484199E0,3.110629559E0,2.502545595E0
6.602272367E1,2.736019611E0,-3.926824927E-1,2.406639814E0
6.607471700E1,2.443415165E0,1.323848844E0,3.815906048E0
6.612671026E1,1.722594142E0,9.029626846E-1,4.946617603E0
6.617870371E1,7.781965137E-1,-1.723757982E0,4.547722816E0
6.623069694E1,4.177860022E-1,-2.206952333E0,4.085297585E0
6.628269050E1,-2.388941199E-1,-9.534567595E-1,3.467101812E0
6.633468472E1,-1.297523618E0,-1.488574743E0,2.430463552E0
6.638667794E1,-2.564457893E0,-4.078032494E0,1.134517267E-1
6.643867140E1,-2.485045671E0,-5.194083691E0,-1.433259010E0
6.649066493E1,-5.641996861E0,2.023289442E0,-4.583181441E-1
6.654266165E1,-6.725061417E0,4.357405663E0,-1.354457378E0
6.659465977E1,-5.260206699E0,3.099633932E0,-2.190732002E0
6.664665583E1,-2.413375825E-1,2.872392416E0,-1.348959684E0
6.669864903E1,1.945559978E0,9.640492201E-1,4.494276047E-1
6.675064235E1,2.649276972E0,1.681204915E0,6.051982641E-1
6.680263568E1,3.715236664E0,1.554144979E0,1.813489795E0
6.685462904E1,3.102538824E0,1.540706038E0,2.682750940E0
6.690662240E1,2.100108862E0,-3.890173137E-1,2.769493818E0
6.695861622E1,1.665783644E0,8.284371495E-1,2.942368746E0
6.701061021E1,1.047588110E0,-7.830253839E-1,3.184271336E0
6.706260333E1,-1.043052413E-2,-1.914958715E0,2.671144485E0
6.711459672E1,-5.657070279E-1,-2.021249294E0,1.644890904E0
6.716659012E1,-2.020788193E0,-1.628462911E0,2.734984159E-1
6.721858338E1,-3.097132683E0,-1.217350602E0,-1.000766516E0
6.727057677E1,1.127000570E0,-2.386546612E0,-1.215790987E0
6.732257006E1,-5.265093327E0,1.480841160E0,-1.575590730E0
6.737456402E1,-6.817912579E0,-1.715205789E0,-1.220677972E0
6.742655784E1,-5.608399391E0,-2.587521315E0,-2.427136660E0
6.747855103E1,4.006817937E-1,5.613955498E0,1.851974249E0
6.753054436E1,1.853930235E0,4.584036827E0,2.665035963E0
6.758253792E1,2.181964874E0,-1.191694260E0,1.741407633E0
6.763453464E1,2.876518488E0,-1.680997372E0,2.180619717E0
6.768653279E1,2.037800550E0,5.199502110E-1,2.920988321E0
6.773852772E1,1.412274599E0,-1.322419405E0,2.332725048E0
6.779052104E1,1.533836842E0,-6.388611794E-1,2.414581060E0
6.784251450E1,1.119670153E0,1.142421842E0,3.473821640E0
6.789450770E1,1.560714841E0,-9.632306695E-1,2.395033360E0
6.794650109E1,-4.850728214E-1,-2.624784231E0,1.147035718E0
6.799849455E1,-3.697002172E0,-2.173354626E0,-2.116817474E0
6.805048810E1,-4.367732525E0,3.058095217E0,-1.534051895E0
6.810248216E1,-5.727518559E0,7.646200806E-2,-2.840081692E0
6.815447538E1,-6.496597767E0,-5.570052266E-1,-4.460096359E0
6.820646868E1,4.385554194E-1,4.015321255E0,3.364175558E-1
6.825846214E1,1.766576409E0,4.522339344E0,1.508057117E0
6.831045543E1,2.006035566E0,2.357432842E0,1.968038559E0
6.836244875E1,2.524049282E0,-5.606704950E-1,2.370598793E0
6.841444238E1,2.485564947E0,-6.926173568E-1,2.273471117E0
6.846643554E1,2.714639425E0,-9.302439094E-1,2.634492636E0
6.851842979E1,2.189906120E0,4.710809588E-1,2.869065046E0
6.857042311E1,1.627299190E0,1.044072509E0,3.435336828E0
6.862241647E1,1.003605723E0,-8.465553522E-1,3.036441803E0
6.867440977E1,7.091687918E-1,-4.290002823E0,2.811643600E0
6.872640509E1,-2.353098631E0,-5.398112297E0,-1.155315399E0
6.877840048E1,-5.261428356E0,6.244368076E0,-3.422236443E0
6.883039374E1,-3.404397726E0,2.971963406E0,-2.606120348E0
6.888238710E1,-6.208269596E0,-2.464737415E0,-5.337909698E0
6.893438046E1,-7.136173725E0,-2.310799360E0,-4.924354076E0
6.898637375E1,5.650045276E-1,3.832672358E0,-3.804285452E-2
6.903836718E1,2.569864273E0,5.544316769E0,9.857672453E-1
6.909036087E1,2.561312199E0,1.979307294E0,2.249036551E0
6.914235485E1,3.094597340E0,-8.325054646E-1,1.691316605E0
6.919434814E1,2.844753742E0,-2.986092567E-1,2.399920464E0
6.924634150E1,2.704865456E0,-8.514423370E-1,2.550803900E0
6.929833483E1,1.951668739E0,-3.092095852E0,1.392603517E0
6.935032819E1,1.463587284E0,-5.563943982E-1,4.298799038E-1
6.940232145E1,2.320631266E0,-3.838066384E-2,1.034636497E0
6.945431484E1,1.064692259E0,-1.739927530E-1,1.333349586E0
6.950630856E1,-1.392207742E0,-2.419533491E0,-3.373668194E-1
6.955830248E1,-3.414171696E0,-1.900297999E0,-9.409016967E-1
6.961029588E1,-6.981624603E0,-4.824796915E-1,-2.038626671E0
6.966228920E1,-8.440981865E0,-2.183739424E0,-3.229813814E0
6.971428256E1,-3.209531784E0,1.962203026E0,-1.328190327E0
6.976627812E1,2.522415221E-1,4.244395733E0,9.112417698E-1
6.981827697E1,1.688996553E0,2.973795891E0,1.749959707E0
6.987027260E1,2.389048100E0,2.117362738E0,1.902065158E0
6.992226589E1,3.020682812E0,-2.808941603E-1,2.636935949E0
6.997425958E1,2.389658928E0,-6.364177465E-1,3.124406576E0
7.002625257E1,2.586357594E0,-2.574082375E0,2.435350657E0
7.007824590E1,2.624231100E0,-3.977850676E0,6.681173444E-1
7.013023916E1,2.230223179E0,-1.560046077E0,-3.315593302E-2
7.018223255E1,1.815445662E0,6.244081259E-1,-5.575794727E-2
7.023422624E1,1.117226720E0,3.361695290E0,6.497913599E-1
7.028622036E1,-1.328066945E0,-1.101286173E0,-2.583518267E0
7.033821352E1,-6.462999821E0,-8.844290376E-1,-4.832113266E0
7.039020688E1,-7.127621651E0,-3.775043488E0,-3.936584949E0
7.044220027E1,-6.637707710E0,-3.120482862E-1,-3.388027906E0
7.049419350E1,-6.414543390E-1,5.179630280E0,-8.895890117E-1
7.054618686E1,1.721372485E0,3.937130451E0,2.375485897E0
7.059818032E1,2.171580076E0,1.418532968E0,1.213009119E0
7.065017440E1,2.660272121E0,9.927598834E-1,2.117700577E0
7.070216789E1,2.638281345E0,7.239791751E-1,3.173275709E0
7.075416115E1,3.239983320E0,-1.883804560E0,2.508043528E0
7.080615461E1,3.776323318E0,-5.599086761E0,3.159578145E-2
7.085814923E1,2.444026232E0,-3.650426865E0,-1.915231824E0
7.091014556E1,8.551655412E-1,2.576733351E0,-1.047803044E0
7.096213882E1,1.265666962E0,3.533959150E0,-8.205612302E-1
7.101413187E1,-8.540353775E-1,-3.755782843E-1,-1.880412459E0
7.106612517E1,-3.366524220E0,-2.365777254E0,-3.265854836E0
7.111811863E1,-5.531430721E0,1.482673883E0,-2.740510702E0
7.117011198E1,-7.888148785E0,-5.502570152E0,-3.978123665E0
7.122210521E1,-2.036059618E0,-2.424096465E-1,-9.659471512E-1
7.127409923E1,-2.547766268E-1,4.732477188E0,2.375485897E0
7.132609282E1,9.223607183E-1,3.469207525E0,1.616180182E0
7.137808631E1,1.903410316E0,1.860799432E0,1.975979805E0
7.143007970E1,3.052447796E0,6.546643376E-2,2.970468521E0
7.148207283E1,2.365224361E0,6.292950511E-1,3.969844103E0
7.153406636E1,1.662118554E0,-1.086014509E0,3.761538982E0
7.158605965E1,1.174648046E0,-2.982751131E0,2.723679066E0
7.163805301E1,1.007881880E0,-1.200857162E0,2.286299229E0
7.169004706E1,1.458700418E0,1.010474920E0,2.406028986E0
7.174204062E1,-2.321333647E0,-4.260070324E0,-1.208460689E0
7.179403401E1,-5.183237076E0,-4.946970046E-1,-1.866973400E0
7.184602724E1,-6.222319126E0,2.246255398E0,-2.512657881E0
7.189802219E1,-6.350601196E0,3.928901851E-1,-3.021508694E0
7.195002102E1,-1.844248056E0,5.993626714E-1,-2.204170942E0
7.200201734E1,2.040244102E0,3.466764212E0,2.459174395E0
7.205401070E1,1.563158274E0,2.232205629E0,2.643655539E0
7.210600403E1,1.671892285E0,-1.243006945E0,2.222769499E0
7.215799735E1,1.993207574E0,-1.332193255E0,2.231321573E0
7.220999081E1,1.867980123E0,1.296072900E-1,2.713294268E0
7.226198400E1,1.605308056E0,-5.417336226E-1,2.724289894E0
7.231397740E1,1.687163949E0,-1.775681376E0,1.985142827E0
7.236597102E1,2.590633869E0,-2.529489040E0,2.707796335E0
7.241796494E1,3.176041245E-1,-2.129983187E0,7.102670670E-1
7.246995830E1,-2.656087875E0,8.131654859E-1,-1.013594627E0
7.252195176E1,-4.677441120E0,3.654012680E-1,-2.210890532E0
7.257394502E1,-5.759893894E0,1.011696696E0,-2.903000832E0
7.262593834E1,-6.798975945E0,-1.775070548E0,-4.006834507E0
7.267793170E1,-2.725726604E0,2.402637005E0,-3.060604095E0
7.272992509E1,2.131873846E0,6.389143467E0,4.096292973E0
7.277995081E1,1.433044076E0,1.191901922E0,1.892902255E0
7.283194489E1,1.828273773E0,-1.629684567E0,2.337001324E0
7.288393829E1,2.115991354E0,4.222117364E-1,3.102415323E0
7.293593161E1,9.669538736E-1,1.102715611E0,3.566672802E0
7.298792567E1,6.890102029E-1,-1.701155901E0,3.088976383E0
7.303992203E1,-4.891503602E-2,-1.830659270E0,3.040718079E0
7.309191559E1,4.271475226E-2,-3.497710466E0,2.450622082E0
7.314390891E1,-5.498245358E-1,-5.972936630E0,1.373666763E0
7.319590247E1,-9.902583361E-1,1.182128072E0,2.875483036E-1
7.324789563E1,-4.074517250E0,8.272153735E-1,-1.949440241E0
7.329988896E1,-5.256541252E0,6.751099229E-1,-1.336131454E0
7.335188238E1,-4.571150303E0,3.268232822E0,-1.977540016E0
7.340387574E1,-3.207699299E0,3.713553667E0,-3.111305952E0
7.345587006E1,1.379898787E0,3.695227861E0,8.794767261E-1
7.350786339E1,1.939451337E0,1.823536634E0,3.981149197E-1
7.355985665E1,2.665770054E0,-1.630295515E0,1.093279600E0
7.361184997E1,2.831925631E0,-9.369634390E-1,1.589302182E0
7.366384336E1,2.572307587E0,-8.813747168E-1,2.072496653E0
7.371583669E1,2.501447201E0,-2.436637640E0,1.476292133E0
7.376782995E1,2.546651363E0,-1.755522847E0,8.971918225E-1
7.381982367E1,4.316938877E0,-9.479590058E-1,1.742018461E0
7.387181772E1,1.240010619E0,9.548862576E-1,6.400175691E-1
7.392381102E1,-2.222373486E0,-2.335844994E0,-2.480893135E0
7.397580434E1,-4.590698242E0,2.712345362E0,-3.729501486E0
7.402779847E1,-5.993855476E0,9.903163910E-1,-4.086857796E0
7.407979699E1,-6.848455906E0,-1.088458061E0,-4.142446518E0
7.413179428E1,-5.134367943E0,1.012307525E0,-4.697722912E0
7.418378881E1,2.995637417E0,6.513148785E0,2.145800352E0
7.423578223E1,1.979157567E0,4.601751804E0,3.222145081E0
7.428777546E1,2.322463751E0,-3.939042389E-1,2.583179951E0
7.433976865E1,2.736019611E0,-1.652286649E0,2.864788771E0
7.439176228E1,2.959596157E0,-2.307134390E0,2.820806503E0
7.444375547E1,4.049990654E0,-4.203259945E0,9.161286354E-1
7.449574952E1,4.042049408E0,-2.082335711E0,-5.340654254E-1
7.454774298E1,3.034732580E0,2.637105249E-2,4.402646124E-1
7.459973641E1,2.021918058E0,1.194956303E0,-6.916686296E-1
7.465172973E1,-8.259356022E-1,-9.430720806E-1,-1.805276036E0
7.470372306E1,-3.694558859E0,1.931048870E0,-3.051441193E0
7.475571635E1,-5.151472569E0,1.659213901E0,-3.744162321E0
7.480770981E1,-6.678024769E0,-1.653508425E0,-4.106405258E0
7.485970304E1,-7.401288986E0,-3.444565296E0,-4.753922462E0
7.491169719E1,7.171099782E-1,4.833269596E0,-1.459526300E0
7.496369075E1,1.263834357E0,6.863785744E0,4.115840912E0
7.501568401E1,1.437320113E0,4.716918170E-1,3.026668072E0
7.506767753E1,1.489243627E0,-2.046905756E0,2.025460005E0
7.511967142E1,1.573543072E0,-4.421626031E-1,3.205040693E0
7.517166984E1,1.628520846E0,6.134125590E-1,3.475043297E0
7.522366700E1,1.580262542E0,-6.474133134E-1,3.844616652E0
7.527566073E1,1.423270226E0,-2.674551308E-1,3.545903683E0
7.532765415E1,8.948717713E-1,-1.448868513E0,3.894707441E0
7.537964748E1,5.277417898E-1,-2.987027168E0,2.495215416E0
7.543164074E1,-4.600273371E-1,-7.201062441E-1,1.925888896E0
7.548363406E1,-2.246197224E0,-2.371989749E-2,8.904722929E-1
7.553562746E1,-3.786188602E0,-5.838832855E-1,-8.529371023E-1
7.558762085E1,-5.271812916E0,-4.378865361E-1,-1.317194700E0
7.563961500E1,-7.165494919E0,-1.654119253E0,-1.686768174E0
7.569160842E1,-7.062258720E0,-8.312837481E-1,-2.538924932E0
7.574360182E1,-1.425194502E0,1.836975574E0,-5.413957834E-1
7.579559514E1,7.623140216E-1,1.223667026E0,3.700151443E-1
7.584758837E1,2.307192087E0,-3.181569576E-1,1.308915019E0
7.589958180E1,3.180118561E0,1.986350566E-1,1.062125444E0
7.595157512E1,3.476999283E0,1.485728145E0,2.464061260E0
7.600356861E1,3.102538824E0,1.651883364E0,2.909381866E0
7.605556283E1,2.473958492E0,-8.175209910E-2,2.423133373E0
7.610755612E1,1.568656087E0,-1.718260169E0,1.874576211E0
7.615954948E1,9.400758147E-1,-2.107381344E0,5.147902369E-1
7.621154324E1,6.071542501E-1,-2.507498026E0,3.351958096E-1
7.626353943E1,-2.938719988E-1,-1.589367509E0,-3.563036621E-1
7.631553345E1,-1.392818570E0,1.761228442E0,-8.394980431E-1
7.636752685E1,-3.025050640E0,1.391654849E0,-1.045970440E0
7.641952011E1,-5.168576717E0,2.462501764E0,-2.413086891E0
7.647151353E1,-7.265677452E0,1.194956303E0,-3.534024715E0
7.652350682E1,-4.199133396E0,-6.077070832E-1,-3.783868551E0
7.657550015E1,-1.636553884E0,1.777721643E0,-1.786950111E0
7.662749368E1,3.072193861E-1,3.009836912E0,5.819853544E-1
7.667948776E1,1.550940990E0,1.271925330E0,1.262489200E0
7.673148122E1,2.722580671E0,-1.370066881E0,1.578917503E0
7.678347445E1,3.167901278E0,-4.861449003E-1,2.678474903E0
7.683546787E1,3.250368118E0,-1.927786827E0,2.688248873E0
7.688746130E1,2.481899738E0,-6.956716776E-1,2.961305380E0
7.693945456E1,2.152643204E0,-5.215750933E-1,2.877616882E0
7.699144795E1,8.741023540E-1,9.506101608E-1,2.172067642E0
7.704344184E1,-3.445738256E-1,-1.232622147E0,1.737131596E0
7.709543552E1,-2.875999212E0,-2.855080366E0,-1.552988648E0
7.714742892E1,-4.947443485E0,1.698309183E0,-1.971431375E0
7.719942218E1,-5.021969318E0,5.737062693E-1,-3.201102972E0
7.725141570E1,-7.433665276E0,-2.037742615E0,-5.673274994E0
7.730341376E1,-4.459774494E-1,4.244395733E0,-2.004418135E0
7.735541128E1,1.156322122E0,6.123416901E0,1.473848581E0
7.740740557E1,1.925401449E0,2.505262136E0,2.189782619E0
7.745939896E1,2.425089121E0,1.321405411E0,1.608849883E0
7.751139225E1,2.776336670E0,6.946576834E-1,2.746280909E0
7.756338555E1,3.079936743E0,-1.113503575E0,2.555691004E0
7.761537897E1,2.982809067E0,-2.723133326E0,1.541654706E0
7.766737217E1,2.098276377E0,-1.010267258E0,4.237712622E-1
7.771936556E1,9.260258675E-1,1.492447615E0,5.306726694E-1
7.777135938E1,4.257272780E-1,-6.810109019E-1,4.381308705E-2
7.782335340E1,-7.330840826E-1,-1.171822846E-1,-1.744800329E0
7.787534666E1,-3.552227259E0,-1.046919227E0,-2.612229109E0
7.792733992E1,-5.930936337E0,-2.848971605E0,-2.465010405E0
7.797933351E1,-7.135562420E0,-1.590589285E0,-2.507771015E0
7.803132650E1,-6.219066381E-1,4.538832664E0,-5.676630139E-1
7.808332000E1,1.382342339E0,3.956067085E0,1.730412006E0
7.813531332E1,1.657231569E0,1.182128072E0,2.381594419E0
7.818730728E1,2.618122578E0,-7.665320635E-1,2.446957111E0
7.823930096E1,2.667602777E0,-2.448531240E-1,2.668700933E0
7.829129429E1,2.418980360E0,-1.670612574E0,3.265516281E0
7.834328778E1,2.604072809E0,-3.019402981E0,2.334557772E0
7.839528390E1,2.712806702E0,-1.745748997E0,1.110994577E0
7.844727820E1,1.002384067E0,-1.098518968E-1,9.020787477E-1
7.849927166E1,3.139389455E-1,2.576018684E-2,3.681825399E-1
7.855126495E1,-4.001213074E0,-3.703572035E0,-2.039237499E0
7.860325834E1,-7.000561714E0,1.667765975E0,-2.437521458E0
7.865525157E1,-6.514313221E0,1.581023097E0,-2.943317890E0
7.870724483E1,-6.491711140E0,2.805807829E0,-5.128993511E0
7.875923825E1,3.991347551E0,3.466153383E0,1.944825649E0
7.881123231E1,1.806282759E0,2.274355173E0,2.059057713E0
7.886322583E1,2.517329931E0,-3.658044338E-1,2.187339067E0
7.891521922E1,2.531379938E0,1.200454116E0,2.625940323E0
7.896721265E1,2.029859304E0,-7.946318388E-1,3.282009840E0
7.901920604E1,1.998094320E0,-2.270482063E0,2.779878378E0
7.907119927E1,1.939451337E0,-1.469637990E0,2.516595602E0
7.912319266E1,3.383536816E0,-1.029204130E0,2.528812885E0
7.917518612E1,5.320178270E-1,-2.307134390E0,2.423133373E0
7.922718037E1,-2.722672224E0,-1.238730788E0,-1.075902939E0
7.927917363E1,-4.508842468E0,2.822301388E0,-1.841317058E0
7.933116695E1,-6.131300449E0,-6.770219654E-2,-3.481490135E0
7.938316041E1,-7.029882908E0,-9.027550220E-1,-3.049608469E0
7.943515750E1,-5.085498810E0,3.263956785E0,-2.742954016E0
7.948715559E1,3.084212780E0,5.075783253E0,2.572184324E0
7.953915135E1,2.334070206E0,1.461293459E0,1.833648324E0
7.959114458E1,2.690204859E0,-1.582647920E0,1.768285632E0
7.964313797E1,2.928442240E0,-5.548489094E-2,2.142135143E0
7.969513126E1,2.376219988E0,8.162198067E-1,3.222145081E0
7.974712482E1,1.799563289E0,-1.122666478E0,3.167166948E0
7.979911788E1,1.764133096E0,-1.388392806E0,3.314385414E0
7.985111187E1,1.418383360E0,-6.022092700E-1,2.976577044E0
7.990310573E1,1.066524863E0,-4.327265739E0,1.834869981E0
7.995509905E1,-2.077400088E-1,-5.201413631E0,-1.147374153E0
8.000709234E1,-3.737319231E0,9.658817649E-1,-2.345891953E0
8.005905897E1,-4.248003006E0,5.155806541E0,-3.419181824E0
8.011105223E1,-4.329247952E0,1.449687123E0,-2.673926353E0
8.016304572E1,-6.079377174E0,1.554144979E0,-3.943915367E0
8.021503888E1,-9.621585608E-1,4.638403893E0,-8.278915882E-1
8.026703293E1,1.853319287E0,3.722716570E0,-4.454899728E-1
8.031902669E1,2.153254032E0,-6.632958651E-1,9.478936791E-1
8.037101995E1,2.679209232E0,-3.584740460E-1,1.809824467E0
8.042301361E1,2.205177784E0,9.173363447E-2,2.627773285E0
8.047500674E1,1.726259351E0,-2.098829031E0,2.170235157E0
8.052700352E1,1.579040885E0,-2.003534079E0,1.267376184E0
8.057900178E1,6.114104271E0,-9.394069314E-1,2.989405155E0
8.063099667E1,1.033889409E-2,-3.951259851E-1,1.255769730E0
8.068299000E1,-3.155164719E0,-1.016986847E0,-1.361787796E0
8.073498332E1,-5.270591259E0,1.362333417E0,-2.918883324E0
8.078697665E1,-6.810582638E0,1.442680508E-1,-3.807081223E0
8.083897004E1,-6.905266762E0,-8.380032778E-1,-5.786895275E0
8.089096330E1,-7.410253286E-1,3.196761608E0,-1.810163021E0
8.094295666E1,1.835604191E0,3.617647886E0,4.597202778E0
8.099495088E1,1.077520490E0,-2.500778675E0,2.551414967E0
8.104694430E1,2.073841810E0,-1.719481826E0,1.293032527E0
8.109893776E1,1.910129786E0,2.449673653E0,2.143357038E0
8.115093102E1,1.327364326E0,2.849790335E0,4.087130070E0
8.120292428E1,1.986487865E0,-2.855691195E0,4.056586742E0
8.125491784E1,2.050628901E0,-2.487950087E0,3.888598919E0
8.130691120E1,1.452591777E0,-1.084792852E0,2.974744558E0
8.135890436E1,3.599523380E-2,-4.666296005E0,1.884960890E0
8.141089861E1,-2.813080311E0,-1.957108378E0,-5.224589705E-1
8.146289203E1,-3.175323248E0,1.241382122E0,-1.443334073E-1
8.151488533E1,-5.656047344E0,1.674809307E-1,-2.692863226E0
8.156687875E1,-8.143489838E0,-2.310799360E0,-3.946358681E0
8.161887418E1,-1.739179254E0,3.252961159E0,-9.830514193E-1
8.167086933E1,4.458858073E-1,4.750191689E0,7.863240689E-2
8.172286269E1,1.790400267E0,2.876057386E0,2.035233736E0
8.177485612E1,2.519162416E0,-1.306213289E-1,2.230710745E0
8.182684938E1,2.687761307E0,-4.610994160E-1,2.384648800E0
8.187884264E1,1.977324963E0,-2.344684154E-1,3.847670794E0
8.193083610E1,1.332862139E0,-4.331541538E0,4.522066593E0
8.198282936E1,7.494858503E-1,-4.551453114E0,2.955196857E0
8.203482341E1,3.664733171E-1,-2.580190897E0,2.045618534E0
8.208681716E1,2.754544020E-1,1.790873557E-1,5.447226167E-1
8.213881032E1,-2.384253025E0,9.603840113E-1,-1.440589428E0
8.219080365E1,-4.701875687E0,2.811916590E0,-2.656211138E0
8.224279714E1,-6.436121941E0,3.480813980E0,-3.850452900E0
8.229479040E1,-7.181377411E0,9.310625196E-1,-5.922507763E0
8.234678366E1,-1.971307993E0,6.723897457E0,-3.516309500E0
8.239877712E1,1.106842041E0,1.093275833E1,1.424368501E0
8.245077124E1,1.870423555E0,2.420962811E0,1.668103814E0
8.250276480E1,2.438528299E0,-2.173641771E-1,2.474445820E0
8.255475809E1,2.486175776E0,1.246268868E0,4.457314491E0
8.260675141E1,2.716471910E0,-2.043851376E0,4.200139999E0
8.265874724E1,2.025583267E0,-2.979696751E0,3.449997902E0
8.271074582E1,2.277259827E0,-2.564919472E0,2.724900723E0
8.276274219E1,2.649887800E0,-2.660214424E0,1.012645364E0
8.281473574E1,4.935332835E-1,6.781642437E-1,-1.400573552E-1
8.286672910E1,-2.650590181E0,-2.045360059E-1,-2.560305357E0
8.291872240E1,-5.750731468E0,-7.869777083E-2,-3.468662024E0
8.297071566E1,-6.581507683E0,-1.226800680E-1,-3.227981091E0
8.302270912E1,-7.357917309E0,8.290479779E-1,-4.053259850E0
8.307470280E1,1.458089471E0,1.124095917E0,1.761566162E0
8.312669672E1,1.860038877E0,-1.746036112E-1,1.875187159E0
8.317869015E1,1.553384542E0,-1.684051633E0,2.362657547E0
8.323068341E1,1.498406649E0,-1.425655603E0,2.035233736E0
8.328267674E1,3.268083334E0,-5.337923765E-1,1.162307382E0
8.333467020E1,3.175842524E0,6.842729449E-1,1.957653880E0
8.338666339E1,3.414080143E0,-5.097566605E0,3.090808868E0
8.343865678E1,2.109272003E0,8.626455665E-1,-8.419415355E-1
8.349065074E1,-1.772776723E0,-2.632725239E0,-1.843149662E0
8.354264442E1,-4.292595863E0,6.537296772E-1,-2.178514719E0
8.359463778E1,-4.811220646E0,4.950555801E0,-2.292746544E0
8.364663118E1,-5.118485928E0,4.834491253E0,-4.023327827E0
8.369862450E1,-1.712301135E0,-1.746359825E0,-4.148555279E0
8.375062009E1,1.885695219E0,1.108824253E0,-2.494022399E-1
8.380261898E1,2.916835785E0,1.261540532E0,2.555691004E0
8.385461444E1,2.126376152E0,-1.304093480E0,2.501323938E0
8.390660789E1,2.324296474E0,-3.254873455E-1,3.132347584E0
8.395860122E1,1.830717325E0,-2.798269749E0,2.324784040E0
8.401059458E1,2.007257223E0,-2.186182976E0,1.380386233E0
8.406258774E1,3.268694162E0,1.389211416E0,3.379748344E0
8.411458123E1,-9.236740470E-1,-2.526434898E0,-1.388665915E0
8.416657452E1,-4.156983852E0,-1.471146643E-1,-2.491277695E0
8.421856854E1,-5.927882195E0,4.490898252E-1,-3.909706831E0
8.427056217E1,-8.585757256E0,5.700411201E-1,-5.330579281E0
8.432255549E1,7.940790057E-1,4.620688438E0,6.846107244E-1
8.437454882E1,2.359726667E0,3.178435802E0,1.894734740E0
8.442654221E1,1.734200597E0,6.726664901E-1,1.842811227E0
8.447853547E1,1.686553121E0,7.587984800E-1,2.486663103E0
8.453052880E1,1.929066658E0,-9.766696692E-1,2.404196262E0
8.458252239E1,2.575361967E0,-2.851415157E0,-3.373668194E-1
8.463451658E1,4.554565430E0,-3.081100225E0,-8.938650489E-1
8.468650987E1,2.693457603E-1,3.315880299E0,-2.443630219E0
8.473850319E1,-3.455099583E0,-2.241160631E0,-1.688600659E0
8.479049652E1,-5.755007267E0,1.055068135E0,-2.297022343E0
8.484249128E1,-5.583964825E0,5.874184132E0,-3.101531982E0
8.489448717E1,-1.026711762E-1,4.997916222E-1,-3.068235815E-1
8.494648049E1,1.533225894E0,-4.809849262E0,2.465282917E0
8.499847382E1,2.182575703E0,-6.968933940E-1,2.474445820E0
8.505046711E1,2.194182158E0,2.841848850E0,2.268584251E0
8.510246050E1,1.341414332E0,1.632048637E-1,2.177565336E0
8.515445383E1,1.201526165E0,-2.869740963E0,1.109162092E0
8.520644739E1,3.012130499E0,-1.228346229E0,7.774622440E-1
8.525844161E1,-6.371783018E-1,-3.322068453E-1,-1.785418540E-1
8.531043510E1,-3.192427397E0,-1.745748997E0,-1.728307009E0
8.536242816E1,-3.981665611E0,3.791744471E0,-1.390498519E0
8.541442168E1,-3.738541126E0,-5.661681890E-1,-2.406978369E0
8.546641484E1,1.916849375E0,6.946576834E-1,8.422139883E-1
8.551840840E1,2.001148701E0,4.405376911E-1,1.799439788E0
8.557040163E1,1.822165132E0,-1.825448573E-1,2.528812885E0
8.562239502E1,1.594923377E0,-5.539509058E-1,2.640601397E0
8.567438920E1,2.572918653E0,-2.064009666E0,7.628014684E-1
8.572638253E1,3.036565542E0,-9.387960434E-1,-5.077981949E-1
8.577837595E1,1.673725009E0,2.121028185E0,-5.157395005E-1
8.583036921E1,-2.272464514E0,-2.217336893E0,-1.086898446E0
8.588236423E1,-4.954773903E0,-1.220404863E0,-1.432037354E0
8.593436296E1,-6.284016609E0,3.769142389E0,-2.797932148E0
8.598635931E1,-6.066350341E-1,1.500999808E0,-1.883157045E-1
8.603835277E1,1.090959430E0,1.308577180E0,9.491153359E-1
8.609034616E1,1.053085804E0,-9.015332460E-1,2.830580235E0
8.614233922E1,1.120891929E0,-7.573691010E-1,2.394422531E0
8.619433272E1,1.042701125E0,-1.837989569E0,2.457952738E0
8.624632594E1,1.619357944E0,-2.364555359E0,1.483011603E0
8.629831927E1,1.491076350E0,4.674157798E-1,2.027292490E0
8.635031302E1,-7.214776874E-1,-6.296982169E-1,1.550206780E0
8.640230698E1,-2.888827562E0,-7.154350281E0,-3.422537446E-1
8.645430027E1,-4.211350441E0,1.214503884E0,-1.312307715E0
8.650629376E1,-5.122761726E0,6.936478615E0,-2.781438828E0
8.655828702E1,-2.372646570E0,4.497904778E0,-1.515725851E0
8.661028038E1,1.765965581E0,1.973198652E0,4.416555748E-4
8.666227387E1,1.902188540E0,-2.778398395E-1,1.696814418E0
8.671426700E1,1.933342695E0,-2.674551308E-1,2.578903913E0
8.676626075E1,2.081783056E0,2.016893774E-1,2.968024969E0
8.681825464E1,1.235123634E0,-1.139770746E0,3.214814663E0
8.687024800E1,7.391011119E-1,-3.032231092E0,2.360825062E0
8.692224129E1,8.313418031E-1,-2.908836365E0,1.465296507E0
8.697423542E1,2.705674767E-1,-1.206965804E0,1.057238579E0
8.702623174E1,5.859724805E-2,-9.626197219E-1,7.120996714E-1
8.707822527E1,-2.714120150E0,-7.136738300E-2,-1.124161243E0
8.713021866E1,-5.527765751E0,6.653361320E-1,-1.758239388E0
8.718221208E1,-7.611426830E0,1.624394536E0,-3.854728937E0
8.723420528E1,-2.156400204E0,4.527550042E-1,-2.857186079E0
8.728619870E1,7.048926950E-1,4.050140381E0,9.680522084E-1
8.733813187E1,1.234512806E0,1.753287077E0,3.288729191E0
8.739012582E1,1.192973971E0,-2.262541056E0,1.683986306E0
8.744211954E1,1.799563289E0,-2.531932592E0,2.577682018E0
8.749411283E1,1.729313731E0,-2.426863670E0,3.313774586E0
8.754610613E1,1.221684694E0,-1.465972781E0,2.454898119E0
8.759809952E1,6.798472404E-1,1.351050735E-1,2.795760870E0
8.765009291E1,-8.556694537E-2,-1.694436431E0,1.913671613E0
8.770208617E1,-3.045208931E0,-4.535570621E0,-1.705094099E0
8.775407953E1,-2.685409307E0,8.564435005E0,-9.769427776E-1
8.780607342E1,-4.003656864E0,-1.957719207E0,-4.056314468E0
8.785806724E1,-7.210699081E0,-2.330347061E0,-3.859004974E0
8.791006046E1,1.056140184E0,2.985402346E0,-6.391342878E-1
8.796205389E1,1.724426746E0,3.602376223E0,1.110994577E0
8.801404798E1,2.466017008E0,5.969191790E-1,1.712086082E0
8.806604673E1,2.925998688E0,-4.754364118E-2,1.824485183E0
8.811804369E1,3.158738375E0,2.762149274E-1,2.614944935E0
8.817003715E1,2.929053068E0,-8.117361069E-1,3.243525028E0
8.822203048E1,2.272983551E0,-7.512603998E-1,4.285050392E0
8.827402397E1,1.119670153E0,-3.230151653E0,2.720624447E0
8.832601726E1,-7.202559114E-1,-5.213019848E0,3.351958096E-1
8.837801055E1,-1.096548915E0,2.132023335E0,-1.408213615E0
8.843000391E1,-3.772138596E0,4.677498817E0,-2.176682234E0
8.848199731E1,-6.387252808E0,-4.815450683E-2,-3.914593697E0
8.853399156E1,-7.664572239E0,1.303690314E0,-5.348905087E0
8.858598492E1,-8.801040798E-2,5.990248680E0,-2.146749735E0
8.863797827E1,2.288866282E0,6.383034706E0,5.233423114E-1
8.868997157E1,1.637683988E0,2.618272305E0,2.205665350E0
8.874196486E1,2.172190905E0,-1.354184389E0,2.548360586E0
8.879395828E1,2.471514940E0,-5.826616287E-1,2.784154654E0
8.884595151E1,2.503890753E0,-1.845930934E0,3.372417688E0
8.889794540E1,2.319409370E0,-2.124485493E0,2.218493462E0
8.894993922E1,2.150199890E0,-7.811928391E-1,1.367558122E0
8.900193248E1,1.467252612E0,-8.358469605E-2,1.719416499E0
8.905392591E1,6.653849781E-2,-1.655951738E0,-8.694304824E-1
8.910591973E1,-2.958466291E0,2.394084692E0,-3.167505503E0
8.915791595E1,-4.197911739E0,-6.248112917E-1,-3.786922932E0
8.920990991E1,-4.949275970E0,5.425521731E-1,-3.112527609E0
8.926190327E1,-4.993258476E0,9.225103855E-1,-3.739275455E0
8.931389663E1,2.466017008E0,3.965841055E0,1.875187159E0
8.936588992E1,2.677987337E0,4.026316643E0,2.228878260E0
8.941788328E1,1.937618732E0,6.433449984E-1,2.423133373E0
8.946987661E1,1.952890396E0,-1.538665652E0,1.990640640E0
8.952187020E1,1.964496851E0,-3.377046287E-1,1.821430922E0
8.957386412E1,1.858206272E0,1.887066483E0,2.665035963E0
8.962585758E1,7.604814172E-1,1.119819880E0,2.982074976E0
8.967785097E1,3.768580258E-1,-2.037742615E0,2.770715475E0
8.972984433E1,7.391011119E-1,-3.257029533E0,2.781711102E0
8.978183762E1,-1.801487446E0,-2.980307579E0,2.777744830E-1
8.983383095E1,-5.250432491E0,-8.752660751E-1,-2.784492970E0
8.988582428E1,-6.210102081E0,6.433449984E-1,-1.902403593E0
8.993781820E1,-8.550937653E0,-1.290043592E0,-3.896267891E0
8.998981209E1,-1.778274536E0,-1.222848415E0,-4.013554096E0
9.004180534E1,8.001877069E-1,6.946863174E0,2.397476912E0
9.009379860E1,1.465419888E0,2.213879347E0,3.346761465E0
9.014579226E1,1.590647340E0,-2.915555954E0,1.096944809E0
9.019779055E1,2.470904112E0,-5.814398527E-1,2.219715118E0
9.024978808E1,2.605294466E0,-2.161424607E-1,3.195266962E0
9.030178300E1,2.178910494E0,-2.992201149E-1,3.632035732E0
9.035377629E1,1.378066182E0,-1.429320812E0,3.793914795E0
9.040576965E1,7.134447694E-1,-2.686481476E0,4.067582607E0
9.045776308E1,-7.495774627E-1,-3.095761299E0,2.963748932E0
9.050975634E1,-4.152707577E0,2.530020475E-1,-1.223121405E0
9.056174960E1,-4.483797073E0,2.863840103E0,-1.082622409E0
9.061374378E1,-6.736668110E0,-7.946318388E-1,-4.732542515E0
9.066573734E1,-7.739097595E0,1.687026471E-1,-5.853479862E0
9.071773080E1,-1.212002397E0,6.971908569E0,-2.275642395E0
9.076972399E1,2.464184523E0,8.558325768E0,2.508963943E-1
9.082171735E1,2.930885792E0,3.394071102E0,2.092654943E0
9.087371071E1,2.469682455E0,-1.271106720E0,1.240498066E0
9.092570400E1,2.474569321E0,-2.613464594E-1,3.575835943E0
9.097769743E1,2.261377335E0,-8.367815614E-1,3.993667841E0
9.102969161E1,2.086059093E0,-3.924094439E0,2.037677288E0
9.108168497E1,1.200304389E0,-2.183128357E0,9.949303269E-1
9.113367840E1,6.120411158E-1,-2.290030003E0,4.646992385E-1
9.118567165E1,2.656805813E-1,1.079502702E0,9.604634717E-3
9.123766524E1,-7.923380136E-1,9.176234603E-1,4.870000854E-2
9.128966333E1,-4.387891293E0,-5.484531522E-1,-2.372769833E0
9.134166089E1,-6.552797318E0,-2.062788010E0,-3.060604095E0
9.139365501E1,-7.353030682E0,-6.394720674E-1,-3.104586363E0
9.144564844E1,-7.892836928E-1,6.221155167E0,4.304907918E-1
9.149764170E1,6.957296729E-1,5.007366180E0,2.272860289E0
9.154963502E1,1.395170450E0,9.854295254E-1,9.228482246E-1
9.160162838E1,2.028026819E0,-7.964644432E-1,2.338833809E0
9.165362181E1,2.503890753E0,-1.855991781E-1,2.737118006E0
9.170561523E1,2.874686003E0,-1.589978337E0,1.999192715E0
9.175760932E1,2.067733049E0,-7.842471600E-1,1.836702585E0
9.180960274E1,1.701824665E0,1.165634751E0,3.636922359E0
9.186159600E1,1.221272349E-1,-7.319997996E-2,2.570962667E0
9.191358940E1,-1.263926029E0,-5.266165733E0,8.351932466E-2
9.196558269E1,-2.721450329E0,1.183349848E0,-1.589640617E0
9.201757598E1,-5.358555794E0,1.785052180E0,-2.827253580E0
9.206956944E1,-5.440411568E0,5.376653075E-1,-3.541354895E0
9.212156310E1,-8.659060478E0,-1.362125635E0,-7.757546902E0
9.217355695E1,9.223607183E-1,7.959066868E0,-3.404211402E-1
9.222555044E1,2.919279337E0,4.192471981E0,5.486622334E0
9.227754373E1,1.613860130E0,-6.480241418E-1,3.099361181E0
9.232953723E1,2.847807884E0,6.427340508E-1,2.875173569E0
9.238153325E1,2.406763077E0,-1.023706317E0,3.365698338E0
9.243352771E1,2.624841928E0,-4.989730418E-1,2.164737225E0
9.248552127E1,1.775128484E0,-8.777095079E-1,2.126863480E0
9.253751449E1,2.374998331E0,-2.899673700E0,7.261496186E-1
9.258950775E1,-5.626527071E-1,3.611252010E-1,-7.283205390E-1
9.264150114E1,-3.939515829E0,1.511995316E0,-1.755795956E0
9.269349477E1,-5.812428474E0,-1.678553820E0,-3.408186436E0
9.274548790E1,-7.546675205E0,-2.404872656E0,-3.141238213E0
9.279748235E1,-3.604761600E0,-2.545982361E0,-3.593889475E0
9.284947544E1,1.663951159E0,5.097774506E0,2.327227354E0
9.290146880E1,1.478858829E0,1.687924504E0,4.428604126E0
9.295346209E1,1.866147518E0,-1.929619551E0,2.602116585E0
9.300545569E1,2.405541420E0,-2.713359594E0,2.737118006E0
9.305744885E1,1.772685170E0,-3.254873455E-1,3.841562271E0
9.310944217E1,1.314536095E0,-1.623575926E0,3.713891506E0
9.316143603E1,1.105009437E0,-2.818428516E0,3.042550564E0
9.321342985E1,9.889450073E-1,-4.307106972E0,1.895345688E0
9.326542314E1,-1.741011739E0,-2.779943943E0,-7.411487699E-1
9.331741660E1,-6.181391239E0,3.199205160E0,-1.623238206E0
9.336941009E1,-7.205811977E0,1.033687830E0,-2.221885920E0
9.342140718E1,-8.786121368E0,-3.960239515E-2,-3.692849636E0
9.347340564E1,-6.561151147E-1,2.515036106E0,-1.967155218E0
9.352540076E1,2.363391876E0,4.934673309E0,9.173504114E-1
9.357739422E1,3.034121752E0,2.854066133E0,3.139678240E0
9.362938755E1,3.279078960E0,-1.361191124E-1,1.964984298E0
9.368138088E1,3.198444605E0,5.034568310E-1,2.437183142E0
9.373337427E1,2.747015238E0,-1.663893104E0,2.670533657E0
9.378536763E1,2.599185705E0,-3.524588585E0,1.366947293E0
9.383736138E1,1.968161941E0,-3.070105076E0,3.516891897E-1
9.388935547E1,1.728091955E0,1.296970725E0,1.185520291E0
9.394134860E1,-3.897778392E-1,2.084088922E-1,-3.202626109E-1
9.399334186E1,-4.231509209E0,-1.392668962E0,-2.153469324E0
9.404533522E1,-6.658476830E0,1.319572806E0,-2.212723255E0
9.409732847E1,-7.360361099E0,1.997633219E0,-3.148568630E0
9.414932187E1,-3.041543961E0,3.025719404E0,-4.148555279E0
9.420131513E1,1.248562694E0,5.158860683E0,1.536156893E0
9.425330925E1,1.563158274E0,2.303676844E0,2.547749758E0
9.430530290E1,2.643779039E0,-6.816217899E-1,1.853806734E0
9.435729613E1,2.941270351E0,-4.635428786E-1,2.709628820E0
9.440928959E1,2.901564121E0,-1.483077049E0,2.841575861E0
9.446128315E1,3.900939703E0,-3.448230505E0,8.067837358E-1
9.451328010E1,3.492881536E0,-1.598530531E0,3.587184101E-2
9.456336879E1,2.023139954E0,2.001909256E0,1.720947921E-1
9.461536365E1,3.328558922E0,-3.342550755E0,-7.997918129E-1
9.466735718E1,-2.934031487E0,1.827525496E-1,-3.842511654E0
9.471935037E1,-6.105644226E0,3.877876520E0,-3.014789343E0
9.477134366E1,-5.232717514E0,1.936546683E0,-2.998295784E0
9.482333736E1,-3.412339211E0,5.462173223E-1,-3.076486588E0
9.487533058E1,1.266277790E0,1.634779334E0,1.382218838E0
9.492732394E1,1.155100346E0,4.056859970E0,2.141524315E0
9.497931799E1,1.616914392E0,4.313747287E-1,3.180606127E0
9.503131128E1,1.731146216E0,-8.074600101E-1,2.203221798E0
9.508330471E1,1.117837548E0,-1.068299413E0,2.670533657E0
9.513529807E1,4.183968902E-1,-2.329735994E0,2.017518759E0
9.518729136E1,9.144194126E-1,-2.674264193E0,1.284480333E0
9.523928465E1,1.999927044E0,1.180008426E-1,2.304014444E0
9.529127818E1,5.454568267E-1,-8.917593956E-1,1.818376541E0
9.534327147E1,-1.932823539E0,-4.572833538E0,-2.025187492E0
9.539526585E1,-5.062897205E0,9.524427652E-1,-1.355679154E0
9.544725898E1,-6.337162018E0,1.110046029E0,-2.586572647E0
9.549925237E1,-6.601055622E0,-9.638414979E-1,-3.806470394E0
9.555124570E1,4.868137836E-1,1.499167085E0,-6.941121221E-1
9.560324112E1,1.808726192E0,3.285337210E0,2.539197445E0
9.565523638E1,1.856984496E0,1.184571505E0,3.087143898E0
9.570722970E1,2.350563765E0,-1.442759871E0,1.921001911E0
9.575922306E1,2.433030605E0,-4.598776996E-1,2.434129000E0
9.581121639E1,1.735422373E0,-1.206354976E0,2.652207851E0
9.586320982E1,1.766576409E0,-1.233232975E0,2.473224163E0
9.591520304E1,1.525895476E0,-1.511787653E0,2.583179951E0
9.596719680E1,-8.467050195E-1,-1.754301190E0,7.780731320E-1
9.601919072E1,-3.408062935E0,-5.368466973E-1,-9.451777339E-1
9.607118418E1,-5.761726856E0,3.690664768E-1,-2.871235847E0
9.612317737E1,-7.644413471E0,2.031230927E0,-2.872457504E0
9.617517066E1,-4.669499397E0,-9.143614769E-1,-3.701401711E0
9.622716412E1,1.568656087E0,4.832658768E0,-1.186770722E-1
9.627915735E1,2.734797955E0,2.418519258E0,3.317440033E0
9.633115071E1,2.177688837E0,-1.272328496E0,1.767674804E0
9.638314466E1,2.830703497E0,7.050423622E-1,2.443291664E0
9.643513835E1,2.593077183E0,-1.750025034E0,2.596008062E0
9.648713174E1,3.164846897E0,-2.936325550E0,1.640614867E0
9.653912507E1,3.040230513E0,-1.920456529E0,1.136651039E0
9.659111840E1,2.086059093E0,1.253312230E-1,4.359885752E-1
9.664311428E1,9.651212692E-1,2.533362150E0,1.788444161E0
9.669511311E1,-1.273699880E0,-3.968076944E0,-1.025812030E0
9.674710843E1,-3.445936680E0,-4.684298038E-1,-2.009305000E0
9.679910169E1,-6.194219112E0,1.721522093E0,-2.129034758E0
9.685109512E1,-6.692685604E0,-2.732907295E0,-3.505313873E0
9.690308848E1,-6.539358616E0,-2.519104481E0,-4.956729889E0
9.695508174E1,-6.414543390E-1,6.606611252E0,1.994916677E0
9.700707510E1,1.176480532E0,4.338468552E0,2.068831205E0
9.705906845E1,2.592466354E0,1.042240024E0,1.809824467E0
9.711106244E1,2.563144684E0,2.283518076E0,3.399295807E0
9.716305616E1,2.171580076E0,-1.321808577E0,3.982061386E0
9.721504942E1,2.629118204E0,-3.398750544E0,2.890444994E0
9.726704275E1,3.245481253E0,-4.611317635E0,8.257206082E-1
9.731903631E1,3.418967009E0,-7.347670197E-1,7.542493939E-1
9.737102943E1,2.109272003E0,2.304898500E0,2.307378501E-1
9.742302286E1,-9.841496944E-1,-3.047178984E-1,-2.020300627E0
9.747501615E1,-3.072087049E0,2.365086973E-1,-2.571911812E0
9.752701007E1,-5.120318413E0,-6.810109019E-1,-2.768610477E0
9.757900376E1,-6.502095699E0,6.073039174E-1,-2.329398394E0
9.763099719E1,-2.761569023E-1,2.651869774E0,-2.451261729E-1
9.768299048E1,1.166706800E0,3.587715387E0,6.650630236E-1
9.773498527E1,1.752526641E0,4.405376911E-1,1.683986306E0
9.778698113E1,2.149588823E0,-6.892392784E-2,1.561813235E0
9.783897455E1,1.751915693E0,3.696773052E-1,2.737118006E0
9.789096784E1,1.599810362E0,-1.833102822E0,1.858693719E0
9.794296117E1,1.752526641E0,-2.534375906E0,6.284111142E-1
9.799495453E1,2.434863091E0,-4.757601917E-1,1.010201931E0
9.804694779E1,4.012728214E0,1.360500693E0,1.851363420E0
9.809894142E1,-1.306686521E0,-5.423445106E-1,-1.909123063E0
9.815093510E1,-5.075725079E0,-1.724979639E0,-2.999517679E0
9.820292882E1,-5.712857246E0,9.267864227E-1,-1.934779406E0
9.825492218E1,-5.347559929E0,-3.279307783E-1,-3.047165155E0
9.830691551E1,-4.929728508E0,-2.123874426E0,-3.070377827E0
9.835890897E1,2.169747591E0,2.731282473E0,2.055392265E0
9.841090240E1,1.799563289E0,2.488768816E0,3.431060791E0
9.846289549E1,1.409220338E0,-2.216402441E-1,2.441459179E0
9.851488904E1,1.459311247E0,-5.130229592E-1,2.671144485E0
9.856688320E1,1.194806695E0,-9.082527757E-1,2.474445820E0
9.861887659E1,1.411663771E0,-1.942447662E0,1.910006523E0
9.867087025E1,1.076909661E0,-2.450687408E0,3.333632350E-1
9.872286357E1,9.351888895E-1,-2.503508925E-1,8.474105597E-2
9.877485833E1,3.402061164E-1,-1.458642364E0,-1.418899596E-1
9.882685712E1,-2.431289434E0,-3.002909660E0,-4.381595850E-1
9.887885318E1,-6.065326691E0,-1.021873713E0,-1.777787089E0
9.893084657E1,-6.603498936E0,1.053235531E0,-1.487626076E0
9.898283983E1,-5.699418545E0,7.215356827E-1,-4.293330193E0
9.903483329E1,9.486279488E-1,4.367790699E0,1.972925544E0
9.908682678E1,1.454424262E0,2.659811020E0,1.945436597E0
9.913881984E1,2.287644625E0,-4.244475067E-1,2.173900127E0
9.919081320E1,2.147145510E0,1.583179533E-1,2.472002506E0
9.924280692E1,1.442817926E0,-8.471662402E-1,2.994292259E0
9.929480098E1,1.760467768E0,-2.556977987E0,1.965595126E0
9.934679427E1,1.690218210E0,-1.695047259E0,1.486676812E0
9.939878763E1,8.460025787E-1,9.426689744E-1,1.245385051E0
9.945078102E1,1.051864147E0,5.168958902E-1,1.528215528E0
9.950277428E1,-3.131340981E0,-4.063982487E0,-3.110695124E0
9.955476757E1,-4.677441120E0,2.330554724E0,-3.067934513E0
9.960676096E1,-4.876583099E0,-1.153496876E-1,-2.901168108E0
9.965875468E1,-7.263844013E0,-1.633960724E0,-5.400828838E0
9.971074860E1,1.395781279E0,4.789287567E0,-1.027945727E-1
9.976274196E1,2.048185349E0,5.370220184E0,2.184284925E0
9.981473526E1,1.802006721E0,2.033674240E0,2.712072611E0
9.986672948E1,2.299861908E0,-1.403951496E-1,1.937495351E0
9.991872577E1,2.541764498E0,-6.168700457E-1,2.380372524E0
9.997071923E1,2.542986155E0,-1.567987204E0,2.065166235E0
1.000227127E2,2.414704561E0,-7.494277954E-1,1.660162449E0
1.000747060E2,2.205788612E0,-7.329344749E-1,1.300973773E0
1.001266992E2,1.694494367E0,-1.666336536E0,4.989076853E-1
1.001786927E2,-5.736482739E-1,1.341563940E0,-9.109693170E-1
1.002306860E2,-2.874777555E0,5.138415098E-1,-2.303131104E0
1.002826797E2,-4.995701790E0,-3.009018421E0,-3.605495930E0
1.003346736E2,-7.365248203E0,-1.086301655E-1,-3.654976130E0
1.003866669E2,-2.477104425E0,9.102931023E-1,-3.053273678E0
1.004386603E2,2.660272121E0,4.573651791E0,2.053559780E0
1.004906537E2,2.287644625E0,2.323835135E0,4.174483776E0
1.005426470E2,2.476401806E0,1.961915940E-1,2.987572670E0
1.005946403E2,2.952876806E0,3.064711019E-2,2.748113632E0
1.006466337E2,2.492895365E0,-8.541729301E-2,2.481776476E0
1.006986274E2,2.054904699E0,-5.631138682E-1,1.963151693E0
1.007506213E2,1.577819109E0,-1.137938142E0,8.080055118E-1
1.008026148E2,6.505256891E-1,-6.400829554E-1,4.054453075E-1
1.008546081E2,4.593248665E-1,-1.401221037E0,-1.088731050E0
1.009066022E2,-4.472801208E0,-1.409773231E0,-3.124744892E0
1.009586010E2,-6.061050892E0,-2.829424143E0,-2.421639204E0
1.010105981E2,-7.648689270E0,-2.478176594E0,-3.193772793E0
1.010625923E2,9.791711569E-1,1.620118499E0,-4.008968174E-1
1.011145857E2,1.751304865E0,3.256626368E0,2.388924837E0
1.011665792E2,2.221060276E0,5.901996493E-1,2.390757322E0
1.012185725E2,2.434252262E0,-6.132048368E-1,1.544098139E0
1.012705658E2,2.387826443E0,9.316733479E-1,2.960694551E0
1.013225590E2,1.742752671E0,1.132648110E0,2.602727652E0
1.013745530E2,1.202136993E0,-1.265608907E0,2.151298046E0
1.014265468E2,4.092338979E-1,1.083778858E0,1.814100623E0
1.014785402E2,-1.680337489E-1,-3.874003410E0,1.496450663E0
1.015305334E2,-4.863754749E0,-2.128761530E0,-2.837027311E0
1.015825267E2,-6.290736198E0,3.000673771E0,-1.636066318E0
1.016345200E2,-7.554615974E0,-1.038367033E0,-4.116789818E0
1.016865134E2,-3.261455297E0,-3.256418705E0,-4.647020817E0
1.017385067E2,1.709155202E0,5.773391247E0,2.796982765E0
1.017905008E2,1.651122928E0,2.151571274E0,4.335141659E0
1.018424241E2,1.180756688E0,-1.633960724E0,2.421911478E0
1.018944176E2,2.076285124E0,-1.767740130E0,3.451830387E0
1.019464106E2,1.196639180E0,-2.232608557E0,3.920363903E0
1.019984047E2,1.029873013E0,-3.580177307E0,3.249633789E0
1.020504035E2,8.276765943E-1,-2.536819696E0,3.189769030E0
1.021024004E2,3.194366992E-1,2.233427286E0,2.853182316E0
1.021543939E2,-3.356750250E0,-1.282713175E0,-1.615296841E0
1.022063873E2,-6.755604267E0,-1.669390917E0,-4.350751400E0
1.022583808E2,-5.450796604E0,6.756273270E0,-2.262203217E0
1.023103740E2,-5.465456963E0,1.123025131E1,-4.341588497E0
1.023623673E2,5.106787682E0,-1.701766729E0,1.136040211E0
1.024143607E2,6.945080161E-1,-1.577761054E0,-1.240836501E0
1.024663544E2,3.551524639E0,1.316518426E0,1.030360460E0
1.025183483E2,4.230195999E0,1.834532261E0,1.191628933E0
1.025703417E2,3.825803280E0,1.268870950E0,1.625954151E0
1.026223350E2,4.479429245E0,-2.998633623E0,2.655571699E-1
1.026743284E2,3.913767815E0,-3.798256397E0,-1.038029313E0
1.027263217E2,1.699381351E0,6.058054924E0,2.515072823E-1
1.027783150E2,1.453202605E0,1.974420309E0,2.782932758E0
1.028303084E2,-8.784700036E-1,-2.975420713E0,-6.574602127E-1
1.028823020E2,-3.492973328E0,1.955483556E0,-1.725863576E0
1.029342960E2,-5.284641266E0,8.479847908E-1,-1.496178269E0
1.029862893E2,-7.469706059E0,-4.532516003E0,-3.713008165E0
1.030382827E2,-1.635331988E0,1.459460974E0,-5.041330457E-1
1.030902765E2,7.091687918E-1,2.891329050E0,2.968636036E0
1.031422728E2,9.657320976E-1,-1.194137692E0,2.406028986E0
1.031942668E2,6.633538008E-1,-1.689549446E0,2.478721857E0
1.032462600E2,7.653683424E-1,-1.972056329E-1,3.512916803E0
1.032982534E2,1.018877387E0,-2.640666485E0,2.087768316E0
1.033502468E2,1.681055307E0,-2.663879395E0,1.416427255E0
1.034022400E2,6.463519573E0,-2.029801369E0,3.275290251E0
1.034542334E2,1.930288315E0,4.936829507E-1,-2.170263678E-1
1.035062273E2,-1.484448314E0,-5.044708848E-1,-1.650727034E0
1.035582210E2,-3.239464045E0,2.043448210E0,-2.333063364E0
1.036102143E2,-3.718382597E0,5.074561596E0,-2.944539785E0
1.036622079E2,-6.133132935E0,2.300622225E0,-4.164437294E0
1.037142012E2,-6.664997935E-1,-2.008420944E0,-5.163813114E0
1.037661944E2,1.549719334E0,2.971963406E0,2.997656167E-1
1.038181877E2,2.873464346E0,3.172937870E0,3.803688765E0
1.038701811E2,1.676168442E0,-4.342213571E-1,3.123795748E0
1.039221749E2,1.732367992E0,-1.908850074E0,2.694968224E0
1.039741688E2,2.011533499E0,-3.049335480E0,1.889236927E0
1.040261621E2,2.440360785E0,-3.150128126E0,2.350139171E-1
1.040781554E2,4.586330414E0,-1.247282982E0,1.484233260E0
1.041301492E2,2.717892230E-1,-2.350792736E-1,-1.523667097E0
1.041821474E2,-3.744649649E0,5.981409550E-1,-1.866362572E0
1.042341448E2,-5.615118980E0,2.445397377E0,-2.113152027E0
1.042861388E2,-6.403135300E0,4.814656675E-1,-4.046540737E0
1.043381321E2,-3.119994141E-2,3.232515454E-1,-2.541979551E0
1.043901254E2,2.112326145E0,3.820455074E0,1.855639458E0
1.044421189E2,1.684720635E0,1.875460148E0,2.946033955E0
1.044941121E2,1.612027645E0,-1.742083907E0,2.152519941E0
1.045461056E2,1.516121745E0,-1.009045482E0,2.454898119E0
1.045980988E2,9.095325470E-1,-1.868533015E0,3.112800121E0
1.046500930E2,1.496573925E0,-3.794590950E0,1.833037376E0
1.047020865E2,2.312079191E0,-2.341342449E0,9.998171926E-1
1.047540798E2,2.799549580E0,9.139582515E-1,2.590510368E0
1.048060731E2,9.180846810E-1,-2.104937792E0,2.227966040E-1
1.048580665E2,-2.578508139E0,-1.464751005E0,-1.281153679E0
1.049100598E2,-4.555879116E0,2.292070389E0,-1.061853051E0
1.049620532E2,-6.067159653E0,-7.048346400E-1,-2.198062181E0
1.050140465E2,-7.925411701E0,-2.259486914E0,-4.014164925E0
1.050660406E2,6.395300627E-1,4.053195000E0,3.217567801E-1
1.051180342E2,1.896690845E0,4.868088722E0,1.733466268E0
1.051700274E2,2.593688011E0,-5.487402529E-2,1.776837826E0
1.052220210E2,2.663937569E0,-1.006602049E0,1.282037020E0
1.052740172E2,2.299861908E0,8.809715509E-1,3.332100630E0
1.053260115E2,1.452591777E0,-1.327917218E0,2.721846342E0
1.053780048E2,6.572451591E-1,-2.634557962E0,1.877630472E0
1.054299982E2,2.204765379E-1,-1.481244326E0,1.267987013E0
1.054819915E2,-1.295080066E0,-3.558797121E0,-1.068572521E0
1.055339849E2,-3.022606850E0,2.639652491E0,-3.529748440E0
1.055859782E2,-5.373216152E0,1.395930886E0,-3.182166338E0
1.056379716E2,-6.403746128E0,2.510760069E0,-4.595097542E0
1.056899659E2,-2.278573275E0,3.739209890E0,-5.550490856E0
1.057419592E2,2.608348846E0,8.624910355E0,6.051982641E-1
1.057939525E2,2.393934965E0,6.321948051E0,3.976563454E0
1.058459458E2,2.300472736E0,-1.761124469E-2,2.559967041E0
1.058979393E2,2.515497208E0,-4.036780596E-1,2.512319565E0
1.059499325E2,2.750680447E0,-1.342865080E-1,3.351037502E0
1.060019259E2,2.592466354E0,-2.670599222E0,1.503170133E0
1.060539192E2,1.174648046E0,-1.280880570E0,1.049297214E0
1.061059134E2,2.078728437E0,-5.916125774E0,9.142960906E-1
1.061579068E2,1.079352975E0,1.389211416E0,9.949303269E-1
1.062099003E2,-1.271057874E-1,9.234450012E-2,-7.704702616E-1
1.062618937E2,-3.885759592E0,-1.786677003E0,-2.976304770E0
1.063138912E2,-6.200939178E0,-8.068491220E-1,-3.008680344E0
1.063658891E2,-7.344478607E0,2.001298428E0,-3.699568987E0
1.064178844E2,5.491220951E-1,5.821649551E0,6.235242486E-1
1.064698780E2,2.290087938E0,3.894369841E0,3.297281504E0
1.065218714E2,1.078131318E0,-9.662849903E-1,1.656497359E0
1.065738647E2,2.337735653E0,-2.943331897E-1,2.431685209E0
1.066258579E2,1.392116070E0,1.906003475E0,3.532464504E0
1.066778513E2,-5.319108814E-2,-1.370677710E0,2.627773285E0
1.067298450E2,4.257272780E-1,-9.235244393E-1,2.495826244E0
1.067818390E2,3.267670870E-1,-1.486742139E0,1.427422881E0
1.068338322E2,1.461754799E0,3.139340401E0,3.071261168E0
1.068858256E2,-8.864113092E-1,-5.694381714E0,1.757599860E-1
1.069378189E2,-3.909583569E0,-3.294903278E0,-2.804040670E0
1.069898124E2,-6.374424934E0,7.080966830E-1,-1.612242579E0
1.070418057E2,-7.489253998E0,-2.131205082E0,-5.330579281E0
1.070937989E2,-2.650590181E0,1.474732518E0,-2.565803289E0
1.071457928E2,1.257725716E0,4.900465012E0,1.785389900E0
1.071977867E2,5.955477953E-1,7.410833836E-1,2.712683439E0
1.072497799E2,1.277884245E0,-2.398153067E0,1.423757672E0
1.073017733E2,2.178299665E0,-1.390225410E0,2.379761696E0
1.073537667E2,2.104995966E0,2.016893774E-1,3.179384232E0
1.074057639E2,2.532601595E0,-1.828215837E0,2.073718309E0
1.074577623E2,2.332848549E0,-1.790953040E0,1.313191056E0
