"Time (s)","Linear Acceleration x (m/s^2)","Linear Acceleration y (m/s^2)","Linear Acceleration z (m/s^2)"
5.999781600E-2,4.627811909E-2,6.519870758E-1,3.243246078E-1
1.199926310E-1,6.251196861E-1,5.716917515E-1,2.175273895E-1
1.799875600E-1,1.859863281E0,4.528156817E-1,1.134128571E-1
2.399824150E-1,4.310455322E0,3.326624334E-1,3.845071793E-1
2.999766730E-1,5.550298691E0,3.815477192E-1,7.802639008E-1
3.599702050E-1,4.912433624E0,8.485754728E-1,6.013431549E-1
4.199636050E-1,1.724145651E0,3.225186348E0,3.209496498E0
4.799563370E-1,2.491020203E0,3.454979420E0,1.177085876E0
5.399486350E-1,-3.628315926E-1,1.810025930E0,1.180182457E0
5.999411330E-1,-2.149238586E-1,8.602549434E-1,-9.208374023E-1
6.599336300E-1,-4.615810394E0,-6.588469505E0,5.453519821E-1
7.199260940E-1,-3.759490013E0,5.648921013E0,-6.610519409E0
7.799187240E-1,3.704740524E0,2.368247986E0,-8.462379456E0
8.399112540E-1,8.259265900E0,2.420326233E0,-2.164596558E1
8.999036180E-1,-3.623768330E0,4.884689331E0,-1.083546734E1
9.598959820E-1,-3.735202789E0,-7.065652847E0,1.085103416E1
1.019888379E0,-7.170804501E0,-1.494575405E1,8.302330017E0
1.079880943E0,-1.818633556E0,-8.432326317E-1,6.904239178E0
1.139873473E0,-4.992877007E0,1.945414543E0,7.072969913E0
1.199866103E0,-5.869318485E0,2.943342924E0,5.266691208E0
1.259859368E0,-6.999226570E0,5.090990067E-1,2.496747971E0
1.319852632E0,-3.859738111E0,2.469317436E0,1.545829773E0
1.379845563E0,-5.081243515E-1,3.684128523E0,-2.644374847E0
1.439838693E0,1.150436401E-1,1.561837196E-1,-7.882462025E0
1.499831724E0,-2.984836102E0,-7.976264954E0,-2.431083679E0
1.559824222E0,-4.667000771E0,-5.067903519E0,-2.049828720E1
1.619816553E0,8.064127922E0,-2.462706089E0,-2.271967316E1
1.679809149E0,7.610702515E-2,-5.702595711E-1,2.003876686E0
1.739801681E0,-9.542081356E-1,-7.955723763E0,8.039064407E0
1.799794211E0,5.121580601E0,-6.534875870E0,2.429053307E1
1.859786541E0,-3.688884974E0,-2.493882179E0,1.242865467E1
1.919779071E0,-3.974141598E0,-4.088506699E-1,1.226952457E1
1.979771335E0,-3.917721748E0,1.757984161E-1,8.976653099E0
2.039763799E0,-2.620707512E0,8.390039444E0,1.282776642E1
2.099756263E0,-4.214828491E0,3.575196743E0,8.874918222E-1
2.159748960E0,1.765582085E0,3.268712521E0,-6.600289345E0
2.219741424E0,4.534848690E0,7.175768018E-1,-1.151456356E0
2.279734622E0,5.393726826E0,-1.165359616E-1,-9.678178787E0
2.339728754E0,1.837741852E1,2.564118385E0,-1.608666992E1
2.399723287E0,3.338022709E0,2.070329189E-1,-8.728666306E-1
2.459717653E0,1.153173161E1,1.420831442E0,-1.367110968E0
2.519712186E0,6.481057167E0,-1.046983433E1,9.142739296E0
2.579706051E0,-1.697511673E0,-1.443494606E1,1.751406670E1
2.639698782E0,-4.510727882E0,-5.930980682E0,8.851346970E0
2.699691180E0,-3.536931992E0,-1.431940794E0,8.852845192E0
2.759683710E0,1.397933960E0,-8.615796566E-1,7.208066940E0
2.819676240E0,1.562947750E0,1.157318592E0,4.280607224E0
2.879668704E0,-1.653177261E0,6.833001971E-1,2.364844322E0
2.939661234E0,3.861865997E-1,-3.343741655E0,-4.190907478E0
2.999653698E0,4.691726685E0,-4.611581326E0,-3.148796558E0
3.059646029E0,8.911321640E0,-7.508724213E0,3.447171211E0
3.119638494E0,5.151913166E0,-9.390709877E0,-2.034318161E1
3.179631090E0,1.301265907E1,-7.924671173E0,-1.517699718E1
3.239623554E0,-2.183080196E0,-8.215515137E0,5.279261589E0
3.299616151E0,8.899765015E0,-1.585680008E1,1.010673332E1
3.359609016E0,4.438249111E0,-6.907907009E0,2.666091537E1
3.420237605E0,-2.096551895E0,-3.709042072E0,1.972921562E1
3.480231869E0,-6.540407181E0,-4.417514801E-1,1.437130547E1
3.540226265E0,-6.493873119E0,1.986063957E0,7.443055153E0
3.600220462E0,-2.060394287E0,-2.801026344E0,2.262291431E0
3.660214393E0,-1.626000404E0,-1.016647816E1,-2.106189728E0
3.720207057E0,4.505492210E0,-4.779836178E0,-4.415546417E0
3.780199488E0,8.633916855E0,5.795411110E0,-8.605863571E0
3.840191986E0,1.065019226E1,1.060767269E1,-2.218102837E1
3.900184516E0,1.661852837E1,6.816683292E0,-2.566674709E0
3.960177046E0,9.502658844E0,8.963580132E0,2.123468161E0
4.020169576E0,-2.115169525E0,-4.405179024E0,1.414236069E1
4.080162006E0,-3.037804127E0,-1.856177902E1,2.311330795E1
4.140154337E0,-1.253210831E1,-1.103028679E1,1.576383209E1
4.200146668E0,-1.242316818E1,-2.612190247E-1,1.342765999E1
4.260139232E0,-1.006381607E1,3.211404324E0,1.252050018E1
4.320131762E0,-5.100622177E0,4.520469666E0,1.022888470E1
4.380124226E0,-1.444832087E0,8.743035316E0,6.689373016E0
4.440116822E0,-7.859740257E-1,5.825544357E0,1.605956078E0
4.500110055E0,-1.826843262E0,4.036076069E0,-5.309288502E0
4.560103152E0,3.728049517E0,1.860876322E0,-6.102164745E0
4.620096216E0,1.328211546E0,1.291594505E-1,-2.194606400E1
4.680089379E0,1.429034424E1,1.078808022E1,-6.054950714E0
4.740082344E0,-3.531370640E0,3.164378643E0,2.519380569E0
4.800074775E0,-1.322626352E0,-2.258680725E1,2.841049767E1
4.860067306E0,-5.419242382E0,-4.594429970E0,2.552139664E1
4.920059902E0,-1.169458485E1,5.660000801E0,1.502833939E1
4.980052400E0,-1.127109241E1,3.294126034E0,1.431540012E1
5.040044996E0,-6.673270226E0,3.551034927E0,1.028948212E1
5.100037460E0,-2.455327272E0,7.686553001E0,8.973943710E0
5.160029725E0,-1.641660213E0,5.979930878E0,1.378815174E-1
5.220022022E0,-1.594205379E0,2.656746387E0,-3.700681448E0
5.280014585E0,-1.192049503E0,3.360096931E0,-9.928796768E0
5.340007049E0,1.371029091E1,3.629570961E0,-4.796242714E0
5.399999646E0,8.860774994E0,7.039616108E0,-2.319271278E1
5.459992176E0,7.674888134E0,8.060659409E0,-1.743702292E0
5.519985441E0,5.431569576E0,1.358240604E0,1.150393391E1
5.579979573E0,1.130611300E0,-2.544854927E1,3.915258026E1
5.639973903E0,-9.242760658E0,-6.421007156E0,1.864627075E1
5.699968201E0,-1.356712055E1,6.976547241E0,1.245154953E1
5.759962531E0,-9.136831284E0,1.837557793E0,1.354070473E1
5.819956095E0,-5.558476925E0,5.232645035E0,5.925153732E0
5.879948559E0,3.111863136E-1,6.828839302E0,3.176960945E0
5.939940890E0,4.131502151E0,6.838306904E0,-1.683790684E-1
5.999933354E0,7.440605164E-1,2.581343651E0,5.496360302E0
6.059925884E0,-3.201947212E-1,5.869954109E0,-1.403538704E1
6.119918348E0,1.123417091E1,2.124143600E0,-1.530689430E1
6.179910911E0,8.073915482E0,8.017450333E0,-6.106382370E0
6.239903375E0,5.059747696E0,4.900412560E0,-2.173077345E0
6.299895739E0,6.632219315E0,-2.406458282E1,2.598472023E1
6.359888137E0,-3.363885403E0,-6.083700180E0,2.442675400E1
6.419880733E0,-8.239774704E0,2.919007301E0,1.542873573E1
6.479873197E0,-6.969796181E0,3.008329391E0,1.246937084E1
6.539865793E0,-1.614789009E0,2.596202850E0,7.733357430E0
6.599858558E0,1.173048973E0,3.995600224E0,4.165336132E0
6.659851824E0,4.574916840E0,7.938930988E0,5.513467789E0
6.719844922E0,3.709334850E0,5.804556847E0,1.069178581E0
6.779838118E0,-1.894715786E0,5.539925575E0,1.629452705E-1
6.839831182E0,7.899950027E0,1.054438114E0,-1.271488190E1
6.899824080E0,5.752650261E0,-1.283181667E0,-8.323539734E0
6.959816344E0,9.253601074E0,6.365420341E0,-1.592256641E1
7.019808841E0,-5.051851273E-1,1.347990036E-1,1.098115826E1
7.079801372E0,5.551283836E0,-2.000484085E1,1.956891441E1
7.139793968E0,-2.705833435E0,-4.289312363E0,1.825101280E1
7.199786432E0,-7.232213974E0,2.953300476E0,1.285894585E1
7.259779029E0,-5.387630463E0,5.526285172E-1,1.249174786E1
7.319771394E0,-4.217181206E0,-8.230533600E-1,6.794919014E0
7.379763659E0,2.485558510E0,1.457032681E0,3.181330442E0
7.439756090E0,4.572393417E0,5.784133434E0,-9.869861603E-1
7.499748587E0,1.890208244E0,4.324028969E0,-4.639693737E0
7.559741051E0,3.846903324E0,5.765739918E0,-5.231545925E0
7.619733616E0,1.214812851E1,7.479044795E-2,-1.847234535E1
7.679727348E0,1.078488350E1,4.667135715E0,-1.456435013E1
7.739721714E0,6.757834435E0,2.926926613E0,-6.761325836E0
7.799716280E0,1.114063263E-1,-8.845501900E0,1.770493507E1
7.859710813E0,-3.191216469E0,-1.749513817E1,2.812192917E1
7.919705279E0,-7.934051514E0,-4.050371170E0,1.284112740E1
7.979698544E0,-8.665274620E0,4.999519348E0,1.009120941E1
8.039691109E0,-4.267964363E0,1.610852718E0,1.057406425E1
8.099683740E0,-2.103296280E0,2.332152367E0,6.554835796E0
8.159676270E0,1.967784405E0,3.541696787E0,1.917290211E0
8.219668734E0,1.456953049E0,2.928820133E0,-1.611485720E0
8.279661330E0,6.473006248E0,1.871318817E0,-4.024549484E0
8.339653761E0,5.772835732E0,5.547776222E-1,-1.002230358E1
8.399646025E0,1.063208103E1,-5.159872770E-1,-6.299064636E0
8.459638389E0,8.343369484E0,1.124894857E0,-1.426988220E1
8.519630919E0,4.896659374E0,2.332448006E0,1.104742527E0
8.579623450E0,7.914230824E0,-2.825894833E0,1.009405708E1
8.639616080E0,-4.108268738E0,-8.902601242E0,2.266077232E1
8.699608511E0,-5.655405521E0,3.191618443E0,1.360729885E1
8.759601876E0,-5.601790428E0,2.434191227E0,9.710783958E0
8.819596074E0,-5.101943016E-1,2.946475744E0,5.393962860E0
8.879590338E0,2.371282578E0,3.371732235E0,1.450032949E0
8.939584569E0,4.172796726E0,3.355613947E0,1.039549351E0
8.999578899E0,1.314485550E0,3.925252438E0,-1.045907974E0
9.059572297E0,2.282904625E0,3.052296638E0,-2.298864603E0
9.119564762E0,8.343806267E-1,-4.332191348E-1,7.396152973E0
9.179557293E0,6.918288231E0,-6.401396275E0,-1.735109329E1
9.239549757E0,1.119579506E1,-4.504754066E0,-6.954262733E0
9.299542321E0,7.737767696E0,3.672899723E0,-7.900195122E0
9.359534851E0,1.010378456E1,-1.039415359E1,1.167463493E1
9.419527381E0,-1.701284885E0,-1.569577217E1,2.333068085E1
9.479519645E0,-5.399114132E0,3.186988831E-2,1.114746094E1
9.539512043E0,-6.010269642E0,2.429976463E0,1.002480888E1
9.599504374E0,-2.075546741E0,2.430199623E0,8.825506210E0
9.659496938E0,-1.175389290E-1,4.121378422E0,4.592923641E0
9.719489435E0,3.529095173E0,4.562963486E0,4.164528370E0
9.779482065E0,8.148508072E-1,2.565972805E0,-6.550493240E-1
9.839475030E0,2.716766834E0,2.197562218E0,-3.838813305E0
9.899468328E0,2.792282581E0,-4.303515553E-1,-6.068253040E0
9.959461359E0,5.938646317E0,-3.046879292E0,-1.018659115E1
1.001945439E1,1.171516800E1,-3.845582604E-1,-1.276991463E1
1.007944742E1,6.468585968E0,4.284321785E0,-1.113623238E1
1.013944012E1,4.206342697E-1,-4.490394115E0,1.329201984E1
1.019943245E1,-7.024833679E0,-1.229448795E1,2.153654099E1
1.025942498E1,-4.795460701E0,7.521939278E-1,1.357002449E1
1.031941768E1,-3.932426929E0,2.633110046E0,8.151541710E0
1.037941021E1,-2.912301064E0,2.022031784E0,6.177932739E0
1.043940267E1,-9.288425446E-1,7.089080811E-1,2.242246628E0
1.049939510E1,1.750624657E0,1.592720985E0,2.311953545E0
1.055938743E1,1.810658455E0,-1.629847050E0,-9.579820633E-1
1.061937970E1,3.275169134E0,-1.930439591E0,-5.033891201E0
1.067937223E1,7.375424862E0,4.141504288E0,-6.216048717E0
1.073930394E1,7.775763035E0,1.494810820E0,-1.256333542E1
1.079929650E1,6.308716297E0,3.422214031E0,-6.964035034E-1
1.085928917E1,-5.382180214E-1,2.422283411E0,5.267543793E-1
1.091928296E1,-3.653513432E0,-4.561604500E0,1.299648285E1
1.097927723E1,-5.129108429E0,-1.233853340E0,1.021341705E1
1.103927163E1,-3.086282730E0,1.110831261E0,6.630230427E0
1.109926589E1,-2.910557270E0,1.543825150E0,4.208248138E0
1.115926009E1,-6.009674072E-1,1.736078739E0,1.250767231E0
1.121925305E1,9.429554939E-1,2.754623413E0,8.179426193E-1
1.127924545E1,3.581691742E0,7.334996700E0,-5.600190163E-1
1.133923778E1,2.451218605E0,2.979369879E0,-1.869023800E0
1.139923038E1,-2.129529953E0,-5.338836193E0,-6.647292137E0
1.145922284E1,2.597584248E0,-8.645088196E0,-1.818115425E1
1.151921537E1,7.465330124E0,7.480473518E-1,-1.137615681E1
1.157920777E1,5.063698292E0,6.028373241E0,-3.468806028E0
1.163920030E1,3.127217531E0,-2.754813957E1,8.516283035E0
1.169919256E1,-1.948675394E0,-5.398176193E0,1.464548397E1
1.175918509E1,-4.108374596E0,3.926127911E0,9.031920433E0
1.181917766E1,-5.986172676E0,1.211585999E0,8.575693130E0
1.187917025E1,-5.109622478E0,1.109929562E0,5.374630451E0
1.193916275E1,-9.917263985E-1,1.217068672E0,4.163818359E0
1.199915592E1,2.693604946E0,2.349263191E0,1.228833675E0
1.205914905E1,-1.352404118E0,-1.853132963E0,-3.609760284E0
1.211914214E1,3.856692553E0,-1.115658760E0,-2.590298653E0
1.217913527E1,3.462496519E0,-2.347816706E0,-1.241573143E1
1.223912837E1,1.561034584E1,6.413778782E0,-2.272015762E1
1.229912087E1,6.541399479E0,1.463320136E0,-3.408397198E0
1.235911320E1,-5.548009872E-1,-1.442532063E1,1.419937515E1
1.241910570E1,2.612088442E0,-9.454511642E0,2.225108147E1
1.247909823E1,7.934956551E-1,1.096659184E0,1.365510941E1
1.253909076E1,-3.923156261E0,1.185434341E0,9.182164192E0
1.259908335E1,-2.861135006E0,2.244138241E0,9.130080223E0
1.265907588E1,-4.028940201E-2,7.680568695E-1,7.450679779E0
1.271906828E1,2.161368847E0,5.012254715E-1,1.431994200E0
1.277906071E1,4.187517166E0,9.288728237E-1,-3.175640106E-1
1.283905318E1,3.920892000E0,2.773499250E0,-9.984970093E-1
1.289904564E1,9.921954155E0,1.410236120E0,-2.182827187E1
1.295903810E1,1.236510944E1,5.517337799E0,-1.146679688E1
1.301903097E1,5.497704029E0,1.917978525E0,3.577368259E-1
1.307902497E1,1.439493656E0,-1.042217064E1,8.443914413E0
1.313901957E1,-3.641559124E0,-1.794095230E1,2.491067505E1
1.319901403E1,-5.986176014E0,9.043502808E-2,1.465559387E1
1.325900870E1,-7.288761616E0,2.057174683E0,1.107396984E1
1.331900280E1,-3.320742130E0,1.155075073E0,1.041680050E1
1.337899570E1,-6.586249352E0,1.536341667E0,6.436402321E0
1.343898809E1,-1.399032593E0,4.402990341E-1,-3.379564762E0
1.349898069E1,6.163510323E0,-1.071872711E-1,-1.182032824E0
1.355897309E1,5.636445999E0,4.320800602E-1,-1.451190352E0
1.361896562E1,1.226086235E1,-2.815712929E0,-2.081350327E0
1.367895818E1,1.879993439E1,-1.077077508E0,-8.499209404E0
1.373895058E1,1.663456154E1,-5.410310745E0,-1.105593681E1
1.379894284E1,5.378318787E0,-8.852830887E0,7.174022675E0
1.385893531E1,9.368789673E0,-1.460760593E1,8.289546013E0
1.391892784E1,-1.748811722E0,-1.582265472E1,1.889289856E1
1.397892030E1,-3.583852291E0,-6.832575798E-1,1.184857178E1
1.403891283E1,-4.901172638E0,-1.014951229E0,1.348725700E1
1.409890566E1,-9.813356400E-1,-7.313742638E-1,7.130828381E0
1.415889946E1,2.484282017E0,2.126396656E0,4.162451744E0
1.421889379E1,5.317115784E0,1.120193720E0,2.240960836E0
1.427888815E1,2.620823860E0,-3.703192472E0,-2.565017462E0
1.433888242E1,5.878539085E0,-4.510366917E-1,-3.194826126E0
1.439887645E1,3.589190483E0,-1.588811398E0,-1.956909943E1
1.445886941E1,1.176158714E1,3.960106373E0,-5.392988205E0
1.451886174E1,5.019629478E0,5.216250420E0,3.165601015E0
1.457885414E1,-1.658419609E0,-1.654838562E0,1.533965778E1
1.463884674E1,-6.861680984E0,-1.572398281E1,2.400818062E1
1.469879352E1,-8.909458160E0,-7.606182098E-1,1.505566597E1
1.475878602E1,-7.355607986E0,1.064203739E0,1.095248222E1
1.481877852E1,-6.128694534E0,-1.171055794E0,1.064847279E1
1.487877095E1,-4.827888012E0,-5.041546822E-1,3.286128759E0
1.493876325E1,3.183405876E0,4.435872078E0,1.533759117E0
1.499875581E1,4.555103779E0,7.456987381E0,3.429067135E-1
1.505874824E1,4.787149429E0,3.988553524E0,-3.161016464E0
1.511874074E1,7.505688667E0,9.162380695E-1,-2.022512197E0
1.517873327E1,1.479020977E1,2.343273401E0,-1.825576591E1
1.523872643E1,9.543887138E0,-5.645525455E-1,-8.744709492E-1
1.529871950E1,1.009058762E1,1.067983389E0,-9.695730209E-1
1.535871266E1,6.719892025E0,-1.732277107E1,5.133696079E0
1.541870579E1,-1.461487770E0,-1.874295616E1,2.119017601E1
1.547869889E1,-3.565012455E0,-6.160550117E0,1.202977180E1
1.553869135E1,-5.536381245E0,1.631097317E0,1.098194504E1
1.559868372E1,-4.597788811E0,1.467006683E0,6.582842827E0
1.565867625E1,-1.042866707E0,1.202421665E0,4.768696785E0
1.571866881E1,3.321587086E0,2.505179167E0,2.847273350E-1
1.577866134E1,3.059987068E0,8.076122999E-1,-1.918954968E0
1.583865380E1,4.740516663E0,-1.955506921E0,-6.476853371E0
1.589864644E1,1.470949364E1,2.998299599E-1,-9.662330627E0
1.595863870E1,1.633950615E1,-2.343071222E0,-8.567399979E0
1.601863113E1,1.367423630E1,-2.383465290E0,-2.542497158E0
1.607862359E1,-2.265846252E0,-2.125392723E1,9.158464432E0
1.613861619E1,1.219076633E0,-2.043745995E1,1.907265091E1
1.619860852E1,3.372840881E-1,-7.942084312E0,1.239705181E1
1.625860162E1,1.436315536E0,-4.037264824E0,9.544289589E0
1.631859568E1,2.246783257E0,-2.537695169E0,7.415939331E0
1.637859001E1,-8.743333817E-1,-3.954629898E-1,5.499792099E0
1.643858428E1,3.607906818E0,-3.101935148E0,3.770796061E0
1.649857867E1,7.283782959E0,-3.875687122E0,2.273696899E0
1.655857244E1,6.259391785E0,-2.063715219E0,-7.786860466E-1
1.661856504E1,1.013545227E1,-1.579777956E0,-1.858498192E1
1.667855737E1,9.120182037E0,1.583952188E0,-6.709297180E0
1.673854983E1,8.412592888E0,-2.843320370E-1,9.809751511E0
1.679854229E1,3.073692799E0,-8.574640274E0,6.800603867E0
1.685853482E1,-1.493446541E1,-1.144095421E1,1.295619774E1
1.691852735E1,-4.830040455E0,-2.962688923E0,1.593541813E1
1.697851988E1,-4.431998730E0,2.532687187E-1,9.517971039E0
1.703851228E1,-2.203213692E0,4.331908226E-1,6.312401772E0
1.709850461E1,-8.103561401E-2,-6.635341644E-1,1.873997450E-1
1.715849711E1,4.156715393E0,-9.753634930E-1,-5.578597784E-1
1.721848964E1,3.787451267E0,-1.669184566E0,-1.981820822E0
1.727848230E1,6.252763748E0,-2.192242622E0,-9.905115128E0
1.733847497E1,6.988716125E0,4.701031208E0,-3.283479214E0
1.739846830E1,2.019708633E1,5.814818382E0,-1.795362473E1
1.745846140E1,1.464800644E1,2.898248911E0,1.808325291E0
1.751845453E1,-2.987912178E0,-7.661548615E0,1.046692467E1
1.757844752E1,2.814126492E0,-1.753433609E1,1.657252884E1
1.763844052E1,-4.652062416E0,-8.662494659E0,8.403976440E0
1.769843279E1,-1.195634365E0,-4.801425934E-1,7.340728283E0
1.775842532E1,4.921083450E-1,-2.189334869E0,5.582456589E0
1.781841778E1,2.830240250E0,-1.839102030E0,5.390316963E0
1.787841031E1,2.993265152E0,-2.907679319E0,6.334332466E0
1.793840277E1,3.284997940E0,-2.921574116E0,3.842176914E0
1.799839537E1,7.871532440E-2,2.771042824E0,-1.081487656E1
1.805838770E1,1.899787140E1,-4.589914083E-1,-2.161344910E1
1.811838010E1,1.119157124E1,-1.002446055E0,-1.482937622E1
1.817837246E1,6.255088806E0,-2.790526390E0,-2.535107613E0
1.823836503E1,5.803737640E-1,-1.320325089E1,1.136586857E1
1.829835749E1,2.421627998E0,-1.904551506E1,2.005254555E1
1.835835009E1,-5.192193985E-1,-6.325182915E0,1.062425613E1
1.841834352E1,-1.380784035E0,-3.000297546E0,6.747803688E0
1.847833792E1,1.149474144E0,-4.354713440E0,5.663374901E0
1.853833242E1,2.793872356E0,-2.062075377E0,2.929242134E0
1.859832695E1,3.224679947E0,4.521166086E-1,2.190930843E-1
1.865832148E1,3.802887440E0,-6.288361549E-2,-1.668143272E0
1.871831501E1,4.009894371E0,-3.438989878E0,-2.647752762E0
1.877830761E1,3.450916290E0,-7.941489220E0,5.916757584E-1
1.883830011E1,1.246579361E1,-7.604270935E0,-1.767847633E1
1.889829264E1,8.492575645E0,-2.777280569E0,-5.320440292E0
1.895828510E1,8.689609528E0,-1.352270412E1,7.926194191E0
1.901827767E1,-3.386081219E0,-1.867123413E1,1.655376816E1
1.907827016E1,-2.766635418E0,-2.906123161E0,1.319544888E1
1.913826253E1,-3.593852997E0,2.179951668E-1,1.254809284E1
1.919825479E1,-4.809305191E0,-1.989206791E0,6.757957458E0
1.925824732E1,-4.160985947E-1,-1.575152397E0,2.330006123E0
1.931823978E1,8.835468292E-1,-8.258258820E0,-3.070935965E0
1.937823228E1,4.109409809E0,-4.913442612E0,-4.806394577E0
1.943822475E1,6.762563705E0,2.038946152E0,-6.512166023E0
1.949821794E1,2.076439667E1,2.652905703E0,-1.270314789E1
1.955821197E1,1.893582916E1,4.957439899E0,-1.407950592E1
1.961820637E1,5.637716293E0,1.729490995E0,-1.164973259E0
1.967820067E1,-2.999162197E0,-2.260463524E1,1.549016953E0
1.973819503E1,-5.357156754E0,-2.042281723E1,1.831607437E1
1.979818870E1,-9.507222176E-1,-2.552986622E0,5.142416954E0
1.985818133E1,-5.828065872E-1,4.817786217E-1,5.566489220E0
1.991817359E1,-8.701257706E-1,-8.867502213E-1,2.217446804E0
1.997816612E1,3.314373970E0,-3.630237103E0,4.810562134E-1
2.003815862E1,5.229060173E0,-5.214695930E-1,-1.736248493E0
2.009815115E1,-7.086906433E-1,7.156274319E-1,3.035435677E0
2.015814361E1,8.149044991E0,-8.014267683E-1,-2.595276642E1
2.021813614E1,5.331919193E0,-2.123492658E-1,-6.302549839E0
2.027812851E1,7.242327690E0,1.853778601E0,-9.313558578E0
2.033812097E1,-3.629566193E0,-6.158589840E0,9.946563721E0
2.039811347E1,1.542192698E0,-2.242343521E1,2.257287216E1
2.045810593E1,-3.027081728E0,-2.516309738E0,1.057033920E1
2.051809846E1,-2.734579563E0,6.193771362E-1,8.442186356E0
2.057809116E1,-2.362539291E0,-1.352447510E0,7.936692238E0
2.063808436E1,1.929235458E-1,-4.610514641E-1,5.539043427E0
2.069807746E1,6.053929329E-1,1.421737194E0,9.701163769E-1
2.075807065E1,3.154552937E0,9.674642086E-1,-5.395250320E-1
2.081806375E1,4.421537399E0,5.131186843E-1,-6.584909439E0
2.087805668E1,8.729267120E0,4.727049470E-1,-6.736101151E0
2.093804898E1,9.687349319E0,3.770447731E0,-1.172274780E1
2.099804168E1,1.156543541E1,1.628973961E0,-1.228233719E1
2.105803414E1,5.878494740E0,4.868381023E-1,2.419739723E0
2.111802670E1,-9.231228828E-1,-2.710804939E1,7.376503468E0
2.117801917E1,-3.050675869E0,-1.444119930E1,1.654876900E1
2.123801163E1,-1.398694515E0,-1.682123184E0,9.126648903E0
2.129800380E1,-1.729091167E0,-5.054192543E-1,8.444881439E0
2.135799626E1,-1.589076996E0,-2.778305054E0,4.467756271E0
2.141798872E1,-1.227142334E0,-1.181932211E0,2.476836205E0
2.147798125E1,2.956653595E0,-6.819047928E-1,-1.751206875E0
2.153797382E1,1.800926685E0,6.499290466E-1,-3.941814423E0
2.159796638E1,1.161542988E1,-8.460187912E-1,-3.351077318E0
2.165795985E1,1.250300026E1,1.611285210E-1,-1.164981174E1
2.171795411E1,1.458541393E1,-2.398198128E0,-5.929499149E0
2.177794864E1,6.676374435E0,4.096784592E-1,-4.850850105E-1
2.183794300E1,1.216569519E1,-3.785160065E0,-8.303070068E0
2.189793730E1,-3.358903408E0,-2.661341476E1,2.074817657E1
2.195793050E1,-3.640900612E0,-1.302040768E1,9.373750687E0
2.200794918E1,-4.725203514E0,-3.996177673E0,7.004163265E0
2.206794124E1,-2.612495422E0,-1.759480953E0,6.286163807E0
2.212793370E1,1.818827629E0,-5.094547272E-1,3.246409416E0
2.218792617E1,-4.470634460E-1,4.668016732E-1,1.941203356E0
2.224791876E1,8.222175598E0,-5.532778502E-1,-3.030888319E0
2.230791126E1,3.919485569E0,3.371604681E0,-3.921828985E0
2.236790389E1,3.665031433E0,-1.495327950E-1,-3.469607830E0
2.242789619E1,4.618904114E0,-3.886651993E0,-5.500410557E0
2.248788862E1,1.685123825E1,-3.665449619E0,-5.572967529E0
2.254788108E1,1.144318485E1,-3.808162212E0,-2.676318884E0
2.260787365E1,7.774329185E0,-5.892618656E0,4.476421833E0
2.266786608E1,-8.574960709E0,-2.778197098E1,2.120131111E1
2.272785898E1,-7.462161064E0,-4.804478645E0,9.428440094E0
2.278785221E1,-6.084366798E0,2.396488190E-2,8.843402863E0
2.284784534E1,-5.678758621E-1,-9.355220795E-1,5.714353085E0
2.290783840E1,9.042339325E-1,-1.263228416E0,3.441290379E0
2.296783160E1,7.676763535E-1,3.409687519E0,7.853882313E-1
2.302782436E1,5.536729813E0,4.244112968E-2,-2.043135166E-1
2.308781666E1,3.352952957E0,-6.226627350E0,1.796209335E0
2.314780913E1,-3.384816170E0,-7.309777260E0,8.057975769E-2
2.320780166E1,8.716107368E0,-7.507109642E0,-1.073321056E1
2.326779412E1,6.806799889E0,-9.076097488E0,-1.183950233E1
2.332778665E1,1.204831505E1,2.881960392E0,-1.104183006E1
2.338777921E1,5.662531853E0,-5.509600639E0,1.099147129E1
2.344777161E1,3.206202269E0,-2.269238472E1,2.348746109E1
2.350776398E1,-6.759196758E0,-4.006659508E0,1.600400162E1
2.356775644E1,-1.042947865E1,3.182463169E0,9.043162346E0
2.362774897E1,-4.594512939E0,1.326934338E0,8.218888283E0
2.368774150E1,-2.791970253E0,-1.652802944E0,1.267093897E0
2.374773413E1,4.680611134E0,-2.973034382E-1,5.014326572E-1
2.380772786E1,5.696880341E0,-6.432720423E-1,-4.843609333E-1
2.386772236E1,3.414322853E0,-2.308248281E0,-2.631040096E0
2.392771662E1,5.358489990E0,-1.389985323E0,1.348419666E0
2.398771095E1,7.336501122E0,-1.678599000E0,-1.533123398E1
2.404770512E1,2.252728844E1,6.551434994E-1,1.263214207E1
2.410769818E1,6.134759903E0,-6.422945857E-2,-3.747731686E0
2.416769035E1,7.309206009E0,-3.536150455E0,2.066175461E0
2.422768274E1,8.989872932E-1,-2.253540611E1,2.450309563E1
2.428767537E1,-7.157030582E0,-8.559894562E0,1.332245731E1
2.434766804E1,-9.465899467E0,5.916959763E0,6.628695011E0
2.440766074E1,-4.413817406E0,1.708645582E0,6.040771008E0
2.446765333E1,-1.047782898E-1,1.285781860E-1,2.382701159E0
2.452764580E1,2.521858215E0,7.971739769E-2,1.633312225E0
2.458763796E1,3.041287422E0,9.385848045E-2,-1.868899107E0
2.464763026E1,4.719311714E0,-1.792358994E0,-2.059118748E0
2.470762259E1,5.227395058E0,-4.841378689E0,-8.716842651E0
2.476761505E1,6.589498520E0,-6.445026398E0,-7.754761219E0
2.482760762E1,9.507734299E0,-5.173501492E0,-1.325914383E1
2.488760085E1,4.559926033E0,-3.632414341E0,-1.248851299E0
2.494759408E1,1.428347111E0,-2.827342749E0,-9.194564819E-2
2.500758721E1,2.841124773E0,-1.570915222E1,1.783192825E1
2.506758027E1,-5.210406303E0,-5.142323971E0,1.926030922E1
2.512757337E1,-6.783978939E0,4.829490185E0,1.097997856E1
2.518756580E1,-2.505631924E0,1.884157181E0,8.349124908E0
2.524755813E1,1.753864765E0,6.944198608E-1,4.438109398E0
2.530755060E1,2.865929127E0,-2.865039825E0,3.281590939E0
2.536754319E1,1.480475903E0,-1.029781246E1,-2.044100761E-1
2.542753566E1,-4.634355068E0,-1.083077240E1,7.618740082E0
2.548752819E1,7.438411236E0,2.601879597E0,-1.437484360E1
2.554752065E1,1.047929001E1,2.401480675E0,-2.439276695E0
2.560751305E1,1.845923424E1,-1.456280798E-1,-1.645460510E1
2.566750531E1,2.079835892E0,3.562092781E-1,8.757663727E0
2.572749791E1,-1.780946255E0,-9.656144142E0,5.799493790E-1
2.578749044E1,-7.932600975E0,-1.075443840E1,1.676111412E1
2.584748297E1,-6.536300182E0,-2.732675552E0,7.114928722E0
2.590747584E1,-4.153565407E0,2.202198029E0,7.747965813E0
2.596747003E1,-2.504670143E0,2.153636932E0,4.683026314E0
2.602746450E1,-3.778493881E0,-4.692234039E0,1.457676411E0
2.608745897E1,-6.396799088E-1,-3.480913877E0,-3.535267591E0
2.614745350E1,2.620049000E0,-9.848792553E-1,6.319517136E0
2.620744763E1,7.234632969E0,4.297283649E0,-2.277780151E1
2.626744049E1,2.104459572E1,5.205678940E0,-5.988455772E0
2.632743283E1,1.163070679E1,3.368594170E0,-1.499875069E1
2.638742536E1,2.515524864E0,-1.638622284E0,-4.144515991E-1
2.644741788E1,6.584581852E0,-2.903748512E1,2.024454880E1
2.650741042E1,-6.790072441E0,-1.415202999E1,5.279032230E0
2.656740291E1,-8.181179047E0,-1.115616798E0,4.756871223E0
2.662739544E1,-4.968081951E0,2.764149189E0,2.592525959E0
2.668738777E1,-2.800583839E0,-1.618142128E0,1.538632870E0
2.674738020E1,-6.801643372E-1,-7.144050598E-1,1.021515369E0
2.680737270E1,2.433857679E0,4.326288700E-1,-7.151302338E0
2.686736526E1,2.236265182E0,8.549354076E-1,-4.160376549E0
2.692735783E1,4.687327862E0,-5.133633614E-1,-1.415938091E1
2.698735052E1,1.003563309E1,2.567596197E0,-1.283661270E1
2.704734426E1,4.882759571E0,2.488428593E0,-1.524748039E1
2.710733872E1,7.766590595E0,-5.272847414E-1,-5.413772583E0
2.716733298E1,-4.934082031E-1,-1.844339752E1,1.120604897E1
2.722732728E1,-1.679185152E0,-1.194781494E1,1.582263374E1
2.728732138E1,-4.353528500E0,-3.017742634E0,5.413462162E0
2.734731434E1,-2.964036942E0,-1.456651211E0,7.630955696E0
2.740730650E1,-3.488022327E0,-2.755946875E0,1.058481216E0
2.746729897E1,3.574609756E-1,-3.755888462E0,-2.155832052E0
2.752729143E1,2.702214718E0,-5.885646343E-1,-3.215387344E0
2.758728403E1,4.100398540E0,7.918653488E-1,-3.947166920E0
2.764727656E1,3.612697363E0,-2.484958887E0,-7.939998627E0
2.770726906E1,8.693871498E0,-2.384393215E0,-3.852585554E0
2.776726145E1,1.769088364E1,-1.844165802E0,-2.145130348E1
2.782725385E1,4.453341484E0,-1.084913063E1,-1.104957581E1
2.788724625E1,7.867930412E0,-3.321158981E1,1.517068958E1
2.794723895E1,2.564949989E0,-1.456449890E1,1.051209450E1
2.800723151E1,-2.868474722E0,-1.697025299E0,6.455748558E0
2.806722407E1,-4.607584000E0,-8.512496948E-3,3.022689342E0
2.812721717E1,-1.913537502E0,-2.414820194E0,1.089365482E0
2.818721037E1,-1.082889080E0,-1.986931801E0,-4.724077702E0
2.824720333E1,2.096520901E0,1.645870209E0,-3.808719873E0
2.830719650E1,4.099246979E0,-3.153969049E-1,-6.016571522E0
2.836718960E1,5.303750515E0,-3.056737423E0,-1.081254959E1
2.842718203E1,7.825659752E0,-7.337582111E-2,-1.430070019E1
2.848717439E1,1.516518116E1,2.086911798E-1,-1.956230164E1
2.854716692E1,2.041651487E0,-5.589143276E0,6.700553894E-1
2.860715942E1,2.885238647E0,-3.280949402E1,1.333449936E1
2.866715188E1,-2.041358471E0,-8.998080254E0,6.749701500E0
2.872714448E1,-3.979219198E0,-1.153448582E0,2.994102478E0
2.878713691E1,-4.547852039E0,1.571502209E0,4.243872166E0
2.884712924E1,-2.956589222E0,-1.243397713E0,7.003822327E-1
2.890712164E1,-1.039611816E0,-4.783568382E0,-3.612209797E0
2.896711423E1,-5.597448349E-1,-6.988414288E0,-6.185556412E0
2.902710676E1,4.956012249E0,2.606918812E0,-1.353900337E1
2.908709946E1,1.812279510E1,1.280009937E1,-2.455890274E1
2.914709249E1,1.082903576E1,6.981897831E0,-1.641334534E1
2.920708669E1,3.690759182E0,7.352293968E0,-4.250586987E0
2.926711620E1,5.090458870E0,-1.517255974E1,3.763404369E0
2.932711073E1,-3.382531643E0,-2.677569580E1,5.749032497E0
2.938710517E1,-5.464877129E0,-3.956267834E0,-8.466187477E0
2.944709913E1,-4.859279633E0,-7.106451511E0,-1.675875187E0
2.950709186E1,-5.673942566E-1,-4.166596413E0,1.638512611E0
2.956708426E1,-9.259042740E-1,-1.958878279E0,-3.944124222E0
2.962707672E1,-2.137899399E-1,3.502060890E0,-6.567777157E0
2.968706919E1,1.474970818E0,-2.670717835E-1,-1.016514683E1
2.974706172E1,-1.741101742E0,-2.386202097E0,-3.245571136E0
2.980705425E1,1.549097824E1,3.061176062E0,-3.405449677E1
2.986704671E1,-2.552203417E0,-3.906086206E0,-4.864747047E0
2.992703897E1,-1.275969982E0,1.200457573E0,-6.989293098E0
2.998703147E1,-2.764636278E0,-2.678758240E1,1.589517021E1
3.004702400E1,-3.436906576E0,-6.098627090E0,1.205147648E1
3.010701653E1,-4.828375816E0,-2.268217087E0,2.208802700E0
3.016700900E1,-3.495119572E0,-3.569428921E-1,-5.603389740E-1
3.022700179E1,-5.331853390E0,-8.248244286E0,-1.732467175E0
3.028699559E1,-4.462968826E0,-1.381420231E1,-5.408213615E0
3.034699002E1,7.698721886E-1,-5.046319008E0,-8.401943207E0
3.040698432E1,1.483096838E0,4.371095657E0,-7.310013294E0
3.046697872E1,1.476520634E1,3.925120354E0,-2.398770905E1
3.052697278E1,8.797029495E0,2.849523783E0,-1.479143143E1
3.058696568E1,-8.009486198E0,-4.263768196E0,2.270011902E0
3.064695784E1,-2.048160076E0,-1.990257454E1,4.551502228E0
3.070695034E1,-9.711817741E0,-1.638667679E1,8.628177643E0
3.076694280E1,-5.924416542E0,-4.426280022E0,1.897296906E-1
3.082693540E1,-5.350134373E0,-4.378952026E0,-2.060778618E0
3.088692786E1,-5.121755123E0,-5.220366478E0,-5.839738846E0
3.094692039E1,-1.566812992E-1,-2.739214897E0,-5.007713795E0
3.100691272E1,1.159498453E0,1.226760507E0,-5.931214809E0
3.106690509E1,-2.311590672E0,-1.149310350E0,-1.048733807E1
3.112689755E1,1.132246780E1,3.283303499E0,-2.364522171E1
3.118689008E1,-3.699250221E0,-5.143475056E0,-9.128621101E0
3.124688261E1,-6.278238297E0,-1.124000788E0,-3.441571712E0
3.130687518E1,-2.901680470E-1,-2.303593063E1,1.706522179E1
3.136686837E1,-2.595266104E0,-2.822690010E0,1.031762886E1
3.142686144E1,-6.633595943E0,-2.598323822E0,2.247730255E0
3.148685457E1,-6.485742569E0,-2.607731819E0,1.192859650E0
3.154684770E1,-4.595576286E0,-2.107836246E0,-8.019351959E-2
3.160684079E1,-4.102193832E0,-4.546964169E-1,-3.887727261E0
3.166683316E1,-1.794120312E0,-1.539327621E0,-8.541794777E0
3.172682569E1,1.803922892E0,-2.710260868E0,-8.255190849E0
3.178681815E1,2.008908749E0,-7.867003083E-1,-1.509097576E0
3.184681065E1,1.490569019E1,1.575814486E0,-2.246332550E1
3.190680312E1,6.789567947E0,2.907083988E0,-8.002648354E0
3.196679571E1,-2.804428577E0,4.868149757E-1,6.410999298E0
3.202678804E1,3.757412434E0,-1.307629585E1,2.842556477E0
3.208678044E1,-9.887673378E0,-6.818058014E0,1.070910358E1
3.214677287E1,-6.955523491E0,2.629748344E0,2.468925476E0
3.220676543E1,-6.496442795E0,1.776038170E0,1.773118496E0
3.226675790E1,-2.449646473E0,1.527839422E0,-1.436649323E0
3.232675049E1,-2.939393044E0,7.406949997E-2,-6.919202805E-1
3.238674356E1,-9.048819542E-1,-3.505390644E0,-4.902630806E0
3.244673772E1,2.339816093E-1,-2.685237408E0,-6.913076878E0
3.250673202E1,1.621408224E0,-1.927101731E0,-1.115078545E1
3.256672635E1,4.499379635E0,9.206936955E-1,-8.795202255E0
3.262672061E1,1.382721329E1,5.263876438E0,-1.645504761E1
3.268671434E1,-1.593044519E0,-1.688005209E0,-3.749065876E0
3.274670711E1,3.664219379E0,-5.146302700E0,2.613829613E0
3.280669944E1,-1.990775299E1,-1.750210762E1,1.708360672E1
3.286669197E1,-7.805936813E0,1.842791080E0,5.717762470E0
3.292668450E1,-5.885072708E0,1.090539455E0,3.385120869E0
3.298667703E1,-5.054773808E0,-4.089164734E-2,8.954124451E-1
3.304666936E1,-4.843594074E0,-1.744007111E0,-1.499647141E0
3.310666189E1,-2.775284767E0,-6.226629734E0,-3.020118237E0
3.316665422E1,1.489090204E0,-3.349324703E0,-6.901246071E0
3.322664655E1,3.470937729E0,1.198276162E0,-1.310029697E1
3.328663905E1,4.611308575E0,4.878742218E0,-8.717400551E0
3.334663158E1,1.204081917E1,3.489164114E0,-1.343603706E1
3.340662411E1,-2.823705673E-1,-3.041253090E0,-4.404390335E0
3.346661681E1,1.036851168E0,1.493477821E-2,3.750582695E0
3.352661007E1,-4.573784828E0,-1.530983353E1,1.053986931E1
3.358660324E1,-1.199076176E1,-4.419449806E0,1.036475086E1
3.364659630E1,-5.761963844E0,4.685845375E-1,1.508338451E0
3.370658943E1,-1.888527393E0,1.199491739E0,1.825984955E0
3.376658233E1,-2.694232941E0,1.230340004E0,-3.730796576E0
3.382657472E1,-3.227216721E0,6.391471624E-1,-4.766704082E0
3.388656716E1,2.917213440E-1,1.169221044E0,-5.841017723E0
3.394655975E1,1.835381508E0,-8.801625967E-1,-3.748854399E0
3.400655222E1,-7.700753212E0,-2.036100388E0,1.969694614E0
3.406654475E1,7.153336048E0,-5.678694725E0,-2.116491127E1
3.412653721E1,6.779178619E0,-6.097353935E0,1.933856964E0
3.418652964E1,7.463162899E0,4.089467525E0,-1.341057968E1
3.424652190E1,1.124141121E1,-1.146434402E1,2.317962170E0
3.430651440E1,-2.896130562E0,-1.237367153E1,2.191650772E1
3.436650697E1,-3.467088699E0,-1.972664833E0,1.292287636E1
3.442649950E1,-2.096826077E0,2.489273071E0,8.550046921E0
3.448649199E1,-9.682440758E-1,-4.754862785E-1,4.451992035E0
3.454648563E1,1.445095539E0,-7.616102695E-1,2.039284229E0
3.460647996E1,-3.453698158E-1,-2.636317968E0,-3.151112556E0
3.466647446E1,2.767998695E0,-3.359281063E0,-4.581158638E0
3.472646919E1,5.098600388E0,-2.029603958E0,-3.909888983E0
3.478646365E1,5.417255878E0,8.540329337E-1,-4.480534077E0
3.484645712E1,9.633113861E0,1.275659561E0,-1.351191521E1
3.490644968E1,2.801398993E0,1.075688720E0,-1.158789635E0
3.496644218E1,5.696852207E0,1.510886192E0,5.761184216E0
3.502643444E1,-1.049401665E1,-2.253162956E1,1.707147789E1
3.508642701E1,-3.535077572E0,7.436208725E-1,1.469308090E1
3.514641940E1,-5.217387676E0,3.238132000E0,8.713509560E0
3.520641190E1,-2.161431789E0,4.100511551E0,4.754399776E0
3.526640427E1,-3.479781151E-1,1.294199944E0,7.568426132E-1
3.532639670E1,7.612419128E-2,-4.412276268E0,-1.636137962E-1
3.538638916E1,2.134021759E0,-4.259879112E0,-1.743549347E0
3.544638186E1,2.473052979E0,-2.718738317E-1,-5.231341362E0
3.550637436E1,2.424732685E0,3.771219254E0,-8.074413300E0
3.556636682E1,5.668284416E0,2.517058372E0,-1.469090652E1
3.562636008E1,3.621927500E0,2.084224224E0,-6.413276196E0
3.568635421E1,3.455852509E0,4.899102211E0,-1.069951057E0
3.574634841E1,6.911520958E-1,-6.042255878E0,3.876842976E0
3.580634274E1,-1.335809898E1,-8.666355133E0,1.923904419E1
3.586633707E1,-8.026947021E0,5.152925491E0,8.551170349E0
3.592633070E1,-6.831014633E0,2.975848198E0,5.854889870E0
3.598632323E1,-3.287573814E0,3.734006166E0,1.179345608E0
3.604631563E1,-2.357009411E0,1.946782351E0,-2.992527246E0
3.610630816E1,-2.595982552E-1,-7.688431740E-1,-1.717579365E0
3.616630069E1,5.420732498E-1,-2.659084797E0,-3.309015036E0
3.622629309E1,1.134187222E0,-4.661014557E0,4.420115948E0
3.628628555E1,4.924047470E0,5.543822289E0,-1.258400726E1
3.634627801E1,2.037943268E1,6.023927689E0,-1.850731468E1
3.640627034E1,4.022044182E0,6.438803673E0,-3.281750202E0
3.646626274E1,1.576825857E0,1.783699989E0,1.071135044E0
3.652625521E1,-1.837869167E0,-2.552178192E1,2.910441399E1
3.658618865E1,-7.535823822E0,-7.459634781E0,8.360693932E0
3.664618111E1,-8.927463531E0,2.496930599E0,5.486614704E0
3.670617394E1,-6.546661377E0,3.541588306E0,5.567295074E0
3.676616714E1,-3.978554726E0,3.614089966E0,2.362759113E0
3.682616037E1,2.737882137E-1,9.400509834E0,5.191947937E0
3.688615344E1,3.073119640E0,9.915602684E0,2.638619900E0
3.694614663E1,-1.781028986E0,3.531847954E0,-2.610386848E0
3.700613940E1,-1.245798111E0,-1.433789730E-1,-9.086791992E0
3.706613173E1,-7.259886265E-1,-1.933616638E0,-1.391948795E1
3.712612413E1,4.683006287E0,-7.296561241E0,-1.268865681E1
3.718611672E1,-1.474118233E-2,-2.196618319E0,-1.610145760E1
3.724610922E1,-3.910301924E0,-7.731323242E-1,-2.821069717E0
3.730610175E1,1.123512077E1,-1.244732380E1,1.032445717E1
3.736609428E1,-4.467096329E0,-1.311026382E1,2.133238983E1
3.742608668E1,-7.946253777E0,-4.900150299E-1,1.243747520E1
3.748607897E1,-1.080237961E1,7.674024105E0,1.164301395E1
3.754607147E1,-9.432030678E0,3.757522106E0,1.830385923E0
3.760606400E1,-1.977763653E0,3.340667009E0,-2.284250259E0
3.766605653E1,-1.496380806E0,-2.780203819E-1,-2.720064878E0
3.772604906E1,6.096258163E-1,-5.474672794E0,-6.477525234E0
3.778604269E1,-1.207448006E0,-5.093629837E0,2.279820442E-1
3.784603696E1,1.258093262E1,5.615713596E0,-1.895617485E1
3.790603129E1,1.305256462E1,1.007852268E1,-2.063612175E1
3.796602562E1,8.834299088E0,9.120765686E0,5.145815372E0
3.802601988E1,-9.424592972E0,-1.999965668E1,1.099499130E1
3.808601308E1,-1.125417709E1,-1.781691360E1,2.211711884E1
3.814600541E1,-9.334524155E0,-2.748164177E0,8.883956909E0
3.820599778E1,-1.168869209E1,2.681021690E0,6.963348389E0
3.826599031E1,-1.168032742E1,4.558692455E0,1.487739086E0
3.832598284E1,-7.457395554E0,7.250172138E0,-3.551917076E-1
3.838597540E1,-1.908557415E-1,7.296599865E0,-9.495730400E-1
3.844596803E1,-3.641093016E0,-1.422571182E0,-9.143594742E0
3.850596046E1,1.194095612E0,1.244601130E0,-7.536953926E0
3.856595279E1,5.982467532E-1,2.329707623E0,-2.424776649E1
3.862594522E1,3.055227995E0,7.956742287E0,-1.225503922E1
3.868593772E1,-7.473558426E0,-2.941291809E0,1.099384403E1
3.874593015E1,4.315938950E-1,-1.176651192E1,1.542224503E1
3.880592275E1,-1.036216736E1,-8.755410194E0,1.832963371E1
3.886591575E1,-7.999099731E0,2.071297646E0,9.449682236E0
3.892590894E1,-1.202801514E1,1.787306309E0,7.829363346E0
3.898590201E1,-6.803180695E0,2.957664967E0,-8.273119926E-1
3.904589520E1,-1.514431000E0,6.112751961E0,-1.099567890E0
3.910588827E1,6.067054272E-1,9.563018799E0,-2.437934875E0
3.916588087E1,-1.640935898E0,7.960175514E0,-4.643161774E0
3.922587320E1,1.828456879E0,5.002313614E0,-8.324305534E0
3.928586573E1,1.435735703E1,4.283714294E-1,-8.576758385E0
3.934585819E1,1.026543045E1,6.156864166E0,-1.537823582E1
3.940585072E1,6.531008720E0,2.682113171E0,2.045046568E0
3.946584325E1,1.155566812E0,-2.453298950E1,2.509143257E1
3.952583585E1,-7.005211353E0,-9.797863960E0,1.903388977E1
3.958582818E1,-6.816481113E0,4.957891941E0,1.070782471E1
3.964582048E1,-4.634635448E0,3.311491966E0,1.167498779E1
3.970581300E1,-4.551739216E0,2.613525391E0,8.898938179E0
3.976580557E1,-1.364308357E0,4.325403214E0,3.776183128E0
3.982579803E1,-2.047967911E-1,7.659457207E0,-5.878164768E-1
3.988579080E1,2.980466366E0,6.477429867E0,-1.981008053E-1
3.994578483E1,4.490787506E0,4.483607292E0,-1.073597431E0
4.000577930E1,1.119852924E1,-2.095199585E0,-1.367813110E1
4.006577379E1,5.822679043E0,-1.169325471E0,-6.840072155E0
4.012576826E1,1.018668747E1,4.137928009E0,-8.683415413E0
4.018576256E1,9.365363121E0,-1.261659431E1,4.640817642E0
4.024575556E1,-9.502584457E0,-1.985907936E1,2.282211494E1
4.030574805E1,-7.373148918E0,-8.213405609E-1,1.524616909E1
4.036574052E1,-3.491166592E0,4.337813854E0,1.064221573E1
4.042573305E1,-2.704686642E0,1.540264130E0,1.054513836E1
4.048572551E1,-1.080389500E0,-1.048107624E0,3.927332401E0
4.054571811E1,3.219045639E0,7.275743484E-1,-6.178069115E-1
4.060571047E1,3.292243958E0,2.852138042E0,-2.938754559E0
4.066570280E1,6.891461372E0,3.040075302E0,-4.870537758E0
4.072569523E1,1.443422890E1,4.781907558E0,-1.846619034E1
4.078568776E1,1.001643944E1,5.046908379E0,-3.214819193E0
4.084568023E1,1.460949659E0,-1.003494549E1,6.367877960E0
4.090567272E1,4.231268406E0,-2.389992905E1,2.519793129E1
4.096566532E1,-4.121152878E0,-4.925451279E0,1.267471218E1
4.102565902E1,-2.566251993E0,3.386535168E0,1.188643837E1
4.108565335E1,-3.762922049E0,-6.093425751E-1,1.435694122E1
4.114564761E1,-4.497182369E0,2.553192139E0,6.096708775E0
4.120564198E1,2.863995552E0,1.994406223E0,4.372900486E0
4.126563624E1,6.993745327E0,4.788606167E0,2.105722427E-1
4.132562930E1,7.331785679E0,5.985448837E0,-2.233428240E0
4.138562157E1,1.378128624E1,8.370414734E0,-1.583428192E1
4.144561413E1,8.514748573E0,6.793135643E0,-4.718238831E0
4.150560660E1,-4.776015282E0,-9.782443047E-1,1.581775379E1
4.156559913E1,-2.727631569E0,-1.464728832E1,2.111960793E1
4.162559159E1,-3.135833263E0,-1.285088539E0,1.750271416E1
4.168558419E1,-5.848947048E0,2.976390839E0,1.310662365E1
4.174557648E1,-4.352472782E0,1.330594063E0,8.002388954E0
4.180556888E1,-8.643350601E-1,2.065525532E0,5.492979050E0
4.186556135E1,1.713366032E0,4.370379448E-1,1.273169518E-1
4.192555388E1,4.808320999E0,1.308584690E0,6.923124790E-1
4.198554634E1,5.424011230E0,5.059262276E0,8.945243359E-1
4.204553894E1,1.415961838E1,5.749073982E0,-2.002138901E1
4.210553197E1,2.175712776E1,2.735301018E0,-8.202249527E0
4.216552510E1,4.958390236E0,-9.877921104E0,1.433019638E1
4.222551840E1,-5.288058281E0,-2.575612640E1,2.806382751E1
4.228551153E1,-6.216837883E0,-1.568120003E0,1.785668945E1
4.234550459E1,-8.271377563E0,4.587142944E0,1.328335953E1
4.240549716E1,-6.138715744E0,2.530031681E0,1.343598270E1
4.246548955E1,-4.622543812E0,3.138225555E0,5.237023830E0
4.252548192E1,2.586987019E0,2.982950211E0,1.852764726E0
4.258547445E1,7.138561726E0,6.290518284E0,5.753674507E-1
4.264546691E1,4.723375320E0,5.636588573E0,-8.249986172E-1
4.270545944E1,1.236838341E0,6.823493004E0,1.377957821E0
4.276545194E1,1.031815052E1,5.996868134E0,-9.597803116E0
4.282544427E1,4.979674339E0,5.677256584E0,-5.947227478E-1
4.288543663E1,6.360229492E0,-8.430848122E0,1.168964672E1
4.294542923E1,-5.489960194E0,-6.370604515E0,2.710737801E1
4.300542169E1,-6.631933212E0,6.576198101E0,1.684710503E1
4.306541419E1,-1.125065422E1,4.777264595E0,1.253995419E1
4.312540706E1,-5.509764194E0,4.234906673E0,6.122441769E0
4.318540115E1,-1.047595501E0,2.914091110E0,-1.266672254E0
4.324539548E1,-3.184222698E0,-7.263262272E0,-7.103215218E0
4.330538988E1,2.354412079E0,-3.627436638E0,-3.268251419E0
4.336538414E1,9.468573570E0,5.970703125E0,-7.384434700E0
4.342537814E1,1.659776306E1,8.711029053E0,-1.419077301E1
4.348537084E1,1.678370285E1,4.521082878E0,-9.233386993E0
4.354536317E1,9.076683044E0,5.540727615E0,1.443730831E0
4.360535553E1,3.794999123E0,-2.583466339E1,1.013448334E1
4.366534813E1,-5.491362572E0,-1.255508137E1,1.780685616E1
4.372534059E1,-1.990648746E0,1.341348648E0,8.611413956E0
4.378533309E1,1.106003284E0,4.135167599E0,1.139552498E1
4.384532559E1,-3.885154724E-1,4.685339928E0,6.852141380E0
4.389540408E1,-6.037025452E-1,5.331502914E0,2.507812500E0
4.395539634E1,2.899785042E0,4.047502995E0,-7.109518051E-1
4.401538880E1,-4.808328152E0,-5.311682701E0,9.916408539E0
4.407538133E1,6.051683903E0,-3.341668606E0,-1.923511505E1
4.413537383E1,9.455457687E0,4.182451248E0,-1.616857338E1
4.419536640E1,3.072301865E0,5.907632351E0,-2.299457550E0
4.425535953E1,6.377978325E0,3.679075241E-1,3.806801081E0
4.431535276E1,-5.511706829E0,-1.623573685E1,3.109546089E1
4.437534589E1,-1.237516975E1,-9.677000046E-1,1.638520432E1
4.443533902E1,-1.056320572E1,5.889759064E0,9.508343697E0
4.449533205E1,-5.935653687E0,5.370799065E0,8.073912621E0
4.455532458E1,-6.906528950E0,2.933748722E0,-3.973583698E0
4.461531691E1,2.424106121E0,2.166627169E0,-3.175007820E0
4.467530944E1,9.752044678E0,5.573080063E0,-3.878405809E0
4.473530191E1,8.109999657E0,-7.123825550E-1,1.530034447E1
4.479529454E1,1.076238632E0,2.651814938E0,-2.279744339E1
4.485528707E1,1.905607224E1,6.481478691E0,-1.079322815E0
4.491527957E1,4.311237335E0,8.416242599E0,-2.744095325E0
4.497527186E1,6.361406326E0,-1.577978039E1,1.854302979E1
4.503526426E1,-4.689848900E0,-9.366374016E0,2.308028030E1
4.509525669E1,-2.890372276E-2,3.959777832E0,1.415176868E1
4.515524932E1,-1.321821213E-1,4.238015652E0,1.456886292E1
4.521524178E1,-7.424345016E-1,2.341459274E0,1.022662067E1
4.527523481E1,-1.338117123E0,1.340822697E0,6.135867596E0
4.533522901E1,4.874836922E0,1.559356689E0,1.410699606E0
4.539522334E1,9.954319000E-1,1.254817963E0,-7.627887726E0
4.545521751E1,1.079177475E1,5.656252861E0,-9.850200653E0
4.551521184E1,1.400219727E1,4.735382557E0,-2.440459824E1
4.557520567E1,-1.483311176E0,5.880187035E0,9.698476791E0
4.563519823E1,6.793780327E0,2.383305073E0,-2.279446125E0
4.569519056E1,-1.276273918E1,-1.135678005E1,2.633692551E1
4.575518293E1,-5.505101681E0,4.282453537E0,1.825983429E1
4.581517546E1,-1.198563004E1,5.050337315E0,1.057777596E1
4.587516795E1,-9.437291145E0,5.604924202E0,6.948761463E0
4.593516052E1,-7.712503433E0,7.130506516E0,8.285870552E-1
4.599515302E1,-3.410657883E0,6.762375832E0,8.497376442E-1
4.605514561E1,1.977766037E0,6.488908291E0,-1.622794151E0
4.611513788E1,2.295732260E0,3.767533302E-1,-7.141723633E0
4.617513034E1,3.088253975E0,-4.586811066E0,-1.692041969E1
4.623512280E1,1.269604206E0,1.508626938E-1,-1.198105049E1
4.629511537E1,8.452732086E0,1.044930840E1,-8.528217316E0
4.635510790E1,-4.908552647E0,1.890115261E0,8.467741966E0
4.641510130E1,5.577841759E0,-1.817308426E1,2.394865799E1
4.647509450E1,1.040820241E0,-1.112857819E0,2.500372314E1
4.653508766E1,-3.751502991E0,7.769227505E0,1.473168564E1
4.659508072E1,-9.460655212E0,2.900916100E0,1.283802509E1
4.665507379E1,-4.350847244E0,3.810861111E0,4.780689240E0
4.671506605E1,-1.123339176E0,2.973844528E0,3.612467289E0
4.677505835E1,-2.503218651E-1,2.067010403E0,-1.376223564E-1
4.683505088E1,6.300833225E0,3.735913277E0,-2.362800598E0
4.689504341E1,2.029192448E0,8.999179840E0,-7.507163048E0
4.695503584E1,1.678951836E1,3.962944984E0,-1.946801758E1
4.701502837E1,7.116394520E0,7.083006859E0,-3.763946533E0
4.707502087E1,4.804962158E0,7.606129169E0,3.278136730E0
4.713501317E1,-2.056536674E0,-9.434885025E0,1.627445984E1
4.719500560E1,-1.320583153E1,-2.167705536E1,2.028026962E1
4.725499806E1,-4.166355610E0,1.479842663E0,1.463899422E1
4.731499059E1,-4.625281811E0,1.034193516E0,1.141558647E1
4.737498319E1,-3.315079689E0,2.973624229E0,1.082293415E1
4.743497685E1,-6.368389130E-1,4.544812679E0,7.885652542E0
4.749497119E1,8.600330353E-1,9.315414429E0,4.075949192E0
4.755496595E1,3.268935204E0,4.790935040E0,3.090865612E-1
4.761496042E1,3.934207916E0,-2.572633624E-1,-3.185894489E0
4.767495488E1,9.928709030E0,-2.630705118E0,-1.008863544E1
4.773494821E1,1.388739777E1,4.027131796E-1,-1.169767761E1
4.779494088E1,9.208594322E0,-1.422955990E-1,-7.785264969E0
4.785493314E1,1.138467312E0,-6.289373875E0,5.722144127E0
4.791492574E1,7.147355080E0,-1.806215668E1,2.520371628E1
4.797491820E1,4.962639809E-1,-6.843704224E0,2.167669296E1
4.803491073E1,-5.221097946E0,3.374849319E0,1.018972683E1
4.809490316E1,-5.292508125E0,3.281545639E-1,6.629484653E0
4.815489560E1,9.499273300E-1,1.923882008E0,8.480510712E-1
4.821488786E1,2.499665260E0,2.411651611E0,-1.583024979E0
4.827488049E1,3.350763321E-1,1.374022961E-1,-6.069395542E0
4.833487302E1,7.486433983E0,-1.347576857E0,-6.141454697E0
4.839486555E1,1.011734200E1,-2.761707306E-1,2.782685280E0
4.845485801E1,1.061621475E1,6.869020462E0,-2.464276314E1
4.851485124E1,4.228956223E0,-1.755528450E-1,1.110787773E1
4.857484524E1,1.001720047E1,-5.972997665E0,2.788146019E0
4.863483961E1,-1.329988718E0,-1.221974564E1,2.316535759E1
4.869483394E1,9.605689049E-1,-2.616153717E0,1.450157547E1
4.875482827E1,-5.622843266E0,2.127521992E0,1.350978947E1
4.881482190E1,-7.894371033E0,2.490952015E0,8.071042061E0
4.887481446E1,-5.990098953E0,9.630060196E-1,2.844412804E0
4.893480676E1,-2.661372185E0,-1.273473263E0,-4.278682709E0
4.899479929E1,3.860832930E0,3.197989464E-1,-4.328598976E0
4.905479182E1,6.462886333E0,1.149671316E0,9.540426254E0
4.911478429E1,1.639065933E1,9.153989792E0,-1.996820831E1
4.917477682E1,9.860013008E0,3.617994070E0,-9.021018982E0
4.923476935E1,5.379034519E0,3.219116211E0,9.151016235E0
4.929476168E1,-1.437243462E0,-2.321299553E1,1.683208275E1
4.935475394E1,-3.163491011E0,-1.198203087E1,2.421237755E1
4.941474657E1,-6.642055511E0,-2.902221680E0,1.317052269E1
4.947473907E1,-7.996166229E0,2.255014420E0,1.463519669E1
4.953473160E1,-9.019595146E0,4.037068844E0,1.148511219E1
4.959472433E1,-5.788686752E0,3.009601116E0,7.027847767E0
4.965471773E1,3.054434538E0,2.269361496E0,3.450452566E0
4.971471076E1,4.093719482E0,5.452796459E0,-4.031550884E0
4.977470392E1,2.794774771E0,4.331417084E0,-9.763648033E0
4.983469699E1,1.419342136E1,7.688406467E0,-1.578189087E1
4.989468988E1,5.056633472E0,7.145105839E0,-1.465692520E-1
4.995468215E1,9.440019131E-1,4.054099083E0,1.490460396E1
5.001467465E1,-7.525456429E0,-1.441344070E1,2.575592422E1
5.007466711E1,-9.997012138E0,5.421063900E0,1.989946747E1
5.013465964E1,-1.044950294E1,4.452743053E0,1.329652214E1
5.019465214E1,-7.063465595E0,3.922709465E0,1.023346710E1
5.025464467E1,-6.017151833E0,3.433605671E0,3.387852192E0
5.031463706E1,-3.978710651E0,2.063913345E0,1.153634071E0
5.037462940E1,2.981139660E0,2.464631319E0,-7.948762774E-1
5.043462189E1,7.596969128E0,4.329060078E0,-9.758737087E-1
5.049461442E1,8.253848076E0,4.322569370E0,4.071380615E0
5.055460695E1,1.122398472E1,4.317645073E0,-1.660351753E1
5.061459942E1,6.263133049E0,3.803932190E0,7.660634995E0
5.067459305E1,1.211053371E0,8.995706558E0,7.025524139E0
5.073458745E1,-2.379317284E0,-1.553663540E1,2.439070511E1
5.079458198E1,-6.508796215E0,1.833932400E0,1.741628647E1
5.085457648E1,-6.974700451E0,6.293306828E0,9.430828094E0
5.091457104E1,-4.469919682E0,4.386325836E0,7.184897423E0
5.097456441E1,-1.705801964E0,2.604060173E0,2.751047850E0
5.103455691E1,1.505839348E0,2.889323235E0,1.902834415E0
5.109454934E1,3.480432987E0,1.617464066E0,-8.678848743E-1
5.115449645E1,-5.180797577E-1,-1.426357746E0,-7.469665527E0
5.121448891E1,6.050529003E0,2.876221538E-1,-1.086085320E1
5.127448151E1,2.094806099E1,-2.217532992E-1,-1.312670135E1
5.133447397E1,8.000644684E0,5.146831036E0,-2.476815462E0
5.139446634E1,1.125873756E1,5.993347168E-1,-5.680185556E-1
5.145445864E1,-6.929473877E-1,-2.936861038E1,3.365623856E1
5.151445120E1,-5.923069954E0,-5.710173607E0,1.836728287E1
5.157444366E1,-1.001094532E1,8.875027657E0,1.107165337E1
5.163443619E1,-7.993922234E0,4.616599083E0,1.127665710E1
5.169442872E1,-5.065470695E0,4.832011223E0,3.429579020E0
5.175442199E1,-5.650277138E-1,3.021408796E0,-6.284165382E-2
5.181441612E1,4.345278740E0,2.620676041E0,-1.586719751E0
5.187441045E1,4.548748970E0,1.421651125E0,-3.204375744E0
5.193440481E1,5.972677231E0,2.676906347E0,-9.603539467E0
5.199439918E1,7.130855560E0,4.910912514E0,-9.559886932E0
5.205439274E1,7.076931000E0,5.723436832E0,-1.274985123E1
5.211438517E1,-4.763838768E0,2.497999191E0,1.094734764E1
5.217437754E1,-5.332097530E0,-3.433230400E0,5.002723217E0
5.223437003E1,-7.774534702E0,-5.784668922E0,2.374853134E1
5.229436253E1,-4.465500355E0,5.833981514E0,1.181704998E1
5.235435499E1,-7.498485565E0,7.006248474E0,8.577920914E0
5.241434759E1,-3.208111763E0,4.371095181E0,6.871378899E0
5.247434002E1,-1.313096046E0,5.827161312E0,2.939004421E0
5.253433235E1,-4.670882225E-1,4.389660835E0,2.483641148E0
5.259432468E1,1.120520115E0,2.280476570E0,-3.350472450E-1
5.265431728E1,3.058411121E0,1.730231881E0,-6.545034409E0
5.271430974E1,5.242847443E0,9.345964193E-1,-9.436096191E0
5.277430234E1,6.333361149E0,2.019271851E0,-1.324445534E1
5.283429514E1,8.409047127E0,3.835400581E0,-8.221219063E0
5.289428844E1,1.175413132E-1,4.666228294E0,-7.216615677E-1
5.295428150E1,-9.301457405E-1,-1.565486431E0,3.206797361E0
5.301427470E1,-1.249902821E1,-6.386181831E0,1.927420998E1
5.307426776E1,-7.407803535E0,1.963016987E0,9.375102997E0
5.313426056E1,-4.578611851E0,4.890399456E0,8.612692833E0
5.319425289E1,-4.240689278E0,1.553919315E0,4.647192955E0
5.325424542E1,-2.050928593E0,-2.298998833E-1,3.549775124E0
5.331423788E1,1.276911259E0,1.095505714E0,1.590279579E0
5.337423038E1,2.230436325E0,1.006103277E0,-3.800672531E0
5.343422291E1,-1.764869213E0,1.319962025E0,-3.363878727E0
5.349421544E1,9.481864929E0,4.839897156E0,-1.348899460E1
5.355420777E1,6.269730568E0,4.262608051E0,-4.704562187E0
5.361420013E1,-3.879557610E0,3.363873482E0,2.758041382E0
5.367419276E1,-4.648151398E-1,-1.321804047E0,3.630301952E0
5.373418530E1,-7.363913059E0,-3.640329838E0,1.507455444E1
5.379417779E1,-5.568071842E0,3.534933567E0,1.042846775E1
5.385417039E1,-2.758116245E0,3.992407560E0,6.072549820E0
5.391416409E1,-2.700877190E0,2.106982708E0,2.225668430E0
5.397415829E1,-5.125241280E-1,1.739881992E0,7.391405106E-2
5.403415262E1,1.538451195E0,1.855494976E0,6.094517708E-1
5.409414695E1,2.293957233E0,-5.338408947E-1,-1.451365948E0
5.415414121E1,4.972753525E0,-5.512819290E-1,-3.857849360E0
5.421413428E1,1.717458725E0,3.405996084E0,-6.101092339E0
5.427412667E1,8.739606857E0,4.051274300E0,-1.191329575E1
5.433411904E1,-1.231231689E0,1.382822037E0,-6.692361832E-1
5.439411160E1,-1.136041641E0,-5.886882305E0,8.971349716E0
5.445410406E1,-3.752445698E0,-1.002228642E1,1.772249222E1
5.451409666E1,-2.566606998E0,1.550733566E0,8.360312462E0
5.457408916E1,-2.880888462E0,1.264922619E0,4.657964706E0
5.463408166E1,-8.131003380E-1,-8.411884308E-2,3.043095112E0
5.469407389E1,-1.666054726E-1,-1.576543808E0,2.119678974E0
5.475406635E1,2.907996655E0,1.263385534E0,4.789791107E-1
5.481405898E1,4.366098881E0,3.474705696E0,-2.455130100E0
5.487405154E1,3.800465822E0,3.971781254E0,-5.762887955E0
5.493404401E1,7.941745758E0,1.102142930E0,-1.428947258E1
5.499403711E1,-4.319559574E0,1.548050165E0,5.438788891E0
5.505403030E1,6.087695122E0,5.557340145E0,-4.597266197E0
5.511402327E1,-1.998989582E0,-1.143456268E1,1.901115417E0
5.517401637E1,-2.804473877E0,-2.199475288E0,1.309739113E1
5.523400950E1,-2.343120575E0,4.203888416E0,7.330193520E0
5.529400206E1,-3.290754318E0,3.488078833E0,5.388307095E0
5.535399439E1,-1.899598122E0,1.392900944E0,2.057392120E0
5.541398696E1,-2.376012802E-1,9.066340923E-1,-3.142771721E-1
5.547397939E1,7.915296555E-1,2.087086678E0,-2.273886681E0
5.553397192E1,1.321847439E0,2.954504251E0,-2.742043972E0
5.559396445E1,2.788417339E0,5.398230553E-1,-4.259424210E0
5.565395698E1,3.189331770E0,-1.746633053E0,-9.052527428E0
5.571394921E1,-1.686925888E0,-3.968582392E0,-4.974430561E0
5.577394164E1,6.155374527E0,5.199427605E0,-2.538622379E0
5.583393410E1,7.832048416E0,-1.345318794E1,2.504007816E0
5.589392663E1,-7.272193432E-1,-1.049637413E1,1.003392220E1
5.595391910E1,-6.989630699E0,8.771715164E-1,5.636242867E0
5.601391200E1,-5.618973255E0,8.957448006E-1,8.637382507E0
5.607390603E1,-5.872827530E0,-1.182479858E-1,7.116310120E0
5.613390046E1,-5.348334789E0,-1.006631851E-1,1.064912796E0
5.619389472E1,7.906031609E-1,-4.902548790E0,-5.549758911E0
5.625388905E1,6.345788956E0,-2.830560207E0,-7.565148354E0
5.631388301E1,7.753849030E0,3.819527388E0,-5.797605038E0
5.637387581E1,4.025755882E0,9.789344788E0,-1.230517006E1
5.643386804E1,1.432326412E1,1.283947372E1,-1.068160629E1
5.649386041E1,-4.703414917E0,-4.386998177E0,2.864701271E0
5.655385300E1,-2.422219515E-1,-2.647147942E1,9.334757805E0
5.661384553E1,-5.206271172E0,-5.233228683E0,1.919842482E0
5.667383800E1,-5.365303993E0,9.595212936E-1,-1.104688644E-1
5.673383053E1,-4.393575668E0,-3.301791668E0,3.117394924E0
5.679382302E1,-3.722733498E0,7.745981216E-2,2.907838821E-1
5.685381529E1,-2.298191547E0,6.578069687E0,-8.530793190E0
5.691380772E1,4.297520638E0,2.469944000E0,-4.252709389E0
5.697380018E1,7.775248528E0,1.247567749E1,5.146780014E0
5.703379272E1,5.572036743E0,7.941070557E0,2.697114944E-1
5.709378531E1,2.230844021E0,-6.419047713E-1,-9.965383530E0
5.715377858E1,1.231045008E0,-1.376318264E1,-1.733546066E1
5.721377174E1,-1.785993099E0,-5.799313068E0,-8.831311226E0
5.727376494E1,-2.554870367E0,-5.107537746E0,-3.864627123E0
5.733375797E1,-3.994849026E-1,-1.676969528E1,1.829004478E1
5.739375103E1,-2.646498442E0,-3.444442749E-1,1.186789322E1
5.745374346E1,-5.482825279E0,3.597126961E0,6.272052765E0
5.751373586E1,-6.633060455E0,-1.132910728E0,7.057212830E0
5.757372833E1,-5.540924072E0,1.296289921E0,2.829850674E0
5.763372096E1,-5.773494720E0,-2.388230324E0,-5.375597000E0
5.769371342E1,4.765677452E-1,-2.394624710E0,-7.335627556E0
5.775370585E1,3.895953655E0,-2.389383316E-1,-7.998963356E0
5.781369832E1,1.691078186E1,6.052743435E0,-5.351927280E0
5.787369068E1,1.516492271E1,1.975661087E1,-1.343759727E1
5.793368301E1,7.894023895E0,6.556193829E0,-2.971107006E0
5.799367558E1,-2.948058367E0,-1.330291939E1,3.549783230E0
5.805366811E1,-2.987887383E0,-1.947007370E1,1.275189686E1
5.811366070E1,-2.420853138E0,-6.501914978E0,1.648791790E0
5.817365393E1,-1.219845772E0,-1.516034126E0,-2.384634018E-1
5.823364823E1,-3.653483391E-1,-4.294476509E-1,3.195438385E-1
5.829364273E1,3.192853928E-1,-2.669081211E0,-1.878388882E0
5.835363726E1,2.241268396E0,1.194276571E0,-2.167703152E0
5.841362535E1,2.677643299E0,3.574768066E0,-3.281033516E0
5.847361908E1,3.176011562E0,5.235363007E0,-6.489815712E0
5.853361178E1,3.013297081E0,5.491226196E0,-1.187375069E1
5.859360424E1,9.064322472E0,9.641716957E0,-3.963526726E0
5.865359677E1,1.594349623E0,5.359837532E0,-6.589308739E0
5.871358920E1,-8.689236641E0,-2.043160248E1,3.675651550E-1
5.877358180E1,-4.435894012E0,-1.415009117E1,9.613021851E0
5.883357426E1,-1.394904494E0,-2.048233032E0,5.973156452E0
5.889356669E1,-3.934223413E0,-1.419699669E0,2.351303101E0
5.895355895E1,-8.741116524E-1,-1.672972202E0,1.145957947E0
5.901355145E1,1.311505318E0,-6.918859482E-2,-2.720738888E0
5.907354392E1,4.629133224E0,2.357484341E0,-5.386798382E0
5.913353651E1,4.183617592E0,2.611594915E0,-5.088187218E0
5.919352894E1,3.802891493E0,3.268942118E0,-6.641358852E0
5.925352194E1,7.305507660E0,6.128767490E0,-1.362149048E1
5.931351594E1,3.501322031E0,3.727955103E0,7.470937729E0
5.937351033E1,2.479948044E0,-8.889627457E-2,-8.392271042E0
5.943350460E1,-9.355914116E0,-8.142594337E0,5.768856049E0
5.949349899E1,-1.403149843E0,2.644191742E0,1.075184059E1
5.955349286E1,-1.231141329E0,-1.386607170E0,1.472039127E1
5.961348556E1,-6.761133671E0,-1.248668671E0,5.363471031E0
5.967347782E1,-6.787825108E0,8.358001709E-1,-1.801781654E0
5.973347032E1,-2.087422371E0,-2.057977200E0,-8.734799385E0
5.979346278E1,2.949531794E0,-4.286959648E0,-8.182991028E0
5.985345531E1,7.031193733E0,-2.497207165E0,-1.151044273E1
5.991344784E1,7.136701584E0,7.921261787E-1,-1.915880966E1
5.997344041E1,1.311990356E1,2.946319580E1,-1.046976852E1
6.003343277E1,1.059126496E0,-2.806228638E0,9.808927536E0
6.009342510E1,4.370626926E0,-1.855574036E1,1.191466808E1
6.015341763E1,-7.524453163E0,-3.762310982E0,4.972152710E0
6.021341016E1,-8.820632935E0,-3.486112595E0,7.532482147E0
6.027340266E1,-8.299323082E0,4.160127640E-1,3.393360853E0
6.033339526E1,-4.539935112E0,4.040341854E0,-3.069165230E0
6.039338852E1,-4.837391376E-1,-1.377430439E0,-9.343776703E0
6.045338165E1,4.712891579E0,-2.996168137E-1,-1.123171616E1
6.051337478E1,1.286933708E1,5.640846729E0,-1.028098965E1
6.057336791E1,1.386316872E1,1.226248169E1,-1.478094196E1
6.063336098E1,-1.564653277E0,5.225525379E0,1.335297585E1
6.069335331E1,8.556985855E0,-2.850115204E1,6.588009596E-1
6.075334570E1,-8.864313126E0,-1.325696468E1,4.772863388E0
6.081333817E1,-8.914199829E0,-4.969892502E0,-5.249241590E-1
6.087333073E1,-6.361168861E0,-4.834537506E-1,3.794733047E0
6.093332320E1,-3.793556929E0,2.359807014E0,4.871006012E0
6.099331579E1,-3.216050148E0,2.094745636E-3,9.127855301E-1
6.105330822E1,-1.869927406E0,1.718108177E0,-3.579695225E0
6.111330056E1,-1.439066410E0,1.994040012E0,-8.005771637E0
6.117329292E1,8.152070045E0,5.154225349E0,-1.841854668E1
6.123328552E1,-2.397408485E0,1.200940323E1,-4.188315392E0
6.129327798E1,5.677378654E0,8.903763771E0,-7.519476891E0
6.135327048E1,2.590118885E0,-4.668639183E0,1.184131622E1
6.141326384E1,-3.171228886E0,-2.388623047E1,2.068175316E1
6.147325807E1,-7.821425915E0,-5.433013916E0,7.306710720E0
6.153325234E1,-5.696887493E0,1.367466927E0,7.101967812E0
6.159324667E1,-6.017601013E0,3.452000141E0,5.512988567E0
6.165324100E1,-4.600390434E0,3.331906796E0,2.785860538E0
6.171323449E1,-1.525828362E0,3.340809345E0,1.477686882E0
6.177322699E1,3.210644722E-1,2.583445787E0,-3.012752533E0
6.183321926E1,-1.127441883E0,1.054476738E0,-9.165100098E0
6.189321175E1,7.147413731E0,5.665992737E0,-1.022224712E1
6.195320428E1,1.034081936E1,1.111690235E1,-1.592965317E1
6.201319681E1,1.711260080E0,5.279595375E0,-1.030993462E-1
6.207318928E1,4.830377102E0,4.522171021E-1,5.160876274E0
6.213318187E1,-1.077492428E1,-2.358923912E1,2.056769371E1
6.219317417E1,-5.505939007E0,-3.835779190E0,1.133057594E1
6.225316660E1,-5.443741798E0,1.108102798E-1,8.351482391E0
6.231315903E1,-4.388607979E0,2.949736595E0,5.630529881E0
6.237315163E1,-4.505955219E0,2.342994213E0,1.738925695E0
6.243314409E1,-1.944351196E-1,7.914731503E0,5.173420906E-2
6.249313699E1,-1.289331436E0,2.241445065E0,-3.781344414E0
6.255313019E1,-1.712293625E-1,-2.422210932E0,-2.734688282E0
6.261312335E1,5.343338966E0,5.059364438E-1,-6.560574532E0
6.267311642E1,1.394068909E1,1.250012875E0,-1.748778152E1
6.273310958E1,7.390453815E0,1.176848173E0,-4.334917068E0
6.279310241E1,6.245243073E0,3.848056793E-1,-2.918247700E0
6.285309471E1,8.751051903E0,-2.437526894E1,1.128668022E1
6.291308717E1,2.232601643E0,-1.850055695E1,1.522093964E1
6.297307970E1,-3.651421547E0,-1.801723480E0,1.232636929E1
6.303307220E1,-1.349494076E1,7.933773994E0,4.648764133E0
6.309306467E1,-7.453741074E0,2.495138645E0,7.196874142E0
6.315305720E1,-2.691925526E0,4.421686172E0,4.522001743E0
6.321304959E1,-3.273196220E-1,7.052002430E0,-4.859859943E-1
6.327304199E1,1.787660599E0,6.695241928E-1,-1.183091640E0
6.333303439E1,3.908587456E0,-7.070057392E-1,-2.308863640E0
6.339302692E1,6.600221157E0,1.108001828E0,-2.690619230E0
6.345301945E1,8.443344116E0,7.846230268E-1,-5.150586605E0
6.351301205E1,1.138958359E1,-1.168231487E0,-1.285147476E1
6.357300574E1,2.416179180E0,-3.814519644E0,-3.521404266E-1
6.363300028E1,5.726610184E0,1.138803482E0,-4.677593708E0
6.369299474E1,3.951877117E0,-2.031386185E1,1.685005951E1
6.375298928E1,-4.301155090E0,-9.643027306E0,2.000402451E1
6.381298367E1,-9.689568520E0,2.642621517E0,1.242249680E1
6.387297697E1,-7.914980888E0,4.315895081E0,1.055896568E1
6.393296950E1,-1.292461395E0,3.272795677E0,4.914860725E0
6.399296210E1,1.256031990E0,2.300280571E0,1.145672321E0
6.405295470E1,6.404271126E-1,-1.518801928E0,-2.793090820E0
6.411294723E1,2.524772644E0,-2.265593290E0,-5.928508282E0
6.417293969E1,7.437967300E0,1.457975626E0,2.761429787E0
6.423293215E1,4.955506325E0,1.204828620E0,-1.494210243E1
6.429292442E1,9.853443146E0,1.672222733E0,-1.391730213E1
6.435291672E1,6.277256012E0,1.938938975E0,-2.928677559E0
6.441290925E1,1.411511898E0,1.995481491E0,-1.278748035E0
6.447290178E1,1.912624598E0,-1.605861282E1,1.750298691E1
6.453289424E1,-3.143711090E0,-4.979982376E0,2.089966583E1
6.459288684E1,-2.810575485E0,7.276553631E0,1.349724483E1
6.465288027E1,-8.789593697E0,2.554959297E0,8.816586494E0
6.471287453E1,-5.304815769E0,4.532606602E0,3.742379427E0
6.477286886E1,8.530664444E-2,2.312673569E0,2.777298927E0
6.483286319E1,4.965117455E0,2.020707130E-1,-1.856899261E-1
6.489285742E1,1.126072407E0,-4.188494682E0,-2.836411476E0
6.495285075E1,-1.714558601E0,5.975921154E-1,-6.547902584E0
6.501284315E1,4.429895401E0,3.582037449E0,-9.333045959E0
6.507283551E1,6.422112465E0,3.789220810E0,-1.651890945E1
6.513282804E1,3.157110691E0,3.741018057E0,-9.619773865E0
6.519282054E1,-2.988618612E0,4.170804977E0,-7.293415070E-2
6.525281307E1,-6.566758156E0,-4.379560471E0,2.644928694E0
6.531280560E1,-1.502326393E1,-1.192996407E1,1.484529591E1
6.537279810E1,-1.021209812E1,-8.568668365E-2,7.500289440E0
6.543279046E1,-9.712938309E0,4.332966805E0,6.921815872E0
6.549278289E1,-8.620234489E0,2.776401520E0,5.599590302E0
6.555277536E1,-5.742659569E0,1.558971405E0,2.276226521E0
6.561276789E1,5.805501938E-1,4.201578140E0,-1.089611053E-1
6.567276035E1,-9.698534012E-2,3.338913918E-1,-1.351561546E0
6.572276700E1,-8.770561218E-2,2.938318253E-2,4.660797119E-1
6.578276023E1,3.135700226E0,4.127695560E-1,-1.254730225E1
6.584275342E1,7.942187309E0,4.540493011E0,-2.130346680E1
6.590274652E1,5.988388538E0,3.050334692E0,-9.251339912E0
6.596273968E1,-9.227538109E-1,4.497353554E0,-6.799571514E0
6.602273245E1,-1.055944443E0,1.964330673E-1,7.218385220E0
6.608272478E1,4.283141494E-1,-1.845916557E1,2.219752312E1
6.614271721E1,-6.083921432E0,-6.184712410E0,1.467167854E1
6.620270968E1,-5.517389297E0,2.681358337E0,8.500223160E0
6.626270217E1,-1.020989132E1,4.290866852E-2,7.670681953E0
6.632269467E1,-6.717515945E0,-4.014091492E-1,2.702767849E0
6.638268720E1,-3.079209805E0,5.480587959E0,-1.864032030E0
6.644267950E1,7.221546173E-1,2.949035883E0,-3.901896715E0
6.650267186E1,3.238289833E0,1.234658480E0,-4.617236137E0
6.656266436E1,5.725549221E0,-5.572662950E-1,-8.706936836E0
6.662265689E1,1.100571442E1,-2.747889996E0,-1.636882782E1
6.668264935E1,1.474659348E1,-1.722202897E0,8.705410004E0
6.674264205E1,1.133104134E1,2.823083401E0,-2.731890678E0
6.680263571E1,-1.329107285E0,-9.212497711E0,4.487398624E0
6.686263011E1,1.035370827E-1,-1.262968540E1,1.382704258E1
6.692262458E1,-4.897058487E0,-4.573946953E0,1.778019905E1
6.698261918E1,-1.828892708E0,-5.154552460E-1,1.620561981E1
6.704261355E1,-3.939682007E0,-4.341287613E-1,8.216799736E0
6.710260694E1,-3.085883141E0,2.319495201E0,2.111862421E0
6.716259937E1,-3.500432968E-1,-2.164996624E0,-4.508727074E0
6.722259204E1,1.601369381E0,8.165607452E0,-1.390205383E0
6.728258450E1,4.039811611E0,9.506464958E0,-3.653552055E0
6.734257713E1,7.498881340E0,5.343496799E0,-5.251884460E0
6.740256963E1,7.770513058E0,-2.639919281E0,-8.611960411E0
6.746256219E1,7.472256184E0,-1.122121239E1,-1.302620220E1
6.752255439E1,9.582683563E0,-8.529553413E-1,-5.266544819E0
6.758254676E1,2.794096470E0,-1.402313709E0,5.107112885E0
6.764253919E1,6.285801411E0,-8.722383499E0,8.685153961E0
6.770253168E1,3.424819946E0,-1.042930984E1,2.611604691E1
6.776252418E1,-1.786261559E0,2.339793205E0,1.834357834E1
6.782251688E1,-7.072002411E0,7.433271408E-1,1.001897812E1
6.788251021E1,1.305723190E-2,-6.898093224E-1,5.278158665E0
6.794250434E1,1.902582169E0,-1.965393543E0,-7.146310806E-2
6.800249867E1,3.084119320E0,-5.562887192E0,-1.592250824E0
6.806249303E1,4.199752808E0,-3.637579441E0,-1.990663767E0
6.812248720E1,6.217545509E0,2.964290142E0,-6.483380795E-1
6.818248063E1,8.138589859E0,-4.219874740E-1,-1.014202309E1
6.824247333E1,1.620334053E1,3.355985641E0,-5.645274162E0
6.830246569E1,6.794445992E0,1.830932379E0,3.443524361E0
6.836245819E1,8.006810188E0,1.135655880E0,2.881627560E0
6.842245065E1,-3.143782139E0,-2.135385132E1,2.534895325E1
6.848244325E1,-2.547755241E0,-3.521041870E0,1.624988365E1
6.854243555E1,-3.227172375E0,4.371143341E0,1.241053772E1
6.860242804E1,-4.127520561E0,3.215420723E0,8.513288498E0
6.866242031E1,-1.700553894E0,1.084945679E0,5.899929047E0
6.872241271E1,1.083275318E0,-1.959945202E0,1.819608450E0
6.878240517E1,6.201982498E-1,-2.858180761E0,-5.673289299E-1
6.884239776E1,2.872632027E0,2.984752655E-1,-5.028252602E0
6.890239023E1,1.460751534E0,3.762753010E0,-1.077494144E0
6.896238309E1,2.668385696E1,2.475975990E0,-1.693932343E1
6.902237636E1,9.828092575E0,-9.958424568E-1,-6.962721348E0
6.908236949E1,1.920574665E0,2.156672716E0,-4.166461945E0
6.914236255E1,4.720169067E0,-4.254545212E0,5.426988602E-1
6.920235568E1,-3.583443880E0,-2.302267075E1,2.621476173E1
6.926234848E1,-4.071702957E0,-5.105861664E0,1.448917294E1
6.932234084E1,-5.823664665E0,4.128331661E0,7.165837288E0
6.938233338E1,-3.173864841E0,2.492543697E0,4.051006317E0
6.944232584E1,-1.487689018E0,6.722683907E-1,3.748500824E0
6.950231840E1,1.354030132E0,4.805392265E0,-2.633543015E-1
6.956231093E1,4.249135017E0,2.993163586E0,-1.097174168E0
6.962230343E1,5.429363251E-2,-4.625725746E0,-5.786714554E0
6.968229576E1,1.231151581E0,6.464853883E-1,-7.535168171E0
6.974228819E1,5.366062164E0,-4.125433922E0,-1.496094418E1
6.980228062E1,9.519700050E0,2.433843613E0,-1.195890808E1
6.986227315E1,4.610989094E0,-3.052864075E-1,-1.026988983E1
6.992226568E1,5.430474281E0,-1.762311554E1,1.637127876E1
6.998225831E1,-6.379425526E-1,-9.599557877E0,2.251500511E1
7.004225204E1,-2.223981857E0,1.454420090E0,1.733934784E1
7.010224644E1,-3.924545050E0,3.420301437E0,1.111751556E1
7.016224070E1,-5.097115040E0,1.721319199E0,6.080459595E0
7.022223504E1,-9.632468224E-1,-1.122600555E0,2.466866970E-1
7.028222920E1,4.022301674E0,1.321367025E0,-1.246928215E0
7.034222230E1,4.862444878E0,2.628812790E-1,-2.595974445E0
7.040221456E1,3.187133312E0,-1.048254490E0,-6.023529053E0
7.046220699E1,1.597850561E0,7.756268978E-1,-9.372625351E0
7.052219946E1,9.493429184E0,5.723361969E0,-1.674087715E1
7.058219199E1,1.013306236E1,7.343217850E0,-1.432040310E1
7.064218445E1,4.784717560E0,-4.400708199E0,1.685759735E1
7.070217705E1,5.880228043E0,-1.866825867E1,1.816130638E1
7.076216948E1,-7.968136787E0,-7.211878777E0,1.739121056E1
7.082216178E1,-5.178686619E0,4.807173252E0,1.340739155E1
7.088215424E1,-8.275891304E0,1.463830948E0,8.701919556E0
7.094214677E1,-5.573184967E0,2.783848286E0,4.662111759E0
7.100213923E1,-1.186154842E0,-2.308740616E-1,1.941868067E0
7.106213183E1,1.129304790E1,6.897957325E0,-6.613797188E0
7.112212496E1,4.986786842E0,9.119398117E0,-2.186538696E0
7.118211816E1,-7.099928856E0,1.759403467E0,-8.336133957E-1
7.124211129E1,-1.164814711E0,1.914906502E-1,-2.193496704E1
7.130210435E1,4.577772141E0,2.959875345E0,-1.096442986E1
7.136209742E1,-9.297319412E0,3.977718115E0,-6.945019245E0
7.142208998E1,-1.545883060E0,-1.029800606E1,7.940423012E0
7.148208231E1,-9.081246257E-1,-1.077751827E1,2.369861221E1
7.154207478E1,-3.700219631E0,1.924174309E0,1.727173996E1
7.160206737E1,-8.405945778E0,3.112016201E0,1.323312569E1
7.166205984E1,-1.168578625E1,4.377679825E-1,1.026337433E1
7.172205233E1,-6.269169807E0,1.509155750E0,1.334896088E0
7.178204480E1,-1.290764809E0,3.682064295E0,-3.250168085E0
7.184203720E1,2.576795816E0,1.879881859E0,-2.514304161E0
7.190202953E1,5.319886684E0,2.044418573E0,-4.634871483E0
7.196202219E1,7.282376289E0,9.153106689E0,-2.003396606E1
7.202201469E1,1.467634201E1,7.532340050E0,-9.370900154E0
7.208200722E1,8.011436462E0,9.341859818E0,8.346014023E0
7.214200012E1,-5.122989655E0,-1.190161800E1,1.428184319E1
7.220199425E1,-5.336187363E0,-2.084786224E1,2.660674095E1
7.226198845E1,-3.308026075E0,1.142274380E0,1.517554474E1
7.232198278E1,-5.705854416E0,3.851091385E0,1.016059303E1
7.238197711E1,-2.635062218E0,2.380876541E0,8.173382759E0
7.244197111E1,8.223247528E-2,1.269159794E0,5.565508842E0
7.250196377E1,1.289277077E0,4.251109600E0,3.043778419E0
7.256195613E1,1.114677906E0,1.957644224E0,-6.996965408E-2
7.262194856E1,6.676523209E0,4.146509171E0,-5.693397522E0
7.268194110E1,1.427232552E1,3.302130699E-1,-1.524177074E1
7.274193353E1,8.892837524E0,2.693369627E0,-1.246303654E1
7.280192599E1,6.350923538E0,3.400075436E0,2.300742149E0
7.286191848E1,3.099966288E0,-3.400169849E0,1.099407578E1
7.292191092E1,1.724775791E0,-2.260368347E1,2.184065628E1
7.298190328E1,-4.592078209E0,1.088609695E-1,1.030510712E1
7.303192645E1,-5.952951908E0,2.627248287E0,6.421052933E0
7.309191904E1,-2.502395153E0,-5.566458702E-1,6.702158451E0
7.315191151E1,-4.423885345E-1,4.529127598E0,2.815006018E0
7.321190414E1,-6.787128448E-1,3.156028748E0,-2.633842230E-1
7.327189727E1,2.812477112E0,6.113190651E-1,-2.040887594E0
7.333189050E1,3.736277580E0,-2.646777630E0,-2.983946323E0
7.339188356E1,1.220103073E1,2.772577405E-1,-3.716220856E0
7.345187686E1,1.312145042E1,2.479291916E0,-1.035772133E1
7.351186989E1,1.132959557E1,2.083010674E0,-8.911720276E0
7.357186236E1,5.572449684E0,4.310259819E-1,1.193542099E1
7.363185469E1,3.184539318E0,-1.155166721E1,7.645050049E0
7.369184722E1,-5.783373356E0,-4.332912445E0,1.434284878E1
7.375183958E1,-7.107452869E0,2.467890263E0,7.136404037E0
7.381183211E1,-3.733721256E0,1.123904705E0,6.290312767E0
7.387182464E1,-8.895993233E-1,-3.702111244E-1,2.087752819E0
7.393181717E1,1.926722527E-1,-2.464281559E0,3.209648132E-1
7.399180950E1,1.901804447E0,-6.340782642E0,-1.716314316E0
7.405180183E1,-3.545897961E0,-5.257292747E0,9.550970078E0
7.411179436E1,7.024329662E0,5.178997040E0,-1.331066513E1
7.417178689E1,9.420597076E0,7.092937946E0,-1.116038704E1
7.423177939E1,1.014549828E1,6.379196167E0,-1.186636448E1
7.429177252E1,4.145089149E0,4.756327152E0,-2.345668316E0
7.435176676E1,1.774992228E0,-2.393955231E1,6.262036324E0
7.441176125E1,-1.011894703E1,-1.947249222E1,1.409674263E1
7.447175589E1,-4.529603004E0,3.637532711E0,4.454153538E0
7.453175039E1,-6.637120724E0,1.064721584E0,2.676526308E0
7.459174432E1,-3.535186291E0,-2.027069569E0,2.018671513E0
7.465173728E1,-7.621150017E-1,-6.905670166E0,-6.554937363E-2
7.471172974E1,7.146258354E0,-2.480684757E0,-4.157234669E0
7.477172211E1,4.214054108E0,7.371474504E-1,-1.076720333E1
7.483171464E1,5.930318832E-1,6.229412556E0,-7.149995804E0
7.489170710E1,5.191570282E0,2.900169849E0,-2.310773468E1
7.495169950E1,4.297383785E0,2.017230749E0,-7.999855042E0
7.501169186E1,3.173512936E0,4.133891582E0,-1.060684109E1
7.507168426E1,-2.112999439E0,-4.739553928E0,3.741292477E0
7.513167669E1,9.397755861E-1,-2.889885330E1,2.299826813E1
7.519166922E1,-6.036431313E0,-5.604327202E0,6.705965042E0
7.525166169E1,-5.119287491E0,1.748372078E0,2.712609291E0
7.531165428E1,-3.043433666E0,7.017750740E-1,3.968532085E0
7.537164708E1,-1.947519302E0,-6.200237274E-1,1.574607372E0
7.543164104E1,-3.041134357E0,1.813554764E0,7.147903442E-1
7.549163538E1,2.078767776E0,4.307326794E0,-2.947379827E0
7.555162981E1,1.286845207E-1,2.555452824E0,-5.328845501E0
7.561162407E1,5.685925484E0,3.277720213E-1,-6.529437542E0
7.567161807E1,5.411607742E0,-6.217312813E-1,-6.174232006E0
7.573161087E1,5.610560894E0,-1.238209128E0,-1.427715683E1
7.579160320E1,4.971195698E0,-9.614127874E-1,-6.341864109E0
7.585159553E1,7.333667278E0,-1.823126674E0,-7.154151917E0
7.591158799E1,5.186286926E0,-1.304638195E1,3.104152679E0
7.597158052E1,-1.224028826E0,-1.706348419E1,1.575858784E1
7.603157305E1,-2.121073961E0,-3.726911545E0,1.272804642E1
7.609156558E1,5.681872368E-2,-1.051979065E0,9.938421249E0
7.615155795E1,-1.500372410E0,-2.088515282E0,5.814740658E0
7.621155034E1,5.724587440E-1,-2.079801559E-1,3.524779797E0
7.627154274E1,1.497740746E-1,4.039017200E0,-3.119440079E-1
7.633153527E1,1.906609058E0,2.510214329E0,-5.423897743E0
7.639152774E1,3.395749331E0,-9.211568832E-1,-4.830780983E0
7.645152040E1,1.973112583E0,-2.967803001E0,-6.034677505E0
7.651151360E1,5.210256100E0,-3.846975088E0,-6.414257050E0
7.657150686E1,2.878316164E0,-5.499187946E0,-1.085949516E1
7.663149993E1,5.372159004E0,-2.731659412E0,-9.215219498E0
7.669149306E1,3.508073568E0,-2.736642838E0,-6.077798367E0
7.675148605E1,-3.911133766E0,-1.731283951E1,1.166098118E1
7.681147852E1,-3.347710848E0,-7.863903046E0,1.659119987E1
7.687147085E1,-5.422207832E0,-9.517993927E-1,1.306858635E1
7.693146338E1,-7.570038795E0,1.799531937E0,9.094882965E0
7.699145591E1,-5.173579216E0,-2.123705864E0,7.124123573E0
7.705144844E1,-3.126852512E0,-5.543067455E0,1.523983479E0
7.711144094E1,2.062634945E0,-4.296473503E0,-3.437088251E0
7.717143340E1,2.879811525E0,-1.710248470E0,-6.002985954E0
7.723142573E1,4.414105892E0,1.500799298E0,-5.862654209E0
7.729141823E1,5.258379459E0,2.050679922E0,-1.079297256E1
7.735141076E1,1.433815765E1,5.243620872E0,-9.938027382E0
7.741140319E1,4.836702347E0,4.365731239E0,-7.292132378E-1
7.747139569E1,5.902865410E0,-2.394257545E0,-5.560476780E-1
7.753138892E1,1.763523817E-1,-2.620376968E1,1.934453011E1
7.759138305E1,-6.045625687E0,-6.810848236E0,7.047260761E0
7.765137731E1,-6.611597538E0,2.674322128E-1,6.163984299E0
7.771137171E1,-7.707927227E0,2.478736877E0,6.611835480E0
7.777136601E1,-4.869971752E0,2.638324261E0,2.485956669E0
7.783135964E1,2.922418118E0,4.558004379E0,4.676675797E-1
7.789135214E1,5.430622101E0,4.875854969E0,-2.783893108E0
7.795134454E1,5.596687794E-1,6.171603203E-1,-6.419475555E0
7.801133690E1,-6.412529945E-1,-8.797063828E-1,-8.738098145E0
7.807132953E1,5.091307640E0,4.756412983E0,-1.546155739E1
7.813132199E1,3.260207176E-1,5.941091537E0,-7.197446823E0
7.819131452E1,1.219098330E0,1.770082474E0,1.635018826E0
7.825130699E1,1.316555381E0,-1.956588364E1,1.961563492E1
7.831129948E1,-7.208392143E0,-6.594832420E0,9.973596573E0
7.837129172E1,-5.633408546E0,-1.135196686E-1,9.492541313E0
7.843128418E1,-4.659649849E0,-3.291883469E-1,5.412811279E0
7.849127671E1,-2.940561771E0,-6.509084702E-1,1.058674335E0
7.855126924E1,-3.298390865E0,-3.647093773E0,-2.072406292E0
7.861126197E1,3.747085571E0,-1.508022308E0,-4.971901894E0
7.867125540E1,4.471607208E0,4.164390564E0,-8.684221268E0
7.873124860E1,-3.839613438E0,7.864980698E0,3.669795990E0
7.879124173E1,1.671507835E1,1.033724976E1,-2.332991409E1
7.885123486E1,5.373810291E0,4.325936794E0,-4.152442932E0
7.891122763E1,-3.322728395E0,-1.337513924E1,2.376157284E0
7.897121986E1,-1.402080059E1,-3.263536453E1,1.328054333E1
7.903121225E1,-5.024912834E0,-2.704820633E-1,4.006075859E0
7.909120478E1,-5.621319771E0,-1.097785950E0,2.827593327E0
7.915119725E1,-4.965945244E0,4.749336243E-1,9.969663620E-1
7.921118988E1,-4.934371948E0,6.488561630E-2,-2.928356171E0
7.927118234E1,-3.976230621E-1,4.048666954E-1,-4.011830330E0
7.933117480E1,-2.954084396E0,-3.150702000E0,-3.167514801E-1
7.939116707E1,-1.362690926E-1,2.589627028E0,-1.321190929E1
7.945115966E1,1.441094589E1,4.168084145E0,-2.182958603E1
7.951115213E1,8.499197006E0,4.685563564E0,-1.938502502E1
7.957114473E1,3.840541601E0,3.106035709E0,-7.577361584E0
7.963113722E1,-3.081821442E0,-9.601655006E0,7.966219425E0
7.969113092E1,-9.799680710E0,-2.681194687E1,1.413492870E1
7.975112522E1,-8.660613060E0,-3.479986191E0,4.062095165E0
7.981111982E1,-7.486075401E0,1.581714630E0,3.411531448E0
7.987111428E1,-3.494359970E0,-8.486690521E-1,1.735211372E0
7.993110878E1,-6.878218651E0,-3.279649734E0,-3.083326340E0
7.999110218E1,-5.714844704E0,-4.499581337E0,-5.370892525E0
8.005109468E1,-1.268286705E-1,-3.138807058E0,-7.802489281E0
8.011108708E1,5.434751511E-2,-3.186976910E-1,-8.864258766E0
8.017107967E1,7.528091908E0,3.864030838E0,-1.459569359E1
8.023107217E1,9.432313919E0,5.952285290E0,-1.333750916E1
8.029103874E1,-8.949439526E-1,-1.018122911E0,-4.438323498E0
8.035103127E1,-2.041192293E0,6.901412964E0,2.164859772E-1
8.041102374E1,-7.452659011E-1,-7.649218082E0,5.748986244E0
8.047101603E1,-1.198753929E1,-8.318843842E0,1.117170143E1
8.053100860E1,-1.409941292E1,-1.299592018E0,1.911284447E0
8.059100119E1,-6.845976353E0,9.575467110E-1,3.862075329E0
8.065099372E1,-6.515454292E0,-1.802865505E0,-3.202290058E0
8.071098625E1,-3.791454315E0,-4.644355297E0,-4.516207695E0
8.077097952E1,-3.065488338E-1,-5.866448402E0,-6.291261673E0
8.083097368E1,2.156931400E0,6.955484152E-1,-2.069727135E1
8.089096795E1,1.029622936E1,5.678936005E0,-3.004863739E1
8.095096228E1,1.038873386E1,1.195314312E1,-1.180510902E1
8.101095648E1,2.242772102E0,1.258517075E1,-8.839751244E0
8.107095004E1,-4.956284523E0,-4.986992836E0,1.228152847E1
8.113094250E1,-1.216398621E1,-3.336066818E1,1.764841843E1
8.119093487E1,-9.067893028E0,-4.950948715E0,1.354184866E0
8.125092733E1,-3.926254272E0,7.162036896E-1,2.882476568E0
8.131091993E1,-6.093828201E0,1.324696541E0,7.999664307E0
8.137091239E1,-1.084669781E1,2.400027752E0,4.324730873E0
8.143090496E1,-1.207430649E1,1.720234680E1,3.337828636E0
8.149089739E1,-1.978554726E-1,8.006746292E0,-5.017199039E0
8.155088975E1,-2.510128021E0,-3.748226881E0,-2.359658718E0
8.161088205E1,6.445211887E0,-1.760110855E0,-1.838794136E1
8.167087465E1,6.702800274E0,-2.189441681E0,-8.117577553E0
8.173086711E1,6.315086365E0,6.071071625E0,-7.108406544E0
8.179085964E1,5.050940037E0,-4.409497261E0,-1.602809429E0
8.185085244E1,-1.319532394E-1,-2.197522736E1,2.532503319E1
8.191084574E1,-4.964580059E0,-6.000100136E0,1.855227852E1
8.197083883E1,-9.873127937E0,1.382142067E0,1.608019066E1
8.203083206E1,-8.742144585E0,5.163628101E0,1.005086803E1
8.209082519E1,-6.424875259E0,7.327271461E0,7.402237892E0
8.215081803E1,-1.120538330E1,1.913513184E0,-1.695835352E0
8.221081036E1,5.329971313E0,2.518475771E0,-6.053704739E0
8.227080272E1,6.168796062E0,-2.668122768E0,8.924639702E0
8.233079515E1,1.032684326E1,-7.222337723E-1,-1.695355415E1
8.239078768E1,9.763198853E0,1.838212013E-1,-1.518223572E1
8.245078021E1,2.707217932E0,-7.779998779E-1,1.712931395E-1
8.251077271E1,2.082250118E0,-8.927508354E0,-1.540288925E0
8.257076517E1,-6.403859138E0,-2.833878136E1,2.150879860E1
8.263075744E1,-1.570324230E1,-1.528068829E1,1.152789116E1
8.269074993E1,-2.560125542E1,4.043351173E0,9.118402004E-1
8.275074240E1,-1.973505402E1,-1.298318386E0,6.572049618E0
8.281073496E1,-1.505841446E1,6.352812767E0,4.315165997E0
8.287072749E1,-8.266789436E0,1.022259712E0,-2.736308575E-1
8.293072132E1,-3.873642206E0,-2.168663025E0,-2.915120602E0
8.299071569E1,-7.418030500E-1,-1.235404491E0,-2.891650200E-1
8.305071026E1,3.865986347E0,8.259725571E0,-1.763254166E1
8.311070472E1,9.860898256E-1,1.376444817E1,-1.534369850E1
8.317069925E1,6.995929480E-1,8.618986130E0,2.115074635E0
8.323069248E1,-6.739953041E0,-9.976367950E-1,1.835830116E1
8.329068495E1,-1.924060440E1,-2.804337692E1,2.314452553E1
8.335067745E1,-1.373460197E1,-4.508860111E0,1.224123287E1
8.341066998E1,-8.537570953E0,3.883562088E-1,1.029877090E1
8.347066244E1,-4.564498425E0,1.639690876E0,1.144074440E1
8.353065500E1,-4.815125465E0,6.725234985E-1,1.107616043E1
8.359064754E1,-2.669118881E0,2.255718708E0,2.716172218E0
8.365063987E1,1.233084488E1,1.264107323E1,-3.012642860E-1
8.371063223E1,7.098050117E0,9.458779335E0,-2.376837540E1
8.377062469E1,8.107940674E0,1.370529652E1,-9.222619534E-1
8.383061719E1,1.885994434E0,9.498456001E0,4.202847481E0
8.389060972E1,-1.045817661E1,-5.550799370E0,6.400257111E0
8.395060225E1,-1.814261818E1,-2.128466225E1,2.118546486E1
8.401059561E1,-1.419829559E1,-1.085322762E1,1.313318634E1
8.407058988E1,-1.246785736E1,1.674143314E0,8.696908951E0
8.413058414E1,-1.098805141E1,3.102017879E0,8.255083084E0
8.419057847E1,-4.887872219E0,5.553137302E0,3.407470703E0
8.425057274E1,-4.836464524E-1,1.720735550E0,-4.800645113E-1
8.431056620E1,-1.082389355E-1,5.451605797E0,-1.272180843E1
8.437055860E1,1.186143112E1,1.178621197E1,-1.334998989E1
8.443055103E1,7.188821316E0,1.233579445E1,7.531034946E-1
8.449054349E1,-4.949820518E0,-7.990507126E0,1.493157673E1
8.455053602E1,-9.322851181E0,-2.707079887E1,2.187700653E1
8.461052849E1,-1.382775879E1,-7.434019089E0,9.870019913E0
8.467052108E1,-1.377213860E1,-2.053063393E0,6.871051311E0
8.473051351E1,-1.255358315E1,2.243916035E0,5.415396214E0
8.479050584E1,-6.786634922E0,1.798906326E0,-2.246376276E-1
8.485049831E1,1.620675087E0,3.425103664E0,-4.182556152E0
8.491049084E1,1.698719740E0,1.742505264E1,-3.993363380E-1
8.497048330E1,-7.305442810E0,2.179158974E1,-2.052851677E1
8.503047587E1,-2.216197729E0,1.009473419E1,1.199002457E1
8.509046880E1,-1.358980942E1,-4.778152084E1,8.038788795E0
8.515046200E1,-1.596655083E1,-2.158221817E1,-4.884076595E0
8.521045513E1,-8.351993561E0,-1.183586502E1,6.586603642E0
8.527044819E1,-8.203888893E0,1.116705418E0,9.218842506E0
8.533044129E1,-1.312063408E1,1.045633698E1,3.115409613E-1
8.539043402E1,-5.095547676E0,8.350524902E0,2.404201269E0
8.545042642E1,-4.261815071E0,1.026360512E0,8.904123306E0
8.551041895E1,5.705402374E0,2.046969604E1,-1.885252762E1
8.557041154E1,6.539783478E-1,8.841797829E0,1.252205133E0
8.563040401E1,-7.800488472E0,-7.087979317E0,1.826560736E0
8.569039654E1,-1.384264183E1,-1.513204575E1,1.545191097E1
8.575038900E1,-1.083213902E1,-2.060720444E0,4.981725216E0
8.581038133E1,-8.320602417E0,1.191930771E0,2.367721558E0
8.587037366E1,-3.402547359E0,4.190876961E0,1.095429897E0
8.593036626E1,1.520452619E0,3.346913815E0,3.865706444E0
8.599035872E1,4.111027241E0,4.091623783E0,-5.291048050E0
8.605035125E1,-1.648399353E1,3.600383997E0,-3.460743904E0
8.611034392E1,3.037454605E0,1.194688034E1,-4.335429192E0
8.617033778E1,-8.893316984E-1,2.107134819E0,5.879557610E0
8.623033205E1,-1.534056187E1,-1.567323780E1,1.659253120E1
8.629032664E1,-1.078166676E1,-3.453840256E0,8.894614220E0
8.635032091E1,-7.072397709E0,3.301671505E0,6.623990059E0
8.641031504E1,-8.128705978E0,3.448754311E0,2.756149292E0
8.647030797E1,4.524881840E-1,3.946864128E0,1.243549585E0
8.653030037E1,1.119787216E0,2.606341839E0,-1.433464527E0
8.659029250E1,3.172119141E0,6.526426792E0,-1.645925331E1
8.665028503E1,2.039926338E1,2.079659271E1,-1.513190269E1
8.671027756E1,8.132276535E0,1.067462540E1,4.335105896E0
8.677027009E1,4.362700939E0,-1.715967941E1,1.133810520E0
8.683026255E1,-1.779150009E1,-1.531807327E1,1.176585579E1
8.689025502E1,-1.279273987E1,-1.872052193E0,5.983788490E0
8.695024735E1,-9.974441528E0,1.935008049E0,5.263450623E0
8.701023978E1,-6.644690990E0,6.558424473E0,1.542206049E0
8.707023234E1,-4.836571217E0,5.390147209E0,-3.747442722E0
8.713022481E1,2.192983627E0,2.626267433E0,-3.939837933E0
8.719021740E1,4.573950291E0,3.411613941E0,-3.126005411E0
8.725021057E1,-1.891538858E0,3.614482164E0,4.103870392E-1
8.731020380E1,5.832242012E0,4.935811043E0,-1.340725231E1
8.737019683E1,7.957391739E0,6.082307339E0,-9.105831146E0
8.743019003E1,-1.997194409E0,-1.036515141E1,9.035243034E0
8.749018302E1,-8.271088600E0,-1.460784912E1,2.258810234E1
8.755011424E1,-1.076760197E1,-3.715788841E0,9.182651520E0
8.761010657E1,-7.313800335E0,5.906835556E0,7.434729099E0
8.767009916E1,-4.943915844E0,2.457939625E0,7.154246807E0
8.773009163E1,-2.339587212E0,9.093604088E-1,2.856592178E0
8.779008422E1,1.792775154E0,-1.009864330E0,-2.075819969E0
8.785007665E1,2.753927946E0,3.626991510E0,-2.308684587E0
8.791006912E1,9.948365211E0,7.632150173E0,-1.174857140E1
8.797006138E1,2.225115395E1,7.919919491E0,-1.327554703E1
8.803005385E1,1.316430330E0,1.057097340E1,8.425073624E0
8.809004634E1,7.415518284E0,-8.409352303E0,-8.555310249E0
8.815003887E1,-4.954797268E0,-1.816873360E1,1.763788414E1
8.821003140E1,-4.664488792E0,-2.604585648E0,7.881700039E0
8.827002434E1,-5.920783997E0,3.678522110E-1,9.543449402E0
8.833001837E1,-5.660216331E0,2.218225956E0,9.274131775E0
8.839001266E1,-6.528351784E0,-4.651207924E0,1.581209898E0
8.845000699E1,-3.023536444E0,-2.541516304E0,-6.278965950E0
8.851000132E1,3.906518459E0,4.909272194E0,-9.699163437E0
8.856999525E1,1.229157829E1,3.608533621E0,-1.072270870E1
8.862998788E1,8.554405212E0,7.071561813E0,-9.848604202E0
8.868998022E1,4.629637241E0,4.389975548E0,-1.225613403E1
8.874997268E1,7.947248459E0,-2.632070541E0,-1.000791311E0
8.880996521E1,-7.132169724E0,-2.585770607E1,2.316556549E1
8.886995767E1,-1.422131348E1,-1.072228050E1,9.440889359E0
8.892995027E1,-1.508855820E1,2.066847324E0,3.981407166E0
8.898994273E1,-1.156023979E1,2.923731327E0,4.724224091E0
8.904993513E1,-7.375831604E0,4.870173931E0,1.980996370E0
8.910992740E1,-1.741244793E0,3.517042637E0,1.761337280E0
8.916991996E1,1.658914328E0,-1.133251190E-2,-2.261243582E0
8.922991242E1,-3.458776712E0,-6.771154404E-1,-4.598834991E0
8.928990502E1,8.159623146E0,6.655392170E0,-1.563688183E1
8.934989762E1,1.105493069E0,1.098261452E1,-3.558897018E0
8.940989095E1,1.331029058E0,1.070754719E1,-2.776536942E-1
8.946988405E1,-5.815994263E0,-7.375850677E0,1.126110744E1
8.952987724E1,-1.518770027E1,-2.506448364E1,2.181311989E1
8.958987034E1,-8.655869484E0,-1.219362259E0,7.602006912E0
8.964986337E1,-9.873004913E0,4.441997528E0,2.580411911E0
8.970985570E1,-4.920712471E0,4.876505852E0,6.644046307E-1
8.976984807E1,-3.857494354E0,3.771692753E0,1.095923424E0
8.982984053E1,-4.750415802E0,6.797461033E0,-2.598882675E0
8.988983303E1,-2.792561054E0,6.269472599E0,-6.794639587E0
8.994982552E1,-5.272922516E-1,4.873109818E0,-2.175557375E0
9.000981805E1,1.032298660E1,1.640350699E0,-1.624838638E1
9.006981055E1,1.461987782E1,1.068702936E0,-1.757706261E1
9.012980282E1,2.170614719E0,1.917350292E0,4.218101501E-1
9.018979545E1,3.674371243E0,-1.966567230E1,1.133078456E0
9.024978798E1,-1.563861370E-1,-1.996817017E1,2.442856216E1
9.030978051E1,-5.956279755E0,-2.601199150E0,9.282548904E0
9.036977297E1,-5.409720421E0,4.252959728E0,9.606893539E0
9.042976644E1,-2.824847221E0,-5.221195221E-1,1.195462894E1
9.048976053E1,-3.029271603E0,-2.813119888E-1,5.704595566E0
9.054975507E1,9.959349632E-1,3.749985218E0,7.738039494E-1
9.060974963E1,1.312320709E0,5.688738346E0,-1.120671272E0
9.066974423E1,4.862834930E0,2.350491047E0,-3.896170855E0
9.072973783E1,2.372429657E1,1.627477050E0,-1.615166664E1
9.078973050E1,9.765291214E0,1.515634537E0,-4.247152328E0
9.084972289E1,1.060703659E1,1.639423370E-1,-6.089364052E0
9.090971539E1,9.438079834E0,-2.501449585E1,1.178437614E1
9.096970795E1,-7.942436337E-1,-1.767379379E1,1.974588394E1
9.102970055E1,-1.251168060E1,-4.810658455E0,9.157857895E0
9.108969305E1,-1.691881180E1,6.777093887E0,5.399628639E0
9.114968551E1,-1.263887119E1,2.097824574E0,4.487141132E0
9.120967777E1,-7.067391872E0,5.584454536E0,3.342131376E0
9.126967020E1,3.689171791E0,7.974279404E0,5.576817989E-1
9.132966267E1,4.210103989E0,4.133761406E0,3.733410835E-1
9.138965523E1,7.338931561E-1,-1.255252838E0,8.270790100E0
9.144964770E1,5.779268265E0,3.461351395E-1,-1.739160728E1
9.150964076E1,4.934877396E0,4.620659351E0,-1.089704323E1
9.156963482E1,1.596903801E-2,2.543546200E0,-7.858333588E-1
9.162962915E1,6.050240040E0,-1.693622780E1,1.272612858E1
9.168962345E1,-5.514436722E0,-1.023029709E1,2.040991974E1
9.174961778E1,-1.089213657E1,8.367376328E-1,1.665952301E1
9.180961158E1,-1.343854618E1,1.599485397E0,1.129068947E1
9.186960418E1,-1.009875107E1,1.184535980E0,1.051922131E1
9.192959651E1,-4.478276730E0,1.991437435E0,4.063972950E0
9.198958894E1,-3.419983387E0,-3.503632545E0,-1.092479706E0
9.204958147E1,-3.805317879E0,-2.860609055E0,-6.841139793E0
9.210957400E1,1.067212105E0,8.440581322E0,-7.884762287E0
9.216956653E1,1.551899910E1,1.679226685E1,-1.018703651E1
9.222955899E1,8.315276146E0,1.612869072E1,-9.352235794E0
9.228955139E1,1.564151287E0,1.292129326E1,7.433536053E0
9.234954369E1,1.649818420E-1,-1.076280594E1,7.227029800E0
9.240953622E1,-7.770354748E0,-2.798846054E1,1.716862869E1
9.246952868E1,-1.432012177E1,-8.609822273E0,-5.419004560E-1
9.252952128E1,-1.230948830E1,-1.479735851E0,3.322518349E0
9.258951391E1,-1.356213093E1,1.709058762E0,3.199690580E0
9.264950727E1,-4.527358532E0,2.516196251E0,-1.662548780E0
9.270950034E1,-1.949633598E0,7.756188869E0,-5.118402958E0
9.276949357E1,-4.116641998E0,1.034755707E1,-1.082706451E0
9.282948663E1,5.164307117E0,8.523284912E0,-1.565938950E1
9.288947966E1,1.682517827E-1,1.342859554E1,-1.954200363E1
9.294947206E1,-5.137605190E0,5.146703720E0,4.403245449E0
9.300946449E1,-6.227730274E0,-2.564339447E1,7.651192188E0
9.306945692E1,-6.323567390E0,-1.927679253E1,2.439403915E1
9.312944948E1,-1.048532963E1,-2.344286919E0,1.273677349E1
9.318944195E1,-1.117768574E1,-1.904487610E-3,9.747017860E0
9.324943435E1,-5.609421730E0,-1.520627022E0,6.533473969E0
9.330942681E1,-4.870474815E0,-1.056670189E0,3.518214941E0
9.336941914E1,-1.479745865E0,8.952236176E-1,-8.732608557E-1
9.342941164E1,4.983407497E0,5.669047356E0,-2.826435089E0
9.348940414E1,1.597208786E1,1.398381424E1,-1.373207951E1
9.354939666E1,1.239781380E1,9.710863113E0,-1.165191269E1
9.360938920E1,-2.640706062E0,-6.974649429E-1,5.162677765E0
9.366938273E1,3.496611118E-2,-2.046221924E1,1.359985542E1
9.372937696E1,-6.111972332E0,-2.380856705E1,2.682868958E1
9.378937153E1,-7.886083603E0,-6.309959412E0,1.802281570E1
9.384936599E1,-9.784983635E0,5.783143044E-1,1.273556519E1
9.390936049E1,-8.804203987E0,1.532320976E0,1.069453812E1
9.396935396E1,-5.724475861E0,4.173961163E0,3.660298109E0
9.402934659E1,-8.677029610E-2,4.260798931E0,3.654684544E0
9.408933902E1,2.416056156E0,4.316257477E0,-9.095997810E-1
9.414933168E1,-1.089260101E0,3.589903831E0,-5.529289722E0
9.420932415E1,8.161342621E0,8.644838333E0,-1.780436325E1
9.426931668E1,3.689914703E0,5.198758125E0,1.356138229E0
9.432930914E1,-2.161838770E0,-5.255179405E0,5.855589867E0
9.438930157E1,-1.232005978E1,-3.185724831E1,2.148336411E1
9.444929377E1,-1.389842224E1,-6.572853565E0,1.688831902E1
9.450928630E1,-1.505383492E1,-7.052726746E-1,1.151741028E1
9.456927886E1,-1.411189842E1,-1.047496796E-1,1.037727165E1
9.462927139E1,-8.495624542E0,-1.326036453E-1,6.664207935E0
9.468926386E1,-3.321092606E0,-1.894175529E0,1.538199186E0
9.474925722E1,1.025602579E0,1.916975021E0,-7.429027557E-2
9.479934573E1,2.558434606E-1,4.849221230E0,-5.827535629E0
9.485934003E1,-9.950130463E0,8.063112259E0,-8.064056396E0
9.491933453E1,2.998676300E-1,1.437896919E1,-1.266957569E1
9.497932879E1,-1.137464142E1,5.690551758E0,7.318175316E0
9.503932255E1,-1.389725494E1,-9.956447601E0,9.021304131E0
9.509931512E1,-1.818241310E1,-1.463123512E1,2.174685097E1
9.515930748E1,-1.227431774E1,1.476966381E0,1.311216927E1
9.521929978E1,-1.661816788E1,4.199527264E0,5.590498924E0
9.527929238E1,-1.211288452E1,4.657904148E0,1.286381841E0
9.533928484E1,-7.644605637E0,5.521918297E0,-1.122422814E0
9.539927744E1,-5.438598156E0,-2.811404228E0,-2.999686718E0
9.545926987E1,-2.533730745E0,-2.968772888E0,-2.366749763E0
9.551926220E1,1.114946127E0,8.371477127E0,-7.788072586E0
9.557925450E1,1.285290527E1,1.219539833E1,-1.276119041E1
9.563924713E1,4.129115582E0,1.325456524E1,-1.340069175E0
9.569923959E1,8.463426828E-1,6.632764816E0,7.938872814E0
9.575923212E1,-7.073885918E0,-2.242933464E1,1.869781303E1
9.581922478E1,-9.741344452E0,-8.496854782E0,1.723181915E1
9.587921808E1,-8.529976845E0,3.776200771E0,1.313529396E1
9.593921111E1,-7.916916847E0,3.833347797E0,9.495128632E0
9.599920431E1,-5.321107864E0,1.827156544E0,5.886426926E0
9.605919744E1,-4.347452641E0,-2.955951691E0,1.209385633E0
9.611919057E1,2.035098076E-1,-2.779207706E0,-3.401293516E0
9.617918290E1,6.204066753E0,6.572541714E0,-1.066807461E1
9.623917543E1,1.664645672E0,1.326907158E1,7.928948879E0
9.629916790E1,1.573531151E1,1.325301170E1,-5.502695560E0
9.635916043E1,4.321334362E0,1.684879780E0,1.921418905E-1
9.641915282E1,-1.058411789E1,-3.255358505E1,2.867221451E1
9.647914535E1,-8.552381516E0,-1.281867123E1,1.868727303E1
9.653913768E1,-9.266303062E0,2.266760826E0,1.261736488E1
9.659912998E1,-7.285766125E0,1.700891972E0,1.356404495E1
9.665912251E1,-7.236521244E0,3.400568962E0,6.739595890E0
9.671911504E1,1.113522053E-1,5.248086452E0,6.604955673E0
9.677910757E1,3.084071159E0,8.272196770E0,5.084911823E0
9.683910004E1,2.707051754E0,6.084106922E0,-5.650343895E0
9.689909340E1,-2.160756111E0,5.628062725E0,-1.064065361E1
9.695908756E1,9.960176468E0,-9.567656517E-1,-1.627465439E1
9.701908189E1,5.929183006E0,4.352109432E0,-1.032353973E1
9.707907616E1,-7.673296452E0,-5.059127808E0,2.855886459E0
9.713907055E1,1.110230160E1,-2.484085083E1,2.419434929E1
9.719906402E1,-3.141387224E0,-7.039445400E0,1.842121124E1
9.725905652E1,-1.002980804E1,-3.048969269E0,1.480141830E1
9.731904881E1,-1.328859520E1,-1.646708488E0,1.451847458E1
9.737904134E1,-1.083113480E1,2.751431465E0,3.636239052E0
9.743903381E1,-4.394974232E0,2.316029072E0,4.559547901E0
9.749902640E1,6.520293236E0,5.476278305E0,-6.686067581E-2
9.755901887E1,9.337981939E-1,4.205856800E0,2.900318623E0
9.761901136E1,4.686418056E0,6.763985157E0,-1.616560173E1
9.767900373E1,1.841537595E0,9.222572327E0,-8.650377274E0
9.773899609E1,1.056382656E0,1.035123634E1,-8.124282837E0
9.779898856E1,-4.466362953E0,2.437869072E0,7.547934532E0
9.785898109E1,-1.237997723E1,-1.438157463E1,2.515987587E1
9.791897362E1,-1.032885742E1,1.807191849E0,1.611619377E1
9.797896645E1,-1.069666481E1,5.264034271E0,9.488219261E0
9.803895975E1,-8.582750320E0,2.893839359E0,5.094336987E0
9.809895284E1,-5.727622986E0,3.444153786E0,-7.714483738E-1
9.815894597E1,-1.472337246E0,-1.502874374E0,-2.109599113E0
9.821893910E1,-1.362495899E0,-6.588449478E0,-3.332823277E0
9.827893190E1,-1.310975456E1,-3.135562897E0,2.813710022E1
9.833892417E1,7.242055893E0,1.747608566E1,-1.744647789E1
9.839891666E1,5.560545921E0,1.362157059E1,-5.206929207E0
9.845890913E1,2.293187618E0,1.164068127E1,6.890461922E0
9.851890166E1,-4.582613468E0,-9.202391624E0,8.389305115E0
9.857889412E1,-7.243741989E0,-1.977634430E1,2.100201988E1
9.863888688E1,-2.721238613E0,1.358930588E0,9.435544968E0
9.869887922E1,-2.368439198E0,3.740055084E0,7.596093178E0
9.875887165E1,-1.441312790E0,1.303902149E0,4.623003006E0
9.881886411E1,1.377809048E0,3.423731804E0,4.499375343E0
9.887885664E1,4.788247108E0,7.281000137E0,2.881295204E0
9.893884894E1,5.320692539E0,2.392889977E0,-3.450331688E0
9.899884160E1,9.182152748E-1,-6.478072166E0,-8.366847038E0
9.905883534E1,8.934699059E0,-1.145970821E0,-2.280205536E1
9.911882970E1,9.952705383E0,2.977254391E0,1.943421364E-1
9.917882403E1,7.686712742E-1,-3.495552063E0,6.260711670E0
9.923881853E1,-3.229387283E0,-2.219667625E1,2.407594681E1
9.929881276E1,-4.885876656E0,-6.426677704E-1,1.639973450E1
9.935880579E1,-7.446603298E0,6.329431534E-1,1.207795715E1
9.941879809E1,-3.292185068E0,5.564880371E-1,7.087736607E0
9.947879045E1,-2.043817997E0,1.745643139E0,1.951575994E0
9.953878282E1,1.105295658E0,1.139329910E0,1.792312860E0
9.959877525E1,2.440182209E0,2.890911102E-1,-9.707491398E-1
9.965876778E1,1.781832457E0,5.383052826E-1,5.843348503E-1
9.971876030E1,1.500563335E1,1.444200516E1,-2.025019836E1
9.977875280E1,1.149942780E1,1.153129101E1,-3.337798357E0
9.983874507E1,-9.521098137E-1,7.592832088E0,2.781711817E0
9.989873756E1,-2.178642750E0,-2.860499573E1,1.317968369E1
9.995873003E1,-5.131369591E0,-1.202850914E1,1.429470253E1
1.000187226E2,-8.074050903E0,-2.070414543E0,6.760737419E0
1.000787151E2,-8.144933701E0,2.303429127E0,5.697205067E0
1.001387082E2,-8.205409050E0,1.087871552E0,5.214169502E0
1.001987014E2,-2.607052326E0,2.290282726E0,1.493727207E0
1.002586947E2,-6.841783524E-1,2.123868942E0,-2.017831802E-1
1.003186877E2,-2.491991520E-1,4.231211662E0,-5.053746223E0
1.003786808E2,4.890482903E0,8.803236008E0,-6.564334869E0
1.004386733E2,5.474057198E0,1.151649284E1,-1.513392448E1
1.004986657E2,8.802715302E0,1.226857662E1,-1.295845604E1
1.005586581E2,3.546103954E0,5.606955528E0,5.082366467E0
1.006186506E2,-6.564586163E0,-3.724245453E1,2.440192032E1
1.006786432E2,-6.030888557E0,-1.130506802E1,1.026565456E1
1.007386358E2,-6.378696918E0,-3.987026215E-1,8.647728920E0
1.007986282E2,-2.946270227E0,2.311270237E0,5.638600349E0
1.008586206E2,-2.565705299E0,4.620042324E0,2.669274807E0
1.009186129E2,1.501249552E0,6.697748661E0,-2.232765675E0
1.009786054E2,3.126269102E0,7.180736542E0,-2.784035683E0
1.010385980E2,-1.647572517E-1,3.965755939E0,-6.613745213E0
1.010985906E2,1.139721489E1,1.353515434E1,-2.170249557E1
1.011585835E2,6.951976776E0,5.904787064E0,-6.630713463E0
1.012185776E2,2.998191118E0,-9.844164848E-1,1.566761255E0
1.012785721E2,-3.124047756E0,-2.608633423E1,2.405780792E1
1.013385665E2,-3.069240808E0,-3.567943573E0,1.351466084E1
1.013985610E2,-2.082350731E0,-2.155904770E-1,9.255372047E0
1.014585552E2,1.194206238E0,3.851757050E-1,5.446472645E0
1.015185482E2,-2.072334290E-3,1.177970409E0,2.681632757E0
1.015785406E2,1.829098701E0,4.354619980E0,-2.658544540E0
1.016385331E2,2.703418255E0,4.361968040E0,-3.367643356E-1
1.016985255E2,3.815774918E0,7.726165771E0,-1.283537292E1
1.017585181E2,2.412215424E1,6.615350246E0,-1.999975395E1
1.018185105E2,8.215325356E0,4.663326263E0,1.976588488E0
1.018785030E2,4.060728550E0,-8.140644073E0,-3.634226322E-1
1.019384953E2,3.663506269E0,-3.065794373E1,2.880912590E1
1.019984878E2,-2.049985409E0,-4.890511513E0,8.958809853E0
1.020584802E2,-3.092385292E0,3.013181210E0,8.969223022E0
1.021183989E2,-2.001142502E0,1.186799049E0,1.043730831E1
1.021783913E2,-1.542087555E0,-2.461095810E0,4.097345352E0
1.022383840E2,5.348801613E0,-6.292315483E0,-8.146173954E-1
1.022983778E2,1.075357628E1,-1.500231981E0,-6.277813911E-1
1.023583722E2,1.471666145E1,8.128452301E0,-1.290957546E1
1.024183664E2,2.346372604E1,5.340196609E0,-1.792412567E1
1.024783607E2,7.212025642E0,-7.442998409E0,1.636213303E1
1.025383549E2,1.490262794E1,-6.218931675E0,-5.717950821E0
1.025983478E2,-2.491949463E1,-2.044559288E1,1.021297264E1
1.026583401E2,-2.311572552E0,2.814483643E-2,1.793799400E1
1.027183326E2,2.765347004E0,-3.756144524E0,1.454470253E1
1.027783251E2,-1.403802872E0,7.288169861E-1,8.629544258E0
1.028383177E2,-1.790325880E0,-2.255311012E0,3.700759888E0
1.028983102E2,5.722888470E0,5.505797386E0,4.627389908E-1
1.029583027E2,-1.827377081E0,-6.100225449E-2,2.114068604E1
1.030182950E2,-8.978554726E0,-5.587854385E0,-1.950152397E1
1.030782874E2,9.353607178E0,4.257019997E0,-2.174963570E1
1.031382798E2,6.462508202E0,1.036022663E1,-1.893979788E0
1.031982722E2,2.493914604E0,1.210128212E1,-1.725128055E0
1.032582648E2,2.806306362E0,-2.404387093E1,1.891670036E1
1.033182573E2,-6.967469215E0,-6.595731735E0,1.944404984E1
1.033782505E2,-4.499175072E0,3.987875938E0,1.223327255E1
1.034382437E2,-7.095184326E-1,5.071010590E-1,1.071539688E1
1.034982369E2,-2.059455872E0,2.090058327E-1,6.358013630E0
1.035582299E2,1.350958824E0,-2.401352406E0,5.756222725E0
1.036182231E2,5.980547428E0,1.281445980E0,4.319896698E0
1.036782155E2,1.276567364E1,1.400954628E1,2.373562336E0
1.037382079E2,1.325087357E1,8.687740326E0,-2.210157776E1
1.037982004E2,7.673694134E0,1.007041931E1,4.560925961E0
1.038581930E2,5.945589066E0,9.466976166E0,4.681238532E-1
1.039181856E2,-1.345031357E1,-2.299899673E1,3.920174360E0
1.039781781E2,-9.260684013E0,-1.900183105E1,1.910439873E1
1.040381706E2,-7.531832695E0,-7.596138954E0,1.084779930E1
1.040981629E2,-7.672459602E0,2.614197731E0,5.990792751E0
1.041581552E2,-3.715494156E0,2.701956749E0,5.872800827E0
1.042181477E2,8.893942833E-1,1.869498730E0,5.026471615E0
1.042781402E2,6.107203484E0,3.658586025E0,1.550307274E0
1.043381328E2,3.869139194E0,1.067082310E1,-2.309714317E0
1.043981258E2,8.897216797E0,1.024900532E1,-1.626872063E1
1.044581200E2,5.270296097E0,9.680536270E0,6.290411949E-2
1.045181142E2,-2.173962593E-1,-3.315639496E-1,5.167698383E0
1.045781086E2,-1.333731270E1,-3.500345230E1,2.134691429E1
1.046381029E2,-5.523836136E0,-5.313906670E0,1.369969177E1
1.046980967E2,-5.866999626E0,1.244112968E0,8.251640320E0
1.047580893E2,-5.440948009E0,1.883948803E0,9.696830750E0
1.048180816E2,-3.239573002E0,1.797468185E0,6.266015053E0
1.048780741E2,3.990854502E0,5.911073685E0,6.032564163E0
1.049380666E2,5.049670219E0,5.396411896E0,5.841329575E0
1.049980591E2,-2.306855679E0,2.966208458E0,-2.810320854E-1
1.050580516E2,8.535852432E0,2.396664143E0,-1.523167896E1
1.051180441E2,1.149204922E1,3.491954803E-1,-9.782064438E0
1.051780365E2,2.622367382E0,3.410867453E0,-2.436024904E0
1.052380288E2,7.481093407E0,-7.207947731E0,9.543673992E-1
1.052980212E2,-2.708849192E0,-1.870127487E1,2.488530540E1
1.053580138E2,-5.015384197E0,-5.934295654E-1,1.404133129E1
1.054180062E2,-5.665231705E0,3.569155216E0,1.048984718E1
1.054779989E2,-2.642141104E0,-1.292175293E0,7.083713055E0
1.055379922E2,-2.586964130E0,-6.316575527E0,-2.970335722E0
1.055979854E2,3.454124451E0,-4.319429874E0,-6.982381821E0
1.056579785E2,6.301447392E0,2.371946812E0,-3.523673296E0
1.057179716E2,1.366530991E1,1.804224968E1,-3.024992704E0
1.057779646E2,1.324560928E1,8.439281464E0,-1.028857422E1
1.058379570E2,4.308078766E0,1.131628323E1,7.419908047E-1
1.058979494E2,6.714948654E0,-7.541978836E0,-4.881030083E0
1.059579419E2,-1.333721733E1,-2.494901276E1,1.723045731E1
1.060179344E2,-1.094882202E1,-3.978987694E0,2.745377779E0
1.060779269E2,-1.148337555E1,5.061246395E0,7.983827591E-1
1.061379195E2,-1.045374584E1,7.229452133E-1,2.403414249E0
1.061979118E2,-3.849098682E0,3.625229359E0,-2.503004074E-1
1.062579043E2,-1.084859133E0,3.861761570E0,-2.720879078E0
1.063178967E2,-5.151190758E0,-5.586068153E0,-9.140636444E0
1.063778892E2,6.554553509E-1,-3.477605820E0,-4.774640560E0
1.064378817E2,5.890057564E0,5.080783844E0,-2.431135941E1
1.064978743E2,1.635046482E0,8.828582764E0,-2.140357971E0
1.065578677E2,3.551597118E0,9.330817223E0,1.895197868E0
1.066178621E2,-2.409127235E0,-2.064022827E1,1.124536896E1
1.066778565E2,-1.289463329E1,-1.060893822E1,1.144661236E1
1.067378512E2,-1.050317383E1,6.772645473E0,5.866997242E0
1.067978456E2,-8.768631935E0,1.743351936E0,7.355331898E0
1.068578393E2,-6.658804893E0,4.787828922E0,-3.051442385E0
1.069178318E2,-1.604645729E0,3.512349606E0,-5.142692089E0
1.069778243E2,1.712767124E0,4.912175179E0,-2.575114250E0
1.070378167E2,2.984864235E0,6.184891701E0,-2.918395996E0
1.070978092E2,-2.258594036E0,6.483918667E0,-1.030249500E1
1.071578017E2,1.942743111E1,4.229777813E0,-1.474439240E1
1.072177943E2,1.015206718E1,9.589768410E0,-5.659524918E0
1.072777867E2,4.401035786E0,-3.269935608E0,5.369080544E0
1.073377791E2,-4.532943726E0,-2.807805634E1,2.401773453E1
1.073977716E2,-9.281138420E0,-4.336996078E0,1.228283119E1
1.074577641E2,-7.094618320E0,4.881806374E0,1.086382008E1
1.075177566E2,-6.235878944E0,1.538046837E0,1.240456676E1
1.075777490E2,-4.035822392E0,1.926383018E0,9.195189476E0
1.076377421E2,2.134367228E0,3.402901173E0,4.520358562E0
1.076977362E2,5.754910946E0,3.339864016E0,4.691047668E-1
1.077577306E2,6.240570068E0,2.924128056E0,-6.546392441E0
1.078177248E2,7.099132538E-1,4.599638462E0,-1.130459404E1
1.078777192E2,9.363091469E0,8.453392029E0,-4.646067619E-1
1.079377129E2,5.905378342E0,4.850178242E0,4.092424393E0
1.079977055E2,-8.960446358E0,-1.970476913E1,1.101799679E1
1.080576977E2,-3.884930849E0,-9.676735878E0,1.877859688E1
1.081176903E2,-1.697065592E0,-9.950447083E-2,1.245262337E1
1.081776828E2,-6.698660851E0,3.728144169E0,8.692554474E0
1.082376753E2,-8.332941055E0,2.515430450E-1,3.845955133E0
1.082976677E2,-4.536217213E0,-2.642915726E0,-1.714539409E0
1.083576603E2,4.545767784E0,8.349118233E-1,-2.275257587E0
1.084176526E2,1.040457535E1,4.679004669E0,-7.548186302E0
1.084776450E2,1.739160156E1,2.001170349E1,-9.426202774E0
1.085376375E2,1.270279503E1,7.352652073E0,-8.019314766E0
1.085976300E2,1.346952319E0,3.110537529E0,1.959450960E0
1.086576225E2,-1.574236631E0,-2.553988266E1,9.558651924E0
1.087176153E2,-4.887086391E0,-1.117617989E1,1.172041798E1
1.087776086E2,-7.774774551E0,3.394412994E-2,3.774624348E0
1.088376017E2,-6.273911476E0,3.243613720E0,2.426388741E0
1.088975948E2,-1.627614498E0,2.836605549E0,5.080323219E0
1.089575879E2,1.550410509E0,2.444340706E0,2.448320389E0
1.090175808E2,1.330969572E0,6.157989502E-1,-2.887444496E-1
1.090775732E2,2.219744205E0,6.754017830E0,7.056249619E0
1.091375656E2,1.065324020E1,7.595546722E0,-2.542799377E1
1.091975581E2,6.657854557E0,1.129165840E1,2.184129715E0
1.092575507E2,5.076935291E-1,5.192127705E0,-3.182321787E0
1.093175431E2,-7.500382900E0,-2.134002113E1,1.404317093E1
1.093775015E2,-5.652827263E0,-5.774831772E0,8.317878723E0
1.094374939E2,-3.955439568E0,1.123797417E0,3.042394161E0
1.094974863E2,-1.149102926E0,3.310700893E0,5.192548752E0
1.095574787E2,-1.658611298E-1,2.890544891E0,4.237011909E0
1.096174713E2,-3.781981468E-1,4.424405098E0,3.072713852E0
1.096774638E2,4.233287811E0,5.521158695E0,2.712583065E0
1.097374564E2,3.238972664E0,3.564659119E0,-5.192523956E0
1.097974499E2,-4.970741272E-2,4.117648125E0,-1.404266548E1
1.098574443E2,2.596058130E0,3.914116144E0,-6.001146793E0
1.099174387E2,9.049569368E-1,1.770377636E0,-1.344720173E1
1.099774333E2,-4.273779869E0,-1.702968788E1,7.154016018E0
1.100374278E2,-6.933078766E0,-9.749659538E0,1.005216408E1
1.100974212E2,-7.088337898E0,-8.498191833E-1,3.953102589E0
1.101574137E2,-5.113455772E0,4.082498550E-1,5.214035034E0
1.102174063E2,-3.886170864E0,6.161212921E-2,4.135655403E0
1.102773988E2,-2.776527405E-2,4.609329224E0,1.890848637E0
1.103373913E2,1.514508247E0,5.830242157E0,2.542728901E0
1.103973838E2,5.272498131E-1,7.229286194E0,-3.229975700E0
1.104573763E2,-1.073405266E0,2.268626213E0,-9.594788551E0
1.105173686E2,3.547958374E0,-3.701465845E0,-1.643004417E1
1.105773610E2,9.730468750E0,-3.081521034E0,-2.463212204E1
1.106373535E2,-7.781839371E-1,-4.715950012E0,1.679265499E0
1.106973460E2,1.878454924E0,-3.348009109E0,7.152647972E-1
1.107573385E2,-6.876786232E0,-1.178424454E1,1.629381561E1
1.108173310E2,-6.810744762E0,-6.207427979E-1,1.461003113E1
1.108773243E2,-1.410690784E1,3.446090221E0,8.687458038E0
1.109373184E2,-7.696269512E0,1.011947632E0,5.940356255E0
1.109973128E2,-2.447085142E0,-2.444448471E-1,-4.724142551E-1
1.110573070E2,-2.347879410E-1,-1.251640701E1,-9.943296432E0
1.111173014E2,5.075682163E0,-5.896125793E0,-1.065671730E1
1.111772950E2,8.949839592E0,8.290933609E0,-1.062583542E1
1.112372875E2,2.348036575E1,1.433735085E1,-1.052865791E1
1.112972798E2,1.382369900E1,2.198609543E1,2.436280012E0
1.113572724E2,7.470469952E0,1.358414650E0,8.238280296E0
1.114172648E2,-6.734938145E0,-3.322048569E1,8.820474625E0
1.114772574E2,-1.109912586E1,-4.161400795E0,-5.516354561E0
1.115372499E2,-1.063204288E1,-2.764724731E0,-2.270882130E0
1.115972424E2,-4.592566967E0,-3.042659760E0,1.049863815E0
1.116572347E2,-1.868015051E0,2.334881783E0,6.016387939E-1
1.117172273E2,9.543464184E-1,2.787350178E0,-3.920506954E0
1.117772197E2,8.085157871E-1,-4.686598778E-1,-5.063900948E0
1.118372123E2,2.028987408E0,5.303642273E0,-3.706735134E0
1.118972048E2,7.965681076E0,1.044856262E1,-1.797258759E1
1.119571976E2,1.329508424E0,9.943816185E0,-5.595615864E0
1.120171907E2,-6.240350723E0,-4.650552750E0,6.837423325E0
1.120771839E2,-5.822547436E0,-2.604467392E1,1.880774117E1
1.121371769E2,-7.019016266E0,-4.478658676E0,9.233834267E0
1.121971701E2,-4.708812237E0,1.387159824E0,6.532944202E0
1.122571630E2,-2.046092510E0,1.009577751E0,8.563104630E0
1.123171553E2,-3.860982418E0,1.698922157E0,3.803644657E0
1.123771477E2,-3.092231750E0,3.982807398E0,2.225601673E0
1.124371403E2,-5.489607334E0,2.804925919E0,1.376147270E-1
1.124971328E2,-4.705944061E0,3.030570984E0,-9.094742775E0
1.125571253E2,2.051886559E0,1.788168907E0,-1.285893917E1
1.126171178E2,1.098885536E1,8.104887962E0,-1.286104393E1
1.126771101E2,9.723070145E0,1.005832005E1,-5.980783463E0
1.127371025E2,-7.667419910E0,-2.525527000E0,2.606554985E0
1.127970950E2,-9.482422829E0,-2.385555267E1,1.734948540E1
1.128570875E2,-6.075742245E0,-9.410156250E0,1.230412102E1
1.129170800E2,-6.733968258E0,4.854383469E-1,3.696839333E0
1.129770726E2,-6.681310177E0,2.703293800E0,2.990866184E0
1.130370663E2,-5.596161842E0,2.260609150E0,-1.462759495E0
1.130970605E2,4.900934696E-1,3.648353100E0,-3.641118526E0
1.131570548E2,2.796656132E0,7.495232582E0,-2.157891273E0
1.132170492E2,3.946835995E-1,4.456343651E0,-6.142378330E0
1.132770435E2,-1.579771042E-1,2.914168119E0,-1.312601948E1
1.133370367E2,8.328339577E0,1.422608137E0,-1.596331978E1
1.133970290E2,3.004499674E0,5.491905212E0,-2.684325218E0
1.134570213E2,-2.787527561E0,-8.850416183E0,-1.443719864E-2
1.135170138E2,-7.439918995E0,-1.792960930E1,1.653487396E1
1.135770064E2,-4.513144970E0,1.419070244E0,6.107079506E0
1.136369988E2,-4.401071548E0,1.361169815E-1,7.429376602E0
1.136969914E2,-3.986694336E0,3.029699326E-1,4.777922153E0
1.137569839E2,4.191298485E-1,2.619555950E0,1.283150196E0
1.138169764E2,2.632572412E0,4.630329132E0,-1.503961563E0
1.138769688E2,1.402736545E0,3.988720655E0,-2.158618927E0
1.139369613E2,-9.055619240E-1,1.949639320E0,-5.154083252E0
1.139969538E2,1.035613298E0,1.221921206E0,-1.107429123E1
1.140569464E2,4.752370834E0,4.515740871E0,-1.124149990E1
1.141169393E2,-6.469209194E-1,1.331335545E0,-7.751198769E0
1.141769325E2,4.642838478E0,-1.177218437E0,-1.160381317E0
1.142369257E2,-7.531701565E0,-1.800539398E1,2.080918121E1
1.142969188E2,-5.736193657E0,-3.512329102E0,9.773127556E0
1.143569119E2,-2.002876043E0,3.192557812E0,5.427009583E0
1.144169044E2,-4.211871922E-1,1.359677315E0,3.383765697E0
1.144768967E2,-2.361959934E0,1.127465725E0,-9.144105911E-1
1.145368892E2,3.847430050E-1,2.992088079E0,2.226533890E-1
1.145968817E2,-4.329681396E-2,1.818672180E0,-6.531457901E-1
1.146568742E2,-1.162883639E0,1.153332710E0,-5.040818691E0
1.147168668E2,1.624216199E0,2.672609568E0,-9.041544914E0
1.147768592E2,6.104421139E0,2.476987839E0,-2.591984558E1
1.148368516E2,-3.902062893E0,2.448424578E0,4.354104996E-1
1.148968441E2,3.558924675E0,2.862585545E0,-7.694092751E0
1.149568366E2,-7.520883083E0,-2.001749039E1,1.984574890E1
1.150168291E2,-2.850217223E-1,1.266016006E0,1.595402718E1
1.150768217E2,-4.317873955E0,4.348377705E0,1.194852638E1
1.151368145E2,-3.351536989E0,2.611938000E0,8.149177551E0
1.151968084E2,-3.854318619E0,-1.352301121E0,-4.711942673E-1
1.152568029E2,-2.501872063E0,-3.552371979E0,-5.118491173E0
1.153167974E2,5.006399155E-1,-2.917941570E0,-6.337704659E0
1.153767918E2,-1.042447090E-1,-3.422021866E-1,-1.144038963E1
1.154367860E2,8.327972412E0,8.144927979E0,-2.365435982E1
1.154967791E2,1.670857620E1,7.752670765E0,-1.533927536E1
1.155567716E2,8.822101593E0,1.065125847E1,2.438924313E0
1.156167642E2,1.809201598E0,-2.078350067E1,8.051630974E0
1.156767566E2,-4.372793198E0,-1.687068939E1,1.942066956E1
1.157367492E2,-6.350263119E0,4.114761353E-1,8.158277512E0
1.157967417E2,-3.928283691E0,3.728646755E0,1.020642567E1
1.158567341E2,-3.784093380E0,2.379481792E0,9.255473137E0
1.159167263E2,-1.110405445E0,6.099367142E-1,1.816536903E0
1.159767188E2,1.068184614E0,-1.442419052E0,1.704147339E0
1.160367113E2,3.979926586E0,2.740995884E0,-7.169538498E0
1.160967039E2,7.849791527E0,1.673488998E1,-5.771851540E0
1.161566962E2,7.701840401E0,1.420664215E1,-1.625571060E1
1.162166889E2,1.546666861E0,1.154580402E1,4.219971657E0
1.162766825E2,-4.203939438E0,1.499816895E0,1.139358807E1
1.163366769E2,-7.731730461E0,-3.525152588E1,1.552789688E1
1.163966712E2,-7.454792023E0,-4.220021248E0,4.357738972E0
1.164566655E2,-1.215891647E1,5.660715103E-1,3.196732521E0
1.165166597E2,-6.396986961E0,4.343451023E0,2.834417820E-1
1.165766528E2,-4.236624718E0,8.196298599E0,-6.911716461E-1
1.166366451E2,2.960449457E0,7.596230507E0,-2.116625547E0
1.166866795E2,5.056313515E0,9.074385643E0,-1.950023651E0
1.167466720E2,-1.568423080E1,-9.767153740E0,1.634101295E1
1.168066645E2,9.324452400E0,6.957502365E0,-2.792208862E1
1.168666571E2,1.855199814E0,8.899638176E0,-6.809292793E0
1.169266496E2,-5.073458195E0,5.920372009E-1,4.743939400E0
1.169866420E2,1.327162266E0,-2.226923752E1,1.259144306E1
1.170466343E2,-8.669372559E0,-5.270284653E0,1.144675350E1
1.171066268E2,-9.952924728E0,2.547996998E0,5.514868736E0
1.171666194E2,-1.190023041E1,1.771895409E0,8.127102852E0
1.172266119E2,-5.986519337E0,3.631399632E0,5.195593834E0
1.172866044E2,-3.745029688E0,4.239479542E0,4.757509232E-1
1.173465974E2,8.954341412E-1,4.732380867E0,-2.743253231E0
1.174065905E2,2.036442041E0,-2.215159416E0,7.861428738E0
1.174665836E2,1.357657051E1,1.063530636E1,-2.056896973E1
1.175265766E2,9.353958130E0,1.025608921E1,-7.060029984E0
1.175865698E2,2.179794788E0,1.785143852E0,5.938724995E0
1.176465625E2,8.867123604E0,-3.372612762E1,1.234565926E1
1.177065548E2,-5.380359173E0,-6.726818085E0,1.001745224E1
1.177665473E2,-1.255432510E1,1.499300003E-1,9.125112534E0
1.178265399E2,-1.203854465E1,-1.957540512E-1,1.254189968E1
1.178865324E2,-9.172768593E0,-5.733556747E-1,8.397501945E0
1.179465250E2,-3.946856737E0,7.494973183E0,4.736687183E0
1.180065175E2,2.460326910E0,8.522386551E0,1.325375319E0
1.180665098E2,3.376214981E0,6.175169468E0,-2.221276760E0
1.181265022E2,-1.356100082E0,-1.350216866E0,1.518972397E0
1.181864948E2,4.581322670E0,2.464215517E0,-1.602737045E1
1.182464872E2,9.048839569E0,4.031949520E0,-1.681810760E1
1.183064797E2,-5.444842815E0,-6.303004265E0,1.852293015E-1
1.183664725E2,-4.968819618E-1,-6.586924553E0,3.009242058E0
1.184264664E2,-3.692023277E0,-1.475963688E1,1.926806831E1
1.184864606E2,-1.356736088E1,-5.197896004E0,1.215327072E1
1.185464550E2,-2.485360909E1,1.092233658E-1,5.535573006E0
1.186064493E2,-1.881863213E1,-4.819351196E0,8.832021713E0
1.186664434E2,-1.279787159E1,-1.539478302E-1,2.992992401E-1
1.187264362E2,-5.649495125E0,3.335707188E0,-1.296749830E0
1.187864285E2,1.445815682E0,8.219025612E0,-1.695762157E0
1.188464209E2,9.313709259E0,-5.777822971E0,-1.461482620E1
1.189064134E2,-5.004356384E0,-1.076156616E1,-2.760327148E1
1.189664059E2,8.575013161E0,1.697238922E1,-8.292303085E0
1.190263984E2,-4.532238960E0,2.068444061E1,-4.784312248E0
1.190863911E2,-9.489740372E0,9.162902832E-3,1.452392387E1
1.191463837E2,-2.880312538E1,-2.593768883E1,1.298813438E1
1.192063760E2,-1.312417412E1,-9.763225555E0,6.904370785E0
1.192663684E2,-8.372762680E0,-1.194056988E0,3.836409092E0
1.193263610E2,-9.475824356E0,1.429241657E0,7.168076038E0
1.193863534E2,-1.258166885E1,4.220416069E0,1.370199299E1
1.194463458E2,-1.042091942E1,1.849319077E1,1.389428902E1
1.195063389E2,-1.626008034E1,1.430221081E0,-1.480368519E1
1.195663321E2,-1.086750865E0,1.298175335E0,-1.361246109E1
1.196263252E2,6.876032829E0,6.577881813E0,-6.415447235E0
1.196863184E2,1.635545969E0,4.420338154E0,9.379184723E0
1.197463115E2,-7.068751812E0,5.828546524E0,-2.585503340E0
1.198063039E2,-1.209967256E0,-8.093671799E0,2.638643980E-1
1.198662963E2,-5.048420906E0,-2.189577484E1,2.631343842E1
1.199262888E2,-5.343476772E0,-1.621095657E0,1.681179810E1
1.199862813E2,-1.117936230E1,1.888392448E0,1.043889713E1
1.200462738E2,-7.103075981E0,8.077869415E-1,8.700508118E0
1.201062663E2,-5.221022606E0,1.483034134E0,2.692362547E0
1.201662588E2,-2.921819687E0,7.642174721E0,-1.008714795E0
1.202262511E2,-7.549617290E-1,5.399038315E0,-3.279881477E0
1.202862435E2,-6.767091751E-1,3.664572716E0,-7.326748848E0
1.203462361E2,1.559858704E1,1.189827919E1,-7.703238487E0
1.204062287E2,9.039872169E0,1.127791595E1,-2.685614586E0
1.204662212E2,1.500446081E0,-9.319952011E0,1.221457100E1
1.205262143E2,-6.664705276E-1,-2.659740448E1,2.027696609E1
1.205862086E2,-1.106776142E1,-4.098752499E0,9.445558548E0
1.206462030E2,-1.378177357E1,4.204711914E0,6.928067207E0
1.207061975E2,-1.100604343E1,5.952949524E-1,4.465769291E0
1.207661920E2,-6.413531303E0,2.242002964E0,3.151972294E0
1.208261860E2,-5.528845787E-1,2.731677532E0,6.791961193E-1
1.208861786E2,2.012621641E0,2.515656948E0,-5.302698612E-1
1.209461711E2,8.986821175E-1,3.835535765E0,-2.772622108E0
1.210061636E2,5.733648300E0,7.170255661E0,-1.236799717E1
1.210661561E2,1.437401390E1,1.159892368E1,7.311553955E-1
1.211261486E2,-4.327197075E0,4.550212860E0,7.875053406E0
1.211861412E2,1.171559095E0,-2.093679428E0,1.069939137E-2
1.212461335E2,-5.356060028E0,-1.060295296E1,2.293458748E1
1.213061259E2,-1.599176645E0,4.560317516E0,1.852824020E1
1.213661184E2,-9.778304100E0,8.001163483E0,1.039371777E1
1.214261109E2,-1.054694653E1,4.804962635E0,4.752249718E0
1.214861034E2,-5.523094654E0,3.205809593E0,2.216580391E0
1.215460959E2,-5.335123539E-1,2.524445057E0,-1.071882486E0
1.216060887E2,3.400099277E-1,2.207205296E0,-3.275849342E0
1.216660826E2,1.267156363E0,-4.312460423E0,-6.703675747E0
1.217260770E2,1.456262350E0,-2.783852100E0,-6.138290882E0
1.217860713E2,9.262892723E0,9.145033836E0,-1.829380035E1
1.218460656E2,2.548079491E-1,3.447064877E0,-1.749651432E0
1.219060596E2,6.636641979E0,-1.543004799E1,1.294469261E1
1.219660524E2,9.636604041E-2,-1.190830898E1,1.723047256E1
1.220260446E2,-8.926021576E0,-3.907078743E0,1.568321419E1
1.220860371E2,-1.170755005E1,8.957366943E-1,1.254234982E1
1.221460296E2,-1.154667473E1,1.140086174E0,1.074536133E1
1.222060222E2,-1.267533684E1,3.593530655E-1,2.807743788E0
1.222660147E2,-1.754144907E0,9.044466019E-1,-3.035670519E0
1.223260073E2,4.696510315E0,5.920944214E0,8.950518370E-1
1.223859997E2,3.194690228E0,7.050655842E0,-5.320296764E0
1.224459921E2,7.853454590E0,1.055653954E1,-1.810632515E1
1.225059845E2,1.525240898E1,1.250819588E1,2.740734816E0
1.225659770E2,6.591516733E-1,4.295047760E0,1.108669949E1
1.226259695E2,-4.521928787E0,-1.359955788E1,5.569650650E0
1.226859621E2,-9.797205925E0,-1.136158562E1,1.730545425E1
1.227459553E2,-5.605049133E0,2.539348602E-1,1.199960709E1
1.228059486E2,-6.376918793E0,3.366305828E0,8.349990845E0
1.228659416E2,-6.646333694E0,4.189913273E0,3.717893124E0
1.229259348E2,-4.927799225E0,5.460675716E0,4.407055378E-1
1.229859278E2,-1.278155804E0,8.655009270E0,-1.659912109E0
1.230459202E2,-1.372559071E0,2.853721619E0,-2.408399343E0
1.231059126E2,6.326099396E0,2.955305576E0,-4.634754181E0
1.231659051E2,6.037615299E0,-1.087491989E0,-1.491124535E1
1.232258977E2,6.738315582E0,5.214586258E0,-1.136042404E1
1.232858902E2,-6.340065002E-1,-7.278560638E0,5.308643341E0
1.233458827E2,8.337085724E0,-1.833634567E1,2.275313568E1
1.234058751E2,-4.451694012E0,-6.805647850E0,1.826945496E1
1.234658674E2,-9.390448570E0,-1.578166008E0,1.224938393E1
1.235258599E2,-1.026009464E1,1.523787498E0,7.624196053E0
1.235858525E2,-7.539188385E0,-1.560194969E0,6.166841984E0
1.236458449E2,-6.455185890E0,-1.935621262E0,-5.507341623E-1
1.237058374E2,-5.422117710E-1,2.935235023E0,-5.075541019E0
1.237658308E2,4.739348412E0,7.141302586E0,-3.674293995E0
1.238258249E2,1.246642685E1,9.425642967E0,-7.533119202E0
1.238858192E2,8.907332420E0,1.534427261E1,-4.721468925E0
1.239358473E2,1.018484592E0,1.027828312E1,6.521092415E0
1.239958417E2,-5.497357368E0,2.228746891E0,1.074930763E1
1.240558354E2,-4.720258713E0,-2.145553780E1,1.434999561E1
1.241158280E2,-8.129653931E0,-4.092095375E0,1.285016823E1
1.241758204E2,-8.739177704E0,2.994724274E0,6.051789761E0
1.242358127E2,-8.142456055E0,2.748658657E0,2.690646410E0
1.242958052E2,-5.888966560E0,3.280514717E0,-1.608814240E0
1.243557977E2,-1.079424143E0,2.334096432E0,-3.383619547E0
1.244157902E2,7.457422614E-1,2.166643143E0,-2.381596565E0
1.244757828E2,-2.527293682E0,-3.765182495E0,-7.575038433E0
