"Time (s)","Acceleration x (m/s^2)","Acceleration y (m/s^2)","Acceleration z (m/s^2)"
5.199577800E-2,-1.482056141E0,-9.409499764E-1,5.660065651E0
1.039892930E-1,-1.891477108E0,-1.374313712E0,1.769369125E0
1.559826200E-1,-2.537931204E0,-5.159662247E0,-1.956122518E0
2.079765390E-1,-1.517970204E0,-3.615354896E-1,-2.602576733E0
2.599702950E-1,2.590605259E0,1.927391171E0,-7.644919395E0
3.119635880E-1,3.064671755E-1,-6.871568561E-1,-1.664021015E0
3.639569140E-1,-2.174001455E0,-9.763853073E0,1.351089287E1
4.159502400E-1,-1.134886265E0,-2.031063271E1,1.766256523E1
4.679435990E-1,-1.872322917E0,-2.174719810E1,6.816500187E0
5.199369590E-1,-6.057515144E0,-1.336005306E1,1.134646797E1
5.719302520E-1,-1.723877788E-1,-9.636956215E0,1.421002102E1
6.239245380E-1,-1.915419817E0,-9.134158134E0,1.089873886E1
6.759179620E-1,-3.849993944E0,-5.911464691E0,9.744698524E0
7.279112550E-1,-3.840416908E0,-5.272192955E0,7.618582249E0
7.799046810E-1,-2.578634024E0,-3.684788942E0,4.455745220E0
8.318981060E-1,-2.274561167E0,-5.643305779E0,2.418217659E0
8.838938610E-1,-1.716695070E0,-1.817254543E0,6.404685020E0
9.358889210E-1,6.608198285E-1,4.055901527E0,-1.879505754E0
9.878819470E-1,6.653689861E0,7.623371124E0,-7.132544518E0
1.039875339E0,3.878725290E0,4.098998547E0,-1.716695070E0
1.091868665E0,7.039167881E-1,-5.042342663E0,7.173247337E0
1.143861991E0,-3.948159218E0,-2.910480499E1,2.312869453E1
1.195855283E0,-3.134105682E0,-2.512791443E1,3.545921087E0
1.247849502E0,-3.802108288E0,-1.711667061E1,3.160442829E0
1.299842992E0,-4.649681568E0,-1.315653992E1,7.360000610E0
1.351836318E0,-4.170826912E0,-1.070480251E1,1.050128937E1
1.403829678E0,-4.783761024E0,-5.944984436E0,6.122160912E0
1.455823037E0,-3.129317284E0,-3.325647593E0,7.395915031E0
1.507816329E0,-2.791724443E0,-2.578634024E0,6.830865860E0
1.559809688E0,-4.496448040E0,-1.218685865E0,5.822876453E0
1.611802981E0,-3.519583941E0,-4.908263385E-1,3.126922846E0
1.663797000E0,-1.927391171E0,2.856369734E0,-1.371919513E0
1.715791024E0,1.850774407E0,5.099805355E0,-4.980091572E0
1.767784017E0,-1.125309169E-1,3.656057596E0,-3.732674360E0
1.819777309E0,2.753416002E-1,-2.243435383E0,4.051113129E0
1.871770702E0,-4.113364220E0,-2.193634605E1,2.013585091E1
1.923767556E0,2.887495518E0,-2.074639130E1,6.900300026E0
1.975765711E0,-5.133325100E0,-2.120848656E1,2.406246185E0
2.027760703E0,-4.108575344E0,-1.526589584E1,6.126949310E0
2.079754029E0,-3.201145411E0,-1.179419804E1,7.010436535E0
2.131747422E0,-2.037527800E0,-8.731920242E0,7.510839939E0
2.183740848E0,-2.604970932E0,-5.650488377E0,8.095043182E0
2.235734073E0,-1.924996972E0,-3.131711483E0,5.844424725E0
2.287727333E0,-4.620950520E-1,-2.930592299E0,6.964945316E0
2.339720759E0,-3.351984620E-1,-1.443747759E0,1.905842781E0
2.391714844E0,-2.059076279E-1,-5.889915824E-1,6.316096783E0
2.443708368E0,1.206714511E0,3.328042030E-1,2.743839025E0
2.495701727E0,1.247417212E0,1.819648892E-1,1.405439258E0
2.547695052E0,1.259388566E0,2.367937803E0,-2.686376333E0
2.599688346E0,-2.604970932E0,-5.071074009E0,3.179596901E0
2.651681671E0,-1.951334000E0,-1.231136131E1,1.278063869E1
2.703675030E0,-3.031152010E0,-2.113665771E1,7.613793850E0
2.755668785E0,-5.135719299E0,-2.301855850E1,3.878725290E0
2.807662740E0,-4.527573586E0,-1.374313736E1,6.450176239E0
2.859656100E0,-4.477293968E0,-1.216770458E1,9.433443069E0
2.911649359E0,-2.473285913E0,-9.352037430E0,8.504464149E0
2.963642752E0,-4.652075768E0,-6.272999763E0,7.932232380E0
3.015638209E0,-3.083826065E0,-3.893090725E0,6.028783798E0
3.067633402E0,-3.809291124E0,-5.954561234E0,-7.326480746E-1
3.119409692E0,-3.474092722E0,-1.918053627E1,8.954587579E-1
3.171403447E0,-2.083019018E0,-1.818212318E1,2.557085514E0
3.223396807E0,-5.794145107E0,-1.337681293E1,6.495667458E0
3.275390066E0,-6.081458092E0,-9.809344292E0,7.927443981E0
3.327383525E0,-4.503631115E0,-5.559505939E0,6.828471661E0
3.379376785E0,-1.596981287E0,-2.664827824E0,9.366402626E0
3.431370044E0,8.858816624E-1,-2.011190802E-1,8.794171333E0
3.483363634E0,1.450930476E0,-7.661679387E-2,6.612987041E0
3.535357753E0,8.739103079E-1,-1.031932473E0,2.825244188E0
3.587351112E0,-3.222693920E0,-4.098998547E0,2.231464148E0
3.639344405E0,-5.818088055E-1,-7.709565163E-1,-7.072687626E0
3.691337831E0,4.067873001E0,-1.163617611E0,-9.337671280E0
3.743331887E0,-5.375146866E0,-1.755961227E1,1.137041092E1
3.795330507E0,-6.201171875E-1,-2.406964493E1,6.828471661E0
3.847327396E0,-2.264983892E0,-2.138087463E1,4.920234680E0
3.899321191E0,-7.570696831E0,-1.377186871E1,5.478100777E0
3.951314417E0,-4.113364220E0,-1.320681953E1,1.182053471E1
4.003307843E0,-2.695953369E0,-9.445414543E0,8.226728439E0
4.055301202E0,-3.876330853E0,-5.430215359E0,8.660092354E0
4.107294460E0,-4.477293789E-1,-4.424619675E0,8.197997093E0
4.159287887E0,-2.341600657E0,-2.995237827E0,2.604970932E0
4.211281609E0,-2.011190891E0,-1.376708031E0,8.425453186E0
4.263275462E0,9.146129489E-1,3.256213665E-1,4.211529255E0
4.315268822E0,1.434170604E0,3.849993944E0,-4.836435318E0
4.367262081E0,3.423812985E-1,2.004008055E0,-9.624984741E0
4.419255474E0,-1.606558442E0,-3.447755814E0,-2.640885115E0
4.471248867E0,-2.894678354E0,-7.865192890E0,7.901106834E0
4.523242126E0,-8.887548447E0,-1.923081589E1,1.375989723E1
4.575235485E0,-1.109746361E1,-2.895875359E1,3.148471355E0
4.627229109E0,-6.258634567E0,-1.765538216E1,8.669669151E0
4.679223161E0,-4.170826912E0,-1.169363785E1,1.304161453E1
4.731216487E0,-5.868367672E0,-8.935433388E0,1.014933109E1
4.783209846E0,-4.960937500E0,-6.138920784E0,7.958569527E0
4.835203638E0,-3.378321648E0,-5.276981831E0,7.309720993E0
4.887199826E0,-5.928224564E0,-3.574652195E0,3.419024467E0
4.939193853E0,-5.468523502E0,-5.818088055E-1,5.018400192E0
4.991187179E0,-1.309668303E0,1.247417212E0,5.276981831E0
5.043180438E0,1.486844659E0,2.463708878E0,5.171633363E-1
5.095173898E0,1.522758722E0,3.253819466E0,-2.985660791E0
5.147167257E0,1.649655342E0,7.278595567E-1,-3.344801903E0
5.199160516E0,7.781392932E-1,-1.929785490E0,-1.331216812E0
5.251154206E0,-1.939362645E0,-7.029590607E0,4.503631115E0
5.303148260E0,-6.861991405E0,-1.783255959E1,1.547419834E1
5.355141553E0,3.510006905E0,-1.562743187E1,-1.640078187E0
5.407134913E0,-1.904406166E1,-2.456765366E1,1.594586968E0
5.459128139E0,-5.933012962E0,-1.284288979E1,3.881119490E0
5.511121531E0,-4.154066563E0,-1.257952023E1,9.174860954E0
5.563114924E0,-5.085439682E0,-9.495694160E0,6.866780281E0
5.615108250E0,-4.881926537E0,-8.099831581E0,7.541965485E0
5.667102202E0,-3.706337452E0,-6.074275017E0,8.691217422E0
5.719095858E0,-6.536370516E-1,-2.595393896E0,8.564320564E0
5.771089251E0,1.173194647E-1,-5.195576549E-1,7.204372883E0
5.823082710E0,7.972934842E-1,8.116591573E-1,7.120573044E0
5.875076101E0,2.071047783E0,6.249057055E-1,6.167652130E0
5.927074289E0,7.805335999E0,5.628940105E0,5.980898380E0
5.979071982E0,7.616188049E0,3.263396502E0,7.094236374E0
6.031066908E0,4.010410309E0,7.984906673E0,9.792584181E-1
6.083060268E0,-2.892283916E0,-5.207547665E0,-2.370332003E0
6.135053527E0,-8.602629662E0,-2.757246780E1,-6.514821529E0
6.187046853E0,-8.071100235E0,-1.579742527E1,-3.469304085E0
6.239040313E0,3.280156553E-1,-1.537363815E1,4.728692532E0
6.291033572E0,2.080624819E0,-1.446860313E1,1.415016365E1
6.343027691E0,-6.589044094E0,-1.459310532E1,1.880702782E1
6.395021282E0,-2.609759569E0,-1.077423668E1,1.805522728E1
6.447014541E0,-7.170853138E0,-7.534782887E0,1.835690498E1
6.499007934E0,-2.748627424E0,-4.498842239E0,1.392270756E1
6.551001326E0,-1.795706153E-1,-4.326454639E0,1.058269501E1
6.602994585E0,1.383890867E0,-7.058321953E0,7.072687626E0
6.654987878E0,6.775797606E-1,-5.284164429E0,2.451737404E0
6.706981601E0,-5.865973473E0,-3.598595142E0,-2.384697676E0
6.758975688E0,-2.573845387E0,5.253038883E0,6.452570438E0
6.810968881E0,-2.023162127E0,3.651269197E0,-4.836435020E-1
6.862962307E0,-3.112557232E-1,1.391073704E0,-2.243435383E0
6.914955700E0,-2.291321039E0,-2.360754967E0,4.003227711E0
6.966949157E0,-1.038157558E1,-8.988107681E0,1.429382038E1
7.018947111E0,2.442160368E0,-6.814105988E0,-2.882706881E0
7.070944832E0,-5.480494976E0,-2.144791412E1,1.117647457E1
7.122938758E0,-1.386763954E1,-1.656359291E1,4.936994553E0
7.174932351E0,-5.274587631E0,-1.061142635E1,9.443019867E0
7.226925643E0,-4.479688168E0,-8.983319283E0,8.736708641E0
7.278918936E0,-5.126142502E0,-7.410280704E0,7.843644142E0
7.330912429E0,-4.003227711E0,-6.438204765E0,8.655303001E0
7.382905588E0,-5.837242126E0,-3.821262598E0,5.638517380E0
7.434899445E0,-6.727912426E-1,3.830839694E-2,6.680026531E0
7.486893464E0,1.510787368E0,1.005595401E-1,1.920208454E0
7.538886623E0,2.078230619E0,2.688770533E0,-7.307326794E0
7.590879949E0,2.463708878E0,1.137280583E0,-7.707170486E0
7.642873309E0,9.050358534E-1,-2.655250788E0,1.989642382E0
7.694866668E0,-3.241847992E0,-8.147717476E0,1.331695652E1
7.746860160E0,-3.737462997E0,-2.060512924E1,1.689879227E1
7.798853319E0,-2.865947008E0,-2.233618927E1,5.085439682E0
7.850846975E0,-5.681613922E0,-1.353962421E1,6.296942711E0
7.902840962E0,-7.711959362E0,-1.120999432E1,5.243461609E0
7.954834321E0,-6.548341751E0,-1.010623360E1,9.656110764E0
8.006827680E0,7.015225291E-1,-6.694392204E0,8.071100235E0
8.058821104E0,-2.147664547E0,-6.876357079E0,6.675238132E0
8.110817360E0,-2.466102988E-1,-4.913052082E0,6.878751755E0
8.162811853E0,-8.499675393E-1,-2.181184292E0,5.631334305E0
8.214804979E0,-3.395081758E0,2.327235222E0,6.938608170E0
8.266798305E0,2.983266354E0,5.068679810E0,-4.561093330E0
8.318791664E0,4.479688168E0,5.336838722E0,-3.011997700E0
8.370785090E0,4.860377908E-1,1.491633177E0,1.441353440E0
8.422778449E0,-5.039948463E0,-1.183968925E1,1.154998207E1
8.474772038E0,-5.312895775E0,-2.261631966E1,1.562743187E1
8.526766025E0,-1.149251908E-1,-2.296588326E1,1.338399649E0
8.578759351E0,-4.879531860E0,-1.239755535E1,3.778165579E0
8.630752743E0,-6.857203007E0,-1.031932449E1,6.495667458E0
8.682746069E0,-5.976109982E0,-7.328875065E0,9.969759941E0
8.734739429E0,-4.103786945E0,-3.893090725E0,9.304151535E0
8.786732655E0,-3.040729046E0,-3.294522047E0,7.589851379E0
8.838726081E0,-2.226675600E-1,-3.026363373E0,8.865999222E0
8.890719869E0,1.331216812E0,-5.229096413E0,5.257827282E0
8.942713724E0,-7.805336118E-1,-2.595393896E0,9.601041794E0
8.994707083E0,-4.309694767E-1,-1.221080124E-1,-3.038334846E0
9.046700477E0,1.252205729E0,1.072635174E0,-9.024022102E0
9.098694102E0,8.763045669E-1,-1.668809533E0,-1.704723716E0
9.150691089E0,-2.691164970E0,-1.259628010E1,1.310865498E1
9.202689044E0,-5.111776829E0,-2.194592285E1,1.163856983E1
9.254683870E0,-7.110996246E-1,-1.902969551E1,6.019207001E0
9.306677129E0,-5.085439682E0,-1.182053471E1,6.227508545E0
9.358670388E0,-6.196382999E0,-1.029777622E1,8.530800819E0
9.410663781E0,-6.117372036E0,-8.933039665E0,7.685622215E0
9.462657040E0,-3.952947617E0,-7.273807049E0,9.919480324E0
9.514650532E0,-4.637710094E0,-5.789356709E0,7.508445740E0
9.566643824E0,-2.427794695E0,-4.601796150E0,6.445387840E0
9.618638245E0,-1.233051538E0,-3.201145411E0,4.060689926E0
9.670631471E0,-3.129317284E0,-1.139674783E0,7.522811413E0
9.722624797E0,-1.740637779E0,5.913859010E-1,1.192348838E0
9.774618123E0,3.102980137E0,4.043930054E0,-4.319271564E0
9.826611615E0,1.218685865E0,-1.771763414E-1,-1.587404251E0
9.878604908E0,-6.967339516E-1,-3.713520288E0,3.287339211E0
9.930598101E0,-5.044736862E0,-1.221319580E1,1.430100346E1
9.982591327E0,5.075862408E-1,-1.608952713E1,7.285778046E0
1.003458558E1,-6.538764477E0,-2.156044388E1,4.965725899E0
1.008657934E1,-6.852414608E0,-1.201447105E1,4.254626274E0
1.013856630E1,-8.581081390E0,-9.622590065E0,6.447782040E0
1.019055969E1,-6.419050694E0,-8.291373253E0,8.707977295E0
1.024255514E1,-1.680780888E0,-5.760625362E0,8.796566010E0
1.029455020E1,-3.950553417E0,-4.391099930E0,7.465348721E0
1.034654360E1,-2.284138203E0,-3.059883118E0,6.462147713E0
1.039853689E1,-6.835654736E0,-7.850827217E0,7.877163887E0
1.045053031E1,2.238646984E0,-2.463708878E0,8.286584854E0
1.050252364E1,1.699935049E-1,1.814860344E0,-7.984906673E0
1.055451700E1,1.197137404E-2,2.820455790E0,-8.051946640E0
1.060651022E1,3.112557173E0,1.089395046E0,-2.379909277E0
1.065850441E1,-5.806116581E0,-1.280937004E1,1.453803635E1
1.071049793E1,-7.867587090E0,-2.199380875E1,1.363060665E1
1.076249126E1,-3.620143414E0,-1.961389923E1,2.801301479E-1
1.081448458E1,-6.201171875E0,-1.230417824E1,6.344828129E0
1.086647791E1,-4.642498970E0,-8.559532166E0,6.356799603E0
1.091847120E1,-3.442967176E0,-7.472531796E0,7.075081825E0
1.097046470E1,-5.382329941E0,-6.507638931E0,4.774183750E0
1.102245806E1,-5.176422119E0,-5.901887417E0,6.811711788E0
1.107445238E1,-3.976890564E0,-3.715914488E0,6.392713547E0
1.112644570E1,-3.275367975E0,-2.712713242E0,7.374366283E0
1.117843900E1,-1.778946161E0,-2.492439985E0,6.289760113E0
1.123043226E1,-7.709565163E-1,-7.565908432E-1,9.687235832E0
1.128242844E1,-2.875524044E0,-4.237866402E-1,4.106181145E0
1.133442693E1,7.565908432E-1,3.371139050E0,-2.375120640E0
1.138642319E1,2.317657948E0,9.960182905E-1,-3.112557158E-2
1.143841672E1,-5.075862408E0,-9.273026466E0,1.274711895E1
1.149040995E1,-4.180403709E0,-1.096338463E1,6.464541912E0
1.154240327E1,1.084606528E0,-2.192437363E1,3.565075159E0
1.159439670E1,-7.826884270E0,-1.611825752E1,4.817280769E0
1.164639009E1,-7.846038342E0,-1.101366425E1,6.869174480E0
1.169838388E1,-5.564294815E0,-9.519637108E0,8.142929077E0
1.175037770E1,-4.659258842E0,-6.658478260E0,9.177255630E0
1.180237099E1,-5.818087578E0,-6.268211365E0,7.477320194E0
1.185436438E1,-2.648067951E0,-5.480494976E0,7.577879906E0
1.190635761E1,-5.923435688E0,-6.009629726E0,6.768614769E0
1.195835104E1,-4.750241280E0,-2.504411459E0,5.973715782E0
1.201034433E1,3.687183261E-1,-2.394274808E-3,1.970488191E0
1.206233762E1,3.249030828E0,1.611346960E0,-3.146077156E0
1.211433161E1,3.141288519E0,-6.823683381E-1,-3.335224867E0
1.216632536E1,2.873129770E-2,-4.685595989E0,1.386285067E0
1.221831862E1,-1.340793848E0,-8.142929077E0,8.437424660E0
1.227031208E1,-4.865166187E0,-1.579742527E1,1.696104240E1
1.232230534E1,1.917814136E0,-1.501928616E1,3.452544212E0
1.237430130E1,-8.051946640E0,-1.819648933E1,6.601015568E0
1.242630005E1,-6.342433929E0,-9.692024231E0,5.257827282E0
1.247829541E1,-6.411868095E0,-8.322499275E0,6.414262295E0
1.253028874E1,-2.351177931E0,-7.031985283E0,7.223526955E0
1.258228203E1,-1.845985889E0,-7.522811413E0,8.839662552E0
1.263427536E1,-1.845985889E0,-6.620169640E0,7.237892628E0
1.268626871E1,-2.102173328E0,-4.951360226E0,5.959350109E0
1.273826201E1,-4.702355862E0,-4.204346657E0,1.125788021E1
1.279025537E1,-2.482862949E0,-1.170800328E0,4.527573586E0
1.284224935E1,-1.415016413E0,1.807677507E0,-1.163617611E0
1.289424308E1,1.091789365E0,2.643279314E0,-4.077449799E0
1.294623640E1,-1.201925993E0,-5.099805593E-1,8.882759809E-1
1.299822966E1,-8.150111198E0,-6.680026531E0,1.090352726E1
1.305022309E1,-6.308914185E0,-1.534969616E1,1.185405445E1
1.310221638E1,-3.691971779E0,-2.343276787E1,6.179623127E0
1.315420971E1,-7.889135361E0,-1.309189510E1,4.798126698E0
1.320620317E1,-6.730306625E0,-8.640937805E0,6.725517750E0
1.325819738E1,-7.678439140E0,-8.054340363E0,7.788576126E0
1.331019067E1,-4.992063046E0,-5.873156071E0,7.300143719E0
1.336218410E1,-4.817280769E0,-5.087833881E0,6.332856655E0
1.341417736E1,-2.116539001E0,-4.374340057E0,8.107014656E0
1.346617232E1,-6.536370516E-1,-6.658478260E0,3.380716085E0
1.351816817E1,-5.801327705E0,5.985686928E-2,2.339206457E0
1.357016140E1,2.432583094E0,2.885101080E0,1.256994247E0
1.362215476E1,4.242654800E0,3.560286522E0,-2.609759569E0
1.367414812E1,1.525153041E0,8.284190893E-1,5.674431324E-1
1.372614148E1,-5.530774593E0,-1.045819283E1,1.042467213E1
1.377813477E1,-4.058295727E0,-2.012866783E1,1.640078163E1
1.383012810E1,-1.764580488E0,-2.127552605E1,-1.771763414E-1
1.388212228E1,-7.355212212E0,-1.306795216E1,3.634509087E0
1.393411590E1,-4.027170181E0,-9.447808266E0,8.006455421E0
1.398610913E1,-6.572284222E0,-8.633754730E0,9.002472878E0
1.403810259E1,-5.197970390E0,-6.093429565E0,6.517216206E0
1.409009572E1,-3.639297724E0,-5.320078850E0,6.957762718E0
1.414208914E1,-2.597788095E0,-4.012804508E0,7.898712635E0
1.419408247E1,-3.577046633E0,-2.772570133E0,5.080651283E0
1.424607589E1,-2.935380936E0,-2.164424419E0,3.749434233E0
1.429807014E1,-3.179596901E0,-1.505998850E0,5.825270653E0
1.435006344E1,-2.054287672E0,-3.830839694E-2,-3.759011328E-1
1.440205683E1,3.035940409E0,1.256994247E0,-3.821262598E0
1.445405029E1,1.922602654E0,-9.960182905E-1,-3.373533249E0
1.450604518E1,-2.272166729E0,-9.668081284E0,8.087860107E0
1.455804440E1,-4.683201313E0,-2.027232552E1,1.771284485E1
1.461004032E1,2.578634024E0,-1.764341164E1,2.755810261E0
1.466203348E1,-3.131711483E0,-1.529462719E1,4.611373425E0
1.471402681E1,-2.133298874E0,-1.079578495E1,6.402290821E0
1.476602013E1,-4.448562622E0,-1.067128277E1,1.143026829E1
1.481801356E1,-3.993650436E0,-8.212362289E0,1.138717079E1
1.487000688E1,-3.759011328E-1,-4.829252243E0,9.196409225E0
1.492200011E1,-1.285725594E0,-6.074275017E0,7.984906673E0
1.497399410E1,1.434170604E0,-7.965752125E0,2.578634024E0
1.502598785E1,-6.186806202E0,-2.964112282E0,5.863578796E0
1.507798115E1,3.759011328E-1,1.862745762E0,-4.309694469E-2
1.512997470E1,1.477267504E0,4.005621910E0,-4.786155224E0
1.518196780E1,2.018373728E0,3.502824068E0,-4.458139896E0
1.523396116E1,2.614548206E0,2.159635782E0,-4.953754425E0
1.528595458E1,-3.955342054E0,-1.173912907E1,9.244295120E0
1.533794791E1,-8.526012421E0,-2.401457596E1,2.344473839E1
1.538994176E1,-3.591412306E-2,-2.312390518E1,3.265790939E0
1.544193555E1,-6.275394440E0,-1.621881676E1,3.945764780E0
1.549392881E1,-5.176422119E0,-1.266331959E1,7.288172722E0
1.554592244E1,-2.205127001E0,-1.092268181E1,1.101366425E1
1.559791650E1,-2.039922237E0,-6.378347874E0,9.814132690E0
1.564991262E1,-2.288926601E0,-3.893090725E0,7.666468143E0
1.570190618E1,-2.257801056E0,-1.065452337E0,4.910657406E0
1.575389947E1,-2.343995094E0,1.508393139E-1,4.168432236E0
1.580589290E1,-4.422225475E0,1.180377483E0,5.025582790E0
1.585788619E1,-3.126922846E0,1.484450340E0,6.749460697E0
1.590987955E1,-1.860351562E0,3.701548815E0,3.955342054E0
1.596187288E1,9.098244458E-2,3.110162973E0,1.553884387E0
1.601386693E1,1.345582485E0,1.867534399E0,7.063110471E-1
1.606586062E1,-3.727885962E0,-7.271412373E0,9.514847755E0
1.611785408E1,-4.960937500E0,-4.151672363E0,9.780612946E0
1.616984727E1,9.050358534E-1,-8.447001457E0,-3.732674360E0
1.622184060E1,-1.278063869E1,-1.924996948E1,1.425551224E1
1.627383386E1,-1.053480911E1,-1.402805614E1,1.561306572E1
1.632582725E1,-5.298530102E0,-7.261835575E0,1.249571991E1
1.637782061E1,-4.312088966E0,-5.473312378E0,1.030016994E1
1.642981453E1,-4.022381783E0,-4.968120098E0,1.063776302E1
1.648180842E1,-2.255406857E0,-4.283357620E0,1.061142635E1
1.653380168E1,-3.462121487E0,-2.083019018E0,7.422251701E0
1.658579494E1,-2.432583094E0,-1.268965602E0,7.185218811E0
1.663778929E1,-4.412648678E0,2.523565531E0,6.680026531E0
1.668978801E1,-7.685621977E-1,3.543526649E0,5.152479172E0
1.674178501E1,5.411061049E-1,2.952140808E0,4.597007632E-1
1.679377920E1,1.968093872E0,-2.492439985E0,-2.980872154E0
1.684577252E1,-9.624984860E-1,-6.835654736E0,-5.245856285E0
1.689776592E1,-2.334417820E0,-1.253163433E1,1.350371003E0
1.694975934E1,-5.262616158E0,-1.770087433E1,9.356825829E0
1.700175284E1,1.242628574E0,-1.694907188E1,2.911438227E0
1.705374629E1,-2.741444588E0,-1.654683304E1,1.407115269E1
1.710574018E1,-4.793338299E0,-1.236642933E1,1.556757450E1
1.715773360E1,-5.439792156E0,-1.064255142E1,1.294823837E1
1.720972700E1,-6.263422966E0,-8.418270111E0,1.267289639E1
1.726172016E1,-3.833234072E0,-6.220325947E0,1.104000092E1
1.731371375E1,-2.449343204E0,-6.601015568E0,7.683228016E0
1.736570704E1,-2.281744003E0,-7.376760483E0,7.235498428E0
1.741768272E1,-3.658451796E0,-4.733481407E0,2.063864946E0
1.746967664E1,9.816526771E-1,3.292127848E0,4.817280769E0
1.752167036E1,5.746259689E-1,3.993650436E0,-3.124528646E0
1.757366382E1,4.757423878E0,5.897099018E0,-5.959350109E0
1.762565711E1,9.984126091E-1,1.865140080E0,-2.217098475E0
1.767765040E1,-5.387118459E-1,-2.853975534E0,5.351204395E0
1.772964463E1,-6.742278099E0,-1.499773693E1,1.645585060E1
1.778164345E1,-5.746259689E-1,-2.410555840E1,9.337671280E0
1.783364004E1,-4.716721535E0,-2.454610443E1,4.333637238E0
1.788563380E1,-5.310501575E0,-1.327864838E1,2.212309837E0
1.793762699E1,-6.167652130E0,-1.181814003E1,8.564320564E0
1.798962052E1,-5.315290093E-1,-8.719948769E0,1.109746361E1
1.804161381E1,-2.712713242E0,-4.970514297E0,7.063110828E0
1.809360697E1,-2.355966330E0,-6.155680656E0,6.893116951E0
1.814560046E1,-2.889889717E0,-4.769395351E0,3.632114887E0
1.819759412E1,-3.469304085E0,-4.965725899E0,6.718335152E0
1.824958804E1,-1.764580488E0,1.376708031E0,3.806896925E0
1.830158143E1,2.909043789E0,5.722316742E0,-7.237892628E0
1.835357469E1,3.275367975E0,3.433390141E0,-2.533142805E0
1.840556808E1,1.865140080E0,5.794144869E-1,1.340793967E-1
1.845756147E1,-2.205127001E0,-1.120281219E1,1.336005306E1
1.850955473E1,-7.807730198E0,-1.977192116E1,1.365454960E1
1.856154812E1,3.761405706E0,-2.142875862E1,1.060663700E0
1.861354205E1,-7.446194649E0,-1.402087307E1,4.822069645E0
1.866553577E1,-6.129343510E0,-1.108070374E1,5.724710941E0
1.871752916E1,-4.403071404E0,-1.043424988E1,5.858790398E0
1.876952252E1,-2.916226625E0,-7.860404015E0,6.275394440E0
1.882151648E1,-3.682394743E0,-5.066285610E0,6.445387840E0
1.887351260E1,-3.770982742E0,-4.343214512E0,6.809317589E0
1.892550646E1,-1.053480864E0,-1.659232497E0,4.867560863E0
1.897749986E1,-2.585816860E0,-6.632141471E-1,7.659285069E0
1.902949305E1,1.771763414E-1,5.674431324E-1,8.796566010E0
1.908148651E1,3.708731651E0,7.757450342E-1,9.950606346E0
1.913348027E1,6.009629965E-1,2.636096478E0,3.591412306E0
1.918547313E1,3.466909885E0,3.974496126E0,-1.850774407E0
1.923746731E1,-2.174001455E0,-2.705530643E0,-1.755003452E0
1.928946080E1,-5.552323341E0,-1.253642273E1,8.607418060E0
1.934145420E1,-2.583422422E0,-1.200010490E1,1.018045616E1
1.939344756E1,-7.374366522E-1,-2.862116051E1,3.100585938E0
1.944544085E1,-4.067873001E0,-1.817015076E1,7.410280704E0
1.949743427E1,2.118933201E0,-1.096338463E1,1.160026169E1
1.954942753E1,-7.585062504E0,-9.359220505E0,1.113098335E1
1.960142086E1,-7.719141960E0,-6.751854897E0,1.011102295E1
1.965341491E1,-4.156461239E0,-5.590631485E0,1.004877090E1
1.970540854E1,-7.276201248E0,-4.738269806E0,-8.909096718E0
1.975740186E1,-3.249030828E0,-5.128536701E0,8.660092354E0
1.980939519E1,-2.236252785E0,6.464542150E-1,3.392687321E0
1.986138894E1,-2.305686712E0,3.419024467E0,1.723877788E-1
1.991338710E1,-1.743032098E0,3.313676357E0,-3.351984620E-1
1.996538459E1,-2.703136206E0,9.672870040E-1,4.549122229E-2
2.001737855E1,-2.423006058E0,-2.250618339E-1,-2.154847383E-1
2.006937191E1,-9.505270720E-1,-2.346389294E0,-1.436564885E-2
2.012136516E1,-4.034353256E0,-8.710371971E0,7.520417213E0
2.017335856E1,-5.432609558E0,-1.228981304E1,9.273026466E0
2.022535202E1,7.877163887E-1,-2.289645004E1,1.247417212E0
2.027734531E1,-6.378347874E0,-2.040161514E1,9.833286285E0
2.032933887E1,-3.430995703E0,-1.145899963E1,8.643332481E0
2.038133289E1,-4.412648678E0,-1.081015110E1,1.245022869E1
2.043332614E1,-4.431802750E0,-8.638543129E0,8.911490440E0
2.048531957E1,-2.126116037E0,-8.619389534E0,9.787795067E0
2.053731290E1,-2.851581335E0,-7.515628815E0,8.952193260E0
2.058930622E1,-1.025946712E1,-6.349617004E0,8.470944405E0
2.064129965E1,-5.008822918E0,-1.166011810E0,3.931399345E0
2.069329291E1,-4.836435020E-1,1.731060743E0,1.005595446E0
2.074528663E1,-1.256994247E0,2.478074312E0,-1.743032098E0
2.079728052E1,-1.051086664E0,8.739103079E-1,-2.269772530E0
2.084927388E1,1.654443860E0,2.968900800E-1,-2.188367128E0
2.090126727E1,-6.632141471E-1,-6.708757877E0,5.509226322E0
2.095326079E1,-4.017592907E0,-1.033368969E1,1.114295483E1
2.100525695E1,-1.041509509E0,-1.772002792E1,9.270631790E0
2.105725127E1,-3.213116884E0,-2.121566963E1,5.327261448E0
2.110924450E1,-8.226728439E0,-1.488999462E1,2.525959969E0
2.116123799E1,-4.082238674E0,-1.238797760E1,7.283383846E0
2.121323125E1,-2.719896078E0,-1.058269501E1,9.186832428E0
2.126522454E1,-4.211529255E0,-8.178842545E0,8.197997093E0
2.131721797E1,-3.696760416E0,-6.098217964E0,9.287391663E0
2.136921133E1,-3.330436230E0,-2.001613855E0,7.154093266E0
2.142120558E1,-1.781340480E0,-2.746233225E0,9.301757812E0
2.147319897E1,-1.091789365E0,-2.418217659E0,5.995264053E0
2.152519226E1,-5.339232683E-1,-1.130097747E0,3.304099321E0
2.157718562E1,1.652049661E0,8.140534163E-1,-4.848406315E0
2.162917902E1,2.901860952E0,8.810931444E-1,-5.085439682E0
2.168117241E1,-2.226675600E-1,-2.224281311E0,-7.972934842E-1
2.173316564E1,-2.293715239E0,-7.407886028E0,8.229122162E0
2.178515952E1,-1.025228500E1,-1.692752266E1,1.638162804E1
2.183715338E1,5.068679810E0,-2.115581131E1,1.520364523E0
2.188914667E1,-1.213897324E1,-1.582136822E1,6.014418125E0
2.194114003E1,-6.172440529E0,-1.026665020E1,8.075888634E0
2.199313345E1,-1.472478986E0,-8.638543129E0,9.634561539E0
2.204513087E1,-6.766220570E0,-6.732700825E0,8.030397415E0
2.209712906E1,-3.950553417E0,-5.279376030E0,7.793364525E0
2.214912339E1,-4.273780346E0,-3.878725290E0,5.923435688E0
2.220111654E1,-9.361614585E-1,-2.959323645E0,-4.668835998E-1
2.225311007E1,-2.485257149E0,2.470891714E0,3.660846233E0
2.230510333E1,2.276955366E0,7.051139355E0,-7.510839939E0
2.235709689E1,2.461314440E0,2.174001455E0,-6.847625971E-1
2.240909015E1,-3.385504484E0,-1.460507661E-1,3.900273561E0
2.246108328E1,-6.182017326E0,-1.274472523E1,1.316611671E1
2.251307723E1,1.012778282E0,-1.958995628E1,3.888302326E0
2.256507102E1,-7.951386452E0,-1.941996384E1,7.321692467E0
2.261706441E1,-7.029590607E0,-9.407105446E0,7.491685867E0
2.266905767E1,-3.531555414E0,-9.146129608E0,1.161941528E1
2.272105106E1,-3.974496126E0,-7.436617374E0,8.573898315E0
2.277304429E1,-4.877137661E0,-5.494860649E0,6.859597206E0
2.282503768E1,-4.110970020E0,-4.091815472E0,6.167652130E0
2.287703097E1,-2.351177931E0,-1.520364523E0,5.473312378E0
2.292902496E1,-2.293715239E0,1.867534369E-1,4.388705730E0
2.298101865E1,-4.094210148E0,-1.137280583E0,3.512401104E0
2.303301204E1,1.374313712E0,-7.996878028E-1,2.375120640E0
2.308500547E1,3.423812985E-1,6.680026650E-1,-3.265790939E0
2.313700126E1,-2.954535007E0,-6.014418125E0,7.896318436E0
2.318899608E1,-5.490072250E0,-5.224307537E0,9.780612946E0
2.324098941E1,6.251451492E0,-1.991557693E1,3.668029070E0
2.329298297E1,-1.534969616E1,-1.537363815E1,7.319298267E0
2.334497606E1,-4.058295727E0,-8.978530884E0,1.221080112E1
2.339696932E1,-3.864359617E0,-8.200390816E0,9.897932053E0
2.344896268E1,-4.829252243E0,-7.170853138E0,7.005648136E0
2.350095607E1,-3.026363373E0,-5.317684174E0,6.486090660E0
2.355295016E1,-2.403851986E0,-2.885101080E0,8.250671387E0
2.360494375E1,-4.415042877E0,1.417410731E0,8.485309601E0
2.365693708E1,-3.246636629E0,7.733507752E-1,8.913885117E0
2.370893044E1,-3.198751211E0,7.925049663E-1,6.019207001E0
2.376092373E1,-1.343188167E0,1.436564885E-2,5.106987953E0
2.381291702E1,-1.699935079E0,1.273754239E0,6.976916790E0
2.386491048E1,-2.547508478E0,5.533169270E0,6.296942711E0
2.391690404E1,-1.678386688E0,3.378321648E0,6.198777676E0
2.396889802E1,2.564268351E0,1.173194647E0,-5.820482254E0
2.402089142E1,2.614548206E0,-8.221940041E0,-8.846845627E0
2.407288478E1,-7.252258301E0,-2.477835083E1,1.547180367E1
2.412487797E1,5.698373914E-1,-1.549095821E1,7.613793850E0
2.417687479E1,-1.087479591E1,-1.736088753E1,1.373356056E1
2.422887302E1,-5.396695614E0,-1.181335163E1,1.276866722E1
2.428086901E1,-1.505998850E0,-8.645726204E0,9.873989105E0
2.433286243E1,-4.848406315E0,-6.797346115E0,8.463761330E0
2.438485589E1,-5.049525738E0,-5.305713177E0,8.327287674E0
2.443684908E1,-4.968120098E0,-4.455745220E0,8.267431259E0
2.448884244E1,-5.138113976E0,-5.564294815E0,8.174054146E0
2.454083574E1,-1.979107475E1,-2.732106972E1,1.495224571E1
2.459282952E1,-3.375927508E-1,-3.435784340E0,-2.897072554E0
2.464482338E1,-2.205127001E0,7.537177086E0,-1.132252598E1
2.469486986E1,8.849239349E0,1.336723614E1,-7.479714394E0
2.474686342E1,-4.175615311E0,-6.105400562E0,1.023073673E1
2.479885654E1,-9.897932053E0,-1.581179047E1,1.565616322E1
2.485084993E1,1.170800328E0,-3.192047119E1,5.348809719E0
2.490284326E1,-5.978504181E0,-1.849816704E1,5.763019562E0
2.495483662E1,-1.170800328E0,-1.021876526E1,7.719141960E0
2.500683024E1,-3.131711483E0,-6.979310989E0,7.709564686E0
2.505882420E1,-5.609786034E0,-5.068679810E0,9.397528648E0
2.511081762E1,-4.692778587E0,-3.033546209E0,7.568302631E0
2.516281091E1,-5.657671452E0,-1.743032098E0,7.834067345E0
2.521480421E1,-3.888302326E0,3.543526828E-1,7.410280704E0
2.526680040E1,-2.513988495E0,-1.795706153E0,6.598621368E0
2.531879905E1,-3.854782343E0,-4.848406315E0,9.598648071E0
2.537079428E1,2.949746609E0,1.125309169E-1,-5.954561234E0
2.542278767E1,5.004034638E-1,-2.815667152E0,-4.793338299E0
2.547478089E1,-5.267404556E0,-7.668862343E0,7.273807049E0
2.552677422E1,-5.588237286E0,-9.227535248E0,1.508632565E1
2.557876761E1,3.976890564E0,-1.915419769E1,7.484503269E0
2.563076097E1,-1.159547329E1,-1.339357281E1,9.663292885E0
2.568275430E1,-5.650488377E0,-7.079870701E0,1.054678059E1
2.573474808E1,-2.442160249E-1,-7.671256542E0,1.224192715E1
2.578674197E1,-4.592218876E0,-6.873962879E0,8.688823700E0
2.583873530E1,-2.681587696E0,-6.112583637E0,9.720755577E0
2.589072859E1,-2.652856588E0,-2.394274712E0,7.362394810E0
2.594272195E1,-3.586623669E0,-1.740637779E0,9.534002304E0
2.599471541E1,-5.758230686E0,-1.898659945E0,8.178842545E0
2.604670864E1,1.261782765E0,-8.619389534E-1,6.162863255E0
2.609870203E1,5.291347504E-1,1.570644259E0,-5.854001999E0
2.615069598E1,-7.948992252E-1,-8.739103079E-1,-4.058295727E0
2.620268960E1,-1.616135478E0,-5.140508175E0,6.452570438E0
2.625468316E1,-3.976890564E0,-5.971321583E0,9.045570374E0
2.630667629E1,3.371139050E0,-1.498097706E1,3.945764780E0
2.635867128E1,-1.625712585E1,-1.671443176E1,1.227544689E1
2.641066700E1,-4.666441441E0,-8.894730568E0,1.222037888E1
2.646266029E1,-3.881119490E0,-7.405491829E0,1.209108734E1
2.651465365E1,-6.481301785E0,-5.806116581E0,9.550762177E0
2.656664698E1,-3.505218267E0,-5.346415520E0,9.189227104E0
2.661864031E1,-5.664854050E0,-3.658451796E0,6.569890022E0
2.667063380E1,-7.362394810E0,-3.256213665E-1,7.891529560E0
2.672262696E1,-5.870761871E0,1.426987767E0,7.027196407E0
2.677462128E1,-4.575459003E0,7.901107073E-1,6.929031372E0
2.682661480E1,-3.708731651E0,-1.352765322E0,5.413455486E0
2.687860813E1,9.601042271E-1,-2.559479713E0,3.332830429E0
2.693060139E1,3.519583941E0,-1.096577883E0,-4.917840481E0
2.698259465E1,-3.591412306E-1,-2.446948767E0,-3.471698523E0
2.703458804E1,-7.709565163E-1,-5.791750908E0,5.083045483E0
2.708658137E1,-1.632895470E0,-8.451789856E0,1.110943508E1
2.713857459E1,1.960911036E0,-1.589080143E1,1.377665710E1
2.719056888E1,-1.544546700E1,-2.294194031E1,9.476539612E0
2.724256237E1,-8.775016785E0,-1.153082752E1,8.229122162E0
2.729455570E1,-3.141288519E0,-9.859623909E0,1.434410000E1
2.734654909E1,-4.206740856E0,-5.205153465E0,8.834874153E0
2.739854421E1,-4.314483166E0,-3.526766777E0,8.032792091E0
2.745054316E1,-3.416630268E0,-2.899466753E0,6.464541912E0
2.750253909E1,-2.755810261E0,-2.995237827E0,5.229096413E0
2.755453235E1,-2.588211060E0,-2.006402254E0,3.265790939E0
2.760652567E1,-6.014418125E0,-1.541913033E0,1.036720991E0
2.765851907E1,6.502850533E0,4.824463844E0,1.592192769E0
2.771051239E1,3.512401104E0,3.517189741E0,-5.154873848E0
2.776250575E1,1.336005330E0,-5.458946824E-1,3.064671755E-1
2.781449931E1,-1.292908430E0,-7.065505028E0,8.097437859E0
2.786649257E1,-6.428627968E0,-2.255885696E1,1.723638344E1
2.791848666E1,2.604970932E0,-2.474004173E1,2.293715239E0
2.797048008E1,-7.156487465E0,-1.495703506E1,2.806090117E0
2.802247341E1,-6.035966873E0,-1.024270725E1,7.513234138E0
2.807446670E1,-3.193962574E0,-9.052753448E0,1.008229160E1
2.812646012E1,-3.921822071E0,-5.870761871E0,6.150891781E0
2.817845355E1,-4.692778587E0,-4.422225475E0,5.640911579E0
2.823044671E1,-3.110162973E0,-3.598595142E0,7.063110828E0
2.828244037E1,-4.316877365E0,-5.755836487E0,6.399896622E0
2.833443445E1,-3.993650436E0,-1.628106833E0,7.551542759E0
2.838642775E1,-2.387091875E0,7.637736797E-1,1.683175206E0
2.843842111E1,1.429382086E0,3.167625666E0,-2.533142805E0
2.849041550E1,2.015979290E0,1.060663700E0,-1.726272106E0
2.854241159E1,-1.180377483E0,-4.630527496E0,7.652102470E0
2.859440511E1,-4.005621910E0,-4.407859802E0,9.469356537E0
2.864639847E1,1.630501151E0,-2.303531837E1,5.090228081E0
2.869839176E1,-1.481337833E1,-1.801452446E1,7.393520832E0
2.875038509E1,-3.150865555E0,-9.783006668E0,1.030016994E1
2.880237842E1,-1.716695070E0,-7.357606411E0,8.379961967E0
2.885437218E1,-6.356799603E0,-6.184412003E0,7.925049782E0
2.890636550E1,-4.846012115E0,-4.429408550E0,7.913078308E0
2.895835942E1,-4.302511692E0,-3.313676357E0,9.095849991E0
2.901035284E1,-2.940169573E0,-2.549902678E0,5.174027920E0
2.906234650E1,-6.153286457E0,-3.344801903E0,4.910657406E0
2.911434020E1,-4.695172787E0,-2.511594296E0,3.440572977E0
2.916633276E1,1.101366401E0,3.040729046E0,-3.067065954E0
2.921832608E1,5.123748183E-1,1.431776285E0,-2.063864946E0
2.927031951E1,-1.376708031E0,-5.348809719E0,7.697593689E0
2.932231346E1,-6.189200401E0,-6.550735950E0,1.066409969E1
2.937430728E1,3.102980137E0,-1.437522602E1,6.790163517E0
2.942630054E1,-1.590995598E1,-1.953009987E1,5.332049847E0
2.947829397E1,-7.659285069E0,-8.356019020E0,7.697593689E0
2.953028819E1,-1.489238977E0,-8.224333763E0,1.393946838E1
2.958228704E1,-6.071880817E0,-6.447782040E0,7.917866707E0
2.963428404E1,-4.656864643E0,-5.640911579E0,8.755863190E0
2.968627833E1,-4.743058205E0,-3.818868399E0,7.336058140E0
2.973827186E1,-4.201952457E0,-2.470891714E0,7.209161282E0
2.979026515E1,-5.142902374E0,-1.573038578E0,5.322473049E0
2.984225814E1,-2.782147408E0,3.232271075E-1,1.102563572E1
2.989425150E1,3.399870098E-1,1.261782765E0,-2.257801056E0
2.994624483E1,2.329629421E0,1.996825218E0,-6.960156918E0
2.999823881E1,-1.017566800E0,-2.281744003E0,5.004034638E-1
3.005023257E1,-1.862745762E0,-5.822876453E0,7.640130997E0
3.010222593E1,-8.061523438E0,-1.493548584E1,1.531378174E1
3.015421912E1,1.467690468E0,-1.751651382E1,6.790163517E0
3.020621268E1,-1.102563572E1,-1.532096481E1,8.107014656E0
3.025820591E1,-4.987274647E0,-9.672870636E0,7.965752125E0
3.031019947E1,-3.648874760E0,-8.195602417E0,9.150918007E0
3.036219263E1,-4.846012115E0,-6.261028767E0,7.556331158E0
3.041418688E1,-3.914639235E0,-4.860377789E0,6.634535313E0
3.046618024E1,-3.586623669E0,-3.749434233E0,6.213143349E0
3.051817360E1,-3.457332850E0,-2.983266354E0,5.686402798E0
3.057016686E1,-3.083826065E0,-2.315263748E0,3.835628271E0
3.062216118E1,-1.175588965E0,-4.261809289E-1,6.280182838E0
3.067416000E1,3.478881359E0,3.794925690E0,-1.218685865E0
3.072615662E1,-1.755003452E0,-4.309694767E-1,1.561067224E0
3.077815028E1,-4.889109135E0,-5.310501575E0,1.054917526E1
3.083014381E1,2.561874092E-1,-8.341653824E0,9.205986977E0
3.088213697E1,-5.437397957E0,-2.161790657E1,4.678412914E0
3.093413020E1,-1.842873383E1,-1.018285084E1,5.375146866E0
3.098612356E1,-2.604970932E0,-7.264229774E0,1.072874546E1
3.103811698E1,-2.600182533E0,-6.421444893E0,9.809344292E0
3.109011044E1,-7.371972084E0,-5.602602959E0,6.572284222E0
3.114210459E1,-4.984879971E0,-5.320078850E0,6.431022167E0
3.119409798E1,-4.412648678E0,-4.994457245E0,6.533976078E0
3.124609128E1,-3.404658794E0,-2.868341208E0,3.996044636E0
3.129808460E1,-4.206740856E0,-1.558672905E0,5.650488734E-1
3.135007799E1,3.782954216E-1,8.308133483E-1,5.576265812E0
3.140207119E1,-1.077423692E-1,2.250618219E0,1.426987767E0
3.145406475E1,-1.867534369E-1,-1.383890867E0,3.385504484E0
3.150605850E1,-6.308914185E0,-6.720729351E0,8.854028702E0
3.155805239E1,-3.203539610E0,-7.958569527E0,1.528026199E1
3.161004558E1,2.751021862E0,-1.649655342E1,2.949746609E0
3.166203894E1,-7.472531796E0,-1.402087307E1,1.022594738E1
3.171403290E1,-6.261028767E0,-5.399089813E0,7.747873306E0
3.176602912E1,-6.438204765E0,-6.859597206E0,1.010144520E1
3.181802291E1,-7.252258301E0,-5.320078850E0,8.288979530E0
3.187001637E1,-2.384697676E0,-4.886714935E0,9.909903526E0
3.192196686E1,-5.226701736E0,-4.005621910E0,8.090254784E0
3.197396025E1,-2.935380936E0,-3.165231228E0,6.126949310E0
3.202595358E1,-3.938581944E0,-3.165231228E0,5.336838722E0
3.207794684E1,-3.404658794E0,-2.621730804E0,3.366350412E0
3.212994059E1,-3.033546209E0,-2.784541607E0,4.527573586E0
3.218193464E1,4.573064744E-1,1.115732074E0,-4.692778587E0
3.223392787E1,1.012778282E0,-1.877111435E0,-3.639297783E-1
3.228592136E1,-3.138894320E0,-8.767834663E0,1.236882401E1
3.233791462E1,-4.084632874E0,-1.200489426E1,1.647500420E1
3.238990792E1,9.098244458E-2,-1.820606613E1,7.039167881E0
3.244190134E1,-5.715134144E0,-1.156913567E1,6.596227169E0
3.249389460E1,-8.279402733E0,-6.842837334E0,6.229903221E0
3.254588846E1,-6.754249096E0,-7.182824612E0,9.088666916E0
3.259788228E1,-6.253845692E0,-4.613767624E0,6.007235527E0
3.264987560E1,-1.996825218E0,-4.175615311E0,8.142929077E0
3.270186890E1,-3.043123245E0,-3.234665155E0,6.660872459E0
3.275386265E1,-2.806090117E0,-2.389486313E0,7.678439140E0
3.280586111E1,-2.202732801E0,-1.063058019E0,3.840416908E0
3.285785860E1,-3.533949614E0,-3.160442710E-1,7.778998852E0
3.290985330E1,3.833234072E0,3.354378939E0,-1.482056141E0
3.296184665E1,5.578660369E-1,8.930644989E-1,-3.392687321E0
3.301383991E1,-2.154847383E0,-5.442186832E0,1.041030693E1
3.306583334E1,-3.361561775E0,-4.925023079E0,9.775823593E0
3.311782667E1,-4.908263385E-1,-2.076794052E1,6.620169640E0
3.316982019E1,-1.179659176E1,-1.643909073E1,7.929838181E0
3.322181444E1,-5.083045483E0,-8.090254784E0,8.968953133E0
3.327380784E1,-3.672817469E0,-7.127756119E0,1.062100315E1
3.332580096E1,-5.317684174E0,-4.908263206E0,8.978530884E0
3.337779445E1,-4.096604347E0,-3.782954216E0,8.339259148E0
3.342978765E1,-4.130124092E0,-2.324840784E0,7.178035736E0
3.348178100E1,-2.956929445E0,-1.769369125E0,6.730306625E0
3.353377440E1,-2.346389294E0,-1.395862222E0,5.727105141E0
3.358576776E1,-2.822849989E0,-1.683175206E0,5.365570068E0
3.363776194E1,-2.226675600E-1,-9.313728809E-1,7.182824612E0
3.368975543E1,2.281744003E0,1.027143836E0,-5.937801600E-1
3.374174872E1,-1.448536277E0,-1.723877907E0,-8.356019258E-1
3.379374205E1,-3.565075159E0,-6.914665699E0,7.424646378E0
3.384573561E1,-1.036720991E0,-8.961771011E0,1.378623390E1
3.389773393E1,1.142069101E0,-1.868492126E1,2.049499273E0
3.394973135E1,-9.148524284E0,-1.704723740E1,9.493299484E0
3.400172538E1,-4.625739098E0,-6.852414608E0,7.994483471E0
3.405371870E1,-5.011217117E0,-7.233104229E0,1.154998207E1
3.410571199E1,-7.654496670E0,-5.042342663E0,9.040781975E0
3.415770539E1,-2.810878515E0,-4.381523132E0,8.921068192E0
3.420969888E1,-4.556304932E0,-3.732674360E0,7.498868465E0
3.426169217E1,-3.529160976E0,-3.433390141E0,5.640911579E0
3.431368589E1,-6.220325947E0,-2.734261751E0,4.826858044E0
3.436567975E1,-4.510813713E0,-1.199531674E0,4.122941017E0
3.441767304E1,3.184385598E-1,-2.842004299E0,8.449396133E0
3.446966647E1,1.182771802E0,3.153259993E0,-1.470084786E0
3.452165969E1,3.842811108E0,2.104567528E0,-4.790944099E0
3.457365308E1,-1.419804931E0,-3.885908127E0,3.471698523E0
3.462564648E1,-4.767001152E0,-7.714353561E0,1.440874577E1
3.467763974E1,9.648927450E-1,-1.581657982E1,1.476070404E1
3.472963372E1,-6.344828129E0,-2.035372925E1,5.561900616E0
3.478162741E1,-1.053959751E1,-1.056832886E1,5.365570068E0
3.483362077E1,-2.940169573E0,-7.884346962E0,9.605830193E0
3.488561420E1,-3.921822071E0,-7.034379482E0,9.443019867E0
3.493760758E1,-5.499649048E0,-5.684008598E0,8.779806137E0
3.498960374E1,-4.757423878E0,-3.531555414E0,8.188420296E0
3.504159830E1,-2.679193497E0,-2.248224020E0,8.447001457E0
3.509359133E1,-3.232270956E0,-1.946545362E0,5.490072250E0
3.514558485E1,-2.518777132E0,1.324033976E0,8.329682350E0
3.519757808E1,2.202732801E0,1.403045058E0,4.458139896E0
3.524957154E1,-7.422251701E-1,1.455719113E0,-1.805283189E0
3.530156483E1,-5.363175869E-1,-1.843591571E0,-6.177229285E-1
3.535355852E1,-3.258608103E0,-6.280182838E0,4.419831276E0
3.540555244E1,-7.812518597E0,-1.668570137E1,1.053002071E1
3.545754580E1,9.313728809E-1,-1.843831062E1,3.407052994E0
3.550953909E1,-1.747820616E0,-1.357793236E1,9.112609863E0
3.556153258E1,-3.969707727E0,-9.409500122E0,1.330737972E1
3.561352581E1,-5.760625362E0,-8.233911514E0,1.194982529E1
3.566551910E1,-5.854001999E0,-4.709538460E0,9.335277557E0
3.571751243E1,-4.503631115E0,-1.862745762E0,9.665687561E0
3.576950632E1,-4.178009510E0,-4.357580245E-1,8.351230621E0
3.582150017E1,-4.178009510E0,-1.268965602E-1,7.558725357E0
3.587349343E1,-4.508419514E0,-2.537931204E-1,6.450176239E0
3.592548682E1,-3.533949614E0,-3.543526828E-1,5.185999393E0
3.597748025E1,-3.677606106E0,-1.628106833E0,3.660846233E0
3.602947780E1,-9.816526622E-2,-2.753416061E0,1.781340480E0
3.608147569E1,-6.296942830E-1,-2.506805658E0,-8.763045669E-1
3.613347012E1,4.429408312E-1,-2.873129845E0,-5.794144869E-1
3.618546358E1,-2.576239586E0,-9.383162498E0,1.062100315E1
3.623745694E1,-3.349590540E0,-1.713821983E1,1.357074928E1
3.628945023E1,-7.506051540E0,-2.215422440E1,8.107014656E0
3.634144349E1,-8.339259148E0,-1.058269501E1,9.205986977E0
3.639343698E1,-7.805336118E-1,-8.710371971E0,1.291471863E1
3.644543021E1,-2.906649590E0,-6.114977837E0,7.178035736E0
3.649742443E1,-6.828471661E0,-5.080651283E0,7.539571285E0
3.654941795E1,-4.843617916E0,-4.084632874E0,6.823683262E0
3.660141118E1,-3.742251635E0,-4.575459003E0,5.976109982E0
3.665340450E1,-1.960911036E0,-4.031958580E0,3.739857197E0
3.670539783E1,-9.672870636E0,-4.539545059E0,2.097384691E0
3.675739119E1,1.242628574E0,4.333637238E0,4.422225475E0
3.680938458E1,3.124528646E0,6.143709183E0,-3.390293121E0
3.686137814E1,-2.777358890E-1,-1.953728199E0,3.483669758E0
3.691337216E1,-1.352765322E0,-1.158829021E1,1.215812778E1
3.696536558E1,-7.805335999E0,-2.258519363E1,5.346415520E0
3.701735891E1,-4.747847080E0,-2.225478363E1,4.393494129E0
3.706935230E1,-2.820455790E0,-1.305598068E1,8.039975166E0
3.712134812E1,-4.228289127E0,-1.083648777E1,8.913885117E0
3.717334282E1,-3.584229469E0,-6.802134514E0,4.580247879E0
3.722533624E1,-3.572257996E0,-4.388705730E0,6.658478260E0
3.727732953E1,-1.108549237E0,-2.731867552E0,8.200390816E0
3.732932296E1,-2.535537004E0,-1.544307232E0,8.913885117E0
3.738131632E1,-2.248224020E0,-8.978530765E-1,8.456578255E0
3.743330971E1,-2.140481710E0,-6.967339516E-1,6.366376877E0
3.748530340E1,-2.372726440E0,-1.209108829E0,2.231464148E0
3.753729735E1,2.801301479E-1,-5.315290093E-1,1.508393168E0
3.758929058E1,-1.508393139E-1,3.543526828E-1,-1.000806928E0
3.764128400E1,-2.351177931E0,-3.474092722E0,4.218712330E0
3.769327736E1,-6.816500187E0,-1.088916206E1,1.421720409E1
3.774527062E1,9.337671995E-1,-1.963305283E1,6.100612164E0
3.779726395E1,-8.923461914E0,-1.947742462E1,2.861158371E0
3.784925721E1,-4.405465603E0,-1.011581135E1,6.442993641E0
3.790125083E1,-4.975303173E0,-7.489291668E0,8.880365372E0
3.795324482E1,-4.089421272E0,-5.703162670E0,1.063057995E1
3.800523824E1,-4.999245644E0,-3.330436230E0,9.677659035E0
3.805723160E1,-6.103006363E0,-1.934574008E0,8.571503639E0
3.810922493E1,-5.784567833E0,2.059076279E-1,5.909070015E0
3.816122148E1,-4.139701366E0,-9.337671846E-2,4.520390987E0
3.821321980E1,-3.220299721E0,-9.960182905E-1,3.134105682E0
3.826521596E1,-9.026415944E-1,-2.818061352E0,1.180377483E0
3.831720942E1,-3.615354896E-1,9.026415944E-1,1.039115310E0
3.836920252E1,2.576239586E0,6.680026650E-1,-1.972882390E0
3.842119591E1,9.720755816E-1,-2.504411459E0,3.694365978E0
3.847318937E1,-2.478074312E0,-1.089155579E1,1.215094471E1
3.852518259E1,-1.853168726E0,-2.088765335E1,1.159068394E1
3.857717645E1,-5.032765865E0,-2.260674286E1,5.037554264E0
3.862917030E1,-6.617775440E0,-1.163378143E1,5.925830364E0
3.868116363E1,-2.377514839E0,-9.275420189E0,9.871595383E0
3.873315689E1,-2.760598898E0,-6.751854897E0,8.370385170E0
3.878515042E1,-6.055120945E0,-5.557111740E0,9.047964096E0
3.883714361E1,-2.937775135E0,-4.561093330E0,7.422251701E0
3.888913693E1,-1.403045058E0,-3.976890564E0,6.572284222E0
3.894113026E1,8.379961848E-1,-1.654443860E0,5.511620522E0
3.899312445E1,1.106154919E0,4.453351200E-1,4.867560863E0
3.904511784E1,-7.374366522E-1,1.963305324E-1,6.416656494E0
3.909711136E1,4.046324492E-1,-1.307274103E0,1.239037228E1
3.914910472E1,9.624984860E-1,8.260248303E-1,1.155955887E1
3.920106767E1,4.261809289E-1,9.601042271E-1,-8.379961550E-2
3.925306402E1,-2.157241583E0,-3.742251635E0,-4.017592907E0
3.930506254E1,-7.812518597E0,-1.492590904E1,4.728692532E0
3.935705760E1,-5.329655647E0,-1.623797226E1,4.886714935E0
3.940905103E1,-6.694392204E0,-1.973361206E1,8.597841263E0
3.946104426E1,-1.546701550E0,-8.856422424E0,1.252684593E1
3.951303768E1,-7.805336118E-1,-9.443019867E0,1.573756790E1
3.956503104E1,-5.525986195E0,-8.648120880E0,8.968953133E0
3.961702427E1,-4.939388752E0,-6.830865860E0,1.162420464E1
3.966901779E1,-2.456526041E0,-5.109382629E0,1.006074238E1
3.972101208E1,-2.391880512E0,-3.392687321E0,8.071100235E0
3.977300533E1,-2.921015263E0,-2.013585091E0,6.366376877E0
3.982499869E1,-3.395081758E0,-1.585009933E0,6.572284222E0
3.987699202E1,-3.028757572E0,-1.316851079E-1,1.836408734E0
3.992898531E1,-6.229903221E0,1.388679445E-1,3.419024467E0
3.998097867E1,-1.769369125E0,-3.878725171E-1,2.729473412E-1
4.003297206E1,1.563461423E0,-9.816526771E-1,6.249057055E-1
4.008496546E1,-6.464542150E-1,-3.629720688E0,7.520417213E0
4.013695957E1,-5.111776829E0,-4.996851444E0,9.622590065E0
4.018895300E1,2.406246185E0,-6.294548512E0,6.861991405E0
4.024094639E1,-9.835680962E0,-1.856760025E1,1.313020325E1
4.029293972E1,-8.178842545E0,-7.515628815E0,1.005116558E1
4.034493484E1,-2.135693073E0,-5.490072250E0,1.358990383E1
4.039693036E1,-3.122134447E0,-4.769395351E0,1.106154919E1
4.044892362E1,-3.998438835E0,-4.592218876E0,9.917086601E0
4.050091712E1,-2.561874151E0,-3.433390141E0,8.997684479E0
4.055291038E1,-2.921015263E0,-4.223500729E0,8.348835945E0
4.060490367E1,-2.094990492E0,-4.855589390E0,8.200390816E0
4.065689706E1,-3.102980137E0,-2.676799297E0,2.499622822E0
4.070889045E1,-2.652856588E0,-2.513988614E-1,3.043123245E0
4.076088464E1,3.933793545E0,1.381496549E0,-4.556304932E0
4.081287816E1,1.999219418E0,2.609759569E-1,-3.016786337E0
4.086487145E1,1.795706153E0,-2.964112282E0,4.089421272E0
4.091686478E1,-5.159662247E0,-1.109267521E1,1.536884975E1
4.096885804E1,-1.800494671E0,-1.891716576E1,1.388439941E1
4.102085140E1,-1.259867382E1,-1.977192116E1,3.560286522E0
4.107284472E1,-6.603409767E0,-9.794978142E0,8.097437859E0
4.112483845E1,-4.067873001E0,-6.565101624E0,1.045100975E1
4.117683243E1,-3.830839634E0,-6.510033131E0,8.916279793E0
4.122882573E1,-6.680026531E0,-5.636122704E0,7.673650742E0
4.128081902E1,-2.188367128E0,-4.113364220E0,1.002961731E1
4.133281241E1,-3.656057596E0,-3.519583941E0,7.276201248E0
4.138480786E1,-4.668835640E0,9.577099234E-3,7.070293427E0
4.143680672E1,-3.268185139E0,8.595446348E-1,8.147717476E0
4.148880251E1,-2.269772530E0,6.416656375E-1,5.265010357E0
4.154079594E1,-2.394274808E-2,-9.816526622E-2,3.629720688E0
4.159278913E1,1.771763325E0,1.043903828E0,-2.583422422E0
4.164478246E1,1.137280583E0,-9.289786220E-1,-1.125309169E-1
4.169677575E1,-2.731867552E0,-6.574678421E0,7.561120033E0
4.174876921E1,-3.732674360E0,-1.413340378E1,1.393707371E1
4.180076243E1,-2.087807655E0,-1.481337833E1,5.743865490E0
4.185275619E1,-1.201207638E1,-1.288119888E1,2.842004299E0
4.190475004E1,-8.552350044E0,-7.549148560E0,8.291373253E0
4.195674344E1,-4.723904133E0,-7.314509392E0,1.238797760E1
4.200873676E1,-7.585062504E0,-6.208354473E0,9.411893845E0
4.206073005E1,-5.980898380E0,-4.743058205E0,8.164477348E0
4.211272351E1,-4.551516533E0,-2.952140808E0,7.623371124E0
4.216471684E1,-2.205127001E0,-1.455719113E0,7.328875065E0
4.221671006E1,-1.304879785E0,1.268965602E-1,6.816500187E0
4.226870428E1,-8.715160489E-1,6.225114316E-2,5.889915943E0
4.232069777E1,-1.438959122E0,-2.758204460E0,9.265843630E-1
4.237269113E1,4.070267081E-1,2.394274771E-1,-1.915419847E-2
4.242468453E1,-8.188419938E-1,3.735068738E-1,-4.118152618E0
4.247667898E1,-8.739103079E-1,-5.332049847E0,3.890696526E0
4.252867507E1,-6.871568680E0,-1.336244774E1,1.419804955E1
4.258066853E1,-3.950553536E-1,-1.682217407E1,8.090254784E0
4.263266183E1,-6.198777676E0,-1.780622101E1,5.214730740E0
4.268465512E1,-6.244268894E0,-1.075029373E1,8.482915878E0
4.273664854E1,-4.889109135E0,-9.510059357E0,1.134167957E1
4.278864184E1,-3.687183142E0,-7.127756119E0,8.233911514E0
4.284063516E1,-4.453351021E0,-5.403878212E0,8.954587936E0
4.289262905E1,-2.145270348E0,-4.975303173E0,8.406298637E0
4.294462304E1,-2.537931204E0,-3.459727049E0,5.722316742E0
4.299661613E1,-1.585009933E0,-2.470891714E0,6.045543671E0
4.304860956E1,-6.016812801E0,-2.308080912E0,7.127756119E0
4.310060282E1,-2.190761566E0,-1.405439258E0,5.339232922E0
4.315259611E1,-1.795706153E0,1.177983165E0,9.696813226E-1
4.320458954E1,-1.939362645E0,5.195576549E-1,3.064671755E0
4.325658300E1,-4.740664005E0,-4.223500729E0,6.708757877E0
4.330857688E1,-4.958543301E0,-8.684034348E0,1.042467213E1
4.336057060E1,-7.668862343E0,-7.280989647E0,5.722316742E0
4.341256396E1,1.922602654E0,-1.460268211E1,1.043903828E0
4.346455712E1,-2.592999697E0,-1.771045113E1,1.109028053E1
4.351655181E1,-7.240286827E0,-1.030256462E1,8.818114281E0
4.356855060E1,-4.407859802E0,-9.739910126E0,8.892336845E0
4.362054759E1,-2.796513081E0,-1.013257122E1,9.495694160E0
4.367254159E1,-3.723097324E0,-8.846845627E0,7.570696831E0
4.372453491E1,-4.228289127E0,-7.458166122E0,5.700768471E0
4.377652817E1,-3.581835032E0,-5.001639843E0,4.383917332E0
4.382852150E1,-7.757450342E-1,-7.829278708E-1,4.877137661E0
4.388051489E1,-4.381522834E-1,1.170800328E0,3.186779737E0
4.393250842E1,1.113337755E0,5.075862408E-1,-6.344828010E-1
4.398450267E1,2.571451187E0,-2.442160249E-1,-4.304905891E0
4.403649596E1,6.009629965E-1,-7.561120033E0,1.087000751E1
4.408848922E1,-5.765413761E0,-7.656890869E0,1.690358043E0
4.414048251E1,-6.565101624E0,-2.419175339E1,1.398735332E1
4.419247600E1,9.220352173E0,-1.805762100E1,-9.337671995E-1
4.424446936E1,-5.193181992E0,-1.350131607E1,1.010383964E0
4.429646252E1,-8.435029984E0,-1.275190735E1,6.665660858E0
4.434845624E1,-3.957736254E0,-9.352037430E0,5.877944469E0
4.440045016E1,-7.896318436E0,-9.452596664E0,1.129618835E1
4.445244372E1,-7.362394810E0,-6.313702583E0,8.815719604E0
4.450443702E1,-7.245075703E0,-4.391099930E0,5.676825523E0
4.455643051E1,-5.090228081E0,-1.551490068E0,3.162837029E0
4.460842470E1,-2.614548206E0,-6.656084061E-1,3.220299721E0
4.466042348E1,-1.927391171E0,5.171633363E-1,2.626519442E0
4.471242004E1,-2.537931204E-1,7.015225291E-1,1.453324795E0
4.476441360E1,2.355966330E0,2.099778891E0,-3.395081758E0
4.481640683E1,2.300898075E0,-2.588211060E0,-4.525179386E0
4.486840025E1,-1.778946161E0,-6.821289062E0,5.291347504E0
4.492039351E1,-7.429434776E0,-1.059945488E1,1.183968925E1
4.497238700E1,1.027143836E0,-1.819648933E1,5.597814560E0
4.502438030E1,-4.541939259E0,-2.001134872E1,6.215537548E0
4.507637402E1,-5.351204395E0,-9.806949615E0,4.261809349E0
4.512836807E1,-5.964138508E0,-9.076695442E0,9.507665634E0
4.518036133E1,-6.244268894E0,-7.676044941E0,1.025707340E1
4.523235462E1,-4.953754425E0,-6.299336910E0,9.993702888E0
4.528434795E1,-6.435810566E0,-4.525179386E0,9.953000069E0
4.533634131E1,-3.026363373E0,-1.817254543E0,9.502876282E0
4.538833460E1,-1.367130876E0,2.873129770E-2,6.976916790E0
4.544032810E1,8.308133483E-1,-3.160442710E-1,8.190814018E0
4.549232185E1,6.488484740E-1,-9.337671846E-2,5.983292580E0
4.554431560E1,5.818088055E-1,1.668809533E0,7.182824612E-1
4.559630913E1,1.340793848E0,6.536370516E-1,-1.860351562E0
4.564830226E1,-1.546701550E0,-5.020794392E0,6.703969836E-2
4.570029625E1,-4.951360226E0,-1.109267521E1,5.298530102E0
4.575229257E1,-5.825270653E0,-1.661147881E1,4.857983589E0
4.580428650E1,1.345582485E0,-1.731539536E1,4.778972626E0
4.585627976E1,-3.517189741E0,-1.271359921E1,7.953781128E0
4.590827298E1,-6.833260536E0,-1.030735302E1,1.212460804E1
4.596026631E1,-6.751854897E0,-8.794171333E0,1.489238930E1
4.601225970E1,-6.495667458E0,-5.300924301E0,1.181574631E1
4.606425299E1,-5.020794392E0,-3.888302326E0,1.220601273E1
4.611624698E1,-3.134105682E0,-2.154847383E0,1.045340347E1
4.616824057E1,-2.762993097E0,-5.937801600E-1,8.997684479E0
4.622023399E1,-2.408640385E0,1.771763325E0,7.585062504E0
4.627222735E1,-1.386285067E0,2.140481710E0,6.584255695E0
4.632422065E1,-2.425400496E0,1.118126392E0,2.209915638E0
4.637621401E1,-1.072635174E0,-2.621730804E0,-2.073441982E0
4.642820746E1,-1.793311834E0,-4.517996788E0,-2.609759569E-1
4.647822637E1,1.292908341E-1,-3.816473961E0,-4.781366825E0
4.653022049E1,-1.977671027E0,-1.064494610E1,2.164424419E0
4.658221408E1,-5.128536701E0,-1.642472458E1,7.635342598E0
4.663420744E1,-2.157241583E0,-1.725553894E1,7.149304390E0
4.668620080E1,-1.800494671E0,-1.914462090E1,1.120999432E1
4.673819459E1,-6.270605564E0,-1.466014481E1,1.147575951E1
4.679019298E1,-5.638517380E0,-1.058987713E1,1.233769798E1
4.684219020E1,-4.936994553E0,-8.049551964E0,1.503843975E1
4.689418413E1,1.221080124E-1,-4.810098171E0,1.260825157E1
4.694617752E1,-7.422251999E-2,-1.984853864E0,9.852440834E0
4.699817084E1,-1.192348838E0,-2.506805658E0,7.331269264E0
4.705016417E1,-3.129317284E0,-4.824463844E0,3.660846233E0
4.710215756E1,-3.510006905E0,-4.166038036E0,1.458113313E0
4.715415082E1,-6.584255695E0,-3.718308687E0,9.364008904E0
4.720614428E1,-1.953728199E0,4.692778587E0,-1.848380208E0
4.725813837E1,5.051919937E0,5.894704342E0,-9.696812630E0
4.731013186E1,4.513207912E0,6.560313106E-1,-3.323253393E0
4.736212519E1,-1.647261024E0,-7.529994488E0,4.333637238E0
4.741411844E1,-1.165293503E1,-3.201384735E1,2.624843407E1
4.746611190E1,3.799714088E0,-1.990121269E1,2.983266354E0
4.751810533E1,-2.140481710E0,-1.390115929E1,5.367964268E0
4.757009849E1,-6.031178474E0,-9.531607628E0,6.658478260E0
4.762209231E1,-4.513207912E0,-8.451789856E0,1.221080112E1
4.767408623E1,-5.712739468E0,-6.718335152E0,1.044382668E1
4.772607956E1,-5.583448887E0,-5.537957668E0,8.667274475E0
4.777807285E1,-3.119740009E0,-6.823683262E0,7.292961121E0
4.783006644E1,-2.581028223E0,-6.064698219E0,4.261809349E0
4.788206273E1,-2.566662550E0,-4.611373425E0,4.043930054E0
4.793405682E1,-3.524372578E0,-6.129343510E-1,3.079037428E0
4.798605025E1,1.419804931E0,2.420611858E0,-1.699935079E0
4.803804354E1,3.603383541E0,3.984073162E0,-6.668055534E0
4.809003680E1,3.237059593E0,9.601042271E-1,-4.860377908E-1
4.814203030E1,-3.356773376E0,-7.999272346E0,8.815719604E0
4.819402365E1,-8.619389534E0,-2.055963707E1,1.769129562E1
4.824601704E1,-9.385557175E-1,-2.111271477E1,2.545114040E0
4.829801120E1,-5.660065651E0,-1.520125103E1,4.398283005E0
4.835000469E1,-2.777358770E0,-8.973741531E0,7.300143719E0
4.840199788E1,-3.428601503E0,-8.288979530E0,1.195461369E1
4.845399134E1,-3.854782343E0,-6.095823765E0,1.016369629E1
4.850598453E1,-3.917033672E0,-4.881926537E0,9.926663399E0
4.855797789E1,-2.628913641E0,-3.517189741E0,9.093455315E0
4.860997138E1,-2.796513081E0,-1.280937076E0,7.168458939E0
4.866196491E1,-4.553910732E0,-1.015172482E0,1.005595398E1
4.871395886E1,-2.126116037E0,-7.494080067E-1,6.505244732E0
4.876595225E1,-1.304879785E0,1.357553840E0,-6.967339516E-1
4.881794558E1,5.339232683E-1,-4.357580245E-1,-3.826051235E0
4.886993914E1,-1.266571403E0,-3.229876757E0,-1.692752242E0
4.892193672E1,-3.759011507E0,-9.720755577E0,6.768614769E0
4.897393468E1,-6.881145954E0,-1.134407425E1,8.832479477E0
4.902592991E1,1.206714511E0,-1.316132832E1,4.486870766E0
4.907792324E1,-2.889889717E0,-1.582136822E1,9.155706406E0
4.912991663E1,-4.910657406E0,-9.603436470E0,1.011581135E1
4.918190992E1,-2.399063349E0,-8.705583572E0,1.623078918E1
4.923390321E1,-2.351177931E0,-6.493273258E0,1.414776993E1
4.928589671E1,-2.039922237E0,-5.083045483E0,1.052283764E1
4.933789082E1,-2.049499273E0,-4.367157459E0,9.356825829E0
4.938988425E1,-2.403851986E0,-3.155654192E0,7.587456703E0
4.944187768E1,-1.831620216E0,-1.558672905E0,3.191568375E0
4.949387090E1,-4.984879971E0,-1.695146561E0,1.022115898E1
4.954586429E1,-1.738243461E0,2.490045726E-1,6.007235527E0
4.959785762E1,2.475680113E0,2.140481710E0,-2.099778891E0
4.964985098E1,1.118126392E0,4.525179267E-1,-3.086220264E0
4.970184430E1,-5.387118459E-1,-2.255406857E0,1.300091267E0
4.975383856E1,-2.485257149E0,-5.389512539E0,7.233104229E0
4.980583202E1,-5.743865490E0,-1.080775642E1,1.310386562E1
4.985782524E1,-3.387898922E0,-1.541673565E1,6.390319347E0
4.990981864E1,-6.150891781E0,-1.343667030E1,1.046537495E1
4.996181213E1,3.591412306E-2,-8.995290756E0,1.470563602E1
5.001380958E1,-3.909850836E0,-8.490098000E0,1.379102325E1
5.006580753E1,-4.506025314E0,-5.485283375E0,1.253881741E1
5.011780196E1,-1.920208454E0,-2.827638626E0,9.316123009E0
5.016979525E1,-2.624125242E0,-2.154847383E0,8.942616463E0
5.022178868E1,-2.853975534E0,-1.577827096E0,7.192401409E0
5.027378197E1,-2.758204460E0,-1.486844659E0,5.832453251E0
5.032577527E1,-4.067873001E0,-1.884294271E0,6.912271500E0
5.037776869E1,-2.921015263E0,2.992843390E-1,4.834040642E0
5.042976205E1,-3.160442710E-1,2.602576733E0,-3.114951611E0
5.048175634E1,2.473285913E0,2.463708878E0,-7.326480865E0
5.053374973E1,-6.464541703E-2,-2.870735407E0,-7.470137477E-1
5.058574299E1,-1.043903828E0,-7.146910191E0,8.822902679E0
5.063773631E1,-8.585869789E0,-1.797621536E1,1.806959152E1
5.068972971E1,-2.212309837E0,-1.498337173E1,7.585062504E0
5.074172310E1,-7.580274105E0,-1.399453640E1,6.577073097E0
5.079371639E1,-4.506025314E0,-8.277008057E0,1.003440571E1
5.084570995E1,-3.294522047E0,-8.341653824E0,1.171279240E1
5.089770400E1,-6.481301785E0,-6.476513386E0,8.044763565E0
5.094969746E1,-4.312088966E0,-5.138113976E0,9.150918007E0
5.100169069E1,-2.092596292E0,-2.990449190E0,7.778998852E0
5.105368414E1,-2.449343204E0,-9.960182905E-1,6.371165276E0
5.110567983E1,-5.260221958E0,-7.518022656E-1,8.566715240E0
5.115767476E1,-3.052700281E0,1.388679445E-1,7.242681503E0
5.120966809E1,-3.205934048E0,-9.744698405E-1,5.554717541E0
5.126166131E1,-3.241847992E0,-4.549122229E-2,2.322446555E-1
5.131365477E1,1.264177084E0,1.240234375E0,-3.407052994E0
5.136564806E1,1.723877907E0,7.565908432E-1,-1.120520592E0
5.141764136E1,-2.183578730E0,-4.968120098E0,7.048745155E0
5.146963501E1,-3.227482557E0,-8.262641907E0,1.005595398E1
5.152162906E1,3.687183261E-1,-1.540955257E1,1.292190075E1
5.157362239E1,-6.191594601E0,-2.179987144E1,8.111803055E0
5.162561575E1,-5.865973473E0,-1.006074238E1,7.529994488E0
5.167760898E1,-2.157241583E0,-8.205180168E0,1.265853119E1
5.172960240E1,-2.430188894E0,-7.266623974E0,1.019721603E1
5.178159570E1,-4.132518291E0,-5.758230686E0,8.212362289E0
5.183358902E1,-3.811685562E0,-4.520390987E0,7.920260906E0
5.188558284E1,-2.334417820E0,-3.256213665E0,7.853221416E0
5.193757670E1,-2.229069948E0,-1.561067224E0,6.155680656E0
5.198957042E1,-4.716721475E-1,-3.040728867E-1,7.702382088E0
5.204156345E1,1.149251938E0,9.720755816E-1,7.295355320E0
5.209355681E1,1.580221415E0,3.083826065E0,5.253038883E0
5.214555343E1,5.794144869E-1,1.060663700E0,3.313676357E0
5.219755191E1,2.231464148E0,4.908263385E-1,5.099805593E-1
5.224954671E1,-2.660039425E0,-7.948992252E0,5.873156071E0
5.230154013E1,-4.683201313E0,-7.549148560E0,4.680807114E0
5.235353343E1,-2.372726440E0,-8.662486076E0,-2.207521439E0
5.240552675E1,-9.986519814E0,-2.064104271E1,4.383917332E0
5.245752011E1,-2.786935806E0,-1.594587040E1,1.230657291E1
5.250951390E1,8.954587579E-1,-1.020439911E1,1.501449776E1
5.256150683E1,-2.944957972E0,-8.751074791E0,1.507674885E1
5.261350078E1,-7.922655106E0,-8.044763565E0,1.223953247E1
5.266549441E1,-6.912271500E0,-5.992869854E0,9.560338974E0
5.271748783E1,-3.335224867E0,-3.996044636E0,1.046058655E1
5.276948109E1,-2.188367128E0,-1.996825218E0,8.427846909E0
5.282147445E1,-2.590605259E0,5.291347504E-1,9.052753448E0
5.287346771E1,8.379961550E-2,3.823656797E0,4.168432236E0
5.292546120E1,3.615354896E-1,-8.810931444E-1,1.836408734E0
5.297745456E1,-2.214704275E0,-4.192375183E0,2.772570133E0
5.302944878E1,1.664021015E0,-7.118178844E0,-4.908263385E-1
5.308144224E1,-2.449343204E0,-8.578686714E0,-1.826831698E0
5.313343550E1,-2.619336605E0,-9.268238068E0,3.567469418E-1
5.318542879E1,-2.298503876E0,-1.217728138E1,4.290540695E0
5.323742401E1,-9.720755816E-1,-2.024838257E1,6.047938347E0
5.328941950E1,-1.021876526E1,-1.647021675E1,1.313259697E1
5.334141283E1,-1.786128998E0,-1.406157589E1,1.791396332E1
5.339340629E1,-2.296109438E0,-1.036002731E1,1.773199844E1
5.344539948E1,-9.378374100E0,-7.158881664E0,1.201686573E1
5.349739291E1,-7.975329399E0,-4.798126698E0,1.278782177E1
5.354938623E1,-4.307300568E0,-2.715107679E0,1.012299347E1
5.360137952E1,-1.795706153E0,-7.948992252E-1,9.842864037E0
5.365337358E1,-3.600989342E0,-6.656084061E-1,7.946598053E0
5.370536724E1,-3.174808502E0,4.501236677E-1,5.449369431E0
5.375729416E1,-3.100585938E0,-8.236305118E-1,4.733481407E0
5.380928755E1,-1.510787368E0,-1.927391171E0,-1.537124395E0
5.386128084E1,-2.054287672E0,-7.482108593E0,-2.782147408E0
5.391327414E1,-2.691164970E0,-2.164424419E0,-2.224281311E0
5.396526750E1,-5.530774593E-1,-1.438959122E0,-1.479661822E0
5.401726122E1,-4.757423878E0,-1.007032013E1,9.804554939E0
5.406925524E1,-1.745426297E0,-1.016130257E1,1.154998207E1
5.412124846E1,9.265843630E-1,-1.711427689E1,5.279376030E0
5.417324199E1,-1.032650757E1,-2.172804451E1,1.127942848E1
5.422523525E1,-4.939388752E0,-1.358272076E1,1.213897324E1
5.427723084E1,-3.711125851E0,-9.902720451E0,1.297457504E1
5.432922943E1,-5.959350109E0,-9.347249031E0,1.201925945E1
5.438122595E1,-5.889915943E0,-7.537177086E0,1.071198559E1
5.443321955E1,-5.514014721E0,-5.686402798E0,1.200249958E1
5.448521297E1,-2.118933201E0,-3.644086361E0,9.270631790E0
5.453720620E1,-2.648067951E0,-3.153259993E0,4.836435318E0
5.458919952E1,-2.765387297E0,-6.519610405E0,1.079339123E1
5.464119292E1,-2.997632027E0,-1.015172482E0,-7.647313595E0
5.469318694E1,-1.762186289E0,4.549122229E-2,-8.255459785E0
5.474518063E1,3.371139050E0,1.778946161E0,-3.979284763E0
5.479717392E1,-1.065452337E0,-1.304879785E0,3.591412306E-1
5.484916721E1,-1.312062621E0,-6.924242973E0,6.993676662E0
5.490116064E1,-6.426233768E0,-1.823000908E1,1.984135628E1
5.495315387E1,3.102980137E0,-1.685569382E1,8.231516838E0
5.500514726E1,-9.620196342E0,-1.805522728E1,7.048745155E0
5.505714059E1,-6.091034889E0,-1.059466648E1,7.295355320E0
5.510913437E1,-3.854782343E0,-9.222746849E0,1.076465988E1
5.516112833E1,-4.733481407E0,-6.941002846E0,9.919480324E0
5.521312159E1,-3.658451796E0,-5.619362831E0,9.684841156E0
5.526511508E1,-2.786935806E0,-4.180403709E0,7.043956280E0
5.531710831E1,-3.186779737E0,-2.341600657E0,6.129343510E0
5.536910383E1,-3.873936653E0,-2.772570133E0,8.219545364E0
5.542110265E1,-4.166038036E-1,4.237866402E-1,8.023215294E0
5.547309837E1,-1.197137386E-1,1.513181686E0,-1.357553840E0
5.552509156E1,2.073441982E0,1.438959122E0,-5.322473049E0
5.557708496E1,2.035133541E-1,-1.924996972E0,2.274561077E-1
5.562907828E1,-2.631308079E0,-5.854001999E0,6.215537548E0
5.568107168E1,-6.373559475E0,-1.257233715E1,1.140632534E1
5.573306493E1,2.162030220E0,-1.467451000E1,3.905062199E0
5.578505826E1,-6.608198643E0,-1.860590935E1,7.039167881E0
5.583705228E1,-6.869174480E0,-1.081972790E1,7.166064739E0
5.588904597E1,-3.735068798E0,-9.421471596E0,1.218925285E1
5.594103929E1,-4.462928295E0,-8.073494911E0,8.834874153E0
5.599303262E1,-5.329655647E0,-6.878751755E0,8.794171333E0
5.604502601E1,-3.411841631E0,-5.473312378E0,7.929838181E0
5.609701944E1,-3.768588543E0,-4.436591148E0,6.895511627E0
5.614901263E1,-2.662433624E0,-2.454131603E0,6.002447128E0
5.620100592E1,-4.151672363E0,-1.886688590E0,7.051139355E0
5.625300011E1,-3.016786337E0,-1.268965602E-1,5.933012962E0
5.630499363E1,2.250618339E-1,1.592192769E0,-8.858817071E-2
5.635698696E1,2.243435383E0,1.235445857E0,-3.150865555E0
5.640898035E1,8.092648983E-1,-2.051893473E0,4.788549542E-1
5.646097484E1,-4.984879971E0,-7.573091030E0,1.016848469E1
5.651297094E1,-2.315263748E0,-2.121088028E1,9.301757812E0
5.656496443E1,-1.014933109E1,-2.258279991E1,6.335251331E0
5.661695765E1,-5.619362831E0,-9.423865318E0,8.341653824E0
5.666895101E1,-3.876330853E0,-7.589851379E0,9.155706406E0
5.672094444E1,-5.370358467E0,-6.751854897E0,7.944203854E0
5.677293773E1,-4.391099930E0,-5.827664852E0,8.497281075E0
5.682493122E1,-4.403071404E0,-5.130930901E0,9.141341209E0
5.687692534E1,-3.361561775E0,-4.304905891E0,8.272219658E0
5.692891870E1,-5.557111740E0,-3.972101927E0,5.844424725E0
5.698091199E1,-8.284190893E-1,-1.618529797E0,1.008947372E1
5.703290542E1,-6.105400920E-1,2.217098475E0,-1.352765322E0
5.708489874E1,-6.703969836E-2,3.093403101E0,-5.748653889E0
5.713689200E1,6.464542150E-1,-8.858816624E-1,-3.351984620E-1
5.718888536E1,-3.435784340E0,-9.457385063E0,1.085085297E1
5.724087915E1,-1.004637718E1,-1.783974075E1,1.153801060E1
5.729287304E1,-8.379961550E-2,-1.893871307E1,1.491633177E0
5.734486640E1,-1.158828974E0,-1.282852459E1,4.956148624E0
5.739685969E1,-3.124528646E0,-8.509252548E0,7.151699066E0
5.744885302E1,-4.750241280E0,-8.875576973E0,1.025228500E1
5.750084761E1,-2.226675510E0,-6.902694225E0,1.049410629E1
5.755284649E1,-3.555498123E0,-5.719922543E0,9.852440834E0
5.760484288E1,-4.127729893E0,-4.326454639E0,9.186832428E0
5.765683644E1,-4.719115734E0,-3.110162973E0,6.416656494E0
5.770882974E1,-3.021574736E0,-4.324060440E0,6.996070862E0
5.776082313E1,-3.383110285E0,-6.751855016E-1,4.898686409E0
5.781281649E1,-4.980091453E-1,9.505270720E-1,3.143682718E0
5.786480978E1,1.048692346E0,1.920208454E0,1.934574008E0
5.791680311E1,-2.753416002E-1,-2.545114040E0,6.203566074E0
5.796879670E1,-8.379961848E-1,-3.325647593E0,8.810931206E0
5.802079075E1,5.506832004E-1,-5.686402798E0,6.703969836E-2
5.807278421E1,-7.951386452E0,-1.820127678E1,7.352818012E0
5.812477730E1,-9.232323647E0,-1.549814129E1,1.431776333E1
5.817677083E1,-3.866753817E0,-5.564294815E0,1.415974140E1
5.822876405E1,-2.842004299E0,-5.391906738E0,1.386285114E1
5.828075741E1,-5.600208759E0,-4.187586784E0,1.014454269E1
5.833275084E1,-4.448562622E0,-2.396669149E0,1.013017654E1
5.838474443E1,-4.369551659E0,-1.924996972E0,7.807730198E0
5.843673858E1,-3.665634632E0,-2.930592299E0,6.203566074E0
5.848873181E1,-4.522785187E0,-7.031985283E0,1.321639657E0
5.854072504E1,-3.648874760E0,-1.020439911E1,-1.338399649E0
5.859271913E1,-1.790917516E0,-7.623371124E0,-6.105400920E-1
5.864471545E1,-2.298503816E-1,-4.597007751E0,3.699154615E0
5.869670911E1,2.729473412E-1,-5.126142502E0,6.967339516E-1
5.874870240E1,-5.707951069E0,-1.258670235E1,7.182824612E0
5.880069570E1,-3.031152010E0,-1.842873383E1,1.433452320E1
5.885268915E1,3.636903524E0,-2.048302078E1,6.924242973E0
5.890468245E1,-8.336864471E0,-1.652289009E1,7.666468143E0
5.895667581E1,-7.374366283E0,-9.878777504E0,9.050358772E0
5.900866953E1,-4.774183750E0,-8.322499275E0,1.399214172E1
5.906066345E1,-3.043123245E0,-4.532361984E0,1.107831001E1
5.911265691E1,-3.035940409E0,-3.581835032E0,8.028003693E0
5.916465017E1,-2.990449190E0,-3.337619066E0,8.255459785E0
5.921664339E1,-4.063084126E0,-2.176395893E0,5.628940105E0
5.926863698E1,-5.652883053E0,-2.755810261E0,3.909850836E0
5.932063014E1,-2.729473352E0,-2.310475111E0,1.388679385E0
5.937262347E1,-5.157268047E0,4.884320498E-1,-4.118152618E0
5.942461762E1,5.755836487E0,4.709538460E0,-6.184412003E0
5.947661111E1,2.844398499E0,-1.415016413E0,2.624125242E0
5.952860457E1,-6.318490982E0,-1.307992363E1,1.494266891E1
5.958059803E1,-2.616942406E0,-1.674316406E1,9.960183144E0
5.963259199E1,-4.003227711E0,-2.319094658E1,6.859597206E0
5.968459041E1,-7.058321953E0,-1.297457504E1,5.894704342E0
5.973658773E1,-3.478881359E0,-8.763046265E0,1.019721603E1
5.978858219E1,-3.646480560E0,-7.987300873E0,1.029298782E1
5.984057555E1,-6.265817165E0,-6.464541912E0,1.049171257E1
5.989256885E1,-3.828445435E0,-5.260221958E0,9.399923325E0
5.994456220E1,-2.437371731E0,-4.336031914E0,8.073494911E0
5.999655556E1,-5.049525738E0,-3.189173937E0,5.061496735E0
6.004854909E1,-4.091815472E0,-1.539518714E0,7.819701672E0
6.010054334E1,-2.518777132E0,-1.867534369E-1,2.686376333E0
6.015253650E1,9.912297726E-1,7.877163887E-1,-5.260221958E0
6.020452992E1,1.431776285E0,-2.056682110E0,-4.321666241E0
6.025652328E1,-2.102173328E0,-4.094210148E0,5.698373914E-1
6.030851661E1,-5.303318501E0,-7.972935200E0,1.028819847E1
6.036050990E1,-5.116565228E0,-1.415974140E1,1.243586349E1
6.041250326E1,-8.782199860E0,-1.962826538E1,4.889109135E0
6.046449672E1,-7.187613010E0,-1.165054131E1,8.978530884E0
6.051649097E1,-4.920234680E0,-8.578686714E0,1.070719719E1
6.056848433E1,-4.168432236E0,-8.083071709E0,1.055635738E1
6.062047756E1,-7.137333393E0,-6.440599442E0,8.221940041E0
6.067247088E1,-4.790944099E0,-5.482889175E0,8.949799538E0
6.072446470E1,-4.534756660E0,-4.582642078E0,7.336058140E0
6.077646326E1,-4.063084126E0,-3.742251635E0,5.504437923E0
6.082846038E1,-7.292961121E0,-1.198334503E1,1.258430862E1
6.088045418E1,-4.764606953E-1,-6.608198285E-1,9.672870040E-1
6.093244764E1,8.571503758E-1,3.591412306E0,-5.779779434E0
6.098444089E1,-2.695953369E0,-1.254600048E0,-4.381522834E-1
6.103636914E1,-4.259414673E0,-6.110189438E0,6.529187202E0
6.108836240E1,-3.153259993E0,-7.637736797E0,7.379155159E0
6.114035563E1,-2.121327400E0,-1.350610447E1,6.431022167E0
6.119234939E1,-5.066285610E0,-2.038006783E1,8.564320564E0
6.124434340E1,-7.695199013E0,-1.164096451E1,5.379935265E0
6.129633666E1,-5.023188591E0,-8.664880753E0,8.947404861E0
6.134833012E1,-7.400703430E0,-8.049551964E0,9.203592300E0
6.140032332E1,-4.225894928E0,-6.107795238E0,8.236305237E0
6.145231671E1,-6.387925148E0,-5.236279011E0,7.958569527E0
6.150431010E1,-3.929004908E0,-3.596200705E0,8.286584854E0
6.155630336E1,-2.626519442E0,-1.529941559E0,6.737489223E0
6.160829735E1,-3.198751211E0,-1.295302629E0,6.986494064E0
6.166029110E1,-2.734261751E0,-1.922602654E0,4.501236439E0
6.171228443E1,-2.288926601E0,-2.185972929E0,-1.340793967E-1
6.176427776E1,-2.370332032E-1,-1.608952641E0,-2.243435383E0
6.181627138E1,3.256213665E0,9.098244458E-2,-2.085413456E0
6.186826760E1,-1.177983165E0,-5.075862408E0,3.210722446E0
6.192026170E1,-6.885934353E0,-1.317090607E1,1.115013790E1
6.197225512E1,8.379961550E-2,-2.248463440E1,9.344854355E0
6.202424841E1,-7.944203854E0,-2.013824463E1,3.158048391E0
6.207624167E1,-5.727105141E0,-1.257712555E1,4.563488007E0
6.212823513E1,-6.177228928E0,-1.104000092E1,7.707170486E0
6.218022849E1,-3.311282158E0,-8.631361008E0,7.752661705E0
6.223222218E1,-4.379128456E0,-5.930618763E0,6.890722752E0
6.228421613E1,-4.254626274E0,-4.127729893E0,5.952167034E0
6.233620943E1,-3.428601503E0,-2.482862949E0,6.318490982E0
6.238820279E1,-3.342407703E0,-1.029538155E0,4.738269806E0
6.244019614E1,-2.363149166E0,-4.285751879E-1,3.158048391E0
6.249218947E1,-4.156461239E0,-5.171633363E-1,7.683228016E0
6.254418273E1,1.084606528E0,2.176395893E0,8.643332124E-1
6.259617619E1,4.070267081E-1,-4.357580245E-1,-4.525179267E-1
6.264817008E1,-1.826831698E0,-3.464515686E0,6.395108223E0
6.270016377E1,-5.260221958E0,-4.429408550E0,9.771035194E0
6.275215716E1,2.370332003E0,-2.149340439E1,-1.163617611E0
6.280415048E1,-5.430215359E0,-2.182621002E1,1.611107445E1
6.285614401E1,-3.351984918E-2,-1.049889469E1,8.846845627E0
6.290814190E1,-3.617749214E0,-8.145322800E0,6.790163517E0
6.296013952E1,-3.040729046E0,-6.476513386E0,7.898712635E0
6.301213375E1,-3.148471355E0,-5.808510780E0,8.830085754E0
6.306412720E1,-3.031152010E0,-4.280963421E0,7.520417213E0
6.311612050E1,-4.312088966E0,-3.450150013E0,6.763826370E0
6.316811376E1,-3.976890564E0,-3.543526828E-1,9.708784103E0
6.322010715E1,-1.843591630E-1,-2.657645047E-1,6.926637173E0
6.327210054E1,-9.672870040E-1,2.224281311E0,4.872349262E0
6.332409383E1,6.536370516E-1,3.337619066E0,5.027977228E-1
6.337608795E1,4.788549617E-2,-9.241901040E-1,-1.043903828E0
6.342808158E1,-3.797319889E0,-5.875550270E0,3.998438835E0
6.348007490E1,-5.281770229E0,-8.233911514E0,9.510059357E0
6.353206826E1,2.516382933E0,-1.484450340E1,9.289786220E-1
6.358406149E1,-6.847625732E0,-1.685090637E1,1.137998772E1
6.363605481E1,-3.735068798E0,-9.095849991E0,1.222277260E1
6.368804830E1,-3.296916485E0,-6.459753513E0,1.106154919E1
6.374004163E1,-4.508419514E0,-5.684008598E0,9.423865318E0
6.379203582E1,-5.561900616E0,-5.523591995E0,1.073353386E1
6.384402917E1,-4.656864643E0,-4.709538460E0,9.742303848E0
6.389602253E1,-3.759011507E0,-3.567469358E0,8.717555046E0
6.394801602E1,-2.937775135E0,-2.346389294E0,6.354405403E0
6.400001191E1,-4.508419514E0,-2.296109438E0,6.301731110E0
6.405200657E1,-2.135693073E0,-1.106154919E0,4.568276405E0
6.410399986E1,6.703969836E-2,-6.799740195E-1,-2.420611858E0
6.415599319E1,-2.178790122E-1,-2.047105074E0,-3.675211906E0
6.420798662E1,-3.014391899E0,-7.161275864E0,1.984853864E0
6.425997981E1,-3.976890564E0,-9.933846474E0,7.422251701E0
6.431197337E1,-3.747040033E0,-1.324273396E1,8.109408379E0
6.436396669E1,-4.946571827E0,-1.901772499E1,6.052726746E0
6.441596078E1,-4.520390987E0,-1.325709915E1,8.456578255E0
6.446795424E1,-3.486064196E0,-1.011820507E1,1.279979324E1
6.451994756E1,-5.456552505E0,-9.055147171E0,9.677659035E0
6.457194089E1,-5.183605194E0,-8.231516838E0,9.835680962E0
6.462393421E1,-4.041535854E0,-8.104619980E0,1.016130257E1
6.467592761E1,-3.191568375E0,-7.345634937E0,8.447001457E0
6.472792090E1,-1.618529797E0,-5.712739468E0,7.467742920E0
6.477991446E1,-2.935380936E0,-2.597788095E0,3.600989342E0
6.483190851E1,-2.171607256E0,-1.120520592E0,2.858764172E0
6.488390204E1,-1.558672905E0,-1.757397652E0,1.374313712E0
6.493589513E1,-2.276955366E0,-2.250618339E-1,-8.643332124E-1
6.498788859E1,4.620950520E-1,-1.532335877E-1,-3.093403101E0
6.503988558E1,-2.169213057E0,-5.851607800E0,3.790137053E0
6.509188386E1,-9.263449669E0,-9.809344292E0,1.162899303E1
6.514387862E1,-2.178790092E0,-1.093465328E1,9.586676598E0
6.519587195E1,-1.415016413E0,-2.068413925E1,7.146910191E0
6.524786527E1,-7.063110471E-1,-1.031214142E1,9.481328011E0
6.529985870E1,-1.721483588E0,-7.786181450E0,1.212460804E1
6.535185193E1,-4.369551659E0,-7.051139355E0,9.534002304E0
6.540384525E1,-5.581054688E0,-7.070293427E0,9.624984741E0
6.545583868E1,-3.988861799E0,-5.947378635E0,1.006792545E1
6.550783253E1,-3.912245035E0,-5.111776829E0,8.806142807E0
6.555982632E1,-2.044710636E0,-4.846012115E0,5.952167034E0
6.561181968E1,-2.497228622E0,-4.180403709E0,3.797319889E0
6.566381294E1,-4.776578426E0,-3.627326250E0,3.617749214E0
6.571580620E1,-1.903448462E0,-1.496421814E0,3.828445435E0
6.576779959E1,7.948992252E-1,3.926610649E-1,-2.492439985E0
6.581979298E1,-8.284190893E-1,-2.592999697E0,9.888355136E-1
6.587178631E1,-4.041535854E0,-6.993676662E0,8.868393898E0
6.592378049E1,-6.579467297E0,-8.195602417E0,1.234966946E1
6.597577398E1,-1.101366401E0,-1.924757576E1,5.590631485E0
6.602776728E1,-7.810124397E0,-1.309668350E1,9.840469360E0
6.607976080E1,-4.568276405E0,-7.254652500E0,1.180138016E1
6.613175616E1,-3.426207304E0,-5.980898380E0,9.775823593E0
6.618375128E1,-5.909070015E0,-5.748653889E0,7.795758724E0
6.623574484E1,-6.311308384E0,-5.049525738E0,8.784594536E0
6.628773804E1,-5.633728504E0,-5.279376030E0,8.557138443E0
6.633973133E1,-4.063084126E0,-5.128536701E0,7.702382088E0
6.639172469E1,-3.409447432E0,-3.723097324E0,5.068679810E0
6.644371805E1,-3.991255999E0,-4.611373425E0,6.205960274E0
6.649571171E1,-1.280937076E0,8.379961550E-2,2.468497276E0
6.654770549E1,3.225088120E0,3.663240433E0,-5.624151707E0
6.659969905E1,2.657644987E0,6.799740195E-1,-2.585816860E0
6.665169228E1,-1.371919513E0,-5.233884811E0,3.541132450E0
6.670368574E1,-6.993676662E0,-1.478464699E1,1.641993713E1
6.675567913E1,-2.355966330E0,-1.556278610E1,8.731920242E0
6.680767235E1,-4.563488007E0,-2.028429604E1,5.657671452E0
6.685966588E1,-7.731113434E0,-9.490905762E0,5.645699978E0
6.691165901E1,-5.547534943E0,-8.351230621E0,1.022115898E1
6.696365316E1,-2.485257149E0,-6.754249096E0,8.724737167E0
6.701564665E1,-6.301731110E0,-6.000052452E0,8.609811783E0
6.706764004E1,-5.224307537E0,-5.451763630E0,8.549955368E0
6.711963337E1,-4.352791786E0,-4.565882206E0,8.293767929E0
6.717162942E1,-3.153259993E0,-2.693559170E0,6.239480019E0
6.722362785E1,1.905842781E0,-1.182771802E0,5.214730740E0
6.727562421E1,1.213897347E0,6.775797606E-1,3.466909885E0
6.732761777E1,2.923409462E0,6.464541703E-2,-5.044736862E0
6.737961109E1,-3.838022470E0,-1.003201127E0,-2.080624819E0
6.743160435E1,-1.891477108E-1,-3.694365978E0,2.691164970E0
6.748359788E1,-8.954587579E-1,-1.297936344E1,8.791776657E0
6.753559107E1,-8.691217422E0,-1.966896820E1,6.773403645E0
6.758758450E1,-1.185166001E0,-1.596981335E1,1.130337143E1
6.763957872E1,-2.545114040E0,-9.385557175E0,1.173673534E1
6.769157211E1,-4.948966026E0,-7.671256542E0,8.674457550E0
6.774356540E1,-4.324060440E0,-6.751854897E0,7.836461544E0
6.779555876E1,-4.479688168E0,-5.332049847E0,7.783787251E0
6.784755199E1,-4.175615311E0,-4.343214512E0,7.925049782E0
6.789954541E1,-3.665634632E0,-3.428601503E0,6.857203007E0
6.795153870E1,-3.526766777E0,-2.947352171E0,5.882733345E0
6.800353243E1,-1.800494671E0,-2.468497276E0,4.855589390E0
6.805552638E1,1.209108829E0,-1.094183564E0,-1.795706153E-1
6.810751967E1,-1.371919513E0,-2.370332003E0,2.741444588E0
6.815951313E1,-2.262589693E0,-5.899493217E0,8.605023384E0
6.821150659E1,-7.374366283E0,-5.640911579E0,8.154899597E0
6.826350228E1,4.561093330E0,-6.213143349E0,2.375120640E0
6.831355627E1,-5.885127544E0,-1.563700867E1,6.768614769E0
6.836555179E1,-5.027976990E0,-9.773429871E0,1.037918091E1
6.841754508E1,-2.681587696E0,-7.060716629E0,1.147815323E1
6.846953848E1,-6.258634567E0,-6.435810566E0,9.751881599E0
6.852153177E1,-6.117372036E0,-6.002447128E0,9.035993576E0
6.857352506E1,-4.551516533E0,-4.848406315E0,8.377567291E0
6.862551849E1,-4.331243038E0,-4.515602112E0,7.764633179E0
6.867751182E1,-3.512401104E0,-3.830839634E0,5.411061287E0
6.872950554E1,-3.864359617E0,-2.858764172E0,4.096604347E0
6.878149942E1,-3.323253393E0,-2.762993097E0,4.529967785E0
6.883349285E1,-2.633702382E-2,-3.759011328E-1,9.768640995E-1
6.888548614E1,2.154847383E-1,-1.891477108E0,2.106961906E-1
6.893747947E1,-3.311282158E0,-4.740664005E0,2.932986736E0
6.898947283E1,-3.445361376E0,-9.474145889E0,1.232333279E1
6.904146616E1,-4.197163582E0,-1.017087936E1,1.228741837E1
6.909345945E1,1.805283189E0,-1.897462845E1,6.174834728E0
6.914545367E1,-8.873182297E0,-1.072395706E1,5.454157829E0
6.919744719E1,-5.097411156E0,-8.138139725E0,9.960183144E0
6.924944042E1,-4.005621910E0,-7.714353561E0,1.076465988E1
6.930143388E1,-5.549929142E0,-5.815693378E0,7.065505028E0
6.935342847E1,-4.091815472E0,-4.781366825E0,6.852414608E0
6.940542446E1,-3.596200705E0,-5.454157829E0,6.287365437E0
6.945741788E1,-1.927391171E0,-4.599401951E0,4.905869007E0
6.950941111E1,-2.463708878E0,-2.176395893E0,3.215511084E0
6.956140460E1,-1.053480953E-1,3.615354896E-1,3.629720688E0
6.961339783E1,6.344828010E-1,8.499675393E-1,-3.328042030E-1
6.966539119E1,-1.980065227E0,-1.029538155E0,3.926610649E-1
6.971738448E1,-3.299310684E0,-9.328094482E0,9.680052757E0
6.976937873E1,-9.555550575E0,-1.189715195E1,1.147336483E1
6.982137219E1,6.143709183E0,-1.422438622E1,2.157241583E0
6.987336545E1,-4.218712330E0,-1.802649498E1,6.172440529E0
6.992535884E1,-7.834067345E0,-8.569109917E0,5.765413761E0
6.997735227E1,-2.849187136E0,-8.267431259E0,1.091071033E1
7.002934549E1,-4.671230316E0,-7.108602047E0,6.912271500E0
7.008133889E1,-3.323253393E0,-6.301731110E0,7.321692467E0
7.013333224E1,-2.341600657E0,-5.394300938E0,6.368771076E0
7.018532623E1,-2.887495518E0,-6.332856655E0,5.209941864E0
7.023731992E1,-3.100585938E0,-5.181210518E0,3.818868399E0
7.028931321E1,-4.462928295E0,-5.985687256E0,9.143735886E0
7.034130654E1,-2.363149166E0,-1.570644259E0,4.379128456E0
7.039330129E1,-5.435003638E-1,5.698373914E-1,-6.871568561E-1
7.044530005E1,-8.739103079E-1,-2.150058746E0,2.205127001E0
7.049729694E1,-3.306493521E0,-6.603409767E0,1.000088596E1
7.054929097E1,-4.721509933E0,-8.190814018E0,1.175828362E1
7.060128420E1,7.616188049E0,-2.106961823E1,6.876357079E0
7.065327752E1,-8.616994858E0,-1.527547359E1,4.865166187E0
7.070527095E1,-7.400703430E0,-7.664073467E0,4.936994553E0
7.075726444E1,-2.066259146E0,-7.053533554E0,1.023791885E1
7.080925773E1,-4.881926537E0,-6.672843933E0,7.218738556E0
7.086125188E1,-5.169239521E0,-6.263422966E0,7.994483471E0
7.091324524E1,-5.377541065E0,-5.439792156E0,8.035185814E0
7.096523857E1,-4.556304932E0,-4.529967785E0,8.260248184E0
7.101723196E1,-4.094210148E0,-3.471698523E0,7.508445740E0
7.106922525E1,-3.301704884E0,-2.664827824E0,7.218738556E0
7.112121851E1,-2.099778891E0,-1.692752242E0,4.585036278E0
7.117321197E1,9.074301720E-1,-1.675992459E-2,-1.158828974E0
7.122520563E1,4.860377908E-1,-1.707117915E0,-2.473285913E0
7.127719958E1,-1.338399649E0,-6.462147713E0,4.046324253E0
7.132919297E1,-6.174834728E0,-7.266623974E0,1.090831566E1
7.138118627E1,-2.315263748E0,-1.189475727E1,9.672870636E0
7.143317966E1,-9.337671280E0,-2.106482887E1,5.355992794E0
7.148517418E1,-7.800547123E0,-9.581888199E0,6.349617004E0
7.153717303E1,-2.454131603E0,-6.751854897E0,1.223953247E1
7.158916942E1,-3.507612705E0,-6.244268894E0,9.323306084E0
7.164116292E1,-4.968120098E0,-6.189200401E0,8.906702042E0
7.169315628E1,-4.029564381E0,-5.523591995E0,7.716747761E0
7.174514960E1,-4.479688168E0,-5.858790398E0,6.035966873E0
7.179714293E1,-3.095797300E0,-4.597007751E0,6.249057293E0
7.184913632E1,-5.238673210E0,-3.849993944E0,8.154899597E0
7.190112968E1,-2.049499273E0,-9.337671995E-1,6.100612164E0
7.195312347E1,1.189954638E0,1.510787368E0,2.415823221E0
7.200511729E1,2.293715239E0,9.912297726E-1,-2.011190802E-1
7.205711062E1,-2.403851986E0,-3.150865555E0,1.661626697E0
7.210910394E1,-4.312088966E0,-8.734314919E0,1.007032013E1
7.216109734E1,-3.000026226E0,-6.864386082E0,5.284164429E0
7.221309063E1,-2.470891714E0,-2.185733414E1,2.312869549E0
7.226508395E1,-8.602629662E0,-1.683893394E1,1.071916866E1
7.231707745E1,-9.960182905E-1,-8.032792091E0,1.291950703E1
7.236907156E1,-4.410254002E0,-8.602629662E0,1.187560272E1
7.242106526E1,-6.421444893E0,-6.493273258E0,1.018763924E1
7.247305838E1,-2.542719841E0,-6.103006363E0,1.062818623E1
7.252505161E1,-3.035940409E0,-4.944177628E0,4.130124092E0
7.257704570E1,-3.210722446E0,-5.205153465E0,2.140481710E0
7.262904202E1,-3.162837029E0,-5.401484013E0,1.383890867E0
7.268103561E1,-5.628940105E0,-5.174027920E0,6.955368519E0
7.273302901E1,-1.850774407E0,1.091789365E0,-1.867534399E0
7.278502247E1,3.792531252E0,3.407052994E0,-2.245829821E0
7.283701572E1,-2.940169573E0,-5.607391834E0,7.048745155E0
7.288900908E1,-7.213950157E0,-1.253642273E1,1.806001472E1
7.294100238E1,3.830839694E-1,-1.109028053E1,5.154873848E0
7.299299633E1,-7.977723598E0,-1.561785412E1,4.010410309E0
7.304498992E1,-5.624151707E0,-9.210775375E0,5.092622280E0
7.309698338E1,-5.619362831E0,-8.020820618E0,8.238699913E0
7.314897667E1,-5.837242126E0,-7.163670063E0,8.269824982E0
7.320096999E1,-6.150891781E0,-7.544359684E0,1.195461369E1
7.325296339E1,-5.535563469E0,-6.129343510E0,9.739910126E0
7.330495668E1,-4.462928295E0,-3.510006905E0,6.411868095E0
7.335695014E1,-3.600989342E0,-1.592192769E0,3.806896925E0
7.340894413E1,-3.138894320E0,-1.580221355E-1,3.071854591E0
7.346093762E1,-3.845205307E0,-2.849186957E-1,4.685595989E0
7.351293101E1,-2.291321039E0,4.213923812E-1,4.166038036E0
7.356492440E1,4.070267081E-1,2.011190802E-1,2.561874092E-1
7.361691842E1,-2.296109438E0,-3.562680960E0,9.792584181E-1
7.366891704E1,-2.458920240E0,-5.458946705E0,7.314509392E0
7.372091393E1,-1.625712633E0,-7.273807049E0,8.846845627E0
7.377290773E1,-1.484450400E-1,-1.799776459E1,4.869955063E0
7.382490109E1,-1.710709381E1,-1.465535641E1,7.539571285E0
7.387689438E1,-2.248224020E0,-6.842837334E0,1.286443901E1
7.392888764E1,-5.097411156E0,-6.483695984E0,9.289786339E0
7.398088096E1,-7.630553722E0,-5.197970390E0,6.098217964E0
7.403287446E1,-6.213143349E0,-4.881926537E0,7.233104229E0
7.408486808E1,-4.592218876E0,-4.470110893E0,7.508445740E0
7.413686217E1,-3.565075159E0,-4.687990189E0,7.103813171E0
7.418885573E1,-2.767781734E0,-3.703943014E0,6.354405403E0
7.424084885E1,-3.043123245E0,-3.253819466E0,4.498842239E0
7.429284201E1,-4.534756660E0,-8.763045669E-1,3.627326250E0
7.434483547E1,-1.915419847E-1,1.285725594E0,3.471698463E-1
7.439682876E1,2.185972929E0,1.273754239E0,-6.488484740E-1
7.444882212E1,-2.066259146E0,-4.276175022E0,3.924216509E0
7.450081598E1,-4.496448040E0,-7.053533554E0,7.094236374E0
7.455280976E1,-7.340846539E0,-1.345582485E1,5.849213123E0
7.460480306E1,-4.079844475E0,-2.324361992E1,7.223526955E0
7.465679645E1,-1.826831698E0,-1.390115929E1,7.321692467E0
7.470879044E1,-2.942563772E0,-8.980924606E0,8.964164734E0
7.476078656E1,-8.255459785E0,-8.516435623E0,8.971347809E0
7.481278042E1,-3.988861799E0,-7.072687626E0,1.084367085E1
7.486477375E1,-3.261002302E0,-5.861184597E0,1.024031353E1
7.491676711E1,-3.713520288E0,-4.273780346E0,7.999272346E0
7.496876037E1,-1.845985889E0,-3.445361376E0,4.058295727E0
7.502075390E1,-1.673598051E0,-3.265790939E0,2.547508478E0
7.507274706E1,-3.433390141E0,-4.482082367E0,8.499675751E0
7.512474088E1,-5.937801600E-1,2.253012657E0,-3.354378939E0
7.517673480E1,1.714300752E0,1.292908430E0,-3.136499882E0
7.522872812E1,-5.985686779E-1,-2.576239586E0,4.676018715E0
7.528072141E1,-5.394300938E0,-8.418270111E0,1.226108170E1
7.533271501E1,-2.482862949E0,-1.432015800E1,1.359948063E1
7.538470813E1,-3.835628271E0,-2.104088783E1,7.316903591E0
7.543670149E1,-6.818894863E0,-1.135365105E1,6.691998005E0
7.548869488E1,-2.370332003E0,-9.002472878E0,1.172955227E1
7.554068854E1,-2.961717844E0,-7.156487465E0,7.228315830E0
7.559074930E1,-2.930592299E0,-5.748653889E0,1.018285084E1
7.564274263E1,-2.276955366E0,-4.563488007E0,9.150918007E0
7.569473599E1,-2.602576733E0,-2.451737404E0,7.759844780E0
7.574672941E1,-1.527547359E0,-8.858816624E-1,7.134938717E0
7.579872733E1,-1.491633177E0,1.077423692E-1,6.938608170E0
7.585072513E1,-1.726272106E0,5.818088055E-1,5.645699978E0
7.590272025E1,-1.304879785E0,-2.130904645E-1,4.826858044E0
7.595471364E1,-1.652049571E-1,1.345582485E0,2.592999697E0
7.600670700E1,2.944957912E-1,-5.913859010E-1,2.372726440E0
7.605870023E1,-3.136500120E-1,-4.817280769E0,4.599401951E0
7.611069386E1,-3.086220264E0,-8.763046265E0,7.070293427E0
7.616268731E1,-1.407833576E0,-7.982511997E0,-1.173194647E-1
7.621468140E1,-3.234665155E0,-2.382782364E1,5.741470814E0
7.626667492E1,-6.574678421E0,-1.837845421E1,9.033598900E0
7.631866798E1,-2.837215662E0,-1.135125732E1,1.126027489E1
7.637066134E1,-5.684008598E0,-8.571503639E0,1.452367115E1
7.642265470E1,-5.918647289E0,-5.796539307E0,1.129379463E1
7.647464800E1,-4.951360226E0,-3.919427872E0,9.854835510E0
7.652664139E1,-2.798907280E0,-3.835628271E0,7.915472507E0
7.657863494E1,-2.475680113E0,-3.050306082E0,8.312922478E0
7.663062900E1,-2.150058746E0,-1.084606528E0,5.842030525E0
7.668262236E1,-2.133298874E0,-5.530774593E-1,4.043930054E0
7.673461565E1,-4.647287369E0,-4.254626274E0,4.087027073E0
7.678660908E1,3.040728867E-1,-2.516382933E0,7.541965842E-1
7.683860250E1,-4.620950520E-1,-3.878725171E-1,-6.744672298E0
7.689060015E1,-1.470084786E0,-5.061496735E0,-8.020820618E-1
7.694259801E1,-3.950553417E0,-1.051326084E1,9.443019867E0
7.699459243E1,-9.184437752E0,-1.624994278E1,1.522758770E1
7.704658566E1,1.867534369E-1,-1.740637779E1,5.583448887E0
7.709857905E1,-5.181210518E0,-1.331695652E1,6.134131908E0
7.715057234E1,-4.357580185E0,-8.279402733E0,1.161462688E1
7.720256570E1,-2.664827824E0,-7.956175327E0,1.157153034E1
7.725455910E1,-6.134131908E0,-6.900300026E0,6.325674057E0
7.730655249E1,-7.027196407E0,-6.296942711E0,6.881145954E0
7.735854674E1,-3.905062199E0,-6.636929989E0,6.861991405E0
7.741054007E1,-3.998438835E0,-5.619362831E0,5.037554264E0
7.746253339E1,-6.615381241E0,-1.144702816E1,6.426233768E0
7.751452679E1,-2.693559170E0,-8.834874034E-1,2.650462151E0
7.756652008E1,3.519583941E0,3.320859194E0,-3.483669758E0
7.761851340E1,3.423812866E0,4.300117493E0,-2.796513081E0
7.767050676E1,-1.723877788E-1,-3.883513689E0,7.632947922E0
7.772250049E1,-7.106207848E0,-1.130097675E1,1.072874546E1
7.777449454E1,-1.898659945E0,-1.751172638E1,8.293767929E0
7.782648770E1,-2.439765930E0,-2.709361458E1,7.398309231E0
7.787848109E1,-6.146103382E0,-1.339357281E1,4.510813713E0
7.793047458E1,-1.371919513E0,-9.821314812E0,6.974522591E0
7.798247037E1,-3.720703125E0,-7.498868465E0,5.695979595E0
7.803446507E1,-4.661653042E0,-6.148497581E0,8.197997093E0
7.808645853E1,-4.735875607E0,-4.503631115E0,6.852414608E0
7.813845168E1,-3.045517445E0,-4.685595989E0,6.193988800E0
7.819044514E1,-3.351984739E0,-5.039948463E0,4.067873001E0
7.824243840E1,-4.750241280E0,-1.105915546E1,1.234009266E1
7.829443173E1,-2.142875910E0,3.591412306E-1,2.633702278E0
7.834642582E1,2.411034822E0,4.328848839E0,-4.376734257E0
7.839841947E1,3.000026226E0,1.774157643E0,-1.915419817E0
7.845041280E1,-2.154847383E0,-5.032765865E0,6.720729351E0
7.850240619E1,-6.610592842E0,-1.246459484E1,1.716455650E1
7.855439948E1,6.033572555E-1,-1.744708061E1,7.740690231E0
7.860639294E1,-4.920234680E0,-1.948939705E1,4.783761024E0
7.865838614E1,-3.732674360E0,-9.615407944E0,6.253845692E0
7.871037943E1,-2.573845387E0,-9.189227104E0,1.133449650E1
7.876237338E1,-4.304905891E0,-7.091842175E0,7.711959362E0
7.881436727E1,-5.166844845E0,-5.300924301E0,8.020820618E0
7.886636056E1,-4.163643837E0,-3.799714088E0,8.291373253E0
7.891835376E1,-3.703943014E0,-1.822043180E0,8.425453186E0
7.897034718E1,-2.260195494E0,-1.508393139E-1,7.546754360E0
7.902234394E1,-1.664021015E0,2.394274808E-3,6.383136749E0
7.907434229E1,-1.340793848E0,-1.053480953E-1,5.159662247E0
7.912633715E1,1.697540879E0,1.264177084E0,1.393467903E0
7.917833048E1,8.858817071E-2,-2.099778891E0,-7.853221297E-1
7.923032373E1,-1.561067224E0,-7.072687626E0,8.308133483E-1
7.928231719E1,-7.151699066E0,-1.434410000E1,8.303344727E0
7.933431052E1,-3.957736254E0,-1.431776333E1,3.033546209E0
7.938630381E1,5.578660369E-1,-1.627627945E1,4.606584549E0
7.943829724E1,-1.046298146E0,-1.298175812E1,7.309720993E0
7.949029112E1,-2.942563772E0,-1.127464008E1,1.025946712E1
7.954228485E1,-4.336031914E0,-9.974549294E0,1.183011150E1
7.959427817E1,-5.858790398E0,-8.475732803E0,1.025946712E1
7.964627150E1,-5.607391834E0,-7.235498428E0,1.193067169E1
7.969826486E1,-4.374340057E0,-5.679219723E0,1.231614971E1
7.975025815E1,-3.328042030E0,-4.053507328E0,1.116689777E1
7.980225154E1,-2.334417820E0,-3.002420664E0,6.720729351E0
7.985424504E1,-2.377514839E0,-3.988861799E0,2.561874151E0
7.990623915E1,-3.105374336E0,-6.787769318E0,4.438985348E0
7.995823271E1,-1.453324795E0,6.656084061E-1,-4.948966026E0
8.001022584E1,1.443747759E0,5.315290093E-1,-6.723123550E0
8.006221916E1,4.022381604E-1,-2.588211060E0,-2.406246185E0
8.011421459E1,-3.988861799E0,-1.129139996E1,6.828471661E0
8.016620981E1,-6.488484859E0,-1.667851830E1,9.541185379E0
8.021820314E1,2.324840784E0,-2.013345718E1,4.283357620E0
8.027019660E1,2.959323645E0,-1.830423164E1,3.627326250E0
8.032218986E1,-8.834874034E-1,-1.226826382E1,3.486064196E0
8.037418318E1,-2.691164970E0,-1.152843285E1,7.599428177E0
8.042617664E1,-5.016005516E0,-1.074311066E1,1.002243423E1
8.047816997E1,-2.140481710E0,-9.701601982E0,1.176786041E1
8.053016389E1,-2.964112282E0,-7.692804813E0,1.343906403E1
8.058215751E1,-2.312869549E0,-4.695172787E0,8.588263512E0
8.063415094E1,-1.980065227E0,-4.213923454E0,3.893090725E0
8.068614436E1,-6.464542150E-1,-3.215511084E0,6.402290821E0
8.073813759E1,2.513988614E-1,1.268965602E0,-5.272192955E0
8.079013088E1,3.112557158E-2,8.858816624E-1,-7.304932594E0
8.084212414E1,-8.403904438E-1,-2.056682110E0,-1.312062621E0
8.089411763E1,-4.130124092E0,-6.890722752E0,4.245049000E0
8.094611182E1,-5.382329941E0,-1.433452320E1,1.208151054E1
8.099810518E1,2.023162127E0,-1.931461525E1,9.797372818E0
8.105009860E1,-1.520364523E0,-1.902730179E1,5.638517380E0
8.110209196E1,-1.312062621E0,-1.066888809E1,7.965752125E0
8.115408768E1,-8.571503758E-1,-1.122914886E1,1.285964966E1
8.120608651E1,-2.959323645E0,-8.672063828E0,9.275420189E0
8.125808190E1,-4.170826912E0,-7.034379482E0,1.049889469E1
8.131007532E1,-4.168432236E0,-4.982485771E0,9.428654671E0
8.136206865E1,-2.257801056E0,-3.802108288E0,8.456578255E0
8.141406191E1,-3.155654192E0,-3.292127848E0,3.476486921E0
8.146605547E1,-4.513207912E0,-2.830032825E0,3.440572977E0
8.151804876E1,-3.998438835E0,-1.585009933E0,2.238646984E0
8.157004196E1,-2.006402254E0,4.668835998E-1,2.044710636E0
8.162203561E1,2.619336605E0,2.774964571E0,-1.608952641E0
8.167402960E1,1.853168726E0,-5.267404318E-1,1.211503029E0
8.172602292E1,-6.703969240E-1,-4.824463844E0,5.073468208E0
8.177801625E1,-3.026363373E0,-1.013735962E1,1.125309181E1
8.183000961E1,-3.423812985E-1,-2.010233116E1,7.235498428E0
8.188200300E1,-6.035966873E0,-2.286293030E1,5.435003757E0
8.193399629E1,-2.844398499E0,-1.097774982E1,6.205960274E0
8.198598965E1,3.112557158E-2,-9.775823593E0,1.180616951E1
8.203798331E1,-1.577827096E0,-5.650488377E0,5.918647289E0
8.208997723E1,-2.930592299E0,-5.743865490E0,7.407886028E0
8.214197066E1,-2.722290516E0,-5.226701736E0,7.290566921E0
8.219396398E1,-2.571451187E0,-4.503631115E0,6.572284222E0
8.224595874E1,-2.458920240E0,-3.131711483E0,4.142095566E0
8.229795466E1,-2.899466753E0,-1.874717116E0,7.089447498E0
8.234994799E1,-1.106154919E0,-1.771763414E-1,5.250644684E0
8.240194131E1,2.719896078E0,3.282550812E0,-1.065452337E0
8.245393467E1,2.657644987E0,4.285751879E-1,-3.459727049E0
8.250592800E1,-9.792584181E-1,-5.224307537E0,4.733481407E0
8.255792146E1,-3.732674360E0,-9.050358772E0,8.832479477E0
8.260991468E1,-3.706337452E0,-2.101454926E1,7.022408009E0
8.266190828E1,-9.474145889E0,-2.305447197E1,1.271359921E0
8.271390233E1,-3.033546209E0,-1.119562912E1,5.075862408E0
8.276589566E1,-1.778946161E0,-9.893143654E0,1.124590874E1
8.281788905E1,-3.921822071E0,-8.209968567E0,7.154093266E0
8.286976401E1,-6.182017326E0,-7.680833817E0,7.656890869E0
8.292175724E1,-5.068679810E0,-5.971321583E0,7.240286827E0
8.297375063E1,-3.833234072E0,-4.640104771E0,6.835654736E0
8.302574396E1,-2.942563772E0,-4.388705730E0,8.849239349E0
8.307773781E1,-4.268991947E0,-1.369525194E0,6.632141113E0
8.312973170E1,-3.316070557E0,-3.759011328E-1,3.612960577E0
8.318172499E1,-3.723097324E0,6.751855016E-1,2.808484316E0
8.323371842E1,-3.608172178E0,1.450930476E0,1.580221415E0
8.328571324E1,1.403045058E0,5.626545548E-1,1.867534369E-1
8.333771200E1,-8.451790214E-1,-5.200365067E0,3.632114887E0
8.338970889E1,-3.675211906E0,-8.717555046E0,7.925049782E0
8.344170268E1,-1.309668303E0,-1.553166103E1,1.059706020E1
8.349369598E1,-1.628106833E0,-2.156762695E1,4.194769382E0
8.354568930E1,-9.878777504E0,-1.469605923E1,3.900273561E0
8.359768270E1,-4.350397110E0,-8.420664787E0,9.009655952E0
8.364967599E1,-6.126949310E0,-8.846845627E0,1.227305222E1
8.370166938E1,-6.969734192E0,-6.141314983E0,8.825297356E0
8.375366353E1,-4.472505569E0,-4.178009510E0,7.846038342E0
8.380565706E1,-3.232270956E0,-2.904255390E0,7.261835575E0
8.385765028E1,-2.782147408E0,-2.348783493E0,5.774991035E0
8.390964368E1,-2.382303476E0,-1.635289669E0,3.656057596E0
8.396163717E1,2.916226625E0,-1.429382086E0,9.158101082E0
8.401363039E1,2.372726440E0,-3.208328187E-1,-6.680026650E-1
8.406562369E1,4.223500729E0,6.368771195E-1,-7.156487465E0
8.411761714E1,-2.470891714E0,-4.860377789E0,9.170072675E-1
8.416961126E1,-3.945764780E0,-1.544786072E1,1.556518078E1
8.422160475E1,-2.801301479E0,-1.640557098E1,7.257047176E0
8.427359801E1,-1.151406765E1,-2.230506325E1,8.236305118E-1
8.432559137E1,-4.237866402E0,-1.111661816E1,8.818114281E0
8.437758616E1,-2.672010660E0,-9.838075638E0,1.385566807E1
8.442958502E1,-4.348002911E0,-7.096630573E0,8.044763565E0
8.448158137E1,-5.044736862E0,-6.804529190E0,8.983319283E0
8.453357477E1,-3.964919090E0,-5.789356709E0,8.760651588E0
8.458556809E1,-3.430995703E0,-4.960937500E0,8.004060745E0
8.463756142E1,-4.905869007E0,-3.435784340E0,7.927443981E0
8.468955478E1,-2.688770533E0,-2.181184292E0,6.986494064E0
8.474154807E1,-3.541132450E0,-9.002473354E-1,4.024775982E0
8.479354146E1,-2.229069948E0,-3.040728867E-1,-1.324033976E0
8.484553499E1,2.616942406E0,4.187586784E0,-4.237866402E0
8.489752911E1,1.036720991E0,-4.477293789E-1,-6.033572555E-1
8.494952237E1,-3.055094719E0,-8.616994858E0,1.139435387E1
8.500151576E1,-7.625765324E0,-1.313259697E1,1.180138016E1
8.505350905E1,3.890696526E0,-1.667133522E1,4.460534096E0
8.510550234E1,-4.599401951E0,-1.396580505E1,6.581861496E0
8.515749584E1,-5.080651283E0,-8.291373253E0,8.130957603E0
8.520948916E1,-5.861184597E0,-8.188420296E0,1.208390522E1
8.526148282E1,-4.221106529E0,-6.680026531E0,1.083169937E1
8.531347677E1,-4.783761024E0,-5.360781193E0,9.488511086E0
8.536547010E1,-3.359167576E0,-4.448562622E0,8.425453186E0
8.541746346E1,-3.658451796E0,-3.081431627E0,6.270605564E0
8.546945758E1,-3.742251635E0,-2.320052385E0,5.734288216E0
8.552145380E1,-2.205127001E0,-6.895511150E-1,8.025609016E0
8.557344750E1,-1.965699673E0,4.046324492E-1,5.109382629E0
8.562544082E1,1.249811411E0,2.377514839E0,-1.470084786E0
8.567743428E1,6.057515144E-1,-1.757397652E0,-2.157241583E0
8.572942754E1,-9.792584181E-1,-5.092622280E0,5.961744189E-1
8.578142077E1,-6.222720146E0,-1.286683273E1,1.188039207E1
8.583341419E1,-4.661653042E0,-1.547659206E1,1.094423008E1
8.588540814E1,-2.044710636E0,-1.917814064E1,5.020794392E0
8.593740173E1,-6.718335152E0,-9.854835510E0,6.356799603E0
8.598939516E1,-4.613767624E0,-9.428654671E0,1.381496525E1
8.604138848E1,-3.124528646E0,-6.471724987E0,8.906702042E0
8.609338181E1,-6.363982677E0,-6.900300026E0,8.779806137E0
8.614537524E1,-4.915446281E0,-6.146103382E0,7.901106834E0
8.619736850E1,-4.960937500E0,-5.664854050E0,7.958569527E0
8.624936182E1,-4.197163582E0,-3.823656797E0,6.804529190E0
8.630135578E1,-4.707144260E0,-2.686376333E0,6.038361073E0
8.635334956E1,-2.121327400E0,-2.712713242E0,8.983319283E0
8.640534279E1,-8.523618579E-1,-1.144463301E0,7.391126156E0
8.645733625E1,2.104567528E0,1.000806928E0,-1.723877788E-1
8.650933021E1,3.976890564E0,2.030344963E0,-5.593026161E0
8.656132896E1,-4.549122155E-1,-2.798907280E0,2.346389294E0
8.661332612E1,-3.842811108E0,-6.883540154E0,7.711959362E0
8.666532051E1,-5.688796997E0,-1.824676895E1,9.009655952E0
8.671731381E1,-6.574678421E0,-2.318855095E1,6.170046329E0
8.676930713E1,-6.055120945E0,-1.218206978E1,7.958569527E0
8.682130053E1,-5.178816319E0,-8.672063828E0,9.617801666E0
8.687329389E1,-4.494053841E0,-6.694392204E0,8.049551964E0
8.692528721E1,-5.573871613E0,-5.985687256E0,9.742303848E0
8.697728146E1,-4.520390987E0,-4.427014351E0,8.885153770E0
8.702927485E1,-3.782954216E0,-3.646480560E0,8.310527802E0
8.708126821E1,-2.525959969E0,-2.640885115E0,6.909877300E0
8.713326157E1,-2.339206457E0,-3.996044636E0,5.090228081E0
8.718525500E1,-1.656838179E0,-1.728666425E0,7.379155159E0
8.723724832E1,-2.585816681E-1,9.146129489E-1,1.268965602E-1
8.728924158E1,-1.731060743E0,4.189980924E-1,-3.730280161E0
8.734123534E1,-3.146077156E0,-5.018400192E0,2.865947008E0
8.739322922E1,-4.831646442E0,-7.096630573E0,6.490879059E0
8.744522258E1,-5.406272411E0,-1.249811459E1,4.975303173E0
8.749721588E1,-9.505270720E-1,-2.066498566E1,5.207547665E0
8.754920927E1,-1.098972082E0,-1.550292969E1,9.328094482E0
8.760120323E1,-7.541965842E-1,-1.003919411E1,7.783787251E0
8.765320191E1,-5.123748302E0,-1.038636398E1,1.188757420E1
8.770519897E1,-5.889915943E0,-7.927443981E0,8.121379852E0
8.775719260E1,-2.300898075E0,-7.503657341E0,9.953000069E0
8.780918609E1,-3.902667999E0,-6.083852291E0,1.038875866E1
8.786117922E1,-3.225088120E0,-3.897879362E0,7.570696831E0
8.791317261E1,-3.009603500E0,-1.245022893E0,4.077449799E0
8.796516590E1,-2.188367128E0,-1.699935049E-1,3.387898922E0
8.801715926E1,-1.905842781E0,-2.944957912E-1,1.326428294E0
8.806915292E1,1.410227895E0,-1.245022893E0,-3.703943014E0
8.812114680E1,1.436564885E-2,-2.497228622E0,-1.029538140E-1
8.817314026E1,-4.692778587E-1,-6.387925148E0,3.349590540E0
8.822513372E1,-2.322446585E0,-1.042946148E1,9.124581337E0
8.827712691E1,-3.895485163E0,-1.224671555E1,6.014418125E0
8.832912024E1,4.687990189E0,-2.149101067E1,4.915446281E0
8.838111366E1,-1.182771802E0,-1.690118599E1,6.957762718E0
8.843310696E1,-1.831620216E0,-1.136562252E1,6.979310989E0
8.848510108E1,-4.383917332E0,-1.063057995E1,9.426259995E0
8.853709457E1,-6.191594601E0,-9.553156853E0,9.773429871E0
8.858908793E1,-3.035940409E0,-8.008849144E0,1.105676079E1
8.864108172E1,-3.878725290E0,-5.865973473E0,7.668862343E0
8.869307501E1,-2.521171331E0,-5.413455486E0,4.697566986E0
8.874507126E1,-9.984126091E-1,-3.375927448E0,2.291321039E0
8.879706532E1,8.236305118E-1,-2.181184292E0,3.768588543E0
8.884905865E1,-4.932205975E-1,1.532335877E-1,-2.842004299E0
8.890105198E1,2.394274712E0,2.789330244E0,-5.755836487E0
8.895304527E1,3.806896806E-1,-2.130904675E0,2.106961727E0
8.900503870E1,-2.918621063E0,-8.370385170E0,8.150111198E0
8.905703192E1,-4.259414673E0,-1.409270191E1,1.001046276E1
8.910902584E1,3.648874760E0,-1.854605293E1,4.043930054E0
8.916101973E1,-2.590605259E0,-1.844788742E1,4.857983589E0
8.921301299E1,-3.976890564E0,-1.119323444E1,5.279376030E0
8.926500642E1,-7.644919395E0,-1.063776302E1,9.261054993E0
8.931699974E1,-5.063891411E0,-8.458972931E0,9.318517685E0
8.936899300E1,-5.827664852E0,-6.452570438E0,1.077663136E1
8.942098639E1,-5.497254848E0,-3.742251635E0,8.784594536E0
8.947297965E1,-4.869955063E0,-1.989642382E0,6.684815407E0
8.952497360E1,-2.554691315E0,-6.201171875E-1,5.662459850E0
8.957696733E1,-1.999219418E0,1.436564885E-2,4.089421272E0
8.962896069E1,-1.860351562E0,-1.170800328E0,1.994430900E0
8.968095401E1,7.589851022E-1,-3.883513689E0,7.230709791E-1
8.973294750E1,2.188367128E0,-5.674431324E-1,-4.747847080E0
8.978494562E1,-2.944957912E-1,-4.798126698E0,1.649655342E0
8.983694328E1,-8.506858826E0,-1.375510883E1,1.478464699E1
8.988893730E1,-1.314456820E0,-1.596741867E1,1.063536835E1
8.994093066E1,-1.604164124E0,-1.898659897E1,4.934600353E0
8.999292409E1,-3.495641232E0,-1.182292938E1,6.433416367E0
9.004491728E1,-4.506025314E0,-8.854028702E0,1.023791885E1
9.009691068E1,-8.561926842E0,-7.896318436E0,9.490905762E0
9.014694088E1,-6.562707424E0,-7.041562080E0,1.033129597E1
9.019893417E1,-6.610592842E0,-6.026389599E0,1.093944168E1
9.025092859E1,-5.463735104E0,-3.423812866E0,1.064733982E1
9.030292168E1,-4.343214512E0,-1.671203852E0,8.162082672E0
9.035491497E1,-2.751021862E0,-1.484450340E0,7.843644142E0
9.040690840E1,-2.712713242E0,-1.529941559E0,5.628940105E0
9.045890166E1,-2.056682110E0,-1.154040456E0,5.140508175E0
9.051089508E1,9.337671995E-1,6.680026650E-1,-2.513988614E-1
9.056288834E1,6.392713785E-1,3.423812985E-1,-4.046324253E0
9.061488177E1,-2.739050388E0,-5.085439682E0,-4.381522834E-1
9.066687595E1,-3.778165579E0,-8.035185814E0,4.738269806E0
9.071886938E1,-3.955342054E0,-1.212221336E1,6.555524349E0
9.077086274E1,6.656084061E-1,-1.700892830E1,4.230683804E0
9.082285620E1,-8.660092354E0,-1.627867508E1,1.140632534E1
9.087485208E1,-1.455719113E0,-1.014454269E1,1.460268211E1
9.092684671E1,-5.875550270E0,-9.677659035E0,1.400890160E1
9.097884007E1,-9.624984741E0,-8.437424660E0,1.020439911E1
9.103083350E1,-5.403878212E0,-6.931425571E0,9.835680962E0
9.108282672E1,-4.367157459E0,-4.379128456E0,9.189227104E0
9.113481998E1,-2.621730804E0,-3.057488918E0,7.235498428E0
9.118681364E1,-3.011997700E0,-1.156434774E0,5.573871613E0
9.123880710E1,-4.218712330E0,-7.278595567E-1,4.489265442E0
9.129080098E1,-6.730306625E0,-3.943370581E0,4.855589390E0
9.134279438E1,-4.288146019E0,-9.840469360E-1,-1.264177084E0
9.139478784E1,1.678386688E0,3.067065954E0,-3.885908127E0
9.144678110E1,1.383890867E0,6.560313106E-1,-1.192348838E0
9.149877445E1,-2.439765930E0,-5.650488377E0,4.757423878E0
9.155076778E1,-5.854001999E0,-1.282373619E1,1.721244240E1
9.160276107E1,-1.031932473E0,-1.413579845E1,9.545973778E0
9.165475483E1,-7.958569527E0,-1.759791946E1,6.483695984E0
9.170674875E1,-5.104593754E0,-8.894730568E0,6.960156918E0
9.175874217E1,-5.736682415E0,-6.038361073E0,9.919480324E0
9.181073537E1,-5.214730740E0,-6.122160912E0,8.837267876E0
9.186272883E1,-5.389512539E0,-5.609786034E0,9.840469360E0
9.191472578E1,-5.810904980E0,-4.486870766E0,9.210775375E0
9.196672401E1,-4.575459003E0,-3.955342054E0,7.146910191E0
9.201871980E1,-3.600989342E0,-2.640885115E0,5.298530102E0
9.207071312E1,-2.250618219E0,-2.415823221E0,2.025556564E0
9.212270648E1,-3.193962574E0,-1.556278616E-1,2.846792698E0
9.217469988E1,5.588237286E0,3.593806505E0,-4.632921696E0
9.222669310E1,2.279349566E0,1.189954638E0,-2.662433624E0
9.227868643E1,-3.830839634E0,-6.838048935E0,6.785374641E0
9.233068042E1,-7.498868465E0,-1.132013130E1,1.164335823E1
9.238267417E1,1.376708031E0,-1.549095821E1,5.367964268E0
9.243466746E1,-8.063917160E0,-1.561546040E1,6.258634567E0
9.248666089E1,-7.601822376E0,-8.901913643E0,7.055927753E0
9.253865418E1,-3.392687321E0,-7.465348721E0,1.017327404E1
9.259064754E1,-4.489265442E0,-7.178035736E0,8.530800819E0
9.264264083E1,-7.743084908E0,-6.596227169E0,7.436617374E0
9.269463439E1,-5.013611317E0,-5.085439682E0,9.239506721E0
9.274662844E1,-3.280156374E0,-4.161249638E0,8.650514603E0
9.279862184E1,-4.120546818E0,-2.820455790E0,5.856396198E0
9.285061520E1,-5.257827282E0,-2.231464148E0,1.649655342E0
9.290260845E1,-1.496421814E0,-1.340793848E0,3.727885962E0
9.295460185E1,1.019961119E0,1.558672905E0,-5.339232683E-1
9.300659860E1,2.423006058E0,1.831620216E0,-3.847599506E0
9.305859709E1,-1.834014535E0,-6.948185444E0,4.381523132E0
9.311059188E1,-6.447782040E0,-1.179659176E1,1.327864838E1
9.316258521E1,-2.796513081E0,-1.737046432E1,1.001525116E1
9.321457846E1,-6.929031372E0,-1.988205719E1,4.192375183E0
9.326657193E1,-7.070293427E0,-8.468549728E0,5.655277252E0
9.331856518E1,-5.693585396E0,-7.716747761E0,9.852440834E0
9.337055854E1,-3.433390141E0,-5.420638084E0,7.728719234E0
9.342255190E1,-6.395108223E0,-4.393494129E0,7.470137596E0
9.347454595E1,-6.407079220E0,-4.008016109E0,7.805335999E0
9.352653958E1,-4.101392746E0,-2.921015263E0,7.953781128E0
9.357853287E1,-3.433390141E0,-2.650462151E0,5.959350109E0
9.363052620E1,-3.344801903E0,-1.915419817E0,5.583448887E0
9.368251956E1,8.116591573E-1,-1.987248063E-1,3.047911882E0
9.373451285E1,3.835628271E0,1.553884387E0,-2.039922237E0
9.378650624E1,-8.427847624E-1,-1.786128998E0,1.094183564E0
9.383849980E1,-5.406272411E0,-9.907508850E0,1.323794556E1
9.389049405E1,-2.628913641E0,-8.260248184E0,4.628133297E0
9.394248721E1,-1.498816013E0,-2.049978065E1,3.098191500E0
9.399448050E1,-6.531581879E0,-1.430100346E1,5.195576191E0
9.404647386E1,-2.691164970E0,-8.533195496E0,8.894730568E0
9.409846925E1,-4.513207912E0,-8.104619980E0,1.204799080E1
9.415046454E1,-7.558725357E0,-5.425426483E0,8.851634026E0
9.420245793E1,-6.409473896E0,-6.893116951E0,1.251487446E1
9.425445129E1,-4.778972626E0,-5.221913338E0,1.235685253E1
9.430644455E1,-1.977671027E0,-2.324840784E0,9.016839027E0
9.435843811E1,-1.807677507E0,-1.503604531E0,5.214730740E0
9.441043160E1,1.563461423E0,-3.617749214E0,6.172440529E0
9.446242470E1,-6.464541703E-2,-1.247417212E0,-8.643332124E-1
9.451441891E1,-1.642472506E0,-2.468497276E0,-6.483695984E0
9.456641217E1,-2.367937803E0,-5.255433083E0,-2.413429022E0
9.461840547E1,8.619388938E-2,-9.624984741E0,7.714353561E0
9.467039889E1,-4.980091572E0,-1.598178482E1,1.378384018E1
9.472239218E1,-2.475680113E0,-1.619966316E1,1.072635174E0
9.477438554E1,-3.177202702E0,-1.235924625E1,9.699207306E0
9.482637883E1,-3.830839634E0,-1.080296803E1,1.340075588E1
9.487837252E1,-5.944984436E0,-8.842057228E0,1.104239559E1
9.493036661E1,-5.839636326E0,-6.622564316E0,9.435836792E0
9.498235987E1,-3.533949614E0,-5.123748302E0,1.058987713E1
9.503435329E1,-3.569863796E0,-4.067873001E0,8.937828064E0
9.508634672E1,-3.402264595E0,-4.003227711E0,7.261835575E0
9.513834247E1,-2.911438227E0,-3.833234072E0,3.414235830E0
9.519034123E1,-1.783734679E0,-4.024775982E0,4.668835998E-1
9.524233662E1,-1.256994247E0,1.822043180E0,4.836435020E-1
9.529432991E1,3.840416908E0,3.818868399E0,-4.537150860E0
9.534632337E1,1.630501151E0,-1.613741279E0,2.478074312E0
9.539831666E1,-4.182797909E0,-1.139914227E1,1.092028713E1
9.545031012E1,-3.603383541E0,-1.130815983E1,1.076944828E1
9.550230332E1,5.241067410E0,-1.594826412E1,2.473285913E0
9.555429667E1,-5.367964268E0,-1.775354767E1,4.419831276E0
9.560629046E1,-5.458946705E0,-1.060184860E1,5.367964268E0
9.565828432E1,-5.537957668E0,-9.862017632E0,9.364008904E0
9.571027764E1,-6.179623127E0,-8.597841263E0,9.313729286E0
9.576227103E1,-5.221913338E0,-8.190814018E0,1.198334503E1
9.581426423E1,-3.246636629E0,-6.368771076E0,6.945791245E0
9.586625775E1,-2.959323645E0,-4.460534096E0,1.819648862E0
9.591825098E1,-1.862745762E0,-1.802888989E0,-7.733507752E-1
9.597024427E1,-1.975276709E0,-6.416656375E-1,6.847625971E-1
9.602223869E1,7.563514233E0,5.291347504E0,-6.249057055E-1
9.607423198E1,2.066259146E0,1.599375606E0,-1.905842781E0
9.612622537E1,-1.896265626E0,-5.753442287E0,8.121379852E0
9.617821877E1,-5.928224564E0,-1.601291084E1,1.791635895E1
9.623021342E1,2.968900800E-1,-1.541673565E1,8.786988258E0
9.628220938E1,-6.677632332E0,-2.008796501E1,2.310475111E0
9.633420264E1,-4.513207912E0,-1.023552513E1,4.515602112E0
9.638619603E1,-6.510033131E0,-8.399115562E0,7.443800449E0
9.643818942E1,-6.653689861E0,-7.393520832E0,8.195602417E0
9.649018272E1,-4.482082367E0,-5.705556870E0,8.229122162E0
9.654217608E1,-3.641691923E0,-4.517996788E0,8.006455421E0
9.659416944E1,-3.270579338E0,-3.349590540E0,6.756643295E0
9.664616356E1,-2.803695917E0,-2.389486313E0,4.254626274E0
9.669815698E1,-3.222693920E0,-3.579440832E0,2.873129845E0
9.675015034E1,-1.201925993E0,-3.821262598E0,6.390319347E0
9.680214377E1,1.963305324E-1,2.451737404E0,-2.604970932E0
9.685413706E1,1.364736706E-1,7.158881426E-1,-2.897072434E-1
9.690613045E1,-4.824463844E0,-8.197997093E0,6.419050694E0
9.695812368E1,-4.541939259E0,-1.436564922E1,1.649655342E1
9.701011717E1,-1.151646137E0,-1.336005306E1,3.402264595E0
9.706211126E1,-2.679193497E0,-1.721962357E1,4.340820312E0
9.711410478E1,-2.633702278E0,-9.883566856E0,4.087027073E0
9.716609804E1,-4.551516533E0,-9.373585701E0,9.189227104E0
9.721809156E1,-7.927443981E0,-8.846845627E0,9.194015503E0
9.727008632E1,-2.762993097E0,-7.467742920E0,8.825297356E0
9.732208504E1,-2.909043789E0,-5.494860649E0,8.492492676E0
9.737408180E1,-2.604970932E0,-4.441379547E0,6.684815407E0
9.742606672E1,-2.094990492E0,-2.559479713E0,3.524372578E0
9.747806005E1,-1.376708031E0,-6.799740195E-1,1.654443860E0
9.753005337E1,-2.449343204E0,-1.582615614E0,3.442967176E0
9.758204670E1,3.543526828E-1,1.901054144E0,-4.070267081E-2
9.763404002E1,1.965699673E0,-1.187560320E0,5.842030644E-1
9.768603355E1,-2.547508478E0,-8.559532166E0,8.248276711E0
9.773802787E1,-5.820482254E0,-1.392989063E1,1.255078888E1
9.779002126E1,4.027170181E0,-1.469605923E1,8.427847624E-1
9.784201432E1,-7.891529560E0,-1.671443176E1,1.664021015E0
9.789400775E1,-3.342407703E0,-9.584281921E0,5.468523502E0
9.794600111E1,-3.428601503E0,-8.992896080E0,1.018524456E1
9.799799433E1,-6.634535313E0,-7.295355320E0,7.020013809E0
9.804998776E1,-6.522004604E0,-6.641718388E0,7.829278469E0
9.810198151E1,-5.971321583E0,-5.609786034E0,7.721536160E0
9.815397533E1,-5.248250484E0,-4.278569221E0,6.632141113E0
9.820596879E1,-3.960130453E0,-2.628913641E0,3.677606106E0
9.825796205E1,-2.875524044E0,-1.127703428E0,2.887495518E0
9.830995538E1,-1.206714511E0,-1.652049571E-1,1.142069101E0
9.836195020E1,4.046324492E-1,-4.788549617E-2,-5.722316504E-1
9.841394902E1,2.552296877E0,-3.689577579E0,-3.280156553E-1
9.846594535E1,-1.321639657E0,-8.992896080E0,4.948966026E0
9.851793884E1,-4.855589390E0,-1.169124413E1,1.108788681E1
9.856993210E1,-4.517996788E0,-7.417463303E0,5.027977228E-1
9.862192556E1,-3.095797300E0,-2.014782333E1,1.453324795E0
9.867391888E1,-3.622537851E0,-1.721004677E1,7.132544518E0
9.872591211E1,-2.798907280E0,-1.043903828E1,7.383943558E0
9.877790544E1,-6.105400562E0,-9.529213905E0,9.428654671E0
9.882989929E1,-7.838855743E0,-8.430241585E0,8.231516838E0
9.888189318E1,-6.749460697E0,-6.141314983E0,6.885934353E0
9.893388640E1,-5.537957668E0,-4.465322495E0,7.099024773E0
9.898587980E1,-7.398309112E-1,-3.447755814E0,8.499675751E0
9.903787319E1,-4.716721475E-1,-3.691971779E0,4.628133297E0
9.908986642E1,0.000000000E0,-4.058295727E0,2.288926601E0
9.914185984E1,-2.300898075E0,-1.350371003E0,3.158048391E0
9.919385313E1,2.657645047E-1,4.525179267E-1,-1.312062621E0
9.924584712E1,6.967339516E-1,-1.130097747E0,-2.061470509E0
9.929784091E1,-1.752609134E0,-7.060716629E0,3.203539610E0
9.934983414E1,-6.170046329E0,-1.349173832E1,8.988107681E0
9.940182746E1,-7.017619610E0,-1.855802345E1,7.283383846E0
9.945382159E1,3.033546209E0,-2.134495926E1,2.118933201E0
9.950581787E1,-2.995237827E0,-1.170082092E1,2.557085514E0
9.955781150E1,-1.279739857E1,-1.414298153E1,1.349413300E1
9.960980483E1,-9.323306084E0,-9.996097565E0,7.360000610E0
9.966179822E1,-2.700742006E0,-6.399896622E0,9.926663399E0
9.971379151E1,-3.026363373E0,-3.483669758E0,6.828471661E0
9.976578480E1,-3.632114887E0,-2.573845387E0,3.277762175E0
9.981777826E1,-3.263396502E0,-3.110162973E0,3.241847992E0
9.986977248E1,-3.076643229E0,-2.126116037E0,2.511594296E0
9.992176577E1,-4.115758419E0,-1.501210332E0,8.068706512E0
9.997375927E1,-1.395862222E0,7.230709791E-1,1.477267504E0
1.000257525E2,2.734261751E0,2.071047783E0,-1.180377483E0
1.000777459E2,-5.363175869E-1,-1.678386688E0,9.577099234E-2
1.001297392E2,-2.456526041E0,-7.070293427E0,9.737515450E0
1.001817325E2,-6.057515144E0,-1.277345657E1,1.351568127E1
1.002337258E2,3.186779737E0,-1.741834831E1,2.664827824E0
1.002857201E2,-8.087860107E0,-1.979107475E1,5.408666611E0
1.003377135E2,-7.343240738E0,-9.663292885E0,6.976916790E0
1.003897069E2,-9.016839027E0,-7.867587090E0,9.510059357E0
1.004417002E2,-3.833234072E0,-4.206740856E0,7.022408009E0
1.004936943E2,-2.990449190E0,-2.942563772E0,7.841249943E0
1.005456930E2,-2.281744003E0,-2.521171331E0,7.192401409E0
1.005976899E2,-3.019180536E0,-2.698347807E0,6.957762718E0
1.006496835E2,-2.241041183E0,-3.909850836E0,6.684815407E0
1.007016770E2,1.266571403E0,-4.285751879E-1,6.727912426E0
1.007536702E2,1.230657220E0,1.901054144E0,-2.973689318E0
1.008056636E2,-6.488484740E-1,3.926610649E-1,-3.909850836E0
1.008576568E2,-1.268965602E0,-3.067065954E0,1.539518714E0
1.009096502E2,-4.807703972E0,-9.979337692E0,9.019232750E0
1.009616437E2,-4.599401951E0,-1.992276001E1,1.292190075E1
1.010136378E2,-8.310527802E0,-1.806001472E1,9.217957854E-1
1.010656314E2,-3.263396502E0,-1.294823837E1,4.161249638E0
1.011176246E2,-2.731867552E0,-7.496474266E0,7.338452339E0
1.011696178E2,-5.279376030E0,-8.382355690E0,1.080057335E1
1.012216113E2,-5.976109982E0,-6.852414608E0,7.872375488E0
1.012736046E2,-3.644086361E0,-5.906675816E0,9.244295120E0
1.013255979E2,-3.277762175E0,-4.671230316E0,8.049551964E0
1.013775916E2,-4.735875607E0,-3.835628271E0,5.722316742E0
1.014295855E2,-3.258608103E0,-2.585816860E0,4.822069645E0
1.014815789E2,-3.311282158E0,-1.994430900E0,1.407833576E0
1.015335723E2,-2.868341208E0,-9.002473354E-1,3.514795303E0
1.015855661E2,1.216291547E0,1.340793967E-1,-6.368771195E-1
1.016375623E2,-1.544307232E0,-3.167625666E0,2.964112282E0
1.016895562E2,-3.253819466E0,-7.436617374E0,1.229938984E1
1.017415497E2,-1.790917516E0,-9.684841156E0,5.118959427E0
1.017935429E2,-9.526819229E0,-1.978628731E1,1.975276709E0
1.018455363E2,-4.534756660E0,-1.415495300E1,7.467742920E0
1.018975296E2,-1.204320192E0,-7.587456703E0,8.418270111E0
1.019495229E2,-4.824463844E0,-8.183630943E0,9.375980377E0
1.020015166E2,-9.668081284E0,-7.125361919E0,6.998465061E0
1.020535106E2,-4.857983589E0,-6.885934353E0,8.044763565E0
1.021055039E2,-3.347196102E0,-6.184412003E0,8.020820618E0
1.021574973E2,-3.344801903E0,-4.922628880E0,4.692778587E0
1.022094907E2,-2.516382933E0,-3.126922846E0,1.046298146E0
1.022614841E2,1.805283189E0,-1.570644259E0,5.607391834E0
1.023134773E2,7.182824425E-3,3.500429869E0,-2.274561167E0
1.023654708E2,1.084606528E0,1.419804931E0,-1.072635174E0
1.024174646E2,-2.442160368E0,-5.382329941E0,6.040755272E0
1.024694584E2,-3.117345810E0,-1.277824497E1,1.685808945E1
1.025214516E2,-2.102173328E0,-1.738243484E1,-6.919454336E-1
1.025734451E2,-9.167677879E0,-1.615896034E1,6.385530949E0
1.026254386E2,-2.286532402E0,-8.846845627E0,7.721536160E0
1.026774369E2,-2.358360767E0,-6.998465061E0,7.970541000E0
1.027294345E2,-4.218712330E0,-5.968926907E0,4.972908974E0
1.027814293E2,-6.964945316E0,-8.293767929E0,4.628133297E0
1.028334227E2,-8.257853508E0,-8.956981659E0,6.548341751E0
1.028854160E2,-5.971321583E0,-8.813325882E0,8.693612099E0
1.029374093E2,-1.094183564E0,-4.680807114E0,8.870788574E0
1.029894027E2,-2.801301479E0,-2.039922237E0,4.520390987E0
1.030413961E2,2.645673752E0,3.632114887E0,-2.490045726E-1
1.030933901E2,2.478074312E0,3.076643229E0,-7.831672668E0
1.031453837E2,-2.715107679E0,5.458946705E0,-1.149251938E0
1.031973769E2,-7.230709791E-1,-2.238646984E0,5.882733345E0
1.032493703E2,4.616161823E0,-2.373205185E1,8.109408379E0
1.033013638E2,-1.555799770E1,-2.633462906E1,-7.470137477E-1
1.033533571E2,-1.295302629E0,-1.532575321E1,6.861991405E0
1.034053503E2,-2.255406857E0,-1.132731438E1,6.021601200E0
1.034573438E2,-5.463735104E0,-9.296969414E0,3.976890564E0
1.035093380E2,-4.936994553E0,-7.020013809E0,4.194769382E0
1.035613313E2,-3.952947617E0,-4.838829517E0,4.764606953E0
1.036133248E2,-4.386311531E0,-3.696760416E0,3.519583941E0
1.036653181E2,-3.122134447E0,-3.380716085E0,4.606584549E0
1.037173116E2,-2.631308079E0,-1.216291547E0,5.229096413E0
1.037693096E2,-1.924996972E0,-1.714300752E0,6.337645531E0
1.038213072E2,-1.987248063E-1,-8.523618579E-1,4.798126698E0
1.038733014E2,-5.236279011E0,-2.190761566E0,4.278569221E0
1.039252947E2,-1.472478986E0,-4.113364220E0,6.277788639E0
1.039772881E2,-2.607365370E0,-1.350131607E1,1.051804924E1
1.040292813E2,4.470110893E0,-1.705441856E1,3.263396502E0
1.040812748E2,-5.399089813E0,-1.368567467E1,6.105400920E-1
1.041332681E2,-8.547560692E0,-1.072635078E1,4.513207912E0
1.041852615E2,-4.676018715E0,-8.978530884E0,5.537957668E0
1.042372558E2,-5.717528343E0,-9.478934288E0,7.237892628E0
1.042892491E2,-6.141314983E0,-7.570696831E0,6.574678421E0
1.043412426E2,-4.843617916E0,-5.684008598E0,4.597007751E0
1.043932358E2,-4.218712330E0,-2.863552570E0,3.102980137E0
1.044452291E2,-3.838022470E0,-2.066259146E0,1.505998850E0
1.044972224E2,-2.877918243E0,-1.963305354E0,1.470084786E0
1.045492159E2,-1.695146561E0,-3.304099143E-1,-1.889082789E0
1.046012095E2,4.106181145E0,1.295302629E0,-3.450150013E0
1.046512100E2,-8.954587579E-1,-7.307326794E0,8.265036583E0
1.047032033E2,-3.067065954E0,-2.145030785E1,1.699935150E1
1.047551967E2,4.716721475E-1,-1.357553864E1,2.396669149E0
1.048071901E2,-1.019482231E1,-2.145509720E1,-2.796513081E0
1.048591860E2,-2.343995094E0,-1.272557068E1,3.986467600E0
1.049111807E2,-8.212362528E-1,-1.175828362E1,9.313729286E0
1.049631740E2,-8.559532166E0,-1.234248638E1,6.059909344E0
1.050151673E2,-5.672037125E0,-1.068085957E1,1.411425018E1
1.050671607E2,-4.151672363E0,-3.861965179E0,1.027383327E1
1.051191540E2,-3.462121487E0,-1.180377483E0,5.636122704E0
1.051711474E2,-3.802108288E0,6.009629965E-1,1.055875182E0
1.052231411E2,-3.004814863E0,-2.944957912E-1,4.869955063E0
1.052751350E2,-2.104567528E0,-6.225114316E-2,3.052700281E0
1.053271284E2,-2.063864946E0,1.915419847E-1,-3.351984620E-1
1.053791217E2,-8.715160489E-1,-5.435003638E-1,-2.604970932E0
1.054311151E2,-2.224281311E0,-4.352791786E0,1.075029373E0
1.054831084E2,-2.698347807E0,-8.729525566E0,7.709564686E0
1.055351017E2,-6.632141113E0,-1.172236919E1,3.447755814E0
1.055870950E2,-1.920208454E0,-2.197944260E1,-3.375927508E-1
1.056390891E2,2.032739401E0,-2.078470039E1,9.421471596E0
1.056910827E2,2.719896078E0,-1.364736652E1,8.559532166E0
1.057430761E2,-4.515602112E0,-1.194264317E1,1.134167957E1
1.057950694E2,-7.446194649E0,-9.454991341E0,1.357314396E1
1.058470628E2,-5.458946824E-1,-6.866780281E0,1.434170628E1
1.058990597E2,-2.044710636E0,-4.060689926E0,1.024749660E1
1.059510580E2,-1.410227895E0,-3.234665155E0,7.422251701E0
1.060030528E2,-2.140481710E0,-2.324840784E0,3.691971779E0
1.060550460E2,-2.882706881E0,-1.640078187E0,3.407052994E0
1.061070395E2,-3.897879362E0,-2.461314440E0,1.893871427E0
1.061590329E2,-6.225114465E-1,-5.027977228E-1,6.368771195E-1
1.062110261E2,9.337671995E-1,6.680026650E-1,-4.807703972E0
1.062630195E2,-1.005595401E-1,-3.112557173E0,-1.604164124E0
1.063150129E2,-3.028757572E0,-9.205986977E0,5.966532707E0
1.063670070E2,-3.459727049E0,-1.903687859E1,9.768641472E0
1.064190005E2,-3.469304085E0,-1.847661781E1,3.268185139E0
1.064709939E2,-5.626545548E-1,-1.911110115E1,4.060689926E0
1.065229871E2,7.470137477E-1,-1.161223316E1,3.586623669E0
1.065749805E2,-3.730280161E0,-9.895537376E0,1.080057335E1
1.066269738E2,-7.462954521E0,-9.917086601E0,1.018045616E1
1.066789671E2,-3.064671755E0,-7.237892628E0,9.991309166E0
1.067309604E2,-2.837215662E0,-5.241067410E0,7.970541000E0
1.067829546E2,-1.096577883E0,-4.513207912E0,6.069486618E0
1.068349481E2,-1.065452337E0,-2.552296877E0,3.181991339E0
1.068869414E2,-2.250618219E0,-9.098244309E-1,1.082212210E0
1.069389348E2,-6.330462456E0,-2.276955366E0,4.776578426E0
1.069909303E2,5.267404765E-2,2.803695917E0,-2.087807655E0
1.070429255E2,1.254600048E0,6.656084061E-1,-1.192348838E0
1.070949188E2,-3.351984620E-1,-1.687963724E0,6.871568561E-1
1.071469122E2,-6.304125786E0,-1.330259037E1,5.961744308E0
1.071989054E2,-2.044710636E0,-2.497946930E1,3.689577579E0
