"Time (s)","Gyroscope x (rad/s)","Gyroscope y (rad/s)","Gyroscope z (rad/s)"
5.199457800E-2,3.422021151E0,-1.453144550E0,4.023909867E-1
1.039877870E-1,3.604058981E0,-1.392058134E0,8.434356451E-1
1.559812130E-1,3.613832951E0,-1.540498257E0,8.519877791E-1
2.079744720E-1,2.961428881E0,-1.067077756E0,5.606051087E-1
2.599678980E-1,1.547886729E0,-8.202881217E-1,3.465010971E-2
3.119612900E-1,1.102565885E0,-2.601247430E-1,1.910316199E-1
3.639554070E-1,-6.640563607E-1,-2.570704222E-1,-4.656485319E-1
4.159489000E-1,-3.434941053E0,5.217827559E-1,-1.180971622E0
4.679421930E-1,-5.421474934E0,-1.080192998E-1,-1.985481143E0
5.199354520E-1,-5.205228329E0,-6.770219654E-2,-1.604301333E0
5.719288450E-1,-3.070865393E0,2.544357777E0,-7.087728977E-1
6.239222370E-1,-1.405035853E0,2.951193810E0,-5.811020732E-1
6.759154640E-1,5.613393784E-1,-9.458027035E-2,3.046525717E-1
7.279091550E-1,1.833771586E0,3.525730968E-1,5.367813110E-1
7.799032410E-1,2.726245880E0,8.528717160E-1,7.279821634E-1
8.318965000E-1,3.135525465E0,-6.865086555E-1,6.168046594E-1
8.838900270E-1,3.125140905E0,-9.693393111E-1,7.120996714E-1
9.358832190E-1,2.527103662E0,-1.259500265E0,7.224843502E-1
9.878771780E-1,1.369513988E0,-1.526124626E-1,8.532095551E-1
1.039873631E0,1.221684694E0,-2.210293710E-1,1.560591459E0
1.091867459E0,-5.785351992E-1,-1.202689767E0,3.577978313E-1
1.143860552E0,-3.257179260E0,7.239791751E-1,-4.131141007E-1
1.195853944E0,-4.888800144E0,5.920323133E-1,-1.636677265E0
1.247847203E0,-5.407424927E0,-9.580199420E-2,-2.003807306E0
1.299840596E0,-2.869279861E0,2.727006435E0,-7.399269938E-1
1.351834152E0,-6.781062484E-1,3.091692924E0,-6.195865273E-1
1.403828271E0,1.000551462E0,2.044669867E0,1.296086788E0
1.455821596E0,1.894858122E0,1.613722742E-1,1.419481516E0
1.507814890E0,2.619344234E0,1.564853489E-1,1.017532229E0
1.559808283E0,2.751291275E0,-9.791131616E-1,6.516240239E-1
1.611801575E0,2.874075174E0,-1.337691069E0,3.040416837E-1
1.663794967E0,2.525270939E0,-9.607871771E-1,1.568231732E-1
1.715788293E0,2.265653372E0,-6.553545594E-1,-2.836107016E-1
1.767781684E0,1.643181682E0,4.002205729E-1,-1.510529369E-1
1.819776103E0,8.242098987E-2,-4.348322153E-1,-1.049024820E0
1.871769562E0,-2.072100878E0,1.711461246E-1,-1.384389877E0
1.923762588E0,-4.026258469E0,-2.191967815E-1,-2.056341648E0
1.975755914E0,-5.233328819E0,-2.210293710E-1,-2.378267527E0
2.027749804E0,-3.737319231E0,8.791388869E-1,-1.543825626E0
2.079748358E0,-1.771555066E0,4.513787270E0,-1.094839692E0
2.131745381E0,-6.052147225E-2,1.367220163E0,-1.754875332E-1
2.183739241E0,1.100733399E0,4.118270278E-1,8.428248167E-1
2.235732667E0,2.018863678E0,-1.350519180E0,4.005583823E-1
2.287725927E0,2.337124586E0,-5.154664516E-1,4.494276047E-1
2.339719286E0,2.392102480E0,-5.087468624E-1,5.691572428E-1
2.391712645E0,2.095832825E0,-1.089068890E0,5.056272149E-1
2.443705871E0,1.916849375E0,-6.168700457E-1,3.742912114E-1
2.495699661E0,1.448926568E0,-5.710551739E-1,-1.692096703E-4
2.547693547E0,1.235734582E0,-6.938390732E-1,-4.094489217E-1
2.599686939E0,2.589610517E-1,8.257065713E-2,-6.427994370E-1
2.651680298E0,-1.125259638E0,8.174415231E-1,-8.908107281E-1
2.703673557E0,-3.177155972E0,1.691589713E0,-1.498621702E0
2.755666884E0,-4.312754631E0,1.074005008E0,-1.552377820E0
2.807660309E0,-4.194857597E0,1.448465347E0,-1.122328639E0
2.859653601E0,-2.125246048E0,2.860785961E0,-6.067584157E-1
2.911647787E0,-1.704772115E-1,8.730302453E-1,6.274991482E-2
2.963641379E0,1.207634807E0,1.198334321E-1,1.112216473E0
3.015634638E0,1.938229561E0,-1.089068890E0,8.678702712E-1
3.067628064E0,2.406152248E0,-1.471146643E-1,9.503371119E-1
3.119621655E0,2.668824434E0,-1.016986847E0,5.526638031E-1
3.171617912E0,2.431197643E0,-8.092926145E-1,3.596304357E-1
3.223611939E0,1.484356642E0,7.368072867E-1,8.709245920E-1
3.275227109E0,1.193584800E0,-5.661681890E-1,8.409922719E-1
3.327220335E0,-4.722446501E-1,-2.126318216E0,1.097865403E-1
3.379213561E0,-2.895547152E0,-9.504024386E-1,-7.900179625E-1
3.431207021E0,-4.455696583E0,7.887309194E-1,-2.063672066E0
3.483200380E0,-4.440425396E0,1.967700839E0,-1.852923512E0
3.535194035E0,-9.450542927E-1,4.533946037E0,-1.386222363E0
3.587188055E0,3.072193861E-1,2.783816576E0,-8.901998997E-1
3.639181347E0,1.264445186E0,3.174159765E0,1.727056652E-1
3.691174640E0,1.904632092E0,1.476565242E0,5.746549964E-1
3.743168166E0,2.354228735E0,4.161030948E-1,6.235242486E-1
3.795161292E0,2.849029779E0,-9.461264014E-1,2.563942075E-1
3.847154618E0,2.918057442E0,-7.311018705E-1,1.391080618E-1
3.899147977E0,2.908283710E0,-4.959187210E-1,-3.123213649E-1
3.951142161E0,2.550927401E0,-2.320249528E-1,-9.341821671E-1
4.003135686E0,1.711598635E0,5.019479617E-2,-1.105224490E0
4.055128979E0,-3.119994141E-2,5.156741142E-1,-1.354457378E0
4.107122372E0,-3.858881474E0,3.330253959E-1,-1.758850217E0
4.159115863E0,-6.467276573E0,-8.172338009E-1,-2.775940895E0
4.211113483E0,-5.035408020E0,-8.044056892E-1,-8.462175727E-1
4.263111337E0,-1.652436256E0,2.473497391E0,-1.421652555E0
4.315105665E0,-1.607033759E-1,3.059316874E0,1.507446170E0
4.367099024E0,1.209467411E0,-1.370677710E0,1.756068349E0
4.419092417E0,2.038411617E0,-2.839484811E-1,1.793941975E0
4.471085709E0,2.504501820E0,-6.180918217E-1,1.727357626E0
4.523078968E0,2.993193865E0,-2.349894762E0,1.151311755E0
4.575072494E0,3.088488817E0,-1.196581125E0,8.660377264E-1
4.627065952E0,3.006021976E0,-9.168048501E-1,1.374277592E0
4.679060036E0,2.993193865E0,-1.237509131E0,3.070960045E-1
4.731053396E0,1.486800194E0,6.531187892E-1,4.133865535E-1
4.783046655E0,-1.244378328E0,1.300025105E0,-4.613724649E-1
4.835040048E0,-4.023815155E0,6.274624467E-1,-1.198686719E0
4.887033374E0,-5.693310261E0,-5.853921548E-2,-1.684935570E0
4.939026700E0,-5.689033508E0,1.096606970E0,-1.067961693E0
4.991020059E0,-4.228455067E0,1.166856408E0,-8.804260492E-1
5.043013385E0,-6.390108466E-1,-1.996203780E0,8.623725176E-1
5.095007636E0,1.113561511E0,-1.002326012E0,1.048686385E0
5.147000994E0,2.218616724E0,1.487560630E0,2.124420166E0
5.198994420E0,3.103760481E0,-1.918623924E0,1.509278774E0
5.250987912E0,3.334667444E0,-2.031023026E0,1.697425246E0
5.302983667E0,2.710974216E0,-1.224681020E0,2.351051092E0
5.354978427E0,1.652955532E0,-1.801948667E0,2.475056887E0
5.406971753E0,1.972438097E0,-1.962606192E0,2.577682018E0
5.458965012E0,1.351188064E0,-4.177279770E-1,1.848309040E0
5.510958472E0,-2.450027764E-1,-2.845593691E-1,8.642051220E-1
5.562951731E0,-2.185721636E0,-2.005470730E-2,-5.310111046E-1
5.614945090E0,-3.927909374E0,7.313095927E-1,-1.729528666E0
5.666938515E0,-5.011584282E0,4.839091301E-1,-2.579242229E0
5.718932701E0,-5.483172417E0,8.583695292E-1,-2.513268709E0
5.770926127E0,-3.951733112E0,4.800282478E0,-1.009318590E0
5.822919487E0,-2.191219568E0,5.817373753E0,-1.901181936E0
5.874912713E0,5.845522285E-1,-6.498567462E-1,1.092668653E0
5.926906105E0,1.402500749E0,-1.420157790E0,1.217896104E0
5.978899498E0,2.199679852E0,-9.458027035E-2,1.679099321E0
6.030892857E0,2.736630440E0,-9.699501395E-1,1.520274401E0
6.082886545E0,3.475777388E0,-1.326695442E0,1.129931569E0
6.134880432E0,4.032886505E0,-1.903352261E0,3.975040615E-1
6.186873825E0,4.093973160E0,-1.605250001E0,-9.424245358E-2
6.238867117E0,3.615665436E0,-1.666336536E0,-5.413957834E-1
6.290860577E0,3.370708466E0,-2.433583260E0,-1.720976591E0
6.342857264E0,2.261377335E0,-2.757341862E0,-2.653767824E0
6.394855524E0,1.172204614E0,-1.871587276E0,-3.563956976E0
6.446851549E0,-2.957046032E-1,1.085000515E0,-3.410019159E0
6.498844842E0,-1.885175943E0,3.367804050E0,-2.627500772E0
6.550838101E0,-4.248003006E0,7.685723305E-1,-2.556029320E0
6.602831461E0,-5.013416767E0,-2.070118427E0,-5.383414626E-1
6.654824820E0,-3.857048988E0,-5.925289154E0,-5.328437090E-1
6.706818146E0,-3.844220638E0,1.516882181E0,1.459798694E0
6.758812101E0,-2.312170744E0,2.912709236E0,1.309525847E0
6.810805822E0,-3.690084219E-1,1.262151480E0,1.197126746E0
6.862799115E0,9.321345091E-1,1.029411793E0,1.585026145E0
6.914792508E0,2.175856113E0,-8.893159628E-1,1.479957223E0
6.966785900E0,2.765951872E0,-1.414659977E0,1.052962542E0
7.018779159E0,2.987695932E0,-1.725590467E0,1.287233531E-1
7.070772452E0,2.409817696E0,5.944756866E-1,-4.045620263E-1
7.122765877E0,1.854541063E0,1.695254922E0,-9.268518090E-1
7.174760196E0,1.345079422E0,-5.777746439E-1,-3.752404749E-1
7.226753488E0,1.618334800E-1,4.197682738E-1,-1.004431725E0
7.278746848E0,-2.303618670E0,1.507719278E0,-9.097475410E-1
7.330740207E0,-3.975556850E0,-3.994020224E-1,-1.934168577E0
7.382733533E0,-4.050082207E0,-2.185859084E-1,-1.890186310E0
7.434730120E0,-3.728156567E0,1.632048637E-1,-1.907591671E-1
7.486728607E0,-3.155164719E0,1.664711714E0,8.168672770E-2
7.538723432E0,-7.648491263E-1,3.178435802E0,4.518710673E-1
7.590716925E0,1.242454052E0,-1.010267258E0,6.943845749E-1
7.642710217E0,2.266875029E0,6.690012813E-1,7.951773405E-1
7.694703543E0,2.715861082E0,-6.278656125E-1,7.304255962E-1
7.746697003E0,2.902785778E0,-1.349908352E0,7.982316613E-1
7.798690262E0,2.921111822E0,-1.097010136E0,1.214841843E0
7.850683821E0,3.417134285E0,-3.022457361E0,1.372444987E0
7.902677840E0,2.847807884E0,-1.797672629E0,2.832722664E-1
7.954671297E0,7.415446043E-1,6.903815866E-1,2.496746778E-1
8.006664523E0,-2.372035742E0,6.665577888E-1,-5.035221577E-1
8.058657816E0,-4.718979836E0,-2.485183179E-1,-1.334298968E0
8.110651242E0,-5.557086945E0,-1.577864960E-2,-1.843760490E0
8.162644501E0,-4.455085754E0,2.108523548E-1,-1.390498519E0
8.214638060E0,-2.132576466E0,3.199205160E0,-9.549515843E-1
8.266631351E0,9.830348939E-2,2.314672470E0,7.518059015E-1
8.318625436E0,4.458858073E-1,9.872620702E-1,1.844033003E0
8.370618928E0,9.535148144E-1,-2.635168791E0,1.727968574E0
8.422612221E0,1.778182864E0,-2.997411966E0,1.592356443E0
8.474605513E0,2.440971613E0,-1.946723580E0,1.151922584E0
8.526600936E0,2.436695576E0,-1.541719913E0,4.653101265E-1
8.578596327E0,1.619357944E0,6.525079608E-1,8.770332932E-1
8.630589553E0,1.113561511E0,-2.375227362E-1,1.749959707E0
8.682582912E0,1.935984641E-1,-1.114114404E0,3.242002130E-1
8.734576171E0,-1.849134922E0,3.647904098E-1,-5.065764785E-1
8.786569664E0,-3.397067308E0,2.139066756E-1,-1.771067500E0
8.838563023E0,-4.652395725E0,4.790221751E-1,-2.297022343E0
8.890556381E0,-3.219916582E0,5.120089054E-1,-1.897516608E0
8.942550566E0,-1.199785113E0,3.065425634E0,-8.865346909E-1
8.994543925E0,2.809522152E-1,2.338496208E0,1.193461418E0
9.046537251E0,8.484460115E-1,2.481151372E-1,1.840978622E0
9.098530643E0,2.053683043E0,-1.395112395E0,1.319299698E0
9.150524003E0,2.566199064E0,-9.675067067E-1,1.216674328E0
9.202517196E0,2.909505367E0,-1.097010136E0,1.137872815E0
9.254510588E0,3.112312555E0,-2.091498852E0,6.540674567E-1
9.306504279E0,2.901564121E0,-9.442937970E-1,-8.569034934E-2
9.358498298E0,2.936383247E0,-2.470846176E0,-2.530674338E-1
9.410491590E0,1.492298007E0,1.028800845E0,-7.674159408E-1
9.462485051E0,-1.603567123E0,1.620118499E0,-1.319638133E0
9.514478477E0,-4.427597046E0,4.796330631E-1,-2.004418135E0
9.566474131E0,-5.880845547E0,-1.462307453E0,-2.932933331E0
9.618472754E0,-4.413547516E0,-3.309850991E-1,-1.457082748E0
9.670468311E0,-2.087983131E0,2.102701902E0,-9.378473759E-1
9.722461703E0,-6.174320728E-2,2.992121935E0,6.522348523E-1
9.774455029E0,5.252982974E-1,1.328735709E0,1.311969399E0
9.826448288E0,1.468474269E0,-3.951259851E-1,1.381608009E0
9.878441614E0,2.101941347E0,-1.996203780E0,1.219728589E0
9.930435007E0,2.261377335E0,-1.444592357E0,1.454300880E0
9.982428432E0,2.160584450E0,-1.461696625E0,1.497672319E0
1.003442259E1,2.152032375E0,-9.876652956E-1,1.509278774E0
1.008641624E1,1.988320589E0,-8.532748818E-1,8.605399132E-1
1.013840940E1,1.456256986E0,-6.749022007E-1,7.878469825E-1
1.019040270E1,-2.505005598E-1,3.525730968E-1,5.013511777E-1
1.024239609E1,-2.514367104E0,6.323493719E-1,-8.394980431E-1
1.029438952E1,-4.320695877E0,1.766439080E-1,-1.797945738E0
1.034638268E1,-4.739138126E0,-1.611645818E-1,-2.196840525E0
1.039837590E1,-3.016498327E0,6.164668798E-1,-7.802441120E-1
1.045036992E1,-1.573634624E0,3.398957968E0,-1.152871966E0
1.050236384E1,4.821253940E-2,2.657978535E0,9.100199938E-1
1.055435697E1,6.841232181E-1,-1.862100512E-1,1.495839715E0
1.060634433E1,1.765354753E0,-1.754912019E0,1.683986306E0
1.065833879E1,2.426921844E0,-2.353559971E0,1.347399592E0
1.071033478E1,2.607126951E0,-1.051806211E0,1.388327479E0
1.076232817E1,2.229612350E0,-1.013321638E0,1.154976964E0
1.081432146E1,2.398211241E0,-2.073783636E0,1.036469102E0
1.086631489E1,2.845975399E0,-2.845917225E0,-1.439367652E0
1.091830815E1,1.002384067E0,2.871170521E0,-2.145829201E-1
1.097030157E1,-2.069657326E0,1.010474920E0,-1.424706936E0
1.102229487E1,-4.452031612E0,-4.494929910E-1,-2.319624424E0
1.107428868E1,-5.544869423E0,-2.625682056E-1,-2.728904247E0
1.112628251E1,-2.846678019E0,2.140575647E0,-1.244501710E0
1.117827577E1,-1.155802846E0,2.571846485E0,-1.289094806E0
1.123026916E1,-1.509295404E-1,2.631711483E0,8.990244269E-1
1.128226248E1,7.342142463E-1,2.004676461E-1,1.226448298E0
1.133425571E1,1.247341037E0,-6.932281852E-1,6.943845749E-1
1.138624924E1,1.036592484E0,4.897306859E-2,8.837528229E-1
1.143824256E1,1.082407355E0,-1.297984719E0,4.084996283E-1
1.149023665E1,1.192973971E0,-1.432375073E0,3.822324276E-1
1.154223034E1,1.236956358E0,-8.202881217E-1,4.256038368E-1
1.159422350E1,1.254671335E0,-5.185207725E-1,4.139974415E-1
1.164621683E1,1.744585276E0,-9.980499744E-1,3.770443797E-2
1.169821162E1,1.776961207E0,-3.994020224E-1,-4.778658450E-1
1.175021041E1,1.789377034E-1,5.401086807E-1,1.293342263E-1
1.180220727E1,-2.114250422E0,6.097473502E-1,-8.895890117E-1
1.185420129E1,-2.994507313E0,-5.609575659E-2,-1.746632934E0
1.190619452E1,-2.896157980E0,1.002857462E-1,-1.634233713E0
1.195818785E1,-2.737943888E0,1.650661707E0,-9.421234131E-1
1.201018127E1,-8.008901477E-1,3.285948038E0,-1.431116760E-1
1.206217470E1,3.591429591E-1,9.347276688E-1,8.086163998E-1
1.211416812E1,1.354242444E0,-7.634777427E-1,9.136852026E-1
1.216616241E1,1.676168442E0,-9.161940217E-1,1.269819617E0
1.221815557E1,2.287033796E0,-1.596697927E0,1.201402664E0
1.227014892E1,2.499614716E0,-2.600349665E0,6.998823881E-1
1.232214225E1,2.281535864E0,-1.206965804E0,1.492785454E0
1.237413561E1,2.200290680E0,-8.031839728E-1,2.339444637E0
1.242612884E1,1.883251667E0,-1.817220211E0,1.431087971E0
1.247812223E1,3.640298843E-1,-2.442422509E-1,9.833238721E-1
1.253011599E1,-1.719631433E0,3.977771401E-1,-8.199504018E-1
1.258210994E1,-3.458153963E0,4.698592126E-1,-1.800389051E0
1.263410330E1,-4.437982082E0,2.194044590E-1,-2.216999292E0
1.268609659E1,-3.859492540E0,7.936177850E-1,-1.670274734E0
1.273808988E1,-2.180834770E0,2.924315691E0,-7.063294053E-1
1.279008454E1,-7.654599547E-1,2.902324677E0,-3.886795044E-1
1.284208336E1,4.110665023E-1,1.576747060E0,5.685463548E-1
1.289407985E1,7.702552676E-1,-5.264619589E-1,8.397704959E-1
1.294607331E1,1.224128127E0,-1.347464800E0,1.084116578E0
1.299806660E1,1.757413507E0,-1.233844042E0,7.212626338E-1
1.305005993E1,2.028637648E0,5.630345270E-2,4.311016500E-1
1.310205329E1,2.197236538E0,8.608129621E-1,1.623209417E-1
1.315404661E1,2.531379938E0,-7.592016459E-1,1.818686426E-1
1.320603997E1,2.514275551E0,-4.250583351E-1,-5.352871418E-1
1.325803370E1,1.120280981E0,1.361722589E0,2.942678630E-1
1.331002762E1,-8.161618114E-1,7.551332712E-1,-4.809201658E-1
1.336202101E1,-2.657920361E0,6.677795649E-1,-1.116219997E0
1.341401423E1,-3.562611818E0,-1.114725232E0,-2.224940538E0
1.346600766E1,-3.304215908E0,-1.301650047E0,-1.218845367E0
1.351800089E1,-1.930990815E0,2.169897318E0,-9.909926057E-1
1.356999425E1,1.068556085E-1,2.268246651E0,4.152191579E-1
1.362198771E1,5.698914528E-1,1.063944027E-1,1.127488017E0
1.367398172E1,9.675647616E-1,-1.822211035E-2,1.707810044E0
1.372597528E1,1.283992887E0,-1.190472484E0,1.310747504E0
1.377796867E1,1.523452163E0,-1.737196922E0,1.051740766E0
1.382996193E1,1.450148344E0,-2.065842628E0,5.850396752E-1
1.388195603E1,1.276662588E0,-6.089287996E-1,1.370612383E0
1.393395235E1,5.711131692E-1,-3.560305834E-1,2.440237522E0
1.398594597E1,1.667204052E-1,-2.068285942E0,1.762176991E0
1.403793933E1,-1.324401617E0,-1.034091115E0,2.356247753E-1
1.408993263E1,-3.153943062E0,1.589288116E-1,-1.127826452E0
1.414192605E1,-4.342687130E0,3.330253959E-1,-2.069169760E0
1.419391931E1,-3.035435200E0,4.796330631E-1,-1.532830119E0
1.424591267E1,-1.333564639E0,3.477149010E0,-9.311278462E-1
1.429790662E1,-1.716989428E-1,1.528488636E0,5.642702579E-1
1.434990024E1,4.086230397E-1,-6.058744788E-1,1.126266360E0
1.440189387E1,1.544832349E0,7.951632887E-2,1.098166466E0
1.445388706E1,2.192349672E0,-1.031036735E0,9.271242023E-1
1.450588039E1,2.429365158E0,-1.315699935E0,7.682992816E-1
1.455787368E1,2.586357594E0,-1.467194438E0,6.949954033E-1
1.460986704E1,2.407373905E0,-6.926173568E-1,7.322582603E-1
1.466186030E1,1.947392583E0,-1.155653238E0,7.182083130E-1
1.471385452E1,1.455035210E0,-7.365996242E-1,5.697680712E-1
1.476584798E1,7.592597008E-1,-3.865738511E-1,5.758767128E-1
1.481784140E1,-1.266369462E0,-6.119831800E-1,-2.249676138E-1
1.486983486E1,-3.645078659E0,1.442680508E-1,-1.019703269E0
1.492182868E1,-5.398872852E0,-6.846761107E-1,-1.735026479E0
1.497382764E1,-4.735473156E0,-6.797891855E-1,-1.209071517E0
1.502582449E1,-2.019566298E0,1.649440050E0,-1.284509152E-1
1.507781806E1,-4.123798609E-1,2.479605913E0,4.298799038E-1
1.512981138E1,5.937151909E-1,8.440325409E-2,1.286923885E0
1.518180471E1,1.406776905E0,-1.782688051E-1,1.281426072E0
1.523379813E1,2.472736835E0,-1.187418222E0,1.246606827E0
1.528579139E1,3.011519670E0,-1.297984719E0,9.448392987E-1
1.533778475E1,3.250978947E0,-9.479590058E-1,7.255386710E-1
1.538977844E1,3.158127546E0,-5.961006284E-1,1.702621877E-1
1.544177236E1,3.141633987E0,1.577070802E-1,1.071899295E0
1.549376575E1,2.125765085E0,-3.468676209E-1,1.336102784E-1
1.554575928E1,2.925586104E-1,5.498825908E-1,-2.396283895E-1
1.559775244E1,-1.790491819E0,3.263058662E-1,-1.223732352E0
1.564974576E1,-4.213794231E0,1.699243933E-1,-2.374602556E0
1.570173909E1,-6.226595402E0,1.790873557E-1,-2.589016199E0
1.575373245E1,-4.993258476E0,7.343639135E-1,-1.357511878E0
1.580572614E1,-2.161897898E0,1.006809711E0,-1.248777747E0
1.585772006E1,3.640298843E-1,2.663476229E0,7.536385059E-1
1.590971339E1,1.522230387E0,-3.578631878E-1,1.322964907E0
1.596170701E1,2.420813322E0,-1.561267734E0,1.487287760E0
1.601370054E1,2.943103075E0,-8.227316141E-1,1.019975781E0
1.606569666E1,2.880794764E0,-2.149207145E-1,9.118525982E-1
1.611769075E1,2.505723476E0,-4.305561483E-1,7.322582603E-1
1.616968404E1,1.746417999E0,-4.733166993E-1,7.762405276E-1
1.622167747E1,1.151435137E0,-6.339743137E-1,9.625544548E-1
1.627367076E1,1.005438328E0,-3.517545462E-1,1.016310573E0
1.632566412E1,6.334214211E-1,-3.561344463E-3,1.017532229E0
1.637765745E1,-4.586071149E-2,-2.051468790E-1,5.636594296E-1
1.642965127E1,-1.525987148E0,-1.348973662E-1,-2.457370460E-1
1.648164519E1,-3.092856407E0,-7.136738300E-2,-1.071015954E0
1.653363859E1,-2.836904049E0,1.191901922E0,-5.872107148E-1
1.658563184E1,-4.577869892E0,8.986866474E-1,-5.224589705E-1
1.663762517E1,-3.766030073E0,2.745943069E0,9.430066943E-1
1.668961840E1,-4.759098589E-1,-6.009875536E-1,-1.571615785E-1
1.674161179E1,1.332862139E0,-1.006889194E-1,9.955411553E-1
1.679360518E1,2.288255453E0,-4.433843195E-1,1.181244135E0
1.684559884E1,2.932718277E0,-1.042032242E0,1.248439312E0
1.689759299E1,3.322450161E0,-1.612580419E0,6.711716652E-1
1.694958618E1,3.266250849E0,-9.229134917E-1,6.473479867E-1
1.700157954E1,2.696924210E0,-1.132440329E0,4.451515377E-1
1.705357303E1,2.268096924E0,-1.404275417E0,1.861446798E-1
1.710557109E1,1.731757164E0,-1.514841914E0,8.718451858E-2
1.715756878E1,7.048926950E-1,-5.594487190E-1,-5.291785002E-1
1.720956377E1,-1.069059968E0,4.594745040E-1,-1.502897739E0
1.726155707E1,-2.832628012E0,1.317740202E0,-2.033739567E0
1.731355049E1,-4.970045567E0,1.063944027E-1,-2.317181110E0
1.736554385E1,-5.594349384E0,-1.516063690E0,-1.672718287E0
1.741753741E1,-4.896741867E0,-1.326084614E0,2.380682379E-1
1.746953077E1,-2.898601294E0,2.236805260E-1,2.008054554E-1
1.752152452E1,-1.048901439E0,1.642109632E0,5.703788996E-1
1.757351818E1,5.045288801E-1,1.843695164E0,7.670775056E-1
1.762551150E1,1.713431120E0,3.336362541E-1,1.132985830E0
1.767750473E1,2.594298840E0,-6.889521480E-1,1.349843025E0
1.772949822E1,3.410414696E0,-1.705431938E0,1.074953556E0
1.778149165E1,3.624828577E0,-1.790953040E0,6.589543819E-1
1.783346729E1,2.864301205E0,2.798801363E-1,8.709245920E-1
1.788546098E1,1.960220695E0,-1.587534904E0,9.643869996E-1
1.793745493E1,8.502786160E-1,-2.738508955E-2,4.921881855E-1
1.798944832E1,-1.647549391E0,6.396797299E-1,-4.222770929E-1
1.804144169E1,-3.552838087E0,7.923960686E-1,-1.548712611E0
1.809343498E1,-5.036018848E0,-1.544450521E-1,-2.270755291E0
1.814542847E1,-5.435524940E0,-1.226800680E-1,-2.720351934E0
1.819742649E1,-3.899198771E0,5.584346652E-1,-1.545658350E0
1.824942404E1,-1.422140121E0,3.631086826E0,-1.016649008E0
1.830141830E1,6.505256891E-1,2.007406950E0,1.990640640E0
1.835341163E1,1.535058618E0,-7.750841379E-1,2.547749758E0
1.840540509E1,2.690815687E0,-2.387157440E0,1.504391789E0
1.845739832E1,2.971813679E0,-6.028201580E-1,1.587469578E0
1.850939161E1,2.907672882E0,-1.245450497E0,9.277350903E-1
1.856138503E1,2.594298840E0,-2.698985934E-1,7.328690886E-1
1.861337846E1,2.041465759E0,-1.770470738E-1,8.348836303E-1
1.866537268E1,1.880808234E0,-8.551074862E-1,-1.987004131E-1
1.871736600E1,2.607936263E-1,6.018061042E-1,2.854145691E-2
1.876935926E1,-1.900447607E0,3.309056908E-2,-1.256108165E0
1.882135272E1,-3.916302919E0,-2.088120729E-1,-2.267090082E0
1.887334598E1,-5.148417950E0,2.548346519E-1,-2.409421682E0
1.892533931E1,-3.617589951E0,9.664926529E-1,-1.790615201E0
1.897733270E1,-2.022620678E0,2.350102425E0,-1.587197185E0
1.902932639E1,-3.445738256E-1,3.507081270E0,3.077068925E-1
1.908132034E1,6.560234427E-1,5.938648582E-1,1.782335520E0
1.913331367E1,1.616914392E0,-1.729866624E0,1.420092583E0
1.918530706E1,1.929066658E0,-1.957719207E0,1.366947293E0
1.923730069E1,1.979768395E0,-1.384727716E0,1.145813942E0
1.928929651E1,1.929066658E0,-1.872808933E0,1.101220846E0
1.934129104E1,1.663340211E0,-1.191083431E0,1.009591103E0
1.939328443E1,1.613860130E0,-7.396540046E-1,1.077397108E0
1.944527762E1,1.813613057E0,-1.819663644E0,4.573688805E-1
1.949727108E1,1.794065475E0,-1.112892628E0,2.044706494E-1
1.954926477E1,1.368903160E0,3.342471421E-1,9.756922722E-2
1.960125767E1,-1.582599133E-1,4.225354642E-2,-8.468284011E-1
1.965325169E1,-2.420294046E0,1.515049696E0,-1.717311382E0
1.970524531E1,-4.241894245E0,-2.191967815E-1,-1.658057451E0
1.975723877E1,-4.495403290E0,-1.116844937E-1,-8.517153263E-1
1.980923210E1,-4.977375984E0,2.376980543E0,-2.762803137E-1
1.986122542E1,-8.363203406E-1,-1.637625813E0,-3.538601995E-1
1.991321875E1,1.404531896E-1,-1.318430454E-1,7.518059015E-1
1.996521214E1,9.822255373E-1,4.334803581E0,1.517220140E0
2.001720537E1,1.941894770E0,-5.789964199E-1,1.252715468E0
2.006919925E1,2.461741209E0,-1.808057308E0,1.431087971E0
2.012119308E1,2.916224957E0,-1.453755498E0,1.736520648E0
2.017318644E1,3.398808241E0,-2.172132969E0,1.835480809E0
2.022517969E1,3.255255222E0,-1.133051157E0,1.836702585E0
2.027717312E1,2.219227552E0,-2.961657941E-1,1.658940792E0
2.032917024E1,6.883993149E-1,4.020531774E-1,1.228280783E0
2.038116839E1,-6.738302112E-1,7.471920252E-1,6.675065160E-1
2.043316312E1,-2.061716080E0,3.531839550E-1,-1.095140949E-1
2.048515645E1,-3.685395718E0,1.845851392E-1,-8.407197595E-1
2.053714974E1,-4.956606388E0,4.714047164E-2,-1.259773374E0
2.058914313E1,-5.143531322E0,-5.734986067E-1,-1.156537056E0
2.064113646E1,-5.444687843E0,-1.336756498E-1,1.449155621E-2
2.069312985E1,-2.010403395E0,-9.571220279E-1,1.665969938E-1
2.074512321E1,-2.578309774E-1,-7.530930042E-1,1.063958049E0
2.079711729E1,7.995767593E-1,3.715099096E-1,1.526993871E0
2.084911072E1,1.704879045E0,-2.894462943E-1,1.606406331E0
2.090110414E1,2.599796534E0,-1.320586801E0,1.284480333E0
2.095309747E1,3.428740740E0,-1.398166776E0,8.947483301E-1
2.100509080E1,3.646819592E0,-8.618270159E-1,8.416031003E-1
2.105708422E1,2.612013817E0,-7.469843626E-1,2.025460005E0
2.110907748E1,1.930899143E0,-6.022092700E-1,1.657108188E0
2.116107097E1,7.006166577E-1,-7.747603953E-2,1.123822927E0
2.121306512E1,-1.198563457E0,-4.690406621E-1,-2.582555078E-2
2.126505845E1,-3.170436621E0,-2.552378178E-1,-1.095450521E0
2.131705178E1,-4.697599411E0,-4.693277925E-2,-2.197451353E0
2.136904520E1,-4.873528957E0,-4.876537248E-2,-2.397815228E0
2.142104069E1,-4.145988464E0,2.365086973E-1,-1.435091734E0
2.147303575E1,-2.459389448E0,2.941419840E0,-9.580059052E-1
2.152502917E1,-3.848909438E-1,2.288404942E0,5.312835574E-1
2.157702253E1,4.245055318E-1,-1.128775120E0,1.403599143E0
2.162901582E1,1.748861313E0,-9.785022736E-1,1.412151217E0
2.168100918E1,2.214951754E0,-4.232257605E-1,1.483011603E0
2.173300254E1,2.749458790E0,-1.384116769E0,1.349232197E0
2.178499577E1,2.899731398E0,-6.455807090E-1,1.476292133E0
2.183698999E1,3.120864630E0,-1.554548264E0,1.151311755E0
2.188898348E1,3.253422260E0,-1.682829976E0,8.574855924E-1
2.194097684E1,2.743350029E0,-6.559654474E-1,7.114888430E-1
2.199297020E1,1.010325313E0,3.507405221E-1,-4.109717906E-2
2.204496359E1,-1.592571497E0,4.680266082E-1,-1.189523816E0
2.209695702E1,-3.805125475E0,6.225755811E-1,-2.062450171E0
2.214895018E1,-5.183848381E0,5.407196283E-1,-2.424693346E0
2.220094390E1,-4.817328930E0,4.225354642E-2,-2.384987116E0
2.225293795E1,-3.100797892E0,1.587742686E0,-5.194046497E-1
2.230493121E1,-7.404145002E-1,3.673236609E0,3.449696600E-1
2.235692457E1,7.971333265E-1,-7.604234219E-1,1.167805195E0
2.240891796E1,1.489243627E0,-1.005380392E0,1.469572544E0
2.246091388E1,1.941894770E0,1.351050735E-1,1.828150511E0
2.251291277E1,2.349341869E0,-1.198413849E0,1.188574553E0
2.256490789E1,2.434863091E0,-1.131218672E0,1.037690759E0
2.261690115E1,2.144091368E0,-1.450700998E0,4.427081048E-1
2.266889464E1,2.103163242E0,-5.548489094E-2,1.030971289E0
2.272088774E1,5.851630569E-1,-1.378008127E0,-1.315052360E-1
2.277288143E1,-1.637164712E0,6.537296772E-1,-8.584348559E-1
2.282487469E1,-3.277948618E0,-7.625430822E-2,-2.423471689E0
2.287686792E1,-4.318863392E0,-2.173641771E-1,-2.325122356E0
2.292886157E1,-3.666459084E0,-1.556667984E-1,-1.000155687E0
2.298085559E1,-1.272478104E0,3.297554493E0,-7.225131243E-2
2.303284895E1,3.774689138E-1,6.347928643E-1,1.421925068E0
2.308484221E1,1.122724533E0,-8.416684866E-1,1.537378669E0
2.313683557E1,2.004813910E0,2.511694729E-1,1.610071540E0
2.318882883E1,2.218005896E0,-1.293995827E-1,1.627175808E0
2.324082219E1,2.153865099E0,-9.058093429E-1,1.405431747E0
2.329281555E1,1.985266209E0,-1.715816617E0,1.109162092E0
2.334480927E1,1.494130611E0,-1.225291848E0,8.092272282E-1
2.339680316E1,8.777675033E-1,-1.159929156E0,5.105141401E-1
2.344879662E1,2.088700980E-1,-1.533167958E0,-8.004027009E-1
2.350078991E1,-1.797211409E0,1.221834302E0,-8.944759369E-1
2.355278490E1,-3.371411085E0,8.803606629E-1,-1.389887691E0
2.360478066E1,-3.201590538E0,-4.342213571E-1,-1.337353230E0
2.365677388E1,-3.690282822E0,1.427085042E0,-6.818948388E-1
2.370876754E1,-9.016829133E-1,3.369636536E0,3.150372505E-1
2.376076064E1,6.114302874E-1,-1.808057308E0,2.069141120E-1
2.381275383E1,1.629742622E0,-8.724988252E-2,8.532095551E-1
2.386474726E1,1.821554303E0,-4.513255656E-1,1.238665581E0
2.391674065E1,1.896690845E0,-1.080516696E0,1.224615574E0
2.396873437E1,1.909518957E0,-8.722117543E-1,1.092057824E0
2.402072839E1,1.778793812E0,-3.590849340E-1,1.217285275E0
2.407272172E1,2.136149883E0,-1.279047966E0,8.244988918E-1
2.412471501E1,2.067121983E0,-9.155831337E-1,1.141537905E0
2.417670830E1,1.458089471E0,-1.193526864E0,7.817382812E-1
2.422870160E1,7.592597008E-1,-3.822977841E-1,4.958533645E-1
2.428069512E1,3.994600475E-1,9.112276882E-2,1.531579792E-1
2.433268855E1,-2.602744102E-1,4.130487740E-1,4.133865535E-1
2.438468247E1,-1.704970717E0,-2.738508955E-2,-2.066416591E-1
2.443667596E1,-4.640178204E0,3.586817384E-1,-1.530386567E0
2.448866932E1,-6.809971809E0,-1.440927267E0,-2.052065611E0
2.454066264E1,-3.806957960E0,7.044314742E-1,-2.432935834E-1
2.459265790E1,-1.770944238E0,3.723938465E0,-7.594747543E-1
2.464465649E1,-1.776090637E-2,3.397449255E-1,7.328690886E-1
2.469665325E1,1.039646864E0,4.325964451E-1,7.389777303E-1
2.474864697E1,1.557049632E0,1.455795765E0,5.722115636E-1
2.480064030E1,1.928455830E0,5.914213657E-1,2.008054554E-1
2.485263389E1,2.141647816E0,-2.188730240E-2,1.042887494E-1
2.490462695E1,2.384772301E0,-6.523002386E-1,-1.390940160E-3
2.495662028E1,2.713417768E0,-5.392901897E-1,-6.458537579E-1
2.500861393E1,2.615068436E0,-9.711718559E-1,-2.607952833E0
2.506060792E1,-1.814727932E-1,1.131426215E0,-8.724848032E-1
2.511065436E1,-3.574218273E0,-1.282102346E0,-2.551142693E0
2.516264792E1,-3.239464045E0,-1.862100512E-1,-2.216999292E0
2.521464112E1,-4.474022865E0,6.341819167E-1,-2.827253580E0
2.526663451E1,-2.912040472E0,2.766101599E0,-1.232284427E0
2.531862780E1,8.728806376E-1,2.275576830E0,5.306726694E-1
2.537062119E1,1.823997855E0,2.077980340E-1,1.065179825E0
2.542261458E1,2.029248476E0,1.046515942E0,1.534324288E0
2.547460874E1,2.364613533E0,1.888612062E-1,1.032193065E0
2.552660220E1,2.433641434E0,-3.364829123E-1,1.001038909E0
2.557859542E1,2.497782230E0,-6.889521480E-1,1.190407157E0
2.563058871E1,2.369500399E0,-1.370677710E0,1.294254303E0
2.568258360E1,2.063457012E0,-1.272939324E0,1.411540389E0
2.573458242E1,2.321242094E0,-2.236884832E0,7.120996714E-1
2.578657878E1,5.448459983E-1,-3.670261502E-1,-2.347414643E-1
2.583857228E1,-2.412352800E0,1.262762308E0,-6.635688543E-1
2.589056550E1,-4.200355530E0,-6.901738644E-1,-1.717922211E0
2.594255879E1,-4.183861732E0,-1.207576752E0,-7.881853580E-1
2.599455218E1,-3.780079842E0,1.424641609E0,-3.379776776E-1
2.604654551E1,-1.431303144E0,3.961565018E0,9.332329035E-1
2.609853887E1,-2.489275998E-3,-9.607871771E-1,5.337269902E-1
2.615053243E1,1.297432065E0,-9.772804976E-1,2.001945972E-1
2.620252655E1,1.941283941E0,4.887960553E-1,7.542493939E-1
2.625451981E1,2.185630083E0,-9.430720806E-1,5.777093172E-1
2.630651323E1,2.167915106E0,3.892250061E-1,1.018143177E0
2.635850653E1,2.305359602E0,-1.043254018E0,6.436827183E-1
2.641049982E1,2.197236538E0,-1.161761880E0,6.094743013E-1
2.646249334E1,2.560090303E0,-2.757341862E0,-4.106706679E-1
2.651448657E1,8.887631297E-1,1.071561575E0,-3.062126935E-1
2.656648032E1,-1.926714897E0,8.760845661E-1,-6.183648705E-1
2.661847424E1,-3.826505661E0,-6.437481046E-1,-1.439367652E0
2.667046767E1,-4.556489944E0,2.285674512E-1,-1.326357722E0
2.672246086E1,-4.745246887E0,2.036117792E0,-1.614376307E-1
2.677445499E1,-2.193662882E0,3.298776150E0,-2.634521127E-1
2.682645124E1,3.389844000E-1,-3.694696426E-1,4.416555748E-4
2.687844484E1,1.349355459E0,9.860403538E-1,3.089286089E-1
2.693043823E1,2.102552176E0,2.737714946E-1,8.507660627E-1
2.698243155E1,2.301694393E0,-1.186196446E0,8.984135985E-1
2.703442488E1,2.125154257E0,-3.242655993E-1,1.379164577E0
2.708641837E1,1.762911201E0,-4.256692231E-1,1.916725993E0
2.713841150E1,1.830717325E0,-1.239952683E0,2.147022247E0
2.719040552E1,1.765965581E0,-1.339523673E0,2.184284925E0
2.724239928E1,1.364627242E0,-1.156874895E0,2.242928028E0
2.729439270E1,1.084239960E0,-2.877682447E0,1.607628226E0
2.734638590E1,-5.027878881E-1,-7.625430822E-2,2.793059126E-2
2.739837922E1,-3.031159163E0,1.529099584E0,-4.479334354E-1
2.745037262E1,-4.998756409E0,-2.677422389E-2,-1.383168101E0
2.750236587E1,-5.775776863E0,-2.534052134E-1,-1.215790987E0
2.755435917E1,-5.066562176E0,1.585299253E0,-7.136597633E-1
2.760635322E1,-2.036670446E0,4.371455669E0,-8.492718935E-1
2.765834691E1,1.190729067E-1,-2.668442726E-1,8.532095551E-1
2.771034027E1,1.371957541E0,-1.555769920E0,1.233778596E0
2.776233366E1,2.362781048E0,5.639324784E-1,1.673601508E0
2.781432765E1,2.544208050E0,-8.166229725E-1,1.394436121E0
2.786632641E1,2.467238903E0,-1.286989212E0,1.325408340E0
2.791832326E1,2.243051291E0,-1.701766729E0,1.014477968E0
2.797031692E1,1.501460910E0,-9.137505293E-1,1.095112205E0
2.802231025E1,2.943912446E-1,-4.238366485E-1,1.191628933E0
2.807430357E1,4.841106944E-3,-2.358446836E0,7.909013033E-1
2.812629697E1,-1.703749061E0,6.922141910E-1,-3.483623862E-1
2.817829026E1,-3.843609810E0,2.291783094E-1,-1.945775032E0
2.823028389E1,-5.412312031E0,9.872620702E-1,-2.045956850E0
2.828227701E1,-4.952941418E0,1.508330107E0,-1.724030852E0
2.833427100E1,-2.042168379E0,2.454560280E0,-1.034974933E0
2.838626462E1,6.898195297E-2,2.707458496E0,9.252915978E-1
2.843825798E1,9.962753654E-1,4.924612343E-1,1.272873878E0
2.849025127E1,2.211286306E0,-9.583437443E-1,1.042577744E0
2.854224470E1,2.484343052E0,5.052893758E-1,9.509480000E-1
2.859423802E1,2.435473919E0,-2.167533040E-1,7.573037148E-1
2.864623132E1,2.280314207E0,-1.155653238E0,3.303088844E-1
2.869822471E1,2.169747591E0,-2.210293710E-1,4.042235613E-1
2.875021886E1,2.061624289E0,-1.362125635E0,1.965294033E-1
2.880221232E1,1.743974447E0,-1.058525681E0,2.319595814E-1
2.885420568E1,1.496161669E-1,-1.483364105E-1,3.632956147E-1
2.890619944E1,-2.392804861E0,1.699243933E-1,-8.327785730E-1
2.895819569E1,-3.862546921E0,1.674809307E-1,-1.683102846E0
2.901018969E1,-3.659739494E0,-3.096048236E-1,-1.798556566E0
2.906218301E1,-3.081249952E0,2.220599174E0,-1.233506083E0
2.911417637E1,-4.270406067E-1,3.531515837E0,1.348320097E-1
2.916616966E1,9.290801883E-1,-9.925521612E-1,4.152191579E-1
2.921816299E1,1.511234760E0,1.241382122E0,1.013867140E0
2.927015632E1,1.965107679E0,1.281699061E0,1.039523482E0
2.932215011E1,2.347509384E0,-6.229786873E-1,6.546783447E-1
2.937414386E1,2.581470728E0,-9.632306695E-1,6.149721146E-1
2.942613732E1,2.503890753E0,-6.211461425E-1,6.852216125E-1
2.947813081E1,2.137371540E0,1.680918038E-1,9.301785827E-1
2.953012484E1,1.761689544E0,-1.261332870E0,-1.461659968E-1
2.958211733E1,4.177860022E-1,-1.587211192E-1,-2.451261729E-1
2.963411076E1,-1.951149464E0,8.806844056E-2,-8.694304824E-1
2.968610401E1,-3.886981487E0,-3.236547112E-1,-1.585364461E0
2.973809760E1,-4.063521385E0,-3.560305834E-1,-1.747243762E0
2.979009199E1,-3.458764791E0,1.470456600E0,-5.328437090E-1
2.984208502E1,-1.511326432E0,4.183309078E0,3.037405200E-2
2.989407857E1,-2.077400088E-1,-2.741746604E-1,5.166227818E-1
2.994607193E1,9.828363657E-1,-1.018208504E0,4.359885752E-1
2.999807012E1,1.739087582E0,8.950214386E-1,1.207511306E0
3.005006781E1,2.006035566E0,-1.693214655E0,7.487515807E-1
3.010206277E1,2.187462568E0,-1.133661985E0,1.082284093E0
3.015405620E1,2.189295053E0,-1.316310763E0,1.014477968E0
3.020604979E1,1.996261835E0,-9.357417226E-1,1.127488017E0
3.025804272E1,2.451967239E0,-2.405483484E0,1.332127929E0
3.031003614E1,1.674335837E0,-5.070181214E-4,5.648811460E-1
3.036202940E1,-1.000032187E0,4.289312363E-1,-5.267350674E-1
3.041402316E1,-3.346365690E0,4.521441460E-1,-1.260384202E0
3.046601711E1,-4.624295712E0,-4.837014079E-1,-1.995865941E0
3.051801037E1,-4.502733231E0,-4.134519398E-1,-1.641564131E0
3.057000380E1,-3.298717976E0,2.018402576E0,3.296980262E-1
3.062199726E1,-7.721794844E-1,2.430125713E0,3.993366659E-1
3.067399052E1,7.195534706E-1,-5.472313762E-1,8.086163998E-1
3.072598411E1,1.364016294E0,-3.487001956E-1,9.588892460E-1
3.077797717E1,1.558882356E0,3.186883777E-2,1.214841843E0
3.082997125E1,1.695105195E0,-6.248112917E-1,1.187963724E0
3.088196481E1,1.769630909E0,-1.291876078E0,9.833238721E-1
3.093395811E1,1.544832349E0,-1.166037917E0,7.548602223E-1
3.098595143E1,1.279716969E0,-1.187418222E0,5.899266601E-1
3.103794492E1,1.893025637E0,-3.104923964E0,2.093575746E-1
3.108994304E1,2.388024926E-1,8.745758235E-2,-1.163256645E0
3.114194067E1,-1.930990815E0,2.221820831E0,-1.056966066E0
3.119393473E1,-2.662196636E0,1.674809307E-1,-1.512060642E0
3.124592838E1,-2.645092249E0,6.763316393E-1,-7.918505669E-1
3.129792158E1,-2.470384836E0,5.574248791E0,-8.810368776E-1
3.134991467E1,-4.184885025E-1,3.293889046E0,4.463732839E-1
3.140190816E1,8.869305253E-1,-2.966257811E0,-1.431116760E-1
3.145390146E1,1.401889920E0,5.578237772E-1,3.284762800E-1
3.150589485E1,1.676779270E0,1.071561575E0,8.348836303E-1
3.155788897E1,1.819721818E0,-1.224681020E0,6.693391204E-1
3.160988246E1,1.825830460E0,-1.737196922E0,7.108779550E-1
3.166187585E1,1.475804567E0,-1.136716485E0,6.748369336E-1
3.171386914E1,6.328105927E-1,-2.998310030E-1,6.552891731E-1
3.176586250E1,7.391011119E-1,-2.682816505E0,-2.231350243E-1
3.181785586E1,-2.523331642E-1,-5.142446756E-1,-7.582529783E-1
3.186984929E1,-2.141739368E0,1.093552589E0,-8.914216161E-1
3.192184284E1,-2.826519251E0,2.096306235E-1,-1.345294476E0
3.197383696E1,-2.455113173E0,-6.211461425E-1,-6.134778857E-1
3.202583016E1,-2.253527641E0,8.241610527E-1,-2.139720470E-1
3.207782351E1,-9.743758440E-1,2.964632750E0,8.306075335E-1
3.212981707E1,3.970166147E-1,8.785280585E-1,4.463732839E-1
3.218181303E1,1.072022676E0,3.476861715E-1,6.149721146E-1
3.223380749E1,1.857595325E0,-9.650632143E-1,1.004093289E0
3.228580088E1,2.013976812E0,-2.327903509E0,6.571217775E-1
3.233779420E1,2.304137945E0,-4.800362289E-1,1.241719842E0
3.238974486E1,2.114769697E0,-1.607693434E0,8.306075335E-1
3.244173808E1,1.550940990E0,-1.057303786E0,1.132375002E0
3.249373148E1,8.350069523E-1,-5.997658372E-1,1.219117761E0
3.254572494E1,6.584669352E-1,-4.684298038E-1,1.030971289E0
3.259771915E1,-1.003086567E0,2.270586230E-2,-1.849516667E-2
3.264971251E1,-3.518018723E0,3.299710751E-1,-7.307640314E-1
3.270170587E1,-4.828935623E0,-7.946318388E-1,-1.490680456E0
3.275369920E1,-3.278559685E0,1.491549611E-1,-5.865998268E-1
3.280569256E1,-1.345782042E0,2.823523045E0,-4.796984196E-1
3.285768582E1,-1.087798327E-1,3.077643156E0,6.253567934E-1
3.290967917E1,1.086882055E-1,1.306133747E0,1.289978147E0
3.296167280E1,5.656154156E-1,-6.694045067E-1,1.121379375E0
3.301366685E1,1.200915337E0,-1.513620257E0,1.351064682E0
3.306566018E1,1.256504059E0,-2.469013453E0,8.257206082E-1
3.311765350E1,1.372568369E0,-8.080708385E-1,1.078007936E0
3.316964689E1,1.368903160E0,-1.166648746E0,6.803346276E-1
3.322164408E1,1.042701125E0,-6.565762758E-1,4.824143350E-1
3.327364228E1,1.665783644E0,-1.751857638E0,1.818686426E-1
3.332563790E1,7.690334916E-1,-1.324539185E-1,-3.080452979E-1
3.337763123E1,-1.456959486E0,8.290479779E-1,-9.964904189E-1
3.342962449E1,-3.167382002E0,-2.210293710E-1,-1.483349919E0
3.348161791E1,-3.314600468E0,9.597731233E-1,-1.424706936E0
3.353361117E1,-3.040322065E0,2.559018373E0,-1.014205456E0
3.358560453E1,-7.544643879E-1,1.819260478E0,-1.351704299E-1
3.363759888E1,4.807051420E-1,-6.455807090E-1,3.657390773E-1
3.368959241E1,1.565601826E0,8.806844056E-2,3.987258077E-1
3.374158554E1,2.082393885E0,3.981008753E-2,5.978678465E-1
3.379357899E1,2.196625471E0,-5.337923765E-1,7.395886183E-1
3.384557225E1,2.197236538E0,-6.975042820E-1,1.019364834E0
3.389756558E1,2.050018072E0,-1.241785169E0,9.167395234E-1
3.394955890E1,1.689607382E0,-1.070742965E0,8.348836303E-1
3.400155223E1,1.196639180E0,-7.317126989E-1,6.711716652E-1
3.405354628E1,9.131977558E-1,-2.393266201E0,-3.361450732E-1
3.410553994E1,-4.869054258E-1,4.594745040E-1,-6.849491596E-1
3.415753330E1,-2.601721048E0,1.535819054E0,-9.274626374E-1
3.420952656E1,-4.026258469E0,-5.426315963E-2,-1.430815697E0
3.426151995E1,-3.894311666E0,-7.830253839E-1,-1.091174603E0
3.431351690E1,-3.295663834E0,2.807640553E0,-4.876396656E-1
3.436551516E1,-1.233993649E0,2.747775555E0,6.601761580E-1
3.441750995E1,3.402061164E-1,2.224587947E-1,4.708078802E-1
3.446950328E1,1.270553946E0,6.182994843E-1,5.783202052E-1
3.452149654E1,2.155697823E0,-4.021326080E-2,6.986606717E-1
3.457348999E1,2.337124586E0,-2.053014278E0,4.249930084E-1
3.462548339E1,2.540542841E0,-8.111251593E-1,8.825310469E-1
3.467747675E1,2.107439280E0,-1.045086503E0,9.631652832E-1
3.472947034E1,1.410441995E0,-3.627501130E-1,1.560591459E0
3.478146425E1,7.128339410E-1,-5.295162797E-1,2.271638632E0
3.483345761E1,6.242584586E-1,-1.515452862E0,1.899010897E0
3.488545104E1,2.278069109E-1,-2.625682056E-1,6.956063509E-1
3.493744427E1,-2.097757101E0,9.200668931E-1,-5.682738423E-1
3.498943762E1,-4.123997211E0,7.279681414E-2,-1.628736019E0
3.504143108E1,-4.393388748E0,-1.042643070E0,-1.884077668E0
3.509342438E1,-3.619422436E0,5.767606497E-1,-1.693788767E-1
3.514541806E1,-1.903501987E0,4.433152676E0,-1.638810933E-1
3.519741198E1,-3.958865106E-1,2.846124887E0,1.034636497E0
3.524940534E1,7.091687918E-1,-1.503846407E0,5.825962424E-1
3.530139870E1,1.480691552E0,9.539882839E-2,6.339089274E-1
3.535339199E1,2.159362793E0,-4.287235439E-1,5.337269902E-1
3.540538748E1,2.368889570E0,-9.583437443E-1,5.239531994E-1
3.545738261E1,2.516719103E0,-1.429320812E0,4.329342246E-1
3.550937617E1,2.539320946E0,-1.221626639E0,1.268907636E-1
3.556136940E1,2.429365158E0,-2.315075397E0,1.806468964E-1
3.561336265E1,1.768409014E0,-1.220404863E0,-5.297893882E-1
3.566535618E1,1.044121385E-1,1.080113649E0,-7.930723429E-1
3.571734934E1,-2.157011032E0,2.255131155E-1,-1.387444258E0
3.576934283E1,-4.054969311E0,-1.843774617E-1,-1.533440948E0
3.582133708E1,-4.294428825E0,-1.088458061E0,-6.024823785E-1
3.587333031E1,-3.285279036E0,6.057950482E-2,3.596304357E-1
3.592532366E1,-8.644201756E-1,1.637833595E0,7.817382812E-1
3.597731716E1,7.203628868E-2,1.515049696E0,8.336618543E-1
3.602931038E1,1.336527348E0,2.399582624E0,1.081673145E0
3.608130368E1,1.875921369E0,8.595912457E-1,8.617616296E-1
3.613329700E1,2.099498034E0,-5.936571360E-1,1.125044584E0
3.618529066E1,2.190516949E0,-1.269274116E0,1.042577744E0
3.623728475E1,2.133706570E0,-1.421990514E0,1.005314946E0
3.628927800E1,1.919903636E0,-1.465972781E0,1.090225220E0
3.634127140E1,1.371346712E0,-1.133661985E0,1.036469102E0
3.639326469E1,6.224258542E-1,-9.687284827E-1,9.307894111E-1
3.644526078E1,-4.074929059E-1,-9.235244393E-1,4.677535594E-1
3.649725943E1,-1.737957358E0,-3.899152577E-2,-2.032776177E-2
3.654925462E1,-3.623698473E0,-1.636080295E-1,-1.113165617E0
3.660124798E1,-4.822827339E0,-3.425915539E-1,-1.424706936E0
3.665324154E1,-4.103838444E0,6.378471851E-1,-4.998570085E-1
3.670523467E1,-2.174115181E0,3.442329645E0,-6.757861972E-1
3.675722803E1,-4.154341817E-1,1.314685941E0,7.725753188E-1
3.680922159E1,6.780145764E-1,-1.011489034E0,3.712368608E-1
3.686121471E1,1.094624758E0,2.051389456E0,8.886396885E-1
3.691320877E1,1.723205090E0,3.391340673E-1,9.112417698E-1
3.696520239E1,1.840491176E0,-1.139770746E0,6.400175691E-1
3.701719582E1,1.852097631E0,-1.241174340E0,5.862613916E-1
3.706918908E1,1.718318105E0,-1.440927267E0,9.451489896E-2
3.712118234E1,8.478351235E-1,-3.102157116E-1,9.329317510E-2
3.717317576E1,1.054918408E0,-4.148892879E0,-1.580477595E0
3.722516905E1,-1.331732035E0,7.490246296E-1,-1.342851043E0
3.727716248E1,-3.034824371E0,1.393487453E0,-1.803443313E0
3.732915663E1,-4.042140961E0,1.509551883E0,-2.163243055E0
3.738114999E1,-3.069643497E0,2.835740328E0,-1.648283720E0
3.743314348E1,-1.100824952E0,-5.056925416E-1,-1.204184532E0
3.748513674E1,5.509546399E-1,1.517493129E0,1.034636497E0
3.753713176E1,1.358518481E0,1.064231038E0,1.283258677E0
3.758912746E1,1.715874672E0,2.609432936E-1,1.139705300E0
3.764112068E1,1.737865806E0,-1.037756205E0,1.064568996E0
3.769311414E1,1.564380169E0,-1.037145376E0,6.015330553E-1
3.774510743E1,1.866147518E0,-2.350792736E-1,8.037294149E-1
3.779710083E1,1.984044552E0,-4.672080576E-1,3.608521521E-1
3.784909419E1,1.969994664E0,-4.494929910E-1,4.958533645E-1
3.790108778E1,1.235123634E0,-2.613464594E-1,2.368465066E-1
3.795308180E1,-6.765332539E-3,-3.419806957E-1,-3.605796993E-1
3.800507515E1,-1.840582728E0,4.191574156E-1,-1.045359612E0
3.805706848E1,-3.364080906E0,5.804258585E-1,-1.498010755E0
3.810906194E1,-3.305437803E0,-4.562124908E-1,-1.719143987E0
3.816105516E1,-1.868682623E0,2.080100060E0,-4.143358469E-1
3.821304849E1,-6.970430017E-1,3.522352695E0,2.747201622E-1
3.826504178E1,1.600008905E-1,9.970359206E-1,1.265543580E0
3.831703511E1,8.563872576E-1,2.637105249E-2,1.331516981E0
3.836902932E1,1.294988513E0,-9.430720806E-1,1.129931569E0
3.842102282E1,1.664561987E0,-1.260111213E0,9.912650585E-1
3.847301607E1,1.899134278E0,-1.185585618E0,1.126877189E0
3.852500960E1,1.937007904E0,-1.630906343E0,1.406042576E0
3.857700459E1,1.550330162E0,-2.061566353E0,1.618623614E0
3.862900328E1,8.350069523E-1,-1.743916392E0,1.801272392E0
3.868100004E1,-1.362687647E-1,-1.456809759E0,1.680931926E0
3.873299400E1,-8.778591752E-1,-3.847412765E-1,1.220339656E0
3.878498716E1,-2.348212004E0,-7.097215652E-1,2.274251310E-3
3.883698055E1,-3.973724127E0,-3.890173137E-1,-9.586167336E-1
3.888897388E1,-4.574815273E0,1.201675773E0,-1.358122706E0
3.894096714E1,-3.599263906E0,7.459703088E-1,-1.037418365E0
3.899296079E1,-1.596847534E0,3.458822727E0,-3.630231619E-1
3.904495488E1,2.113135457E-1,1.494280219E0,1.313191056E0
3.909694820E1,1.174037218E0,-1.336469412E0,8.574855924E-1
3.914894153E1,1.518565178E0,3.843380809E-1,1.349843025E0
3.920093499E1,2.001148701E0,-1.801013947E-1,1.299141169E0
3.925292825E1,2.312079191E0,-9.540677071E-1,1.050518990E0
3.930492154E1,2.511831999E0,-1.078684211E0,4.329342246E-1
3.935691483E1,2.358504772E0,-2.906680107E-1,-1.553289741E-1
3.940890879E1,1.820332646E0,5.584346652E-1,-6.073692441E-1
3.946090238E1,1.238788962E0,-5.393940024E-3,-1.486404300E0
3.951289590E1,1.089737773E0,-2.345618725E0,-1.675161719E0
3.956488916E1,1.139217854E0,1.008966118E-1,-1.421652555E0
3.961685221E1,5.515654683E-1,6.818294525E-1,-2.198673248E0
3.966884726E1,-2.053774595E0,1.438691497E0,-2.438132286E0
3.972084599E1,-4.370786667E0,4.900177717E-1,-2.273809671E0
3.977284218E1,-4.302980423E0,-1.224070072E0,-1.087509394E0
3.982483560E1,-3.175323248E0,5.492717028E-1,1.220038384E-1
3.987682883E1,-8.607549667E-1,-1.101897120E0,5.007402897E-1
3.992882226E1,2.377793007E-2,1.165023923E0,9.210155606E-1
3.998081555E1,1.100122452E0,2.224264145E0,8.758115172E-1
4.003280887E1,2.145923853E0,-9.204701185E-1,1.026084304E0
4.008480216E1,2.910116196E0,-1.371899486E0,7.298147678E-1
4.013679642E1,2.983419895E0,-8.709899783E-1,7.371451259E-1
4.018878998E1,2.647444010E0,-2.955549359E-1,8.269423246E-1
4.024078320E1,2.337735653E0,-6.248112917E-1,8.232771754E-1
4.029277659E1,1.560714841E0,-4.082412273E-2,8.849745393E-1
4.034476989E1,4.819268584E-1,6.341819167E-1,1.404209971E0
4.039676318E1,-4.001625478E-1,-1.245450497E0,7.786839604E-1
4.044875664E1,-2.241921186E0,-6.113722324E-1,3.883410990E-1
4.050074993E1,-3.749536514E0,-2.555249445E-2,-4.454899728E-1
4.055274392E1,-3.825894833E0,-4.116193354E-1,-8.022353053E-1
4.060473757E1,-3.839334011E0,-5.521183610E-1,1.818686426E-1
4.065673090E1,-2.555295229E0,3.299997807E0,3.712368608E-1
4.070872429E1,-5.107291341E-1,8.473739624E-1,7.420320511E-1
4.076071848E1,5.576741099E-1,-1.229567885E0,1.105496883E0
4.081271467E1,1.402500749E0,1.870286167E-1,1.219728589E0
4.086470820E1,1.841102004E0,-5.362358689E-1,1.323575854E0
4.091670169E1,2.126986980E0,-9.559002519E-1,1.154366136E0
4.096869498E1,2.277870655E0,-1.113503575E0,8.678702712E-1
4.102068828E1,2.349341869E0,-1.301650047E0,3.516891897E-1
4.107268163E1,2.025583267E0,4.918503761E-1,4.750839472E-1
4.112467496E1,1.384785652E0,1.659720764E-2,1.679710150E0
4.117666898E1,-2.107943296E-1,-1.089068890E0,2.609799616E-2
4.122866274E1,-2.441063166E0,5.559912324E-1,-1.064907312E0
4.128065613E1,-4.248003006E0,-1.538341939E-1,-2.250596762E0
4.133264929E1,-4.800225258E0,-2.860681899E-2,-2.612229109E0
4.138464268E1,-3.472203970E0,2.229762077E0,-1.419209242E0
4.143663597E1,-1.193065643E0,3.766088247E0,-7.900179625E-1
4.148862923E1,-3.213609457E-1,4.301529825E-1,7.328690886E-1
4.154062289E1,5.790544152E-1,-9.702372551E-2,6.259676218E-1
4.159261701E1,1.485578537E0,5.834801793E-1,4.158300161E-1
4.164461030E1,2.073230743E0,-5.460097194E-1,3.565760851E-1
4.169660366E1,2.501447201E0,-2.216115236E0,-1.315052360E-1
4.174859699E1,2.422645807E0,2.206262052E-1,4.256038368E-1
4.180059124E1,2.100719690E0,1.858068854E-1,9.668304324E-1
4.185258996E1,2.005424738E0,-7.756950259E-1,9.118525982E-1
4.190458672E1,1.917460203E0,-5.673899651E-1,9.155178070E-1
4.195658031E1,1.121502757E0,-5.508965850E-1,4.769165218E-1
4.200857390E1,-4.875162542E-1,7.462941110E-2,-7.515334487E-1
4.206056706E1,-2.761767626E0,3.843380809E-1,-1.314751267E0
4.211256032E1,-4.067186356E0,-1.703275591E-1,-1.925616503E0
4.216455378E1,-4.078793049E0,7.594093680E-1,-1.556653857E0
4.221654701E1,-2.128300190E0,3.764866352E0,-6.568493843E-1
4.226854057E1,-9.279501438E-1,3.330541372E0,-1.779309958E-1
4.232053462E1,-4.032168984E-1,-2.405770570E-1,4.958533645E-1
4.237252801E1,6.199824214E-1,-1.357849598E0,4.268255830E-1
4.242452134E1,1.295599341E0,6.885489225E-1,1.142148852E0
4.247651463E1,1.722594142E0,-1.056692958E0,1.492174506E0
4.252850805E1,2.221671104E0,-1.640069366E0,1.458577037E0
4.258050134E1,2.382939339E0,-1.981542945E0,8.916940093E-1
4.263249464E1,2.349341869E0,-1.434818625E0,5.288400650E-1
4.268448863E1,2.002981424E0,-1.338912725E0,-1.394464821E-1
4.273648228E1,9.376323223E-1,-1.513907313E-1,-4.913048744E-1
4.278847567E1,5.920811370E-2,8.073806018E-2,-5.392535031E-2
4.284046910E1,-2.248029947E0,4.775133356E-2,-9.928252697E-1
4.289246289E1,-4.365289211E0,-1.257343888E-1,-1.244501710E0
4.294445918E1,-4.904071808E0,-1.623863131E-1,-1.845593095E0
4.299645304E1,-3.759921312E0,-5.124121308E-1,-6.537950635E-1
4.304844640E1,-1.973140478E0,2.312228680E0,-2.933845222E-1
4.310043969E1,-4.264297485E-1,1.180906415E0,1.059071183E0
4.315243305E1,4.025143683E-1,-5.698334575E-1,9.100199938E-1
4.320442641E1,1.097679019E0,-1.947621554E-1,1.152533412E0
4.325641967E1,1.481302381E0,-1.263776422E0,1.262489200E0
4.330841336E1,1.844767213E0,-1.698101521E0,1.176357269E0
4.336040761E1,2.054904699E0,-1.236898303E0,1.021197557E0
4.341240084E1,1.714652896E0,-1.375564694E0,6.235242486E-1
4.346439413E1,1.408609509E0,-1.729866624E0,-7.713823020E-2
4.351638739E1,6.321997046E-1,-3.389263749E-1,5.459443331E-1
4.356838068E1,-1.991878748E-1,-1.581102461E-1,2.130227685E-1
4.362037411E1,-1.930990815E0,2.670519650E-1,6.296328902E-1
4.367236747E1,-3.199758053E0,1.355613828E0,4.243821502E-1
4.372436126E1,-2.632874966E0,1.190680146E0,-5.927084684E-1
4.377635515E1,-1.632888675E0,-2.109213829E0,-1.658057451E0
4.382834850E1,-3.591933250E0,-4.198372841E0,9.268230200E-2
4.388034170E1,-2.128911018E0,-5.548489094E-2,2.527289987E-1
4.393233545E1,1.117425263E-1,1.123484969E0,1.104885936E0
4.398433378E1,9.669538736E-1,-8.056274652E-1,1.650388718E0
4.403633143E1,1.838047743E0,-4.959187210E-1,1.889236927E0
4.408832613E1,2.530158043E0,3.812837601E-1,2.125641823E0
4.414031949E1,2.625453234E0,1.467114985E-1,2.155574322E0
4.419231275E1,2.406763077E0,-7.946318388E-1,2.025460005E0
4.424430607E1,2.037189722E0,-1.607693434E0,1.531270027E0
4.429629946E1,1.190530539E0,-9.723936319E-1,1.027306199E0
4.434829279E1,-9.045387059E-2,-8.422793150E-1,1.946968138E-1
4.440028708E1,-2.048277140E0,-2.821159065E-1,-1.003209949E0
4.445228067E1,-4.313976288E0,-4.488821030E-1,-2.353222132E0
4.450427376E1,-4.827103138E0,-3.951259851E-1,-2.958589554E0
4.455626715E1,-5.008529663E0,-5.961006284E-1,-1.711202741E0
4.460826051E1,-1.971307993E0,1.705639601E0,-8.517153263E-1
4.466025400E1,-3.977190852E-1,6.274300575E0,6.571217775E-1
4.471224716E1,5.008636713E-1,2.427682400E0,9.937085509E-1
4.476424059E1,1.824608684E0,2.835453153E-1,6.577326655E-1
4.481623470E1,2.232666731E0,1.551701546E0,1.094501376E0
4.486822836E1,3.425075769E0,6.152451634E-1,1.208122134E0
4.492022159E1,3.812975168E0,-4.165062606E-1,1.173913836E0
4.497221495E1,3.626050234E0,-1.623575926E0,1.282037020E0
4.502420877E1,3.027402401E0,-2.024914503E0,9.875999093E-1
4.507620659E1,2.206399441E0,-1.538054824E0,5.117358565E-1
4.512820408E1,1.064692259E0,-1.255224228E0,6.641510129E-2
4.518019821E1,-9.450542927E-1,-6.529110670E-1,-6.696774960E-1
4.523219143E1,-3.436162949E0,3.293601871E-1,-1.484571815E0
4.528418479E1,-4.274270058E0,9.664926529E-1,-1.843149662E0
4.533617812E1,-4.605359077E0,-4.659863412E-1,-2.339172125E0
4.538817151E1,-3.863157749E0,-7.054454684E-1,-9.598385096E-1
4.544016487E1,-1.502163410E0,3.588326454E0,-4.766440988E-1
4.549215833E1,-1.985770315E-1,2.691576242E0,8.574855924E-1
4.554415258E1,2.388024926E-1,1.088665724E0,8.006750941E-1
4.559614591E1,1.246119261E0,2.505585849E-1,8.794767261E-1
4.564813916E1,1.939451337E0,-2.497400343E-1,9.827129245E-1
4.570013256E1,2.530768871E0,-3.957368433E-1,1.332738757E0
4.575212578E1,3.245481253E0,-2.291862488E0,9.033004642E-1
4.580411918E1,3.426908255E0,-1.819052815E0,6.461262107E-1
4.585611267E1,3.153851509E0,-2.105548620E0,1.122299954E-1
4.590810629E1,2.758010626E0,-1.477579236E0,-9.891600609E-1
4.596010015E1,1.346301198E0,1.106704548E-1,-1.124161243E0
4.601209357E1,-7.336949706E-1,6.280732751E-1,-1.262827635E0
4.606408693E1,-2.978013992E0,4.606962204E-1,-2.212112188E0
4.611608039E1,-4.119110584E0,4.545875788E-1,-1.832154036E0
4.616807645E1,-4.614521980E0,-1.310812950E0,-1.243280053E0
4.622007100E1,-3.379352331E0,-2.249816619E-2,4.304907918E-1
4.627206426E1,-1.334175587E0,2.171729803E0,6.192481518E-1
4.632405756E1,-5.150051713E-1,2.039171934E0,6.546783447E-1
4.637605088E1,8.234004974E-1,1.358668208E0,7.133213878E-1
4.642804417E1,1.548497558E0,8.198850155E-1,9.717174172E-1
4.648003757E1,2.351174593E0,-6.480241418E-1,1.128098845E0
4.653203129E1,3.099484444E0,-1.460474968E0,9.833238721E-1
4.658402514E1,3.467836142E0,-1.407329679E0,1.061514497E0
4.663601857E1,3.357269526E0,-1.496515989E0,8.324401379E-1
4.668801186E1,2.806268930E0,-1.448868513E0,4.628666341E-1
4.674000522E1,1.676779270E0,-1.611645818E-1,1.549905688E-1
4.679199858E1,-2.631301992E-2,-1.336756498E-1,-5.194046497E-1
4.684399197E1,-1.233993649E0,1.185793281E0,-2.286328077E-1
4.689401105E1,-2.955411911E0,-6.443589926E-1,-1.503508568E0
4.694600487E1,-5.073892593E0,-3.676370382E-1,-1.295203447E0
4.699799866E1,-5.674373150E0,-1.470859647E0,-1.228619218E0
4.704999202E1,-5.237604618E0,-9.986608028E-1,2.154662162E-1
4.710198541E1,-2.759935141E0,2.701062858E-1,5.367813110E-1
4.715397873E1,-9.627694488E-1,2.301843882E0,1.695592642E0
4.720597605E1,4.165642560E-1,2.420064807E-1,1.914282441E0
4.725797407E1,1.861260653E0,-7.646994591E-1,2.024849176E0
4.730996870E1,3.177064180E0,-2.693200827E0,1.590523958E0
4.736196203E1,4.203317642E0,-1.062190771E0,1.109772921E0
4.741395542E1,4.294336796E0,-1.741473079E0,4.665318429E-1
4.746594878E1,3.430573463E0,-7.439299822E-1,6.946942955E-2
4.751794207E1,1.976714134E0,3.440209627E-1,1.000126898E-1
4.756993533E1,7.372685671E-1,1.345839977E0,1.574340165E-1
4.762192889E1,1.343445480E-1,7.646200806E-2,2.417334318E-1
4.767392271E1,-2.201604366E0,-9.223026633E-1,-1.004431725E0
4.772591640E1,-4.411103725E0,-6.455807090E-1,-1.567649364E0
4.777790982E1,-6.196051598E0,-1.564321995E0,-2.483336449E0
4.782990302E1,-5.968810081E0,8.974649310E-1,-1.605523109E0
4.788189648E1,-2.034837961E0,2.652193606E-1,-6.153104901E-1
4.793388974E1,-2.682156563E-1,2.615828753E0,6.937736869E-1
4.798588316E1,4.238946438E-1,2.391641378E0,1.591134787E0
4.803787662E1,1.442206979E0,-6.681827307E-1,1.241719842E0
4.808987074E1,2.230223179E0,-1.764362007E-1,1.343734384E0
4.814186413E1,2.795884609E0,-1.037756205E0,1.511111498E0
4.819385736E1,3.001135349E0,-1.938782454E0,1.105496883E0
4.824585078E1,2.812988520E0,-9.675067067E-1,1.052962542E0
4.829784650E1,2.197847366E0,5.358326435E-1,1.117103219E0
4.834984140E1,2.250992775E0,-1.161151052E0,3.535217643E-1
4.840183482E1,9.559583068E-1,-3.725239635E-1,-8.935553581E-2
4.845382815E1,-1.715966344E0,5.340000391E-1,-1.099115849E0
4.850582138E1,-4.011598110E0,-6.749022007E-1,-1.855977774E0
4.855781487E1,-5.390320778E0,-9.620088935E-1,-2.490055799E0
4.860980813E1,-4.709206104E0,2.240757465E0,-1.421041727E0
4.866180152E1,-2.412352800E0,2.389521599E-1,-1.614075184E0
4.871379557E1,-3.457955420E-1,1.801545382E0,8.428248167E-1
4.876578920E1,6.267018914E-1,-2.851702273E-1,8.947483301E-1
4.881778246E1,1.410441995E0,3.745642304E-1,1.137261868E0
4.886977591E1,2.129430532E0,7.951632887E-2,7.218735218E-1
4.892176911E1,2.596131563E0,-6.413046718E-1,7.658558488E-1
4.897376247E1,2.870409966E0,-8.661031127E-1,7.212626338E-1
4.902575596E1,2.708530664E0,-4.146736562E-1,8.471009135E-1
4.907774925E1,2.541764498E0,-7.646994591E-1,7.646340728E-1
4.912974340E1,2.538710117E0,-1.462307453E0,1.549905688E-1
4.918173679E1,1.507569551E0,-2.760072351E-1,1.525471061E-1
4.923373012E1,-6.054132581E-1,-1.807122678E-1,-4.192227721E-1
4.928572348E1,-2.824075937E0,2.603324354E-1,-9.635037184E-1
4.933771977E1,-4.117888451E0,-4.195605814E-1,-1.397828817E0
4.938971816E1,-4.061688900E0,-1.079905868E0,-1.073459506E0
4.944171438E1,-3.831392527E0,-2.650116682E-1,5.740441084E-1
4.949370788E1,-1.888230324E0,1.240771174E0,2.014163136E-1
4.954570120E1,-6.103001833E-1,8.999083042E-1,9.179612398E-1
4.959769446E1,5.833305120E-1,-6.132048368E-1,9.283459187E-1
4.964968789E1,1.809337020E0,-2.912788689E-1,1.012034535E0
4.970168118E1,2.634615898E0,-6.058744788E-1,1.063347220E0
4.975367517E1,2.975478649E0,-1.067688584E0,9.967628717E-1
4.980566889E1,3.004800320E0,-8.453336954E-1,9.656087756E-1
4.985766218E1,2.702422142E0,-9.852218032E-1,7.890686393E-1
4.990965548E1,2.440971613E0,-1.365179896E0,6.467370391E-1
4.996164887E1,2.034746408E0,-7.042237520E-1,8.012859821E-1
5.001364219E1,8.796001673E-1,-4.387845099E-2,4.592014551E-1
5.006563555E1,-1.264536858E0,6.005843878E-1,-6.348581910E-1
5.011762885E1,-3.094689131E0,-5.304142833E-2,-1.483349919E0
5.016962290E1,-4.522891998E0,9.561079741E-1,-1.300090432E0
5.022161659E1,-4.372008324E0,4.380942285E-1,-1.068572521E0
5.027360982E1,-3.459986687E0,1.668376803E0,2.808288038E-1
5.032560321E1,-1.660377622E0,1.155573800E-1,4.023909867E-1
5.037759654E1,-1.863597035E-1,-8.606052995E-1,4.359885752E-1
5.042959256E1,1.284603715E0,1.812541008E0,8.525986671E-1
5.048159124E1,2.452578068E0,1.149465069E-1,9.265133739E-1
5.053358647E1,3.017017603E0,-4.580450654E-1,6.668956280E-1
5.058557983E1,3.189892530E0,-4.775927663E-1,5.752658844E-1
5.063757326E1,3.155683994E0,-8.251751065E-1,3.101503253E-1
5.068956651E1,2.696313381E0,-8.661031127E-1,8.535192162E-2
5.074155987E1,2.166693211E0,-4.855340123E-1,-1.482997555E-2
5.079355327E1,1.834993362E0,3.153102994E-1,9.283459187E-1
5.084554656E1,6.993948817E-1,-3.206003904E-1,-1.034054309E-1
5.089754068E1,-2.171671867E0,1.125030518E-1,-9.665580392E-1
5.094953427E1,-4.621851921E0,7.985047102E-1,-1.449141622E0
5.100152756E1,-5.908334255E0,-6.999477744E-1,-2.312905073E0
5.105352089E1,-5.317017078E0,8.162198067E-1,-1.917675138E0
5.110551421E1,-2.679300785E0,1.464347959E0,-2.866650224E-1
5.115750767E1,-8.931307793E-1,1.276201248E0,4.146082997E-1
5.120950090E1,3.554777503E-1,1.858068854E-1,9.014679193E-1
5.126149432E1,1.324920893E0,2.542237937E-1,8.947483301E-1
5.131348848E1,1.951668739E0,5.651541948E-1,1.189796209E0
5.136548197E1,2.546651363E0,-1.855093837E0,9.766042829E-1
5.141747529E1,2.734797955E0,-1.264998078E0,7.957882285E-1
5.146946862E1,2.344455004E0,-3.322068453E-1,8.489334583E-1
5.152146348E1,2.365224361E0,-5.460097194E-1,7.206518054E-1
5.157345933E1,2.331015825E0,-1.384727716E0,2.893809080E-1
5.162545259E1,1.708544254E0,-5.618921518E-1,5.593833327E-1
5.167744589E1,5.515654683E-1,8.449304700E-1,1.277760863E0
5.172943934E1,-1.066005588E0,-1.293097854E0,1.082636416E-2
5.178143257E1,-3.461819172E0,-1.245126650E-1,-5.224589705E-1
5.183342593E1,-4.774568558E0,6.485556066E-2,-1.147374153E0
5.188541936E1,-4.798392296E0,-4.556016326E-1,-1.694098473E0
5.193741351E1,-3.687228441E0,-5.637248158E-1,-6.611254215E-1
5.198940696E1,-1.945040822E0,3.427668810E0,-3.043800890E-1
5.204140042E1,-1.289383918E-1,1.038574696E0,4.927990437E-1
5.209339355E1,7.867485881E-1,-9.027550220E-1,4.830251932E-1
5.214538694E1,1.765965581E0,3.751751184E-1,6.589543819E-1
5.219738030E1,2.194792986E0,5.019479617E-2,9.906542301E-1
5.224937360E1,2.324296474E0,-7.048346400E-1,9.631652832E-1
5.230136712E1,2.323074818E0,-1.086625338E0,8.574855924E-1
5.235336134E1,2.098276377E0,-4.965296090E-1,8.910831809E-1
5.240535490E1,2.023750782E0,-1.233844042E0,4.915772974E-1
5.245734802E1,1.871034384E0,-1.025538921E0,4.442395270E-2
5.250934142E1,1.576597452E0,-1.619910717E0,-6.959447265E-1
5.256133650E1,2.210873961E-1,1.253312230E-1,-1.005042553E0
5.261333539E1,-1.263315201E0,-5.070181214E-4,-1.606133938E0
5.266533138E1,-2.987176657E0,7.129836082E-1,-2.061228514E0
5.271732467E1,-3.610870361E0,9.377819896E-1,-9.445669055E-1
5.276931797E1,-5.169187546E0,7.056531906E-1,-6.470754743E-1
5.282131143E1,-5.167355061E0,2.209603548E0,1.556014270E-1
5.287330462E1,-1.846691370E0,-2.294305801E0,-5.890433192E-1
5.292529848E1,-3.085327744E-1,8.492065668E-1,8.727571964E-1
5.297729160E1,1.164263248E0,2.437456131E0,6.290220022E-1
5.302928512E1,2.431197643E0,2.210214376E0,1.170248628E0
5.308127898E1,3.422631979E0,-8.679356575E-1,1.291810751E0
5.313327237E1,3.843518257E0,-2.172743797E0,1.215452671E0
5.318526570E1,3.978519440E0,-1.704820991E0,8.208336830E-1
5.323725906E1,3.757997036E0,-1.693214655E0,6.449044943E-1
5.328925228E1,3.062221766E0,-1.961384416E0,-1.528855264E-1
5.334124577E1,1.106842041E0,-2.631790638E-1,-4.784766734E-1
5.339323903E1,-5.319108814E-2,-3.810760677E-1,-1.094839692E0
5.344523305E1,-1.317071319E0,-5.234076381E-1,-1.720976591E0
5.349722674E1,-2.693350554E0,1.976252913E0,-8.437740803E-1
5.354922007E1,-3.876596689E0,1.537547819E-2,-6.647905707E-1
5.360121336E1,-5.122150898E0,-1.081738472E0,-1.486094594E-1
5.365320765E1,-6.200328350E0,1.863242745E0,4.634775221E-1
5.370520381E1,-3.274894238E0,8.400436044E-1,1.055104733E-1
5.375719740E1,-1.299967051E0,-9.675067067E-1,5.942026973E-1
5.380919086E1,4.269489944E-1,1.932881474E0,8.080055118E-1
5.386118412E1,1.785513282E0,3.004950047E0,1.360227704E0
5.391317745E1,2.918668270E0,-4.232257605E-1,1.481178999E0
5.396517077E1,3.914989471E0,-1.861813426E0,1.474459529E0
5.401716413E1,4.450718403E0,-2.589354038E0,8.910831809E-1
5.406915789E1,4.237526417E0,-1.711540580E0,7.066018581E-1
5.412115171E1,3.343830585E0,-1.551493883E0,5.282292366E-1
5.417307873E1,2.252825260E0,-9.094744921E-1,3.938388526E-1
5.422507199E1,1.108063698E0,-1.953730285E-1,6.458250433E-2
5.427706545E1,-7.795099020E-1,1.003144622E0,-5.236807466E-1
5.432905871E1,-1.584630251E0,6.195212007E-1,-7.997918129E-1
5.438105197E1,-3.991439104E0,1.424354613E-1,-1.657446623E0
5.443304553E1,-5.720798969E0,-5.227968097E-1,-1.592083931E0
5.448503975E1,-5.963312626E0,-6.205351949E-1,-1.235949636E0
5.453703304E1,-6.026231289E0,1.421587229E0,-2.139720470E-1
5.458902653E1,-3.791075468E0,1.336676955E0,-3.544710279E-1
5.464101979E1,-7.856185436E-1,-1.165714115E-1,6.345197558E-1
5.469301414E1,7.091687918E-1,-7.136738300E-2,1.127488017E0
5.474501290E1,2.218005896E0,-4.018454850E-1,1.531880856E0
5.479700989E1,3.286409140E0,-1.194137692E0,1.795774698E0
5.484900412E1,4.465990067E0,-2.182517529E0,1.865413189E0
5.490099755E1,5.289436340E0,-3.031009436E0,1.324186683E0
5.495299077E1,4.836785316E0,-1.686495066E0,1.249661088E0
5.500498410E1,3.619330883E0,-1.021262765E0,1.090225220E0
5.505697749E1,1.872256160E0,1.827812672E0,1.780502915E0
5.510897128E1,-4.661359787E-1,-5.050817132E-1,8.293858171E-1
5.516096520E1,-2.930366516E0,-6.956716776E-1,-7.582529783E-1
5.521295850E1,-5.323125362E0,1.515049696E0,-1.338575006E0
5.526495179E1,-6.340826988E0,1.656483263E-1,-2.110097647E0
5.531694515E1,-5.913221359E0,6.057950482E-2,-1.805886865E0
5.536893851E1,-3.566277027E0,2.186390638E0,-3.947881460E-1
5.542093183E1,-1.254152179E0,3.209589958E0,-1.889265776E-1
5.547292509E1,3.110831231E-2,2.609432936E-1,9.741608500E-1
5.552491878E1,1.240010619E0,-1.268663168E0,1.052351594E0
5.557691290E1,2.303527117E0,-1.043254018E0,1.242941499E0
5.562890613E1,2.904618502E0,-1.595476151E0,9.362872243E-1
5.568089972E1,2.968148470E0,-9.119179845E-1,1.058460236E0
5.573289281E1,2.696924210E0,-1.301650047E0,8.324401379E-1
5.578488707E1,2.164860487E0,-1.204522491E0,7.780731320E-1
5.583688596E1,2.129430532E0,-1.191694260E0,6.870542169E-1
5.588888261E1,1.539945483E0,-3.169352114E-1,4.921881855E-1
5.594087617E1,-7.599621415E-1,4.148813486E-1,-5.236807466E-1
5.599286953E1,-2.916316509E0,1.004977226E0,-1.130880713E0
5.604486286E1,-4.129494667E0,2.829344571E-1,-2.108265162E0
5.609685625E1,-4.241283417E0,1.992459148E-1,-1.694098473E0
5.614884954E1,-3.789242983E0,7.056531906E-1,-6.415777206E-1
5.620084283E1,-2.235812426E0,3.172937870E0,-6.030932069E-1
5.625283662E1,-5.015661716E-1,1.678150654E0,5.489986539E-1
5.630483051E1,5.686697364E-1,-1.117883483E-3,6.681173444E-1
5.635682394E1,1.358518481E0,7.759026885E-1,1.011423588E0
5.640881719E1,1.986487865E0,-4.165062606E-1,1.070677638E0
5.646081059E1,2.409206867E0,-1.255835056E0,9.527806044E-1
5.651280408E1,2.500225544E0,-9.552893639E-1,9.216264486E-1
5.656479721E1,2.343233109E0,-1.092123151E0,8.440465927E-1
5.661679050E1,1.952279568E0,-8.856507540E-1,6.155829430E-1
5.666878445E1,1.778182864E0,-4.745384455E-1,6.064199805E-1
5.672077814E1,8.429482579E-1,-3.865738511E-1,4.335451126E-1
5.677277153E1,-1.188789606E0,1.546527594E-1,-6.873926520E-1
5.682476493E1,-3.525959969E0,1.980241835E-1,-1.631179452E0
5.687675875E1,-4.497235775E0,7.646200806E-2,-2.391095638E0
5.692875504E1,-3.971891642E0,1.176630259E0,-9.641145468E-1
5.698074894E1,-1.818591714E0,2.235870600E0,-7.063294053E-1
5.703274223E1,-2.981480360E-1,1.372717977E0,8.574855924E-1
5.708473555E1,6.774037480E-1,7.380290627E-1,5.575507879E-1
5.713672895E1,9.150303602E-1,6.940467358E-1,7.792948484E-1
5.718872227E1,1.398224711E0,-1.251559138E0,7.096561790E-1
5.724071556E1,1.756802559E0,-1.293708682E0,6.980497241E-1
5.729270972E1,2.157530308E0,-1.584480643E0,5.563290119E-1
5.734470327E1,2.394545794E0,-1.585702300E0,3.852867782E-1
5.739669647E1,2.847807884E0,-2.561254263E0,-5.059656501E-1
5.744868996E1,1.881419182E0,6.256299019E-1,-2.884976268E-1
5.750068332E1,-5.033987761E-1,7.930069566E-1,-4.430465102E-1
5.755267661E1,-3.186929703E0,2.731606066E-1,-1.320859909E0
5.760466994E1,-4.387891293E0,2.475042790E-1,-1.895073295E0
5.765666340E1,-3.907750845E0,3.617360890E-1,-1.595138311E0
5.770865758E1,-2.274297237E0,-1.035312772E0,-9.240985662E-2
5.776065097E1,-5.864764452E-1,8.687542081E-1,1.054184198E0
5.781264423E1,9.036224335E-2,8.088893890E-1,9.766042829E-1
5.786463762E1,7.940790057E-1,3.373014629E-1,1.048075557E0
5.791663125E1,1.521619558E0,-1.065855980E0,4.818034768E-1
5.796862960E1,1.933342695E0,-5.808289647E-1,8.238880038E-1
5.802062696E1,2.108661175E0,-8.086817861E-1,9.045222402E-1
5.807262098E1,2.144702196E0,-1.251559138E0,1.021808386E0
5.812461434E1,1.434876561E0,-1.787898660E0,1.132985830E0
5.817660767E1,1.504515290E0,-1.009656429E0,1.418870687E0
5.822860103E1,7.873594761E-1,-8.966463804E-1,1.073120952E0
5.828059435E1,-4.032168984E-1,-1.385625601E-1,6.913302541E-1
5.833258765E1,-1.881510735E0,1.302181333E-1,-4.888614118E-1
5.838458107E1,-2.362261772E0,6.396797299E-1,-3.294255733E-1
5.843657519E1,-3.998158932E0,8.864693046E-1,-6.427994370E-1
5.848856872E1,-4.156983852E0,2.605444193E0,5.722115636E-1
5.854056194E1,-1.364718795E0,-3.963477015E-1,-3.330907524E-1
5.859255540E1,7.476532459E-1,1.461006403E-1,6.271893978E-1
5.864454870E1,1.703657389E0,3.153102994E-1,9.228482246E-1
5.869654202E1,2.513053656E0,6.085256338E-1,1.046242952E0
5.874853538E1,2.857581854E0,-7.329344749E-1,8.690920472E-1
5.880052877E1,3.045117378E0,-9.088636637E-1,6.076416969E-1
5.885252323E1,2.470293283E0,-1.012710810E0,5.825962424E-1
5.890451635E1,1.794065475E0,-4.873666167E-1,5.942026973E-1
5.895650964E1,4.416097701E-1,-6.382502913E-1,3.834541738E-1
5.900850327E1,-3.916104436E-1,-7.463734746E-1,4.201060832E-1
5.906049939E1,-1.097770572E0,-2.210617542E0,-4.711463153E-1
5.911249368E1,-3.350030661E0,7.239791751E-1,-9.818296432E-1
5.916448698E1,-5.286473751E0,6.928250194E-1,-1.289094806E0
5.921648027E1,-5.262650013E0,-1.276604533E0,-4.845853448E-1
5.926847370E1,-3.629807234E0,1.513217092E0,5.141793489E-1
5.932046702E1,-1.183291793E0,3.023886681E0,8.281640410E-1
5.937246038E1,-9.534078836E-2,5.263825879E-2,1.078618765E0
5.942445387E1,1.168539405E0,-7.439299822E-1,8.806985021E-1
5.947644799E1,2.274816513E0,-1.574993879E-1,9.320111871E-1
5.952844148E1,3.098873615E0,-8.929811120E-1,5.691572428E-1
5.958043468E1,3.326726437E0,-1.550272107E0,4.109431207E-1
5.963242797E1,3.208218575E0,-6.339743137E-1,7.151539922E-1
5.968442153E1,2.690204859E0,-5.997658372E-1,1.214841843E0
5.973641465E1,1.846599817E0,-1.139770746E0,7.689101696E-1
5.978840804E1,1.147968546E-1,1.261540532E0,1.288756490E0
5.984040197E1,-2.065381050E0,-1.497126818E0,-6.562384367E-1
5.989239569E1,-4.173477173E0,-4.507146776E-1,-1.653781414E0
5.994438915E1,-5.028077602E0,8.962431550E-1,-2.164464951E0
5.999638260E1,-4.043973446E0,-2.234728336E-1,-1.097894073E0
6.004837603E1,-2.748939514E0,2.799088478E0,-4.210553467E-1
6.010037338E1,-3.592346013E-1,2.081932545E0,7.524167299E-1
6.015237138E1,6.444169879E-1,-2.289706320E-1,7.646340728E-1
6.020436677E1,1.561325788E0,4.136596024E-1,9.130743146E-1
6.025636006E1,2.407373905E0,1.577070802E-1,1.097555637E0
6.030835342E1,3.080547571E0,-9.461264014E-1,9.778260589E-1
6.036034678E1,3.547859669E0,-9.876652956E-1,6.332980394E-1
6.041234007E1,3.153851509E0,-2.876136899E-1,7.628014684E-1
6.046433350E1,3.261974573E0,-1.229567885E0,8.128924370E-1
6.051632758E1,2.643779039E0,-8.929811120E-1,5.337269902E-1
6.056832121E1,7.140556574E-1,3.489078879E-1,2.441768944E-1
6.062031450E1,-2.213210583E0,1.351948619E0,-6.134778857E-1
6.067230779E1,-3.932796240E0,1.554755807E0,-1.810163021E0
6.072430122E1,-4.761129379E0,-9.161940217E-1,-3.162618637E0
6.077629444E1,-4.039697647E0,1.415374782E-2,-1.965933561E0
6.082828777E1,-2.918760061E0,1.627448797E0,-9.280735254E-1
6.088028113E1,-9.426109195E-1,4.374833703E-1,2.796070874E-1
6.093227531E1,9.891435504E-2,-7.518712878E-1,5.111250281E-1
6.098426890E1,8.124049902E-1,3.831163645E-1,9.704956412E-1
6.103626213E1,1.291934252E0,-4.904209673E-1,1.363281965E0
6.108825546E1,1.644403458E0,-1.026760578E0,1.686429739E0
6.114024888E1,2.092778683E0,-1.286989212E0,1.764009595E0
6.119224620E1,2.209453821E0,-9.589545727E-1,1.812878728E0
6.124424429E1,1.426935434E0,-1.181309581E0,1.411540389E0
6.129623875E1,1.811780572E0,-1.883297600E-2,6.760585904E-1
6.134823211E1,-2.999806404E-1,1.282920957E0,3.474131227E-1
6.140022554E1,-2.350044489E0,1.509875655E-1,-7.594747543E-1
6.145221889E1,-3.535733938E0,-1.558213353E0,-1.979983568E0
6.150414694E1,-3.934628963E0,-1.021262765E0,-1.563984275E0
6.155614027E1,-3.493584156E0,-9.449046850E-1,-7.839093208E-1
6.160813373E1,-2.166174173E0,1.760617375E0,-4.888614118E-1
6.166012791E1,-2.340072095E-1,2.420962811E0,4.518710673E-1
6.171212131E1,5.937151909E-1,3.064711019E-2,1.898098737E-1
6.176411466E1,1.221684694E0,6.738882065E-1,5.343378782E-1
6.181610796E1,1.710376859E0,2.059654444E-1,9.075765610E-1
6.186810135E1,2.395156622E0,-1.434494853E-1,1.244163275E0
6.192009464E1,2.680430889E0,-1.074408054E0,1.153755307E0
6.197208790E1,2.632783413E0,-4.885883629E-1,1.529437423E0
6.202408172E1,2.206399441E0,-8.053036779E-2,1.281426072E0
6.207607581E1,1.522230387E0,6.005843878E-1,1.208122134E0
6.212806894E1,5.283526182E-1,-6.648045778E-2,7.982316613E-1
6.218006230E1,-1.001864791E0,-1.481244326E0,-2.915519476E-1
6.223205572E1,-2.910207748E0,-1.093955755E0,-1.162645698E0
6.228405141E1,-4.604137421E0,-3.166114539E-2,-1.702650666E0
6.233604627E1,-5.312129974E0,-4.556016326E-1,-2.375824213E0
6.238803970E1,-4.111168861E0,1.025746584E0,-9.525080919E-1
6.244003299E1,-9.933126569E-1,2.659811020E0,-8.639326692E-1
6.249202625E1,2.333047092E-1,2.234038115E0,1.507446170E0
6.254401971E1,1.181978345E0,-8.025730848E-1,1.689484000E0
6.259601300E1,1.922958016E0,-1.423822999E0,1.404209971E0
6.264800652E1,2.022529125E0,-7.555364370E-1,1.364503741E0
6.270000071E1,2.061624289E0,-1.090290666E0,1.250882864E0
6.275199393E1,2.008479118E0,-1.571652412E0,8.580964208E-1
6.280398733E1,1.734811544E0,-1.195359468E0,8.147250414E-1
6.285598075E1,1.125778794E0,-8.459445238E-1,7.737970352E-1
6.290797404E1,7.733095884E-1,-8.044056892E-1,8.361052871E-1
6.295996734E1,7.264714688E-2,-8.960354328E-1,1.482710391E-1
6.301196070E1,-1.875402093E0,9.579405785E-1,-7.570312619E-1
6.306395442E1,-2.998172283E0,1.142421842E0,-1.458915353E0
6.311594834E1,-2.937085867E0,3.553403169E-2,-1.849869132E0
6.316794166E1,-3.783134222E0,-5.124121308E-1,-8.315567970E-1
6.321993506E1,-1.759948611E0,-1.832491994E0,1.238364354E-1
6.327192835E1,1.079964042E0,4.997916222E-1,5.740441084E-1
6.332392487E1,1.676168442E0,1.477176070E0,5.923700333E-1
6.337592329E1,1.875310540E0,-1.028086152E-2,7.261496186E-1
6.342791825E1,2.047574520E0,-2.228619754E-1,6.058091521E-1
6.347991174E1,2.192349672E0,-3.297633827E-1,5.557181239E-1
6.353190507E1,1.962053299E0,-4.574342370E-1,6.772803068E-1
6.358389833E1,2.025583267E0,-1.250948071E0,7.982316613E-1
6.363589172E1,1.876532197E0,-8.361706734E-1,3.645173311E-1
6.368788505E1,1.260779977E0,-9.396939725E-2,6.216915846E-1
6.373987837E1,3.854101598E-1,-5.001947880E-1,7.772038691E-3
6.379187233E1,-1.760559440E0,2.505585849E-1,-8.517153263E-1
6.384386602E1,-3.445936680E0,3.403557837E-1,-1.159591436E0
6.389585951E1,-3.607815981E0,-2.747855186E-1,-9.390690923E-1
6.394785283E1,-4.233952522E0,2.975952029E-1,-1.388356239E-1
6.399984606E1,-1.871736884E0,1.636611819E0,2.001945972E-1
6.405183935E1,-4.160450399E-1,4.704701006E-1,3.327523470E-1
6.410383288E1,5.094158053E-1,1.537651658E0,5.129575729E-1
6.415582610E1,1.064081430E0,1.028800845E0,4.048344493E-1
6.420782016E1,1.856984496E0,-2.249816619E-2,7.316473126E-1
6.425981378E1,2.461741209E0,-4.067323804E-1,6.760585904E-1
6.431180711E1,2.915003061E0,-6.767348647E-1,7.023258209E-1
6.436380037E1,2.866133928E0,-8.074600101E-1,4.311016500E-1
6.441579562E1,2.483121395E0,-1.213074565E0,1.006235555E-1
6.446779115E1,1.926012278E0,-1.137327313E0,-1.198987961E-1
6.451978437E1,2.076483667E-1,2.560563982E-1,-5.737716556E-1
6.457177777E1,-2.080041885E0,1.056289792E0,-8.895890117E-1
6.462377126E1,-3.969448328E0,-1.788796633E-1,-1.524277925E0
6.467576438E1,-4.668277740E0,-1.540498257E0,-1.717311382E0
6.472775791E1,-4.717147350E0,-5.771638155E-1,-5.090199709E-1
6.477975130E1,-3.230301380E0,1.490615010E0,-2.219132930E-1
6.483174512E1,-1.349447131E0,5.804258585E-1,4.378211796E-1
6.488373888E1,-3.952756226E-1,5.975300074E-1,7.719644904E-1
6.493573210E1,7.690334916E-1,1.405093908E0,1.057238579E0
6.498772543E1,1.760467768E0,-5.661681890E-1,1.012034535E0
6.503971886E1,2.789164782E0,-5.313489437E-1,1.001649737E0
6.509171208E1,3.775712252E0,-1.031036735E0,7.096561790E-1
6.514370551E1,4.167276859E0,-8.777095079E-1,2.020271868E-1
6.519569880E1,3.690191269E0,2.059654444E-1,3.242002130E-1
6.524769295E1,2.546651363E0,-3.499219418E-1,9.451489896E-2
6.529968661E1,1.222295523E0,-4.387845099E-2,-6.858611852E-2
6.535167974E1,-1.472643465E-1,1.192225739E-1,-3.410319984E-1
6.540367313E1,-2.331718445E0,1.461006403E-1,-9.836622477E-1
6.545566862E1,-4.149653435E0,1.015074775E-1,-1.405159354E0
6.550766750E1,-4.348184586E0,-1.450700998E0,-1.781452298E0
6.555966320E1,-3.681730747E0,-3.944864035E0,-4.882505536E-1
6.561165646E1,-2.685409307E0,1.546814680E0,1.072510123E0
6.566364982E1,-5.950285792E-1,5.230045319E-1,1.604883373E-1
6.571564327E1,2.601827681E-1,1.079502702E0,-3.559939563E-2
6.576763643E1,1.054918408E0,1.528488636E0,6.125286222E-1
6.581962986E1,1.798952341E0,4.185465276E-1,8.336618543E-1
6.587162325E1,2.404319763E0,-3.334285915E-1,1.128098845E0
6.592361681E1,3.028013229E0,-5.026382208E-1,1.197737575E0
6.597561086E1,3.132471085E0,-6.223678589E-1,7.682992816E-1
6.602760419E1,2.439139128E0,1.473223716E-1,6.265785694E-1
6.607959754E1,1.618747115E0,-8.236295730E-2,3.632956147E-1
6.613159080E1,9.052564502E-1,-1.156264067E0,3.892616555E-2
6.618358410E1,-9.035155177E-1,-4.632190987E-2,-3.239277899E-1
6.623557749E1,-3.114236832E0,4.588636458E-1,-7.955157757E-1
6.628757078E1,-3.931574345E0,-7.488169670E-1,-1.538327932E0
6.633956480E1,-3.481977701E0,-4.244475067E-1,-8.926433325E-1
6.639155853E1,-3.045208931E0,9.475558400E-1,-3.978424966E-1
6.644355182E1,-1.213835120E0,1.367831230E0,3.767346442E-1
6.649554534E1,2.131461501E-1,2.413956076E-1,3.657390773E-1
6.654753980E1,1.164874315E0,1.010474920E0,5.007402897E-1
6.659953576E1,1.545443296E0,6.738882065E-1,9.265133739E-1
6.665152939E1,1.942505598E0,-3.596957624E-1,1.341901779E0
6.670352258E1,2.299861908E0,-9.247461557E-1,1.373666763E0
6.675551587E1,2.721969843E0,-1.770794511E0,1.228280783E0
6.680750930E1,2.548483849E0,-1.001104355E0,1.100610018E0
6.685950256E1,1.714652896E0,-2.033142895E-1,1.412151217E0
6.691149628E1,1.134941816E0,-8.099034429E-1,4.701970220E-1
6.696348984E1,-8.570897579E-1,1.210551709E-1,2.221857458E-1
6.701548362E1,-2.882108212E0,1.296072900E-1,-1.141876340E0
6.706747688E1,-4.580924511E0,9.266825393E-3,-2.166908264E0
6.711947031E1,-4.891243458E0,-4.439951777E-1,-2.022133112E0
6.717146357E1,-2.883329868E0,2.646085024E-1,-3.196517229E-1
6.722345709E1,-1.508882880E0,1.840640903E0,-7.032750845E-1
6.727545045E1,-2.456136495E-1,2.554742098E0,1.080451369E0
6.732744381E1,8.295091987E-1,-8.215098977E-1,6.302437186E-1
6.737943744E1,1.692661762E0,-2.656225264E-1,5.392248034E-1
6.743143129E1,2.110493660E0,-5.070181214E-4,9.698848128E-1
6.748342465E1,2.392713308E0,-8.893159628E-1,1.113438129E0
6.753541787E1,2.525882006E0,-9.907196164E-1,1.162918210E0
6.758741266E1,2.382939339E0,-4.610994160E-1,1.279593468E0
6.763941132E1,2.289477110E0,-1.257667780E0,1.745683670E0
6.769140825E1,2.143480301E0,-2.366388083E0,-1.712114662E-1
6.774340234E1,2.656805813E-1,7.361964583E-1,-1.240225673E0
6.779539573E1,-1.896782398E0,1.625616193E0,-2.063672066E0
6.784738893E1,-4.120332241E0,-7.982970476E-1,-2.052676439E0
6.789938255E1,-5.383601189E0,2.267348468E-1,-1.306199074E0
6.795137555E1,-3.794740677E0,1.000701070E0,2.854145691E-2
6.800336897E1,-1.300577879E0,-1.553937435E0,-4.125032425E-1
6.805536309E1,-4.402811453E-2,2.066660881E0,5.489986539E-1
6.810735665E1,7.855269313E-1,1.989691854E0,6.015330553E-1
6.815934997E1,1.429989696E0,8.614238501E-1,4.036127329E-1
6.821134333E1,1.847210646E0,4.179356694E-1,5.887048841E-1
6.826333656E1,2.160584450E0,8.655959740E-3,5.654920340E-1
6.831532998E1,2.340178967E0,-4.592668116E-1,4.439298213E-1
6.836732328E1,2.259544611E0,-1.096399307E0,1.659861356E-1
6.841931680E1,1.823386908E0,-1.360293150E0,-1.828179210E-1
6.847131085E1,4.849812090E-1,1.363268048E-1,-1.449442804E-1
6.852330424E1,-7.446905375E-1,6.212499458E-3,-7.997918129E-1
6.857529770E1,-1.863184810E0,-2.698985934E-1,-1.067350864E0
6.862729110E1,-2.369591951E0,-1.080192998E-1,-7.356509566E-1
6.867928552E1,-3.149056196E0,-2.399661988E-1,2.362356484E-1
6.872933951E1,-2.189386845E0,1.882179737E0,-1.706006229E-1
6.878133613E1,-6.506173015E-1,6.378471851E-1,-2.982714474E-1
6.883332966E1,3.414278626E-1,7.190922499E-1,-2.255784869E-1
6.888532305E1,1.213743448E0,1.695865750E0,2.014163136E-1
6.893731634E1,1.792843580E0,8.623585105E-2,5.447226167E-1
6.898930964E1,2.123321772E0,-1.220691949E-1,8.800876141E-1
6.904130306E1,2.195403814E0,-4.885883629E-1,1.077397108E0
6.909329639E1,1.965718508E0,-4.342213571E-1,1.071288466E0
6.914528988E1,1.272386432E0,-2.668442726E-1,1.173913836E0
6.919728403E1,5.949369669E-1,-6.920064688E-1,9.289568663E-1
6.924927742E1,-7.640396804E-2,-7.842471600E-1,5.147902369E-1
6.930127065E1,-1.720853090E0,1.354288310E-2,-6.183648705E-1
6.935326404E1,-3.442271471E0,-3.248764575E-1,-9.152453542E-1
6.940525744E1,-3.969448328E0,-1.353573442E0,-1.158369780E0
6.945725066E1,-2.738554716E0,-1.302260876E0,-2.310762852E-1
6.950924409E1,-2.002462149E0,2.295735359E0,-1.449442804E-1
6.956123801E1,-4.807967544E-1,2.720286846E0,8.086163998E-1
6.961323176E1,4.672660828E-1,-8.410575986E-1,4.995185435E-1
6.966522509E1,1.279716969E0,-2.222511023E-1,6.858324409E-1
6.971721838E1,1.670059800E0,1.436571777E-1,1.212398291E0
6.976921231E1,1.799563289E0,-6.724588275E-1,1.225226402E0
6.982120863E1,1.990153193E0,-1.260111213E0,9.314002395E-1
6.987320239E1,1.800174117E0,-7.891340256E-1,4.402646124E-1
6.992519565E1,1.191141367E0,2.169610113E-1,4.732513428E-1
6.997718918E1,8.588307500E-1,-1.042643070E0,1.782034487E-1
7.002918240E1,-5.076748133E-1,3.309056908E-2,-1.275044918E0
7.008117576E1,-2.441674232E0,5.865345001E-1,-1.484571815E0
7.013316909E1,-3.626752615E0,4.258769155E-1,-1.665998816E0
7.018516304E1,-2.494208574E0,-7.372105122E-1,-1.165089250E0
7.023715680E1,-2.449615479E0,-1.707264543E0,4.747828096E-2
7.028914999E1,-1.219943762E0,3.139951229E0,2.637245655E-1
7.034114341E1,1.094975974E-2,1.383713603E0,4.665318429E-1
7.039313677E1,9.559583068E-1,-6.168700457E-1,3.205350339E-1
7.044513007E1,1.544221520E0,9.316733479E-1,6.326872110E-1
7.049712346E1,1.844767213E0,-1.128775120E0,6.180264354E-1
7.054911672E1,2.043909311E0,-1.348686695E0,5.178445578E-1
7.060111057E1,1.665783644E0,-6.070961952E-1,6.956063509E-1
7.065310449E1,1.261390924E0,-6.046527624E-1,8.110598326E-1
7.070509775E1,7.598705292E-1,-4.183388352E-1,9.778260589E-1
7.075709111E1,7.024492025E-1,-1.231400490E0,4.701970220E-1
7.080908487E1,-5.388289690E-1,-9.571220279E-1,2.539507151E-1
7.086108329E1,-2.481380463E0,1.760330349E-1,1.653752774E-1
7.091308078E1,-3.266342402E0,-1.092410386E-1,-4.992461205E-1
7.096507548E1,-2.113028765E0,-1.124499083E0,-6.751753092E-1
7.101706877E1,-2.020788193E0,1.638157368E-1,-5.505588055E-1
7.106906210E1,-5.944177508E-1,4.558380604E0,6.192481518E-1
7.112105542E1,-3.100140952E-3,8.211067319E-1,6.174155474E-1
7.117304901E1,6.315888762E-1,-1.249115586E0,4.072779119E-1
7.122504207E1,1.017655730E0,8.632563949E-1,8.452683091E-1
7.127703626E1,1.376233697E0,-2.918897271E-1,6.809455752E-1
7.132902978E1,1.783680677E0,-7.280475497E-1,9.717174172E-1
7.138102307E1,2.166082382E0,-1.172757387E0,8.770332932E-1
7.143301653E1,2.294974804E0,-1.259500265E0,8.642051220E-1
7.148500983E1,2.137982368E0,-9.461264014E-1,1.067012310E0
7.153700309E1,1.685331464E0,-6.584088802E-1,9.014679193E-1
7.158899655E1,4.489401579E-1,-5.020273924E-1,3.150372505E-1
7.164098990E1,-1.602345347E0,1.057835296E-1,-8.394980431E-1
7.169298409E1,-3.499082088E0,-1.074084416E-1,-1.286040545E0
7.174497755E1,-3.697002172E0,2.206262052E-1,-1.386222363E0
7.179697077E1,-3.244351149E0,3.489078879E-1,-7.949048877E-1
7.184896423E1,-1.948705912E0,2.619493961E0,-5.499479175E-1
7.190095782E1,-7.935597301E-1,9.316733479E-1,4.659209549E-1
7.195295614E1,9.891435504E-2,-1.196581125E0,4.549253881E-1
7.200495350E1,1.037814260E0,7.050423622E-1,7.127104998E-1
7.205694752E1,1.627910018E0,-3.960239515E-2,6.998823881E-1
7.210894085E1,2.098276377E0,-3.401480913E-1,7.194300294E-1
7.216093418E1,2.134928226E0,-4.226149023E-1,6.308546066E-1
7.221292750E1,2.138593435E0,-7.732515335E-1,4.408755004E-1
7.226492090E1,1.991985679E0,-6.938390732E-1,9.756922722E-2
7.231691416E1,1.889971256E0,-9.662849903E-1,-2.829998136E-1
7.236890788E1,1.204580426E0,2.994278371E-1,-1.174553409E-1
7.242090186E1,-1.857488602E-1,9.243429303E-1,-1.317805529E0
7.247289512E1,-1.957258105E0,4.252660573E-1,-2.268311739E0
7.252488858E1,-2.928533792E0,-1.075629830E0,-2.320235252E0
7.257688191E1,-3.205255747E0,4.832982421E-1,-1.205406427E0
7.262887517E1,-4.390945435E0,1.716635108E0,-6.855599880E-1
7.268086863E1,-1.622503877E0,-2.784507275E-1,4.625654966E-2
7.273286189E1,2.711783350E-1,-1.488574743E0,2.429551482E-1
7.278485591E1,1.414718151E0,1.381270170E0,6.461262107E-1
7.283684986E1,2.693869829E0,-3.780217171E-1,4.530928135E-1
7.288884289E1,3.461116791E0,-1.152598858E0,4.524819255E-1
7.294083618E1,3.310232878E0,7.147123106E-4,4.885229766E-1
7.299282984E1,2.272983551E0,1.045618057E-1,6.436827183E-1
7.304482596E1,1.249784470E0,2.988169491E-1,4.005583823E-1
7.309682019E1,1.376844525E0,-9.021440744E-1,-1.461659968E-1
7.314881358E1,2.143678963E-1,6.677795649E-1,-4.515986443E-1
7.320080701E1,-2.390361547E0,-4.632190987E-2,-1.215180159E0
7.325280026E1,-4.088566780E0,5.996863917E-2,-1.489458561E0
7.330479362E1,-3.816121101E0,-1.312321723E-1,-1.573758006E0
7.335678708E1,-1.802098274E0,1.386157155E0,-1.651028246E-1
7.340878070E1,-9.536064267E-1,2.520534039E0,-4.351052642E-1
7.346077449E1,-7.318623662E-1,9.835968614E-1,7.487515807E-1
7.351276798E1,2.744312026E-2,-6.187026501E-1,5.172336698E-1
7.356476118E1,9.730625153E-1,-7.726407051E-1,7.615797520E-1
7.361675457E1,1.629131794E0,-1.089679837E0,8.733680844E-1
7.366874796E1,2.448302031E0,-1.526124626E-1,1.709642529E0
7.372074125E1,2.841699123E0,-6.831305474E-2,1.896567345E0
7.377273475E1,2.497782230E0,-4.983621836E-1,1.704144716E0
7.382472864E1,1.687163949E0,-1.000493407E0,1.609460711E0
7.387672219E1,8.380612731E-1,-1.021873713E0,1.260656595E0
7.392871562E1,3.078302741E-1,-1.227735400E0,9.485045075E-1
7.398070891E1,-9.682672024E-1,4.775133356E-2,1.617100835E-1
7.403270250E1,-2.602331877E0,2.096306235E-1,-1.075291991E0
7.408470002E1,-3.510688543E0,-6.950607896E-1,-1.453417659E0
7.413669784E1,-3.981054783E0,4.136596024E-1,-1.072848678E0
7.418869227E1,-4.266939640E0,2.859564066E0,-6.635688543E-1
7.424068559E1,-1.716577172E0,2.039171934E0,6.051982641E-1
7.429267892E1,1.889100857E-2,-2.114100933E0,-1.910603233E-2
7.434467224E1,1.112950683E0,1.438691497E0,4.359885752E-1
7.439666547E1,1.513678193E0,9.481666684E-1,7.603580356E-1
7.444865903E1,1.712820292E0,-8.642704487E-1,8.617616296E-1
7.450065242E1,2.219227552E0,-1.442759871E0,7.041584253E-1
7.455264657E1,2.512442827E0,-1.622965097E0,4.427081048E-1
7.460464030E1,2.426311016E0,-1.077462435E0,1.140625924E-1
7.465663333E1,1.995040059E0,4.164268449E-2,-2.521468513E-2
7.470862665E1,1.422659278E0,-1.367299706E-1,1.586557478E-1
7.476062001E1,3.389844000E-1,-5.570052266E-1,-3.245386779E-1
7.481261327E1,-1.654268980E0,-1.526124626E-1,-1.169976234E0
7.486460670E1,-3.255957603E0,1.021183431E-1,-2.144917011E0
7.491660032E1,-3.915081024E0,-2.576812804E-1,-2.047789574E0
7.496859434E1,-4.220513821E0,-1.500792146E0,-1.730139494E0
7.502058763E1,-3.014055014E0,-4.501038492E-1,8.718451858E-2
7.507258106E1,-2.101834565E-1,9.835968614E-1,5.954243541E-1
7.512457468E1,3.933514059E-1,1.398985267E0,7.475298643E-1
7.517657040E1,1.207023978E0,1.668987632E0,1.070066690E0
7.522856500E1,2.003592253E0,-1.318143368E0,7.438646555E-1
7.528055832E1,2.827038527E0,-3.841303885E-1,1.048075557E0
7.533255165E1,3.184394836E0,-8.850399256E-1,1.087781787E0
7.538454501E1,3.014574289E0,-1.644345284E0,6.595652699E-1
7.543653844E1,2.101330519E0,-1.107394934E0,4.653101265E-1
7.548853170E1,1.688996553E0,-1.429320812E0,2.563942075E-1
7.554052529E1,4.171751440E-1,1.742004454E-1,-5.071873665E-1
7.559251937E1,-1.821035147E0,4.714047164E-2,-1.027033687E0
7.564451270E1,-3.670735121E0,5.559912324E-1,-1.323303342E0
7.569650609E1,-3.937683105E0,1.904067025E-2,-1.967766166E0
7.574849945E1,-3.058037281E0,-2.698985934E-1,-7.869636416E-1
7.580049284E1,-1.870515108E0,2.271300793E0,-3.379776776E-1
7.585248607E1,-1.405448169E-1,1.511384487E0,8.018968701E-1
7.590447939E1,7.134447694E-1,-6.852869987E-1,5.557181239E-1
7.595647285E1,1.512456536E0,1.344942003E-1,9.417849779E-1
7.600653381E1,1.878364921E0,-1.015154123E0,7.298147678E-1
7.605852720E1,2.223503590E0,-7.561473250E-1,7.597471476E-1
7.611052056E1,2.415315390E0,-3.841303885E-1,8.299966455E-1
7.616251379E1,2.263820887E0,-7.732515335E-1,6.546783447E-1
7.621451028E1,1.999927044E0,-5.857159495E-1,5.160118937E-1
7.626650867E1,1.571099639E0,-3.761891425E-1,3.443588018E-1
7.631850476E1,8.832653165E-1,-2.870028019E-1,2.915232256E-2
7.637049822E1,2.204765379E-1,-3.303742409E-1,-3.385885656E-1
7.642249158E1,-1.306075692E0,5.263825879E-2,-9.763318300E-1
7.647448480E1,-2.692739725E0,-1.874317825E-1,-1.516336799E0
7.652647843E1,-3.696391344E0,1.177241206E0,-1.248166919E0
7.657847169E1,-4.213183403E0,3.550165296E-1,-1.117441773E0
7.663046574E1,-5.342062473E0,1.304911971E0,-1.516637951E-1
7.668245950E1,-1.507050395E0,-4.079541266E-1,-4.790875614E-1
7.673445256E1,-6.663012505E-2,3.763968647E-1,6.901085377E-1
7.678644588E1,1.101344228E0,1.261540532E0,6.106960177E-1
7.683843928E1,2.276038170E0,6.610600352E-1,8.672594428E-1
7.689043257E1,3.166068792E0,-2.198076546E-1,9.265133739E-1
7.694242593E1,3.427519083E0,-9.247461557E-1,9.344545603E-1
7.699441929E1,3.540529013E0,-1.018208504E0,9.649978876E-1
7.704641344E1,3.081158400E0,-3.322068453E-1,9.992063642E-1
7.709840693E1,2.506334305E0,-8.526640534E-1,5.031837225E-1
7.715040022E1,1.657231569E0,-1.043254018E0,-5.209275335E-2
7.720239365E1,4.122882485E-1,-6.901738644E-1,-7.258771658E-1
7.725438688E1,-1.985357881E0,1.571249247E0,-6.776188016E-1
7.730638316E1,-4.358569145E0,6.091364622E-1,-1.399661541E0
7.735838172E1,-5.547924042E0,-1.260722041E0,-2.119260788E0
7.741037694E1,-4.799614429E0,-6.687935591E-1,-8.798151612E-1
7.746237030E1,-3.320098400E0,6.580057144E-1,7.230952382E-1
7.751436366E1,-1.378768682E0,1.750843644E0,1.225837231E0
7.756635689E1,-3.616780341E-1,-2.332466692E-1,9.967628717E-1
7.761835035E1,7.397119999E-1,3.617360890E-1,9.509480000E-1
7.767034364E1,1.229625940E0,1.242603779E0,1.176968098E0
7.772233693E1,1.608973265E0,-1.043864846E0,1.349843025E0
7.777433115E1,2.085448265E0,-2.491615534E0,1.032804012E0
7.782632458E1,2.271761894E0,-1.779957533E0,9.882107377E-1
7.787831797E1,1.178924084E0,-7.805818915E-1,1.114659905E0
7.793031133E1,1.348744631E0,-1.442759871E0,-1.544084027E-2
7.798230469E1,5.920811370E-2,-3.034961820E-1,4.201060832E-1
7.803429798E1,-1.932212472E0,-3.776979819E-2,-1.019703269E0
7.808629137E1,-3.784355879E0,-6.648045778E-2,-1.753963351E0
7.813828480E1,-4.258387089E0,-4.378865361E-1,-2.168740749E0
7.819027905E1,-3.736097574E0,-1.194137692E0,-1.061853051E0
7.824227228E1,-1.641440630E0,3.321989059E0,-8.688195944E-1
7.829426567E1,1.095846415E0,1.854690671E0,1.099388242E0
7.834625896E1,1.571710467E0,-3.761891425E-1,1.059682012E0
7.839825402E1,1.769630909E0,1.091109157E0,1.400544763E0
7.845024967E1,2.063457012E0,2.884322405E-1,1.032193065E0
7.850224300E1,2.334070206E0,-2.149207145E-1,9.204047322E-1
7.855423626E1,2.317576885E0,-1.084182024E0,7.108779550E-1
7.860622972E1,2.045742035E0,-8.544966578E-1,5.923700333E-1
7.865822298E1,1.328586102E0,-2.882245481E-1,4.133865535E-1
7.871021630E1,1.142272234E0,-1.051806211E0,1.458275914E-1
7.876221009E1,-2.059074044E-1,-2.032244921E0,-1.211205274E-1
7.881420401E1,-2.783758879E0,-9.763459116E-2,-5.212372541E-1
7.886619737E1,-4.130105972E0,8.620347381E-1,-1.134546041E0
7.891819070E1,-3.607205153E0,-5.166881680E-1,-1.832154036E0
7.897018403E1,-2.331718445E0,4.222117364E-1,-6.201974750E-1
7.902217745E1,-9.902583361E-1,2.249920607E0,1.024561524E-1
7.907417081E1,3.029433489E-1,9.017409682E-1,9.857672453E-1
7.912616404E1,1.136163592E0,1.070052609E-1,4.897447228E-1
7.917815749E1,1.747639656E0,1.514438868E0,7.548602223E-1
7.923015185E1,2.089113235E0,1.998567879E-1,8.605399132E-1
7.928214514E1,2.353617907E0,-4.696515203E-1,7.591363192E-1
7.933413840E1,2.561923027E0,-6.156483293E-1,8.489334583E-1
7.938613176E1,2.555203676E0,-1.008434653E0,5.789310336E-1
7.943812701E1,2.403708935E0,-1.253391623E0,3.266437054E-1
7.949012587E1,1.751304865E0,-1.030425787E0,-2.982714474E-1
7.954212179E1,7.861377597E-1,-9.760588408E-1,-1.158369780E0
7.959411498E1,-1.102657557E0,5.358326435E-1,-1.829710603E0
7.964610831E1,-3.021385193E0,1.166245580E0,-1.691655040E0
7.969810177E1,-4.050082207E0,-7.683646083E-1,-1.975096583E0
7.975009503E1,-4.014652252E0,-2.493448019E0,-4.558746815E-1
7.980208838E1,-3.079417467E0,-5.973224044E-1,9.546131492E-1
7.985408181E1,-1.675038338E0,1.790873557E-1,8.477117419E-1
7.990607547E1,-1.328677773E0,1.327514052E0,1.029749632E0
7.995806946E1,-1.790293306E-1,1.982972383E0,8.220553994E-1
8.001006272E1,8.472242951E-1,1.706861377E0,7.224843502E-1
8.006205611E1,1.685942292E0,8.644781709E-1,9.320111871E-1
8.011404940E1,2.893012047E0,7.890546322E-2,1.242330670E0
8.016604276E1,4.469044209E0,-1.582647920E0,8.202228546E-1
8.021803609E1,4.756761551E0,-2.347451210E0,1.928642094E-1
8.027002944E1,3.389645576E0,-9.204701185E-1,6.290220022E-1
8.032202353E1,1.756802559E0,-5.893810987E-1,8.391596079E-1
8.037401729E1,4.379445910E-1,-3.725239635E-1,2.191314101E-1
8.042601035E1,-2.125246048E0,-2.112555206E-1,-3.404211402E-1
8.047800381E1,-4.376284599E0,4.533658326E-1,-1.235338688E0
8.052999820E1,-5.980416298E0,-4.171171188E-1,-2.299466133E0
8.058199429E1,-5.803876400E0,-2.244215012E0,-1.855977774E0
8.063398778E1,-4.690268993E0,-2.444578886E0,-9.851851314E-2
8.068598114E1,-1.475896239E0,5.285022855E-1,4.158300161E-1
8.073797443E1,-3.604562879E-1,2.542524815E0,1.798828959E0
8.078996782E1,1.215163693E-1,1.300025105E0,1.465907335E0
8.084196115E1,1.573543072E0,3.537948430E-1,1.165972590E0
8.089395448E1,2.537488461E0,-3.535871208E-1,8.623725176E-1
8.094594833E1,3.911935329E0,-2.008708119E-1,9.821020961E-1
8.099794209E1,4.974229813E0,-1.150766253E0,4.323233962E-1
8.104993548E1,4.756150723E0,-1.414659977E0,1.995837241E-1
8.110192897E1,3.725010395E0,-2.492837191E0,6.449044943E-1
8.115392216E1,2.256490469E0,-9.580199420E-2,-1.131792814E-1
8.120591549E1,-9.517738819E-1,1.200454116E0,-3.104887307E-1
8.125790872E1,-3.184486389E0,1.113711238E0,-1.226175785E0
8.130990221E1,-4.686604023E0,-3.322068453E-1,-2.214555740E0
8.136189610E1,-5.174685478E0,-1.661449552E0,-1.770456672E0
8.141388975E1,-3.845442533E0,-8.966463804E-1,-1.999221444E-1
8.146588318E1,-1.541869760E0,1.659824729E0,2.331813276E-1
8.151787647E1,5.493205786E-2,6.989337206E-1,9.271242023E-1
8.156987092E1,8.453916907E-1,4.716918170E-1,7.750188112E-1
8.162186982E1,1.732978940E0,1.510162711E0,9.277350903E-1
8.167386624E1,2.342011452E0,5.370543599E-1,1.153755307E0
8.172585990E1,2.900342226E0,-4.610994160E-1,9.503371119E-1
8.177785322E1,3.279078960E0,-1.236287355E0,6.473479867E-1
8.182984652E1,2.864301205E0,-7.622559667E-1,6.168046594E-1
8.188183994E1,1.746417999E0,2.768258154E-1,1.163529038E0
8.193383327E1,4.800942540E-1,6.109691262E-1,1.584415317E0
8.198582653E1,-1.655903012E-1,-1.944383979E-2,1.153144360E0
8.203781996E1,-1.525987148E0,-1.044475675E0,-1.657136828E-1
8.208981411E1,-3.488697290E0,4.142704904E-1,-6.489080787E-1
8.214180750E1,-4.520448685E0,-7.750841379E-1,-1.761293650E0
8.219380076E1,-4.893076897E0,-1.577150226E0,-1.822380304E0
8.224579415E1,-4.120332241E0,-7.231605649E-1,-1.754875332E-1
8.229778758E1,-1.260871649E0,1.774667382E0,2.887700498E-1
8.234978087E1,6.114302874E-1,-6.455807090E-1,1.023030043E0
8.240177423E1,1.434265733E0,-6.046527624E-1,1.190407157E0
8.245376765E1,1.876532197E0,5.089545846E-1,1.167194247E0
8.250576177E1,1.864314914E0,-3.132700324E-1,8.464899659E-1
8.255775526E1,2.065900326E0,-8.697682619E-1,7.511950731E-1
8.260974849E1,2.031081200E0,-3.487001956E-1,6.742259860E-1
8.266174251E1,1.909518957E0,-5.606704950E-1,7.493624091E-1
8.271373883E1,2.059180975E0,-1.023095489E0,5.471660495E-1
8.276573253E1,1.670670629E0,-5.435662270E-1,4.427081048E-1
8.281772589E1,6.352540255E-1,4.576418996E-1,1.696513146E-1
8.286971928E1,-1.447796345E0,6.140234470E-1,-1.337353230E0
8.292171254E1,-3.217473030E0,7.074857950E-1,-1.820547581E0
8.297370603E1,-3.800849438E0,1.697698355E0,-2.294579029E0
8.302569929E1,-3.670124292E0,1.042240024E0,-1.931114316E0
8.307769262E1,-2.070878983E0,2.131412506E0,-9.244083166E-1
8.312968687E1,-2.914285362E-1,-1.709384173E-1,4.592014551E-1
8.318168023E1,5.014745593E-1,-8.236295730E-2,2.331813276E-1
8.323367362E1,1.268110514E0,2.279242277E0,4.561471343E-1
8.328554852E1,1.827052116E0,8.259936571E-1,3.339740932E-1
8.333754188E1,2.359115839E0,-1.043541133E-1,3.913954198E-1
8.338953521E1,2.467238903E0,-2.979983687E-1,5.654920340E-1
8.344152846E1,2.368278742E0,-4.812579751E-1,6.626195908E-1
8.349352222E1,2.272372723E0,4.527550042E-1,8.538203835E-1
8.354551624E1,1.781848192E0,4.897306859E-2,6.436827183E-1
8.359750957E1,9.822255373E-1,-9.763459116E-2,7.188192010E-1
8.364950309E1,-2.278985381E-1,2.065762877E-1,1.007147551E0
8.370149675E1,-1.694586039E0,-6.040418744E-1,3.217567801E-1
8.375349530E1,-3.109349966E0,-7.188845277E-1,-1.364231348E0
8.380549273E1,-3.740373850E0,-8.606052995E-1,-1.744800329E0
8.385748736E1,-3.930963516E0,-1.391734332E-1,-1.309864283E0
8.390948055E1,-2.425791740E0,1.400207043E0,-5.652195215E-1
8.396147388E1,-6.103001833E-1,1.706250429E0,5.178445578E-1
8.401346727E1,1.135751158E-1,-1.183142066E0,1.017532229E0
8.406546056E1,9.681755900E-1,4.124378860E-1,1.584415317E0
8.411745392E1,1.724426746E0,-3.419806957E-1,1.949712634E0
8.416944791E1,2.291920662E0,-1.632739067E0,1.871521831E0
8.422144163E1,2.585135937E0,-1.633349895E0,1.688873172E0
8.427343486E1,2.587579250E0,-2.159915686E0,1.244163275E0
8.432542825E1,2.067733049E0,-2.061566353E0,6.027547717E-1
8.437742168E1,1.403111696E0,-2.899673700E0,3.571869433E-1
8.442941490E1,4.587139785E-1,2.933191657E-1,-5.358980298E-1
8.448140833E1,-1.795378804E0,1.791160822E0,-1.589029670E0
8.453340155E1,-3.873542309E0,3.409666419E-1,-2.065504551E0
8.458539560E1,-5.200952530E0,-3.505328000E-1,-2.059396029E0
8.463738933E1,-3.603539705E0,2.010461330E0,-7.252662182E-1
8.468938259E1,-2.224205971E0,2.227929354E0,-1.453417659E0
8.474137591E1,-4.013842642E-1,1.283855438E-1,6.259676218E-1
8.479336974E1,7.861377597E-1,3.959445059E-1,3.681825399E-1
8.484536816E1,1.312092781E0,2.282907248E0,7.835709453E-1
8.489736548E1,1.941283941E0,1.173899770E-1,6.094743013E-1
8.494935928E1,2.523438454E0,-1.159929156E0,2.692223489E-1
8.500135263E1,2.872242689E0,-1.153209686E0,3.339740932E-1
8.505334596E1,3.057945490E0,-1.564932823E0,4.078887701E-1
8.510533932E1,2.717693567E0,-1.106783986E0,4.940207899E-1
8.515733265E1,1.918681860E0,4.148813486E-1,1.090836048E0
8.520932597E1,7.568162084E-1,-1.941513121E-1,8.544312716E-1
8.526131933E1,-1.119150996E0,-7.930862904E-2,-1.455551386E-1
8.531331358E1,-3.459375620E0,4.356507659E-1,-7.521443367E-1
8.536530694E1,-4.572371960E0,-3.028853238E-1,-1.733193994E0
8.541730033E1,-3.247405529E0,-3.218221366E-1,-9.580059052E-1
8.546929363E1,-2.613327503E0,3.617360890E-1,-1.504420638E-1
8.552128689E1,-9.652128816E-1,2.418519258E0,5.361704826E-1
8.557328041E1,-3.097544909E-1,1.211449623E0,5.929809809E-1
8.562527364E1,7.726987600E-1,4.301529825E-1,5.887048841E-1
8.567726719E1,1.875310540E0,-4.250583351E-1,5.770984292E-1
8.572926135E1,2.441582441E0,-7.991950214E-2,9.802695513E-1
8.578125460E1,2.632172585E0,-9.143614769E-1,1.019975781E0
8.583324800E1,2.574751139E0,-4.672080576E-1,1.200181007E0
8.588524169E1,2.152032375E0,-8.917593956E-1,1.156198740E0
8.593723778E1,1.984044552E0,-9.009223580E-1,1.044410348E0
8.598923200E1,1.714652896E0,-1.247282982E0,2.582267821E-1
8.604122543E1,4.153425694E-1,-1.587211192E-1,1.110082641E-1
8.609321876E1,-1.901058435E0,7.600201964E-1,-9.311278462E-1
8.614521218E1,-3.871098995E0,4.338181615E-1,-1.593305826E0
8.619720534E1,-4.800225258E0,-7.927992344E-1,-2.038626671E0
8.624919876E1,-3.381185055E0,-6.590197682E-1,-5.071873665E-1
8.630119242E1,-2.427624226E0,1.165023923E0,-1.962569654E-1
8.635318637E1,-1.330510378E0,2.324445963E0,9.045222402E-1
8.640517970E1,-2.511114478E-1,2.016893774E-1,5.825962424E-1
8.645717302E1,6.523582935E-1,1.569416642E0,8.067837358E-1
8.650916645E1,1.064692259E0,5.309457183E-1,9.045222402E-1
8.656115981E1,1.500850081E0,-1.062190771E0,8.281640410E-1
8.661315304E1,1.910129786E0,-1.212463617E0,9.704956412E-1
8.666514650E1,2.153865099E0,-1.203300714E0,1.012034535E0
8.671714005E1,2.167915106E0,-1.208798409E0,1.047464728E0
8.676913414E1,1.932120919E0,-5.618921518E-1,1.194683194E0
8.682112743E1,2.153865099E0,-1.294319630E0,4.097213745E-1
8.687312076E1,1.552773714E0,-4.525473118E-1,-8.401089311E-1
8.692511415E1,-7.520209551E-1,3.739533722E-1,-1.906068683E0
8.697711194E1,-2.883940697E0,-2.265271544E-1,-1.910344839E0
8.702910983E1,-4.328636646E0,7.035334408E-2,-2.410643578E0
8.708110509E1,-4.504565716E0,-1.361191124E-1,-1.388055086E0
8.713309841E1,-2.731835127E0,1.816206217E0,-6.861708760E-1
8.718509171E1,-2.217898965E-1,1.424641609E0,4.115539491E-1
8.723708510E1,5.686697364E-1,1.376994133E0,6.962171793E-1
8.728907836E1,1.097679019E0,9.255647063E-1,7.310364842E-1
8.734107185E1,1.628520846E0,-3.960239515E-2,7.750188112E-1
8.739306574E1,1.915627599E0,-9.919412732E-1,8.263314962E-1
8.744505943E1,2.094000340E0,-9.772804976E-1,8.269423246E-1
8.749705279E1,2.250992775E0,-1.001104355E0,6.992715001E-1
8.754904608E1,1.963886023E0,-6.920064688E-1,4.133865535E-1
8.760103950E1,2.090334892E0,-1.547217727E0,-8.721322753E-3
8.765303290E1,1.177091599E0,4.808548093E-1,-4.595398903E-1
8.770502609E1,-1.084942460E0,1.450297952E0,-8.407197595E-1
8.775701948E1,-3.152721405E0,-5.350140929E-1,-1.497399926E0
8.780901387E1,-3.923022509E0,-1.405497074E0,-1.666609645E0
8.786100716E1,-4.221124649E0,-1.961384416E0,-5.291785002E-1
8.791300045E1,-3.853383780E0,-4.739275873E-1,2.557833195E-1
8.796499374E1,-1.361664414E0,-1.577864960E-2,5.453334451E-1
8.801698730E1,-2.718808651E-1,1.038574696E0,6.174155474E-1
8.806898479E1,4.171751440E-1,1.827812672E0,7.255386710E-1
8.812098284E1,1.714042068E0,-2.705094516E-1,8.587073088E-1
8.817297714E1,2.274205685E0,-1.768351078E0,6.675065160E-1
8.822497063E1,2.947989702E0,-8.160121441E-1,1.014477968E0
8.827696376E1,3.412247658E0,-1.115946889E0,8.898614645E-1
8.832895718E1,3.084823847E0,-9.815565944E-1,1.071899295E0
8.838095041E1,2.169747591E0,-8.813747168E-1,1.092668653E0
8.843294383E1,9.614560604E-1,-4.910317957E-1,9.900433421E-1
8.848493723E1,-5.681505203E-1,-2.039251477E-1,2.991547585E-1
8.853693138E1,-2.208323717E0,6.347928643E-1,-1.974786818E-1
8.858892484E1,-3.591322422E0,-5.203533173E-1,-1.351403117E0
8.864091823E1,-4.397053719E0,-5.893810987E-1,-1.560319066E0
8.869291149E1,-4.050082207E0,-1.108005762E0,-1.248166919E0
8.874490481E1,-4.267550468E0,-1.517896295E0,-1.302835047E-1
8.879689811E1,-1.094716311E0,1.719689488E0,3.953703493E-2
8.884889156E1,9.952522069E-2,1.743513346E0,1.034636497E0
8.890088545E1,9.498496652E-1,1.561475515E0,9.368980527E-1
8.895287911E1,2.062235355E0,-3.410460800E-2,1.324186683E0
8.900487250E1,3.020071983E0,-2.002599537E-1,1.594189048E0
8.905686629E1,3.626050234E0,-3.535871208E-1,1.795163751E0
8.910885928E1,3.578402758E0,-1.321808577E0,1.539211154E0
8.916085511E1,2.961428881E0,-1.137938142E0,1.293643475E0
8.921284990E1,2.919890165E0,-1.451922894E0,1.027917027E0
8.926484316E1,9.944428205E-1,1.048855577E-2,4.320222139E-2
8.931683652E1,-1.580354214E0,1.790873557E-1,-7.173250318E-1
8.936882988E1,-3.762364864E0,3.531839550E-1,-1.063685536E0
8.942082330E1,-4.830768108E0,-5.032491088E-1,-2.105821848E0
8.947281643E1,-4.893076897E0,-3.994020224E-1,-1.827877998E0
8.952481019E1,-3.290776968E0,4.203791618E-1,-4.589290023E-1
8.957680431E1,-1.206504583E0,2.835740328E0,-1.605170593E-2
8.962879756E1,-6.479752809E-2,2.405691147E0,9.790477753E-1
8.968079106E1,8.154593110E-1,1.555977702E0,1.096944809E0
8.973278422E1,1.746417999E0,-7.747603953E-2,1.179411650E0
8.978477757E1,2.631561756E0,-2.149207145E-1,1.390160084E0
8.983677107E1,3.001135349E0,-3.902390301E-1,1.696203589E0
8.988876416E1,3.320617676E0,-1.268052340E0,1.796996355E0
8.994075795E1,3.206996918E0,-1.817831159E0,1.576473951E0
8.999275187E1,2.543597221E0,-1.037756205E0,1.227059126E0
9.004474526E1,1.338970780E0,-5.063034296E-1,7.548602223E-1
9.009673862E1,-5.070639849E-1,-6.525873393E-2,-5.056131631E-3
9.014873188E1,-2.047666073E0,3.513513505E-1,-1.055133581E0
9.020072857E1,-4.332912922E0,-3.713022172E-1,-1.526110649E0
9.025272705E1,-4.986538410E0,-1.247893810E0,-1.892629743E0
9.030472188E1,-3.875985861E0,-1.434818625E0,-3.593579829E-1
9.035671524E1,-2.285292625E0,1.094163418E0,-1.003511101E-1
9.040870860E1,-1.064783931E0,2.604222298E0,6.546783447E-1
9.046070186E1,-5.486027598E-1,1.060565948E0,1.843120903E-1
9.051269528E1,5.063614845E-1,2.020846128E0,6.546783447E-1
9.056272532E1,1.360351086E0,-6.095396876E-1,5.416682959E-1
9.061471861E1,2.210064650E0,-1.822211035E-2,1.306471586E0
9.066671296E1,3.228987694E0,-7.695863843E-1,1.672379851E0
9.071870626E1,3.764716864E0,-1.360903978E0,1.541043878E0
9.077069955E1,3.776934147E0,-1.921067357E0,1.355951667E0
9.082269297E1,3.265028715E0,-1.407329679E0,1.098777294E0
9.087468623E1,2.320631266E0,-8.392249942E-1,9.100199938E-1
9.092667966E1,1.280327797E0,-4.311670363E-1,1.946968138E-1
9.097867295E1,-9.890366197E-1,3.825055063E-1,-9.103583694E-1
9.103066624E1,-3.420280218E0,8.650890589E-1,-1.133935094E0
9.108266030E1,-4.674997330E0,-7.573691010E-1,-1.490680456E0
9.113465392E1,-5.353669167E0,-3.706913590E-1,-8.859238029E-1
9.118664735E1,-5.365886211E0,7.453594208E-1,5.541953072E-2
9.123864057E1,-2.674413919E0,9.310625196E-1,-1.657136828E-1
9.129063580E1,-8.448724151E-1,2.881451324E-2,4.259135947E-2
9.134263129E1,3.994600475E-1,3.074588537E0,5.606051087E-1
9.139462454E1,1.714652896E0,1.115543842E0,1.091446996E0
9.144661817E1,2.698756933E0,-1.153209686E0,1.255158782E0
9.149861133E1,3.433016777E0,-1.421990514E0,1.214231014E0
9.155060456E1,3.676141024E0,-1.623575926E0,8.880288601E-1
9.160259802E1,3.336500168E0,-1.732309937E0,5.123467445E-1
9.165459154E1,2.233888388E0,1.613722742E-1,9.521696568E-1
9.170658533E1,1.073855400E0,2.460058212E0,2.002857924E0
9.175857902E1,5.210222006E-1,-4.824796915E-1,9.191829562E-1
9.181057234E1,-1.052566648E0,-1.608915210E0,2.026380450E-1
9.186256570E1,-3.363470078E0,2.389521599E-1,-4.234988093E-1
9.191455900E1,-4.832600594E0,7.197031379E-1,-1.393552899E0
9.196655235E1,-4.588865757E0,-8.551074862E-1,-1.619572997E0
9.201854565E1,-2.854008198E0,8.687542081E-1,-7.387052774E-1
9.207053920E1,-1.723907590E0,2.009850502E0,7.029367089E-1
9.212253332E1,-8.033336401E-1,7.875091434E-1,1.003482342E0
9.217452675E1,1.441183835E-1,-3.419806957E-1,6.216915846E-1
9.222651994E1,9.718407989E-1,-5.527291894E-1,5.508312583E-1
9.227851333E1,1.560104012E0,-8.471662402E-1,7.078236341E-1
9.233050882E1,2.037189722E0,-5.973224044E-1,1.150700927E0
9.238250748E1,2.112936974E0,-1.043864846E0,1.006536722E0
9.243450407E1,1.948003411E0,-1.371288538E0,1.114048958E0
9.248649763E1,1.378066182E0,-1.122666478E0,7.799056768E-1
9.253849102E1,9.974971414E-1,6.518970132E-1,1.994305730E0
9.259048448E1,-1.814727932E-1,-2.416479111E0,-9.851851314E-2
9.264247771E1,-2.645703077E0,-1.086301655E-1,-7.936831713E-1
9.269447100E1,-4.075128078E0,1.103326559E0,-1.525499701E0
9.274646469E1,-3.385460854E0,-2.961657941E-1,-1.870027661E0
9.279845874E1,-2.612716436E0,5.486608148E-1,-8.010135293E-1
9.285045204E1,-1.271256328E0,3.407510281E0,-9.668592364E-2
9.290244536E1,-5.382180810E-1,8.437087536E-1,7.084344625E-1
9.295443876E1,4.843703210E-1,-1.043864846E0,7.041584253E-1
9.300643202E1,1.068357587E0,6.182994843E-1,8.697028756E-1
9.305842544E1,1.400668263E0,2.200153321E-1,1.129320621E0
9.311041887E1,2.013365984E0,-1.722536087E0,1.035247445E0
9.316241289E1,2.336513758E0,-1.001104355E0,1.048686385E0
9.321440634E1,2.276648998E0,7.096421719E-2,1.172692060E0
9.326639980E1,1.847210646E0,-4.867557585E-1,1.032804012E0
9.331839303E1,1.411052823E0,-1.583869696E0,5.502203703E-1
9.337038642E1,3.658624589E-1,-5.325706005E-1,-1.748766601E-1
9.342238168E1,-1.689699054E0,-8.419555426E-2,-1.282986164E0
9.347438066E1,-3.672567606E0,2.322326303E-1,-1.921340466E0
9.352637662E1,-4.251057148E0,8.045095019E-3,-2.295189857E0
9.357836971E1,-2.609051228E0,4.179356694E-1,-1.016038060E0
9.363036304E1,-1.174128771E0,2.386754513E0,-4.558746815E-1
9.368235650E1,-9.167559445E-2,1.163191319E0,1.034636497E0
9.373434976E1,6.932862401E-1,-1.477255374E-1,9.289568663E-1
9.378634312E1,1.007881880E0,2.927083075E-1,9.961519837E-1
9.383833648E1,1.239399791E0,6.195212007E-1,1.156198740E0
9.389033030E1,1.539945483E0,-7.097215652E-1,1.117103219E0
9.394232409E1,1.886306047E0,-1.470859647E0,9.564457536E-1
9.399431748E1,1.861871481E0,-1.109838247E0,8.697028756E-1
9.404631077E1,1.686553121E0,-1.518507242E0,7.799056768E-1
9.409830413E1,1.317590594E0,-2.435415745E0,-5.071873665E-1
9.415029742E1,-6.212957501E-1,4.668048918E-1,-7.649724483E-1
9.420229082E1,-2.585227489E0,5.804258585E-1,-1.914620876E0
9.425428417E1,-3.349419832E0,7.374182343E-1,-1.970820427E0
9.430627856E1,-2.738554716E0,7.245900035E-1,-1.437535167E0
9.435827202E1,-2.953579426E0,1.697698355E0,-9.488429427E-1
9.441026501E1,-1.126481295E0,5.358326435E-1,1.604883373E-1
9.446225850E1,-4.374253154E-1,-2.540161014E-1,3.865084946E-1
9.451425289E1,4.043469727E-1,1.771613002E0,3.254219592E-1
9.456624895E1,1.370735884E0,1.116154671E0,4.952425063E-1
9.461824258E1,1.979768395E0,-3.071613908E-1,7.261496186E-1
9.467023580E1,3.409193039E0,-1.046919227E0,6.192481518E-1
9.472222916E1,4.046325684E0,-1.116557837E0,4.604232013E-1
9.477422249E1,3.673086882E0,-4.617102742E-1,1.788143069E-1
9.482621618E1,2.790386677E0,-1.207576752E0,-3.385885656E-1
9.487820914E1,1.888749480E0,-1.074084416E-1,-1.453417659E0
9.493020326E1,-9.609368443E-1,1.849192977E0,-1.243280053E0
9.498219681E1,-3.315822363E0,2.132958174E-1,-1.339185834E0
9.503419007E1,-4.712871075E0,-2.385935783E0,-2.256094456E0
9.508618350E1,-4.310310841E0,-3.871847093E-1,-1.483960986E0
9.513817679E1,-2.858895302E0,8.699759245E-1,-3.941773176E-1
9.519017012E1,-1.404425025E0,-6.968933940E-1,2.692223489E-1
9.524216341E1,-4.233754277E-1,5.242262483E-1,5.972570181E-1
9.529415690E1,6.486930251E-1,1.824147463E0,8.837528229E-1
9.534615105E1,1.309649348E0,-7.625430822E-2,1.134207487E0
9.539814444E1,1.990153193E0,-7.958535552E-1,1.424368501E0
9.545013784E1,2.583914042E0,-8.325054646E-1,1.346788645E0
9.550213116E1,2.751902103E0,-9.797239900E-1,1.253326297E0
9.555412571E1,2.276038170E0,-9.351308346E-1,1.305249929E0
9.560612447E1,1.177091599E0,-5.399010181E-1,1.272873878E0
9.565812099E1,3.328757286E-1,1.842980459E-2,1.564256668E0
9.571011449E1,-1.552254438E0,-9.381851554E-1,2.728875279E-1
9.576210791E1,-3.612092018E0,-8.764877915E-1,-8.278915882E-1
9.581410124E1,-4.494792461E0,2.413956076E-1,-1.267714620E0
9.586609466E1,-3.759921312E0,-3.444241583E-1,-1.035585761E0
9.591808792E1,-2.901655674E0,3.599034846E-1,-4.583181441E-1
9.597008121E1,-1.184513569E0,3.611539125E0,7.924327254E-2
9.602207480E1,-1.283275187E-1,1.593851328E0,6.180264354E-1
9.607406892E1,8.240113854E-1,5.175067186E-1,7.805166245E-1
9.612606222E1,1.667005539E0,2.756040692E-1,9.277350903E-1
9.617805551E1,2.861247063E0,-9.497916102E-1,1.043188572E0
9.623004887E1,3.505098820E0,-8.355597854E-1,9.735499620E-1
9.628204233E1,2.825816870E0,-4.571104795E-2,1.286312938E0
9.633403558E1,1.524062991E0,-1.886535138E-1,1.424368501E0
9.638602884E1,1.325119436E-1,-8.624378443E-1,7.951773405E-1
9.643802296E1,-8.583114743E-1,-3.274133682E0,1.171169207E-1
9.649001662E1,-2.733056784E0,4.408614337E-2,-7.234336734E-1
9.654200998E1,-3.988384962E0,-4.775927663E-1,-1.544436574E0
9.659400327E1,-4.137435913E0,9.054061174E-1,-1.513282418E0
9.664599726E1,-1.850356698E0,1.160136938E0,-1.036807537E0
9.669799355E1,-7.514100671E-1,3.734323025E0,-4.546529651E-1
9.674998725E1,2.681240141E-1,1.808264971E0,6.858324409E-1
9.680198061E1,6.945080161E-1,5.682085156E-1,6.736151576E-1
9.685397397E1,1.826441288E0,1.363268048E-1,7.670775056E-1
9.690596729E1,2.401265383E0,-1.261332870E0,5.044054985E-1
9.695796065E1,2.688982964E0,-8.508314490E-1,6.100851297E-1
9.700995404E1,2.640724659E0,-7.848579884E-1,5.722115636E-1
9.706194787E1,2.145923853E0,-5.930463076E-1,7.157648206E-1
9.711394159E1,1.304151535E0,-6.529110670E-1,4.158300161E-1
9.716593492E1,8.710480332E-1,-1.916791201E0,-1.999221444E-1
9.721792838E1,-5.644853115E-1,5.627107620E-1,-7.387052774E-1
9.726992157E1,-2.762378454E0,9.029626846E-1,-1.232895255E0
9.732191506E1,-4.046417236E0,3.556274176E-1,-1.655003190E0
9.737390829E1,-3.686617613E0,-9.888869524E-1,-1.295203447E0
9.742590168E1,-2.179613113E0,6.256299019E-1,-1.400573552E-1
9.747789570E1,-1.160689831E0,1.599959970E0,-1.687680185E-1
9.752988949E1,6.104071066E-2,8.095002770E-1,7.615797520E-1
9.758188261E1,3.432604671E-1,1.354288310E-2,6.479588151E-1
9.763387617E1,1.411663771E0,-4.519364238E-1,1.023640871E0
9.768586986E1,2.153865099E0,-2.704196453E0,6.351306438E-1
9.773786835E1,2.591855526E0,-9.210809469E-1,9.985954762E-1
9.778986578E1,2.420202494E0,-7.866905928E-1,1.125044584E0
9.784185119E1,2.070787430E0,-5.661681890E-1,1.526993871E0
9.789384462E1,1.026207805E0,-4.708732665E-1,1.401155591E0
9.794583795E1,-3.231935501E-1,-3.462567329E-1,1.123211980E0
9.799783127E1,-1.408701062E0,-4.143498838E-2,5.581616163E-1
9.804982460E1,-3.235188246E0,-8.343380690E-1,-9.769427776E-1
9.810181792E1,-4.149653435E0,9.744338989E-1,-1.055133581E0
9.815381214E1,-2.916927338E0,-1.819339842E-1,-1.087509394E0
9.820580580E1,-1.673205733E0,1.378215790E0,-4.430465102E-1
9.825779893E1,-6.664997935E-1,3.943849802E0,6.265785694E-1
9.830979232E1,2.785087228E-1,-4.079541266E-1,3.089286089E-1
9.836178561E1,9.254150391E-1,1.601505429E-1,4.598123133E-1
9.841377890E1,1.478858829E0,1.456406593E0,9.136852026E-1
9.846577233E1,1.679833651E0,3.635686636E-1,1.238665581E0
9.851776579E1,2.172190905E0,-2.310903184E-2,1.452468395E0
9.856975994E1,2.502058268E0,-8.398358822E-1,1.313191056E0
9.862175337E1,2.356061459E0,-1.205133319E0,1.225837231E0
9.867374662E1,1.693272710E0,-1.335247517E0,1.027306199E0
9.872573995E1,7.769747972E-1,-1.519118071E0,4.475950003E-1
9.877773378E1,-8.161618114E-1,-1.144657612E0,-3.483623862E-1
9.882973216E1,-2.784369707E0,-4.366647899E-1,-1.124772072E0
9.888172945E1,-3.759310484E0,4.379903898E-3,-1.593916655E0
9.893372331E1,-3.473425627E0,1.148530483E0,-1.433869958E0
9.898571667E1,-2.761156797E0,-2.888354063E-1,-1.384389877E0
9.903770996E1,-3.455710411E0,5.401086807E-1,-5.701065063E-1
9.908970346E1,-9.615477324E-1,5.291131735E-1,-4.051728845E-1
9.914169668E1,3.774689138E-1,1.012307525E0,5.001294017E-1
9.919368994E1,1.134330988E0,1.568805814E0,5.373921990E-1
9.924568363E1,1.910129786E0,1.222445250E0,1.208733201E0
9.929767775E1,2.420202494E0,7.911742926E-1,1.861748099E0
9.934967098E1,2.891790390E0,-5.539509058E-1,1.817765713E0
9.940166437E1,3.799535990E0,-2.686481476E0,9.882107377E-1
9.945365776E1,3.726232290E0,-1.621132612E0,1.384972036E-1
9.950565102E1,2.433641434E0,-3.096048236E-1,-1.797636002E-1
9.955764445E1,1.462976456E0,1.125030518E-1,-3.660774827E-1
9.960963764E1,-2.969263196E-1,5.447085574E-2,-1.073459506E0
9.966163146E1,-2.628598928E0,8.870801926E-1,-1.523056269E0
9.971362548E1,-4.483186245E0,5.908105373E-1,-2.262814045E0
9.976561871E1,-4.941946030E0,-3.291525245E-1,-2.745397806E0
9.981761204E1,-4.207685471E0,-1.540498257E0,-1.903625369E0
9.986960569E1,-2.097146273E0,-4.733166993E-1,-7.545877695E-1
9.992160185E1,4.515821487E-2,3.887650251E0,1.070066690E0
9.997359611E1,6.425843835E-1,3.860161304E0,1.496450663E0
1.000255894E2,1.627299190E0,-2.234728336E-1,2.394422531E0
1.000775828E2,2.849029779E0,-3.205106258E0,2.109148502E0
1.001295761E2,3.476388216E0,-2.007810116E0,1.658329964E0
1.001815694E2,2.963872433E0,-8.337272406E-1,1.623510599E0
1.002335628E2,2.045742035E0,-1.478190064E0,1.428644657E0
1.002855568E2,1.264445186E0,-1.064634323E0,1.148257494E0
1.003375504E2,8.368396163E-1,-8.068491220E-1,9.674413204E-1
1.003895438E2,1.490053087E-1,-4.537690282E-1,3.938388526E-1
1.004415370E2,-1.596847534E0,-2.442422509E-1,-5.041330457E-1
1.004935305E2,-3.459375620E0,6.500644684E-1,-1.225564957E0
1.005455238E2,-4.561987400E0,1.522092968E-1,-1.726474404E0
1.005975170E2,-3.888203144E0,9.799317122E-1,-1.460748076E0
1.006495104E2,-2.645092249E0,1.078891873E0,-9.488429427E-1
1.007015044E2,-5.883090496E-1,3.434998989E0,1.647644043E-1
1.007534981E2,1.040257692E0,9.426689744E-1,8.183901906E-1
1.008054915E2,1.853319287E0,5.559912324E-1,1.646112680E0
1.008574848E2,2.145923853E0,-9.589545727E-1,1.432920694E0
1.009094783E2,2.448302031E0,-1.023706317E0,1.341290951E0
1.009614760E2,2.493506193E0,-9.504024386E-1,1.007758379E0
1.010134738E2,2.307192087E0,-9.216918349E-1,7.628014684E-1
1.010654681E2,1.997483492E0,-9.290221930E-1,5.697680712E-1
1.011174615E2,1.853319287E0,-2.820261002E0,-1.238651481E-2
1.011694549E2,4.397771657E-1,9.273972511E-1,-5.065764785E-1
1.012214481E2,-1.590738893E0,9.823752046E-1,-1.480906606E0
1.012734414E2,-3.722047806E0,3.553403169E-2,-2.120482445E0
1.013254348E2,-4.912623882E0,-3.236547112E-1,-2.439354181E0
1.013774281E2,-4.408049107E0,2.242913991E-1,-1.457082748E0
1.014294222E2,-1.842415452E0,1.885844827E0,-2.347414643E-1
1.014814160E2,-6.280152798E-1,2.560563982E-1,6.717825532E-1
1.015334091E2,-9.819659404E-3,7.585113496E-2,6.204699278E-1
1.015854024E2,8.020202518E-1,6.806077361E-1,5.960353017E-1
1.016373959E2,1.466641545E0,-3.676370382E-1,6.839998960E-1
1.016893891E2,1.860649824E0,-1.062801600E0,8.794767261E-1
1.017413825E2,2.249159813E0,-4.482712448E-1,9.845455885E-1
1.017933759E2,2.291309834E0,-2.921768464E-2,1.041356087E0
1.018453700E2,2.027415991E0,-7.622559667E-1,9.240698814E-1
1.018973635E2,1.340803385E0,-3.706913590E-1,6.339089274E-1
1.019493568E2,7.262729406E-1,-1.101286173E0,4.329342246E-1
1.020013503E2,-4.239862859E-1,-8.899267912E-1,-8.401089311E-1
1.020533462E2,-2.200993299E0,4.142704904E-1,-1.138822079E0
1.021053408E2,-2.911429644E0,-5.059796944E-2,-1.507784724E0
1.021573342E2,-2.863171101E0,1.279866576E0,-1.451585054E0
1.022093274E2,-2.844845295E0,1.259097219E0,-1.605170593E-2
1.022613208E2,-1.197952509E0,-1.406718850E0,4.249930084E-1
1.023133142E2,-1.381013691E-1,-1.617754400E-1,3.602412641E-1
1.023653075E2,5.387372971E-1,2.494877338E0,4.866904020E-1
1.024173009E2,1.131276608E0,9.365602136E-1,8.055620790E-1
1.024692951E2,1.519176006E0,-2.123263597E0,7.292039394E-1
1.025212885E2,1.884473562E0,-1.867311120E0,1.011423588E0
1.025732819E2,2.035968065E0,-1.150155425E0,1.079229712E0
1.026252752E2,1.477637172E0,-1.360903978E0,8.110598326E-1
1.026772686E2,1.255282283E0,-2.343786240E0,6.815564036E-1
1.027292619E2,-4.036292434E-2,4.313747287E-1,2.976318821E-2
1.027812553E2,-2.024453163E0,6.415123343E-1,-7.148815393E-1
1.028332490E2,-3.252292395E0,-1.367299706E-1,-1.418598294E0
1.028852429E2,-3.373243570E0,7.832331061E-1,-1.218234539E0
1.029372362E2,-1.963366747E0,3.140562057E0,-7.967374921E-1
1.029892296E2,-8.350986242E-1,1.300025105E0,-1.205096692E-1
1.030412229E2,3.127171993E-1,-4.293344021E-1,5.129575729E-1
1.030932198E2,7.696443796E-1,1.241992950E0,4.830251932E-1
1.031452181E2,8.203461766E-1,1.899894834E0,4.390428960E-1
1.031972138E2,9.107542634E-1,5.388869643E-1,3.498565555E-1
1.032492072E2,1.276051641E0,-1.090290666E0,5.716006756E-1
1.033012006E2,2.306581259E0,-3.585064173E0,2.319595814E-1
1.033531939E2,2.858192682E0,-2.545371532E0,-1.360824518E-2
1.034051873E2,2.499614716E0,1.992459148E-1,8.904722929E-1
1.034571806E2,1.595534205E0,-7.604234219E-1,6.485697031E-1
1.035091745E2,-4.093255401E-1,1.243825436E0,-2.347414643E-1
1.035611683E2,-2.263301611E0,8.656998873E-1,-1.363009572E0
1.036131615E2,-3.462430000E0,-5.050817132E-1,-2.514490366E0
1.036651549E2,-4.855813503E0,1.588353515E0,-2.550531387E0
1.037171483E2,-2.705567837E0,6.470999718E0,-1.336131454E0
1.037691417E2,6.364757419E-1,-1.884415388E0,3.871193528E-1
1.038211351E2,1.061637998E0,8.424869776E-1,9.228482246E-1
1.038731283E2,9.321345091E-1,1.263983965E0,1.196515799E0
1.039251223E2,8.673828244E-1,-5.631138682E-1,8.861963153E-1
1.039771160E2,5.503437519E-1,-1.104340553E0,7.841817737E-1
1.040291093E2,1.624443382E-1,-8.544966578E-1,5.318943858E-1
1.040811026E2,1.156062540E-2,-1.369456053E0,2.374573648E-1
1.041330959E2,4.027128965E-2,-2.247880459E0,1.977511346E-1
1.041850926E2,-1.283275187E-1,-2.563697577E0,3.144263923E-1
1.042370910E2,-3.561802804E-1,-1.143435955E0,7.108779550E-1
1.042890859E2,-1.150305033E0,-6.028201580E-1,-1.150118783E-1
1.043410793E2,-2.031783581E0,-3.670261502E-1,-8.865346909E-1
1.043930726E2,-2.058661699E0,3.330253959E-1,-1.117441773E0
1.044450659E2,-6.897126436E-1,3.962786674E0,-8.834803700E-1
1.044970593E2,4.929224253E-1,5.839364529E0,-1.692096703E-4
1.045490526E2,5.705023408E-1,2.420351982E0,8.965809941E-1
1.046010459E2,1.536280274E0,-9.186374545E-1,7.933447361E-1
1.046530402E2,2.122710943E0,-5.961006284E-1,7.139322758E-1
1.047050337E2,2.572918653E0,3.201972246E-1,1.385884047E0
1.047570270E2,2.947989702E0,-4.336104691E-1,1.136040211E0
1.048090206E2,2.658439636E0,-5.796073079E-1,1.001649737E0
1.048610136E2,2.007257223E0,-1.045697451E0,7.737970352E-1
1.049130070E2,9.119760394E-1,-8.520531654E-1,5.337269902E-1
1.049650003E2,-5.235573053E-1,-2.613464594E-1,2.166879624E-1
1.050169938E2,-2.653033733E0,-1.033480048E0,-1.065518141E0
1.050689880E2,-4.073295116E0,-1.640069366E0,-2.067948103E0
1.051209877E2,-4.874139786E0,2.780475318E-1,-2.267090082E0
1.051729810E2,-2.615159988E0,2.688521624E0,-1.177917361E0
1.052249743E2,-1.929158211E0,3.467375040E0,-6.690666676E-1
1.052769696E2,8.058839291E-2,-1.436040282E0,5.795419216E-1
1.053289650E2,5.509546399E-1,-3.715893254E-2,7.597471476E-1
1.053809583E2,1.202747822E0,2.984791517E0,1.134818316E0
1.054329517E2,3.008465528E0,-3.102157116E-1,1.166583419E0
1.054849450E2,4.294336796E0,-2.799595520E-2,1.079229712E0
1.055369383E2,4.001121521E0,2.633867860E-1,1.446359754E0
1.055889318E2,3.293128729E0,-6.510784626E-1,1.531270027E0
1.056409251E2,2.660272121E0,-1.274160981E0,1.111605644E0
1.056929193E2,1.990764022E0,-1.473913908E0,1.488819122E-1
1.057449127E2,5.674480200E-1,-1.550559253E-1,-7.713823020E-2
1.057969060E2,-1.492389679E0,2.148413099E-2,-6.831165552E-1
1.058488994E2,-3.423945665E0,-5.331815481E-1,-1.300090432E0
1.059008928E2,-4.263274193E0,-1.623575926E0,-1.725863576E0
1.059528860E2,-4.499679089E0,-1.980321288E0,-1.284818888E0
1.060048793E2,-5.759283066E0,-3.511760473E0,5.942026973E-1
1.060568733E2,-2.729391813E0,-3.144019604E0,7.353125811E-1
