"Time (s)","Linear Acceleration x (m/s^2)","Linear Acceleration y (m/s^2)","Linear Acceleration z (m/s^2)"
5.999726600E-2,2.379331589E-1,3.328695297E-1,2.118613720E0
1.199927330E-1,-3.699653149E-1,2.965478897E-1,4.448312759E0
1.799874210E-1,-1.111067772E0,5.573854446E-1,4.580152035E0
2.399825050E-1,-1.384191751E0,9.134702682E-1,3.303356647E0
2.999769100E-1,-1.589496613E0,1.012124062E0,1.113816261E0
3.599706080E-1,-1.748317957E0,5.612640381E-1,-1.106908798E0
4.199639070E-1,7.412861586E-1,7.018213749E0,5.115466118E-1
4.799570390E-1,3.272051811E-1,5.304853439E0,-5.349857330E0
5.399493030E-1,-2.199410439E0,-4.431519508E-1,3.771490097E0
5.999418330E-1,1.500308275E0,5.105946541E0,-1.352572632E1
6.599343630E-1,3.063663960E0,8.016021729E0,-1.363080120E1
7.199268600E-1,-8.997504115E-1,3.685241222E0,2.166832447E0
7.799192570E-1,-3.933938980E0,-9.699097633E0,1.849176216E1
8.399118210E-1,-2.002461195E0,-1.171792793E1,6.927010059E0
8.999041520E-1,-6.109517574E0,-2.485472679E0,1.183171940E1
9.598965160E-1,-3.015232086E-1,-1.111564636E-1,1.380948639E1
1.019889146E0,-4.058338165E0,1.478529930E0,9.235157013E0
1.079881610E0,-3.622060537E0,3.705354691E0,5.989173889E0
1.139874107E0,-2.301637411E0,4.865533829E0,-6.310286522E-1
1.199866637E0,-1.200705290E0,1.413358688E0,-4.075258255E0
1.259859702E0,-4.552685022E-1,4.721273899E0,1.911343098E0
1.319852767E0,3.134309292E0,1.111625290E1,-1.110113811E1
1.379845963E0,6.561209679E0,1.363482666E1,-1.350339127E1
1.439839027E0,5.750656128E-4,8.857382774E0,-3.149140596E0
1.499832157E0,-6.983029842E0,-1.081357861E1,1.824582672E1
1.559824655E0,-6.601348400E0,-1.526092243E1,5.931123257E0
1.619817119E0,-6.313313484E0,-8.382045746E0,1.716963887E0
1.679809583E0,-6.143175602E0,-3.152566910E0,5.754373074E0
1.739802179E0,-5.729701996E0,-1.498575211E-1,6.423158169E0
1.799794643E0,-4.028110027E0,4.215993881E0,1.540722847E0
1.859787206E0,-2.494471788E0,5.336689949E0,6.536407471E-1
1.919779536E0,-2.775083780E0,1.008136749E0,-1.414352894E0
1.979771934E0,-3.221331835E0,4.688320637E0,-4.719892502E0
2.039764365E0,-9.448964000E-1,7.254887581E0,-1.083060455E1
2.099756895E0,2.114092112E0,9.248626709E0,-1.317016506E1
2.159749392E0,9.298380017E-1,9.788764954E0,-1.066561508E1
2.219741889E0,-2.181787014E0,-1.167980194E0,2.516151905E0
2.279734754E0,-3.432889462E0,-1.389062214E1,1.135250854E1
2.339728718E0,-5.003479958E0,-1.259656906E1,-1.739482284E0
2.399723048E0,-5.746771812E0,-6.261314392E0,2.828510523E0
2.459717378E0,-4.139569283E0,-2.866935730E0,3.627542734E0
2.519711708E0,-3.085982323E0,7.063684464E-1,1.821891785E0
2.579705572E0,-3.356710672E0,2.976256371E0,1.085851669E0
2.639698304E0,-7.449814081E-1,4.927856922E0,-1.374269009E0
2.699690635E0,-3.851472437E-1,4.062766075E0,-3.679246902E0
2.759683132E0,-6.717182994E-1,4.154104233E0,-2.537668228E0
2.819675596E0,2.899914980E-1,4.558558464E0,-6.078854561E0
2.879668192E0,-5.135455132E-1,4.596031189E0,-8.603061676E0
2.939660690E0,-3.746043444E-1,6.343658447E0,-1.047430229E1
2.999653220E0,-4.466003418E0,-2.342983246E0,4.245934486E-1
3.059645517E0,-3.618355036E0,-1.251236820E1,8.647438049E0
3.119637981E0,-4.257505894E0,-1.562659740E1,-1.429993868E0
3.179630445E0,-4.352967262E0,-4.978783607E0,2.315681934E0
3.239623008E0,-3.160192013E0,-3.675770760E0,5.396856308E0
3.299615472E0,-1.870331526E0,-2.041277885E-1,1.897140980E0
3.359608103E0,-3.067342281E0,1.463520527E0,6.114196777E-2
3.419601301E0,-1.676263094E0,1.997159243E0,-3.258644581E0
3.481207414E0,-4.526850224E0,2.615351915E0,-8.964022636E0
3.541200478E0,-2.982542515E-1,4.969250202E0,-1.004295731E1
3.601193608E0,8.696674347E0,1.291086578E1,-1.325477982E1
3.661186639E0,1.837279797E0,4.839313507E0,-4.172037601E0
3.721178971E0,-5.652947903E0,-1.655790901E1,1.173081875E1
3.781171336E0,-3.820063114E0,-1.105981636E1,-2.592068195E0
3.841163900E0,-1.452880502E0,-9.391232491E0,-2.423620939E0
3.901156430E0,-4.815960407E0,-4.828587532E0,8.728199005E-1
3.961148960E0,-3.261231422E0,-1.531160831E0,2.399639130E0
4.021141490E0,-1.608240604E-1,2.212821007E0,1.997018337E0
4.081133821E0,2.402874947E0,4.433420181E0,2.414665222E-1
4.141126153E0,3.261112690E0,3.220365286E0,-1.600397587E0
4.201118683E0,2.025197506E0,8.986659050E-1,-7.461537361E0
4.261111213E0,-2.098381519E0,-2.973460913E0,-6.385286331E0
4.321103743E0,1.969240427E0,6.612651944E-1,-1.967323303E1
4.381096373E0,2.858457565E0,-2.517292500E0,-1.006133366E1
4.441089638E0,-7.779903889E0,-1.641987038E1,8.902290344E0
4.501083836E0,4.592094421E-1,-1.804181862E1,2.950735569E0
4.561078166E0,-6.689121246E0,-4.617052078E0,8.702526093E-1
4.621072496E0,-2.512223721E0,-4.210001945E0,7.560717583E0
4.681066727E0,-7.616378069E-1,-2.350997925E-1,3.314980030E0
4.741060291E0,-1.831098557E0,1.814226151E0,6.726408005E-1
4.801052689E0,2.457545280E0,2.401854753E0,-6.293916702E-2
4.861045054E0,-2.197676182E0,1.683292150E0,-3.784819603E0
4.921037518E0,2.332432032E0,1.990901351E0,-4.301567078E0
4.981030114E0,2.572712898E0,4.634972572E0,-1.434822273E1
5.041022578E0,1.981840372E0,2.870685816E0,-1.878979301E1
5.101015174E0,2.249332905E0,-1.069296598E0,-9.076581955E0
5.161007605E0,-1.577418089E0,-3.227630615E0,4.245743752E0
5.220999936E0,7.836430073E-1,-1.180659866E1,-7.668855667E0
5.280992234E0,-8.153787613E0,-1.188043118E1,6.132140636E0
5.340984830E0,-1.163676977E0,-2.871360779E0,8.453291893E0
5.400977294E0,-2.190637589E0,-7.613854408E-1,5.482020855E0
5.460969858E0,5.817563534E-1,1.024751663E0,1.902880192E0
5.520962689E0,-1.498272419E-1,-9.037733078E-2,-1.604424953E0
5.580955988E0,-1.106112003E-1,5.520834923E-1,-5.574615479E0
5.640949052E0,-2.137613297E-2,2.682806969E0,4.985094070E-1
5.700942182E0,5.424753189E0,3.013680220E0,-7.603182793E0
5.760935279E0,4.637481689E0,3.310003996E0,-1.224801636E1
5.820928111E0,4.707049847E0,1.490434170E0,-1.245166016E1
5.880920442E0,3.015530586E0,1.556088924E-1,-8.576031685E0
5.940912906E0,1.606345177E-1,-3.127219200E0,-2.688674927E-1
6.000905470E0,-1.050262928E0,-1.250972748E1,1.560136414E1
6.060898000E0,-1.180288410E1,-2.067117691E1,-2.511529684E0
6.120890530E0,-5.103472710E0,-3.874753952E0,2.121086836E0
6.180882994E0,-8.928229809E-1,-3.447377205E0,7.121949196E0
6.240875392E0,-1.638737202E0,-5.249023438E-1,3.510914326E0
6.300867656E0,-1.460280418E-1,1.117706299E-1,4.115982533E0
6.360860186E0,2.555075407E0,2.060297728E0,2.003618240E0
6.420852650E0,3.524751186E0,2.578729630E0,2.011499405E-1
6.480845246E0,3.232201576E0,3.001280069E0,-2.993017673E0
6.540837777E0,2.467638493E0,4.792505503E-1,-2.892791271E0
6.600831543E0,6.310290337E0,4.098924160E0,-2.998338223E0
6.660825875E0,5.481670380E0,1.977226734E0,-3.784278870E0
6.720820408E0,-1.836837888E0,-5.179550648E-1,-6.794545650E0
6.780814874E0,-5.816812515E0,-1.266508770E1,-1.806578064E1
6.840809406E0,-5.540410042E0,-1.441629028E1,-1.450276566E1
6.900802671E0,-3.380130768E0,-1.322924519E1,-2.444481850E0
6.960795136E0,-1.172798038E0,-8.423136711E0,7.886051178E0
7.020787666E0,-6.335410118E0,-6.862588882E0,1.289956379E1
7.080780196E0,-4.828848839E0,-2.004402637E0,1.112481308E1
7.140772660E0,-3.299140453E0,1.154837132E0,1.025055504E1
7.200765190E0,3.493615389E-1,1.677536011E0,4.329801559E0
7.260757720E0,2.257904768E0,-2.161607742E0,-9.763708115E-1
7.320750051E0,1.442427397E0,-1.859028339E0,-6.708730698E0
7.380742515E0,-4.510050774E0,1.586226583E0,-1.181993866E1
7.440735013E0,-1.336529374E0,7.181903839E0,-5.728708267E0
7.500727543E0,6.519037485E-1,6.054210186E0,-1.226021385E1
7.560720073E0,-1.149797440E-2,3.213304043E0,-8.307743073E0
7.620712603E0,-3.433516026E0,1.979775429E-1,5.562633514E0
7.680705901E0,-1.331939697E0,2.133409500E0,-7.586550236E0
7.740700098E0,-3.729701996E0,-1.287434196E1,6.942154884E0
7.800694362E0,-1.002787399E1,-5.882593155E0,1.897324085E0
7.860688692E0,-1.412131786E-1,-1.527800560E0,6.529390335E0
7.920682990E0,-1.920990705E0,1.069809437E0,3.004635334E0
7.980676421E0,-1.396973848E0,-2.090606689E-1,2.622212410E0
8.040668852E0,-6.581125259E-1,-2.519807816E-1,-4.458060265E-1
8.100661283E0,1.723607779E0,3.507127047E0,-1.879858017E0
8.160653747E0,2.708367586E0,2.356310844E0,-8.553013802E0
8.220646244E0,3.656222343E0,3.591926575E0,-1.787661743E1
8.280638708E0,3.914605141E0,2.581658125E0,-1.334083176E1
8.340631304E0,-4.427045584E-2,-4.514284134E-1,-7.509489059E-1
8.400623735E0,-6.901296139E0,-1.044868183E1,1.105575943E1
8.460616066E0,-9.144186974E-1,-1.168929672E1,3.067612648E-1
8.520608497E0,-4.943695545E0,-4.118281364E0,2.587963104E0
8.580601027E0,-6.242441177E0,-2.370648384E0,2.611011505E0
8.640593491E0,-1.705561399E0,-7.095375061E-1,3.697503567E0
8.700586021E0,1.828332663E0,1.230649471E0,5.039229393E-1
8.760578953E0,1.291006923E0,6.327676773E-1,5.740160942E-1
8.820572184E0,-6.567147970E-1,3.616023064E0,-4.864906788E0
8.880565314E0,-1.472813129E0,6.727774620E0,-1.410748005E0
8.940558378E0,6.938224316E0,1.032868385E1,-1.391343880E1
9.000551508E0,5.131104469E0,9.422538757E0,-1.078329849E1
9.060544239E0,4.255364537E-1,4.373239994E0,-2.757107258E0
9.120536570E0,-6.987506866E0,-1.687139320E1,1.597776604E1
9.180529034E0,6.763173103E0,-1.260821056E1,-6.189150810E0
9.240521630E0,-4.173986435E0,-3.942072868E0,-1.352860928E-1
9.300514094E0,-4.855460644E0,-1.455932617E0,3.127779245E0
9.360506658E0,-2.926416636E0,1.619220734E0,4.453238964E0
9.420499156E0,-1.175141096E0,2.839034081E0,2.939735413E0
9.480491554E0,7.780845165E-1,2.874501705E0,-1.786422729E-2
9.540483885E0,2.237049341E0,1.569268703E-1,-3.503555298E0
9.600476481E0,-1.674922943E0,-7.443730831E-1,-2.671861172E0
9.660468912E0,8.080855608E-1,1.565087557E0,-1.222290421E1
9.720461475E0,3.205481529E0,2.991428375E0,-1.795997238E1
9.780454106E0,2.538679600E0,1.728256226E0,-6.914778233E0
9.840447938E0,-9.572162628E0,-1.512638092E1,1.160441208E1
9.900442202E0,2.727703333E0,-1.046131516E1,-1.702327251E0
9.960436598E0,-4.180680275E0,-3.998634338E0,3.128702879E0
1.002043086E1,-4.428279877E0,-1.321961403E0,4.621904373E0
1.008042503E1,-3.718904018E0,-3.190059662E-1,3.547996521E0
1.014041799E1,-1.373116255E0,8.154039383E-1,4.109313011E0
1.020041046E1,-1.794038057E0,6.387519836E-1,8.078536987E-1
1.026040282E1,-1.790046692E-3,1.078176498E0,-2.151365280E0
1.032039535E1,1.247658849E0,1.344520569E0,-1.777748585E0
1.038038788E1,2.196860313E-2,3.653368473E0,-7.134791374E0
1.044038041E1,5.674867630E0,6.595338821E0,-1.328013611E1
1.050037294E1,3.704977989E0,3.010874748E0,-9.913722038E0
1.056036537E1,1.556006670E0,-7.145624161E-1,-1.067070961E-1
1.062035767E1,-5.972572327E0,-1.107819462E1,1.105721474E1
1.068035010E1,4.601697922E0,-1.212217331E1,-1.000561476E0
1.074034263E1,-4.880702019E0,-4.931290627E0,1.842311859E0
1.080032937E1,-5.414472580E0,-9.702663422E-1,2.851995468E0
1.086032193E1,-2.590876102E0,-1.343441010E-2,4.506764412E0
1.092031513E1,1.624170780E0,2.006825924E0,2.879570961E0
1.098030836E1,3.667676449E-1,1.716266155E0,-3.932223320E-1
1.104030143E1,-4.342796803E-1,-1.147560120E0,4.764666557E-1
1.110029462E1,8.730573654E0,1.035117626E0,1.260962486E0
1.116028765E1,2.675418615E0,3.220227718E0,-1.490725613E1
1.122028015E1,2.825905561E0,5.755549431E0,-1.767454338E1
1.128027245E1,6.041218758E0,5.592123032E0,-8.616518974E0
1.134026505E1,-8.270569801E0,-1.592100716E1,1.445661354E1
1.140025751E1,3.893357992E0,-9.459908485E0,-2.576873541E0
1.146025011E1,-3.703700542E0,-6.441088676E0,3.229669333E0
1.152024257E1,-2.235564232E0,-5.784902573E-1,2.026239395E0
1.158023507E1,-1.513876915E-1,5.954880714E-1,3.646928787E0
1.164022733E1,-1.955264330E0,1.598913193E0,4.416265488E-1
1.170021980E1,-1.282215595E0,2.097360611E0,1.704499245E0
1.176021226E1,3.617634773E-1,3.569585323E0,9.164562225E-1
1.182020479E1,1.063127518E-1,4.133461952E0,2.581672668E-1
1.188019732E1,1.355407476E0,3.549118996E0,1.892448902E0
1.194019025E1,1.185122728E0,3.222081900E0,-2.550908089E0
1.200018428E1,3.651581287E0,6.833889961E0,-1.099096489E1
1.206017882E1,5.210790634E0,4.413512230E0,-7.564342022E0
1.212017335E1,-4.130718231E0,-2.276352406E0,6.581398487E0
1.218016788E1,4.635324478E0,-1.158810902E1,-6.782468796E0
1.224016201E1,-4.222299576E0,-1.189185143E1,9.720211029E-1
1.230015484E1,-4.673953056E0,-3.448518753E0,1.421420574E0
1.236014724E1,-2.273483515E0,-1.893184185E0,3.824808121E0
1.242013981E1,-9.049901962E-1,6.367759705E-1,3.911969662E0
1.248013237E1,-7.013752460E-1,2.321233749E-1,5.492248535E-1
1.254012483E1,-2.456529140E-1,1.904344559E-2,-1.393416882E0
1.260011743E1,-3.358804464E0,1.178088665E0,-8.168120384E-1
1.266010983E1,2.844673872E0,1.657349110E0,-6.299242973E0
1.272010213E1,4.825829983E0,2.798580170E0,-1.168373966E1
1.278009449E1,6.056612015E0,1.372954845E0,-1.257596493E1
1.284008712E1,2.672718048E0,-1.312304258E0,-6.655216217E0
1.290007962E1,2.923414707E-1,-2.944261551E0,3.308056355E0
1.296007222E1,1.157223821E0,-5.498483181E0,8.271848679E0
1.302006488E1,-6.359294891E0,-1.215376282E1,4.956955910E-1
1.308005874E1,-4.509323120E0,-2.720668793E0,1.935338974E0
1.314005298E1,-3.332855463E0,-4.285335541E-2,2.662119150E0
1.320004734E1,1.435186863E0,9.922447205E-1,2.512342930E0
1.326004160E1,1.724877954E0,-3.742885590E-2,2.632953167E0
1.332003573E1,2.677468538E0,3.135204315E-3,1.307734489E0
1.338002860E1,-1.533673048E0,8.836650848E-1,-5.568251610E-1
1.344002093E1,2.944755316E0,1.324006081E0,-1.803903580E-1
1.350001333E1,1.795360804E0,4.745155334E0,-8.267318726E0
1.356000589E1,5.007287979E0,5.983922005E0,-1.251762962E1
1.361999842E1,2.405350208E0,2.939860821E0,-5.344560623E0
1.367999095E1,-5.063268661E0,-1.091809750E0,4.836571693E0
1.373998348E1,5.117337704E0,-9.142389297E0,-4.041481018E-2
1.379997581E1,-6.567685127E0,-9.889966011E0,9.673242569E-1
1.385996811E1,-3.229004383E0,-1.178623199E0,1.146070957E0
1.391996061E1,-3.632302284E0,-7.729320526E-1,3.569272041E0
1.397995314E1,-3.585443497E-1,8.492984772E-1,2.138077736E0
1.403994560E1,6.650278568E-1,1.132691860E0,1.579146385E-1
1.409993826E1,1.295686722E0,1.803164721E0,-1.044330597E-1
1.415993140E1,-3.170505524E0,3.601780891E0,-4.657184601E0
1.421992456E1,5.290980816E0,3.678521156E0,-4.525333405E0
1.427991762E1,8.413734436E0,8.149883270E0,-1.145564651E1
1.433991082E1,5.251276493E0,5.468647957E0,-7.353048325E0
1.439990385E1,-3.464813232E0,-5.852456570E0,6.118431568E0
1.445989638E1,2.589683294E0,-1.124339104E1,3.583465099E0
1.451988875E1,-5.620753288E0,-1.304791355E1,-2.509212494E0
1.457988128E1,-1.777263403E0,-2.490189552E0,2.334950447E0
1.463987374E1,-1.682245255E0,-1.442433834E0,5.991625309E0
1.469986630E1,-9.985842705E-1,7.594428062E-1,1.480605125E0
1.475985877E1,6.916680336E-1,1.007565975E0,6.672592163E-1
1.481985120E1,1.427828312E0,1.027204752E0,-5.518817902E-2
1.487984353E1,1.912698746E-1,1.174695253E0,-3.526894569E0
1.493983599E1,1.438013077E0,1.235687733E-1,-5.604645729E0
1.499982846E1,4.471940994E-1,1.380196571E0,-6.603964806E0
1.505982105E1,5.596666813E0,3.414059162E0,-1.248003483E1
1.511981365E1,4.969828606E0,2.566436768E0,-1.216544151E1
1.517980672E1,-2.711765766E-1,-5.317588329E0,3.112870216E0
1.523980085E1,-2.708618879E0,-1.245630074E1,1.199900246E1
1.529979518E1,1.551255822E0,-1.069318485E1,-1.006264687E0
1.535978944E1,-7.570323944E-1,-2.944440842E0,1.256130695E0
1.541978370E1,3.940773010E-2,-2.500717163E0,6.264322758E0
1.547977750E1,-8.947374821E-1,-1.100427151E0,6.322697639E0
1.553977010E1,3.059958696E0,1.504584312E0,2.471188068E0
1.559976243E1,2.007757187E0,-1.013329983E0,-5.214753151E-1
1.565975490E1,-3.528513908E-1,-4.532196522E-1,-4.236220360E0
1.571974743E1,3.078176260E0,1.809286714E0,-5.358025551E0
1.577973996E1,3.956590652E0,5.011672020E0,-1.332260036E1
1.583973248E1,4.585704803E0,5.135493279E0,-1.314377785E1
1.589972495E1,5.535598755E0,5.749534607E0,-1.406441116E1
1.595971735E1,-3.085235596E0,-7.557567120E0,3.320206642E0
1.601970965E1,-4.364163399E0,-1.183519173E1,8.246702194E0
1.607970214E1,-2.536918879E0,-1.243007183E1,5.246560574E-1
1.613969461E1,-2.573885918E0,-4.267046928E0,1.612295866E0
1.619968720E1,-6.309430599E-1,-4.043441772E0,5.532522202E0
1.625967987E1,1.154649854E0,1.849093437E-1,3.475557327E0
1.631967323E1,6.413779259E-1,1.749621391E0,1.870727539E-2
1.637966633E1,6.893045902E-1,3.532133102E0,-3.934398651E0
1.643965946E1,-4.593858719E-1,2.104404449E0,-3.948794365E0
1.649965252E1,-6.097307205E-1,2.812541008E0,-1.749660969E0
1.655964552E1,9.195539951E-1,4.374135971E0,-4.817576408E0
1.661963779E1,3.160404444E0,3.547044754E0,-7.006183624E0
1.667963028E1,4.563411713E0,2.791400433E0,-8.503790855E0
1.673962281E1,-8.184185028E-1,-5.423316002E0,2.233574867E0
1.679961534E1,7.641699314E-1,1.686319590E0,-1.081367493E0
1.685960781E1,2.081993103E0,-1.510993767E1,-1.884164333E0
1.691960034E1,-8.292192459E0,-9.493975639E0,1.024142647E1
1.697959270E1,-1.233247280E0,-4.891781807E-1,7.665682316E0
1.703958506E1,4.984703064E-1,6.315355301E-1,4.543833256E0
1.709957753E1,1.065811634E0,-2.660751343E-3,3.793973923E0
1.715956999E1,2.044032097E0,-7.695841789E-1,1.781142235E0
1.721956252E1,1.280596256E-1,-4.769438505E-1,-1.889512062E0
1.727955505E1,5.963499546E-1,-1.737573624E0,-5.020761013E0
1.733954852E1,4.768099785E-1,2.569422245E0,-3.434798241E0
1.739954282E1,2.596008301E0,1.411892056E0,-8.834559441E0
1.745953742E1,4.205330849E0,-3.696597576E0,-1.288356590E1
1.751953188E1,1.851499796E0,-6.269253731E0,-1.520622826E1
1.757952652E1,-7.249011993E-1,-1.085978317E1,-3.712786198E0
1.763952001E1,-3.242439747E0,-1.080552483E1,1.785793781E0
1.769951265E1,1.206365943E0,-9.249580383E0,8.063732147E0
1.775950508E1,-1.915757537E0,-3.751705170E0,1.180642700E1
1.781949767E1,-2.498989344E0,-1.700575829E0,1.071837807E1
1.787949004E1,-2.878774881E0,3.817510605E-1,9.561950684E0
1.793948257E1,4.551227093E-1,1.694716930E0,5.781878471E0
1.799947503E1,1.834542751E0,1.614241600E-1,1.603184223E0
1.805946746E1,1.600756288E0,-7.134265900E-1,-4.099048138E0
1.811944015E1,-5.925750732E-1,1.996173024E0,-4.944523811E0
1.817943268E1,2.692565203E0,5.969484329E0,-1.063270760E1
1.823942521E1,8.303754807E0,9.213152885E0,-1.463652229E1
1.829941774E1,4.782114506E0,6.175540924E0,-9.725076675E0
1.835941021E1,1.201579571E0,1.933406353E0,7.343797684E-1
1.841940341E1,-5.641919136E0,-1.215237904E1,1.164432526E1
1.847939750E1,4.471061707E0,-1.793996620E1,1.705449939E0
1.853939187E1,-5.138301373E0,-5.605242729E0,-9.613214731E-1
1.859938620E1,-4.031643867E0,-2.633112907E0,6.499509335E0
1.865938046E1,2.777428389E0,3.143606186E-1,7.449511528E0
1.871937406E1,9.462869167E-1,2.769183636E0,1.314443111E0
1.877936662E1,1.333269119E0,6.202321053E-1,-5.009503365E-1
1.883935892E1,-5.575752258E-1,9.555597305E-1,-5.734658241E0
1.889935139E1,3.837981701E0,4.638805389E0,-2.218398094E0
1.895934398E1,5.122807980E0,8.462215424E0,-1.425017643E1
1.901933645E1,6.689059258E0,7.598950386E0,-1.079248714E1
1.907932898E1,4.474416256E0,5.577227116E0,-5.698145390E0
1.913932144E1,-5.437709808E0,-9.879877090E0,1.271099186E1
1.919931384E1,2.157003641E0,-1.143560791E1,-2.310009003E-1
1.925930617E1,-4.821681499E0,-8.586464882E0,2.503687143E0
1.931929877E1,-5.105638504E0,-2.139569283E0,2.808993340E0
1.937929123E1,-2.415069818E0,-1.561174393E0,3.377609491E0
1.943928376E1,-2.752015591E-1,8.411922455E-1,2.385531902E0
1.949927649E1,-1.253184557E0,2.748470306E0,1.791323185E0
1.955926989E1,7.137093544E-1,3.314168215E0,3.951287270E-1
1.961926295E1,2.643567562E0,4.773903370E0,-6.544795036E-1
1.967925608E1,2.686925650E0,5.188351631E0,9.689331055E-1
1.973924921E1,5.395929813E0,4.214090824E0,9.148759842E-1
1.979924208E1,2.007219315E0,4.691096306E0,-5.698208809E0
1.985923431E1,4.663167000E0,5.008091927E0,-1.174375725E1
1.991922687E1,-1.616483569E0,-1.057265997E0,-9.078880310E0
1.997921940E1,-3.085923195E0,-6.028471470E0,3.753009796E0
2.003921193E1,2.243558645E0,-7.071097374E0,-1.110397911E1
2.009920446E1,-5.983790398E0,-9.410655022E0,2.748900890E0
2.015919696E1,4.092444420E0,-2.106377602E0,6.717268944E0
2.021918926E1,-5.134786606E0,-8.773832321E-1,6.869864464E0
2.027918159E1,-2.092378139E0,1.404774666E0,5.861885071E0
2.033917412E1,-9.391407967E-1,7.619919777E-1,3.229681015E0
2.039916665E1,-3.821506500E0,1.147219181E0,4.474026680E0
2.045915918E1,1.068785191E-1,2.445225716E0,-4.597261906E0
2.051915168E1,1.158480883E0,4.265943050E0,-8.529522896E0
2.057914528E1,1.568126440E0,3.314733028E0,-9.645318031E0
2.063913957E1,1.056015491E0,8.080497980E-1,-8.861529350E0
2.069913390E1,1.907004833E0,6.498011351E-1,-9.482313156E0
2.075912817E1,1.897765398E0,-1.648819208E0,-5.718011856E0
2.081912253E1,-2.164741278E0,-4.392726421E0,2.962537766E0
2.087911573E1,-3.580608368E-1,-7.851210117E0,-4.465832710E0
2.093910809E1,-4.529770851E0,-1.283817387E1,6.861467838E0
2.099910042E1,-2.372801304E-1,-2.606867790E0,6.090285301E0
2.105909302E1,-7.317879200E-1,-1.978384972E0,8.416299820E0
2.111908548E1,1.901589870E0,-4.931287766E-1,5.014479160E0
2.117907808E1,1.871326685E0,-1.868861198E0,3.075205326E0
2.123907054E1,2.859742641E0,-2.158945084E0,2.349000454E0
2.129906301E1,-1.069928169E0,2.350286961E0,-4.217488289E0
2.135905527E1,4.148599625E0,3.618581057E0,-7.440493107E0
2.141904777E1,3.328376770E0,3.347467422E0,-1.064737892E1
2.147904023E1,4.447129726E0,2.231135368E0,-1.162282467E1
2.153903280E1,4.889801979E0,1.256835699E0,-7.880174637E0
2.159902533E1,1.217917442E0,-2.452901840E0,1.672230244E0
2.165901833E1,-2.716132164E0,-1.084232140E1,8.507642746E0
2.171901149E1,1.457202911E0,-1.219591331E1,1.927235365E0
2.177900462E1,-5.533987045E0,-5.442558289E0,4.863539934E-1
2.183899772E1,7.617235184E-3,-3.397915840E0,6.437712669E0
2.189899085E1,1.159766912E0,-1.083996773E0,5.428027153E0
2.195898351E1,-4.625744820E-1,8.168396950E-1,3.440440655E0
2.201897578E1,1.693234921E0,2.862412214E0,1.631705284E0
2.207896827E1,1.430248499E0,3.071263313E0,-2.196605682E0
2.213896080E1,2.194767475E0,3.858423233E-1,-2.678567410E0
2.219895333E1,3.153924227E0,1.955762506E-1,-6.500898361E0
2.225894580E1,5.679615974E0,1.424848676E0,-1.498045158E1
2.231893849E1,5.201933384E0,1.475583076E0,-1.208903313E1
2.237893079E1,2.134302139E0,-3.391461372E-1,-3.926164150E0
2.243892319E1,-6.042506218E0,-6.168307781E0,7.775934696E0
2.249891565E1,8.574033737E0,-1.079755211E1,-3.256249905E0
2.255890838E1,-9.229265213E0,-6.539525032E0,2.697459221E0
2.261890075E1,-1.602562189E0,-1.901916504E0,5.510855675E0
2.267889355E1,6.860573292E-1,5.162367821E-1,4.407227993E0
2.273888744E1,-4.514160156E-1,4.991030693E-1,3.659101963E0
2.279888177E1,-3.670992851E-1,1.205121040E0,2.770795822E-1
2.285887590E1,1.081888914E0,1.939069033E0,-3.433655262E0
2.291887030E1,1.689273834E0,5.907832146E0,-3.904684067E0
2.297886433E1,6.772654533E0,9.996203423E0,-1.450676823E1
2.303885716E1,5.044188023E0,6.784337997E0,-9.476552010E0
2.309884950E1,-1.552853823E0,1.451243877E0,5.110988617E-1
2.315884186E1,-4.385217190E0,-1.080541801E1,5.925592899E0
2.321883432E1,-3.391924620E0,-1.465781689E1,3.469221115E0
2.327882689E1,-4.763556480E0,-1.330949783E0,3.102277756E0
2.333881942E1,3.256440163E-2,-1.124008179E0,7.174451828E0
2.339881195E1,-3.304886818E-1,1.026511192E-1,2.842762947E0
2.345880438E1,9.220058918E-1,7.531595230E-1,6.624541283E-1
2.351879664E1,1.548788071E0,1.742889166E0,-1.303712368E0
2.357878907E1,2.109041929E0,3.510597706E0,-3.046912670E0
2.363878164E1,7.013735771E-1,1.097639799E0,-4.571115017E0
2.369877417E1,4.049645901E0,1.486934662E0,-6.364404678E0
2.375876676E1,3.198056221E0,3.328987598E0,-1.165532589E1
2.381876003E1,-1.521772623E0,-1.704520226E0,3.019635677E0
2.387875320E1,1.105853319E0,-1.012420177E0,5.793466568E-1
2.393874629E1,-1.044618893E1,-1.567372608E1,4.817926884E0
2.399873936E1,-3.581663370E0,-2.507492542E0,6.260172844E0
2.405873245E1,-1.382296085E-1,-8.504848480E-1,4.929296017E0
2.411872482E1,-9.437739849E-1,-6.011047363E-1,7.583036423E-1
2.417871722E1,8.256733418E-1,6.313924789E-1,-4.326806068E-1
2.423870968E1,3.736898899E-1,3.777145386E0,3.980288506E-1
2.429870221E1,-5.646920204E-2,4.013015747E0,1.389312744E0
2.435869471E1,-2.547948360E-1,2.956564188E0,-2.697163105E0
2.441868734E1,1.413936019E0,1.819995046E-1,-4.846644402E0
2.447867980E1,9.577963352E-1,7.598742247E-1,-2.430569649E0
2.453867213E1,-1.804113388E-3,4.910908699E0,-2.812892437E0
2.459866463E1,1.528327227E0,8.618730307E-1,-6.070216179E0
2.465865716E1,5.657971382E0,-4.605789185E0,-1.595386410E1
2.471864962E1,2.781396389E0,-8.281260490E0,-1.124467945E1
2.477864215E1,-2.098035336E0,-1.073922253E1,8.203054428E0
2.483863529E1,-6.353377819E0,-1.052406216E1,8.245868683E0
2.489862942E1,-2.181676149E0,-3.529151917E0,8.260187149E0
2.495862395E1,1.523781896E0,-3.589301109E-1,4.460379124E0
2.501861842E1,-7.747187614E-1,1.114861488E0,3.584608078E0
2.507861295E1,-1.142535210E0,1.574866295E0,1.593336582E0
2.513860688E1,-1.587052345E-1,1.783134699E0,1.402183056E0
2.519859964E1,-9.313724518E0,-1.069916153E1,1.298228073E1
2.525859201E1,2.524836063E0,-5.193018913E-1,-1.196940613E1
2.531858460E1,1.804712653E0,1.195600319E1,-2.078303146E1
2.536863113E1,1.227996635E1,1.689393806E1,-1.356350136E1
2.542862373E1,1.159515977E0,-5.625216961E0,3.045899391E0
2.548861619E1,1.449174404E0,-2.072359657E1,3.396206856E0
2.554860879E1,-8.528803825E0,-1.721827698E1,2.677072048E0
2.560860105E1,2.646738529E0,-3.545545101E0,2.605552673E0
2.566859352E1,1.041893005E0,-5.546579361E-1,1.391146183E0
2.572858598E1,-1.027115345E0,7.597670555E-1,2.730311871E0
2.578857858E1,1.237497330E-1,1.509987593E0,2.514390945E-1
2.584857097E1,-2.609066963E-1,2.481763363E0,-8.251857758E-2
2.590856367E1,6.769878864E-1,2.321144581E0,-5.654151917E0
2.596855747E1,2.764890909E0,-1.732894301E0,-1.298370361E-1
2.602855187E1,4.288293362E0,-2.285077572E-1,-1.360190582E1
2.608854613E1,3.850002050E0,-2.788383484E0,-1.417470551E1
2.614854049E1,-2.546151638E0,-5.278847218E0,-3.683195114E-1
2.620853466E1,-2.321395874E-1,-4.298249245E0,3.821468353E0
2.626852759E1,-4.868041992E0,-1.196334076E1,6.110240459E0
2.632851985E1,-5.639750957E0,-1.140135765E0,2.461256027E0
2.638851225E1,4.204494953E0,-1.420999050E0,7.208765984E0
2.644850475E1,4.094028473E-2,-1.063114643E0,2.230068684E0
2.650849728E1,1.461681604E0,-1.212493420E0,2.237339020E0
2.656848984E1,7.934553623E-1,1.745954156E0,-4.110579491E-1
2.662848230E1,6.637609005E-1,1.217506409E0,-1.148139954E0
2.668847477E1,4.026019573E-1,-5.836718082E-1,1.060486794E0
2.674846710E1,2.957135201E0,1.254490614E0,-1.238584709E1
2.680845953E1,2.042279243E0,-2.125790119E-1,-1.490842247E1
2.686845196E1,1.074608445E0,-2.923299789E0,-2.935752869E0
2.692844456E1,-2.077643871E0,-2.249877453E0,1.262859344E0
2.698843705E1,2.707301617E0,-1.333151531E1,4.963598251E-1
2.704843022E1,-6.675376892E0,-5.021951675E0,7.820293903E0
2.710842339E1,1.257580757E0,4.142379761E-2,6.925914288E0
2.716841658E1,-2.464473724E0,3.050398827E-1,4.225655079E0
2.722840965E1,6.536064148E-1,3.685865402E-1,2.372788906E0
2.728840281E1,-1.466434479E0,8.746814728E-1,-1.041100025E0
2.734839524E1,-2.511345387E0,3.044263840E0,-1.403622627E-1
2.740838764E1,-7.306089401E-1,3.071285725E0,-2.140486240E0
2.746838013E1,-1.529145241E-1,-5.446495414E-1,-2.274592400E0
2.752837273E1,1.614213705E0,-5.699419022E0,-5.358942986E0
2.758836519E1,5.879897118E0,-3.096116543E0,-1.177086067E1
2.764835772E1,2.991209507E0,-2.618499994E0,-1.291635609E1
2.770835019E1,2.530466557E0,-3.610584497E0,-3.027816772E0
2.776834249E1,1.136055470E0,-5.509165287E0,5.806999683E0
2.782833482E1,3.876045227E0,-1.280025864E1,4.940353870E0
2.788832735E1,-8.579126358E0,-7.268991470E0,4.186430931E0
2.794831988E1,3.261666298E-1,-2.047228336E0,9.442409515E0
2.800831244E1,8.792893887E-1,1.169973373E0,4.235573292E0
2.806830547E1,7.393264771E-1,2.077291012E0,1.582850933E0
2.812829960E1,1.293352127E0,1.023142815E0,-1.319361210E0
2.818829393E1,1.927636147E0,3.601531982E-1,-4.208667278E0
2.824828826E1,8.345291615E-1,8.673164845E-1,-6.550174713E0
2.830828256E1,2.772388935E0,1.665803075E0,-8.461580276E-1
2.836827632E1,7.449244499E0,6.794675350E0,-1.470521355E1
2.842826899E1,4.827513695E0,3.381865263E0,-8.131431580E0
2.848826125E1,8.882160187E-1,-3.194894314E0,3.855966568E0
2.854825365E1,-2.952712774E0,-1.423873806E1,1.060684299E1
2.860824612E1,-4.221247673E0,-1.466510773E1,1.544745684E0
2.866823871E1,-1.202741146E0,-1.958187103E0,2.294676542E0
2.872823121E1,-2.587313652E-1,-1.644384384E0,7.018379211E0
2.878822380E1,9.652593136E-1,1.273729324E0,1.961426258E0
2.884821620E1,4.904270172E-3,2.072759628E0,1.079654694E-2
2.890820853E1,1.248919487E0,2.058751106E0,4.901847839E-1
2.896820093E1,-1.905214310E0,2.018287897E0,-3.204258442E0
2.902819350E1,-2.078061104E-1,2.345619678E0,-3.424412251E0
2.908818596E1,3.599357128E0,4.677721977E0,-9.690643311E0
2.914817862E1,6.810388088E0,5.804198265E0,-1.149029160E1
2.920817196E1,2.333169460E0,5.269775391E-1,-6.987190247E-1
2.926816515E1,-3.985683918E-1,2.420949936E-2,4.004276276E0
2.932815822E1,-5.622537613E0,-1.737199974E1,3.563329697E0
2.938815135E1,-4.912425995E0,-4.787257195E0,3.764829159E0
2.944814435E1,2.469129562E0,-1.587152481E-2,4.215263844E0
2.950813668E1,-9.650707245E-1,8.506350517E-1,2.695959568E0
2.956812907E1,-2.578654289E-1,1.554302216E0,1.699992180E0
2.962812154E1,1.170182228E-1,1.538222551E0,1.891541004E0
2.968811407E1,1.580241203E0,1.119146585E0,-3.368900776E0
2.974810677E1,7.408537865E-1,1.547684073E0,-3.661531448E0
2.980809930E1,3.004625797E0,2.227468729E0,-8.417889595E0
2.986809169E1,4.559146881E0,4.383560658E0,-1.249560833E1
2.992808409E1,3.151304722E0,-4.306507111E-2,-3.372719288E0
2.998807646E1,-2.911610603E0,-3.923945427E-1,3.442090034E0
3.004806882E1,7.361894608E0,-8.456851959E0,-1.305236340E0
3.010806132E1,-8.611976624E0,-6.447294712E0,1.033040047E0
3.016805391E1,-4.514408112E-1,5.933289528E-1,7.405478954E0
3.022804731E1,8.685696125E-1,2.822093964E-1,6.235327721E0
3.028804174E1,-5.725307465E-1,6.318492889E-1,2.706579208E0
3.034803621E1,-1.759495735E-1,1.244468689E0,5.767173767E-1
3.040803071E1,-1.500606537E-3,1.650812387E0,-6.947274208E-1
3.046802521E1,-2.282296181E0,3.830127716E-1,-4.358067513E0
3.052801887E1,3.479957819E0,2.079235554E0,-1.856650829E0
3.058801140E1,5.772445679E0,4.459261894E0,-1.670475006E1
3.064800383E1,3.736911535E0,6.968384981E-1,-1.051986885E1
3.070799636E1,1.793631792E0,-5.129437447E-1,-2.296490669E0
3.076798886E1,-5.406376839E0,-8.123600006E0,8.454692841E0
3.082798132E1,1.231070638E0,-1.104706192E1,2.415341854E0
3.088797392E1,-5.892953396E0,-4.704547882E0,2.944028139E0
3.094796635E1,4.546141624E-2,-1.160987377E0,4.773427963E0
3.100795868E1,4.776010513E-1,5.415630341E-1,2.989956856E0
3.106795114E1,1.199407578E-1,9.704174995E-1,1.041733265E0
3.112794367E1,1.049885035E0,1.740010977E0,-4.595813751E-1
3.118793614E1,8.247885704E-1,1.538619518E0,-1.904536724E0
3.124792867E1,6.523847580E-2,3.064930439E-1,-4.120252609E0
3.130792177E1,7.328875542E0,5.333811760E0,-4.478174686E0
3.136791593E1,3.138638735E0,5.046233177E0,-1.119765854E1
3.142791022E1,-1.927030325E0,-1.725902557E-1,9.549331665E-2
3.148790449E1,1.057178617E0,-8.625588417E-1,4.034611225E0
3.154789882E1,-2.918131351E-1,-1.363210869E1,-1.054879665E0
3.160789258E1,-1.233691788E1,-2.531185627E0,2.035425186E0
3.166788515E1,3.043570518E0,-1.727914810E-2,6.014320850E0
3.172787748E1,-1.571652412E0,4.947452545E-1,2.557931900E0
3.178787001E1,-1.805005550E0,4.529757500E-1,3.759799004E-1
3.184786247E1,-2.546892166E-1,7.538604736E-2,-9.733114243E-1
3.190785500E1,5.892047882E-1,9.095678329E-1,-3.600772858E0
3.196784747E1,3.726627827E-1,1.546901703E0,-4.881762028E0
3.202784003E1,4.974057198E0,3.036740065E0,-2.779773235E0
3.208783236E1,2.961975098E0,5.340675831E0,-8.120540619E0
3.214782479E1,-1.148843765E-1,3.444080353E-1,-1.627378464E0
3.220781726E1,-3.410376310E0,-1.664044380E0,7.157370567E0
3.226780979E1,8.564632416E0,-3.552803993E0,-6.913993835E0
3.232780225E1,-3.997818947E0,-6.635710716E0,5.229606152E0
3.238779502E1,-2.206478596E0,2.441851616E0,3.384585857E0
3.244778825E1,-2.779211521E0,1.080126762E0,4.442806721E0
3.250778138E1,-2.305102348E-1,3.168210983E-1,2.425791740E0
3.256777454E1,3.992037773E-1,3.608322144E-1,1.826113701E0
3.262772489E1,6.005666256E-1,3.411433697E-1,-1.778038979E0
3.268771779E1,-4.398822784E-1,-5.210266113E-1,-3.309486389E0
3.274771012E1,-2.902746201E-3,-8.020350933E-1,-5.814762115E0
3.280770255E1,1.871468186E0,-6.002545357E-2,-6.190267563E0
3.286769505E1,5.461069584E0,3.734695911E0,-1.376776886E1
3.292768758E1,3.036324978E0,-6.230783463E-1,-3.999534130E0
3.298768008E1,-1.898646593E0,-4.746439934E0,1.242375088E1
3.304767261E1,5.601737022E0,-7.663902283E0,1.482781887E0
3.310766507E1,-1.849047184E0,-3.981567860E0,2.083091259E0
3.316765740E1,-3.059807777E0,8.373556137E-1,2.575165272E0
3.322764984E1,-2.250246048E0,3.625230789E-1,3.239048958E0
3.328764240E1,1.952439070E0,1.903400421E0,1.309216499E0
3.334763486E1,2.278467417E0,1.759529114E0,5.707559586E-1
3.340762743E1,1.896904945E0,1.773460627E0,3.650956154E-1
3.346762096E1,4.426606178E0,-5.158946514E-1,-7.205591202E-1
3.352761536E1,2.638931274E-1,2.472814083E0,-1.437947273E0
3.358760982E1,6.390094280E0,5.042116165E0,-1.171536636E1
3.364760442E1,2.709988594E0,1.881932139E0,-7.488787651E0
3.370759882E1,2.163574219E0,1.554184437E0,1.365823269E0
3.376759229E1,6.769747257E0,-8.523910522E0,-7.555999756E-1
3.382758482E1,-1.019508743E1,-1.109535885E1,3.268094063E0
3.388757741E1,-1.726379395E0,-8.218836784E-1,3.425920010E0
3.394756991E1,3.466534615E-2,2.285289764E-2,4.252999783E0
3.400756244E1,-1.135262012E0,1.365841389E0,2.140570164E0
3.406755501E1,5.667996407E-2,1.765826225E0,4.575748444E-1
3.412754750E1,6.640353203E-1,1.976680875E0,-1.197961330E0
3.418753977E1,7.443306446E-1,8.342105150E-1,-2.596439362E0
3.424753206E1,1.073321819E0,-7.865320444E-1,-4.181179047E0
3.430752460E1,2.292051554E0,2.284381390E-1,-2.789033413E0
3.436751709E1,3.835909605E0,1.782712936E0,-1.084315014E1
3.442750962E1,4.854900837E-1,-1.554022789E0,-7.633593559E0
3.448750209E1,-1.353011608E0,-2.694898129E0,3.764354706E0
3.454749535E1,4.052087307E0,-5.001707554E0,1.148071289E0
3.460748952E1,-8.423610687E0,-1.167084026E1,2.591640949E0
3.466748384E1,-1.070662975E0,7.057733536E-1,2.875833988E0
3.472747811E1,-1.231173277E0,1.422824860E-1,5.907500267E0
3.478747251E1,-2.578666687E0,1.563862801E0,2.338138103E0
3.484746604E1,7.545335293E-1,6.105184555E-1,1.332902431E0
3.490745853E1,-5.005183220E-1,3.515269756E-1,-1.607176781E0
3.496745086E1,-1.605237961E0,1.848890781E-1,-4.372587681E0
3.502744350E1,-1.301116943E0,4.893473387E-1,-4.799661636E0
3.508743596E1,3.357526779E0,-1.148278117E0,2.006797791E-1
3.514742859E1,6.111627579E0,4.738163948E0,-1.253090668E1
3.520742105E1,5.620983124E0,1.978972673E0,-1.143053055E1
3.526741352E1,9.627134800E-1,-2.093918324E0,2.715799332E0
3.532740575E1,-7.895498276E-1,-9.701913834E0,1.014450645E1
3.538739824E1,1.971379995E0,-1.350210571E1,4.625215530E-1
3.544739068E1,-5.912545204E0,-2.967854500E0,1.667489052E0
3.550738327E1,2.272011757E0,-4.919471741E-1,5.764661789E0
3.556737584E1,5.001688004E-1,3.564643860E-1,4.169590950E0
3.562736864E1,-6.436748505E-1,8.054785728E-1,2.351208210E0
3.568736180E1,1.129450798E0,1.937155724E0,1.199418068E0
3.574735493E1,1.418878078E0,2.756194353E0,-1.716877937E0
3.580734800E1,5.584263802E-2,2.974292994E0,-1.569747925E-3
3.586734109E1,4.480437279E0,2.893727779E0,-5.452468395E0
3.592733396E1,1.590440869E0,2.310925007E0,-1.145916939E1
3.598732629E1,1.204159260E0,-1.449676991E0,-9.106694221E0
3.604731882E1,-3.637303352E0,-6.539651394E0,-9.562439919E-1
3.610731135E1,2.016925335E0,-8.485290527E0,-1.992344379E0
3.616730388E1,1.180006862E0,-8.272139549E0,4.103451729E0
3.622729641E1,-4.413950443E-1,-1.754735947E0,7.693865776E0
3.628728894E1,-1.316334724E0,-6.045246124E-1,6.105816364E0
3.634728120E1,-8.983368874E-1,2.162607193E0,4.061315536E0
3.640727357E1,1.107948780E0,3.675211906E0,2.160416126E0
3.646726613E1,1.095051050E0,3.484608889E0,1.012182236E-1
3.652725866E1,-4.588170052E-1,1.816682577E0,-1.735845566E0
3.658725113E1,3.027913570E-1,5.727112889E-1,-3.518388271E0
3.664724376E1,-4.245328903E-2,-1.524183273E0,-5.487279892E0
3.670723742E1,2.746632814E0,-1.541579723E0,-7.900411606E0
3.676723165E1,4.538868904E0,1.931195259E-1,-1.228442383E1
3.682722592E1,1.535070300E0,-4.058916569E0,-3.894915581E0
3.688722048E1,-1.620617867E0,-7.359860897E0,7.226565361E0
3.694721471E1,7.166442871E-1,-1.420182419E1,1.713681698E0
3.700720788E1,-4.494128227E0,-3.049757004E0,4.403868675E0
3.706720017E1,3.698354721E0,-5.989665985E-1,7.064323902E0
3.712719257E1,-8.698415756E-1,6.339287758E-1,2.262748241E0
3.718718490E1,-4.773893356E-1,1.410038948E0,1.682449818E0
3.724717750E1,6.329059601E-1,8.279247284E-1,-5.076260567E-1
3.730716993E1,1.287235260E0,-8.393716812E-2,-3.271694183E0
3.736716249E1,-6.834380627E-1,1.113991737E0,-7.414078712E0
3.742715496E1,4.085862160E0,7.996024132E0,-4.219145298E0
3.748714726E1,5.139634132E0,8.724973679E0,-1.019006348E1
3.754713965E1,2.407723188E0,1.655968189E0,-2.288363934E0
3.760713222E1,9.144803286E-1,-1.038805199E1,6.146305561E0
3.766712475E1,-5.512060165E0,-1.437116528E1,-3.136782169E0
3.772711728E1,-4.024027586E-1,-5.026679993E0,4.610133171E0
3.778711044E1,-1.331213236E0,-2.527550697E0,4.678556919E0
3.784710357E1,-4.175896645E-1,1.059086323E0,-2.276611328E-1
3.790709670E1,8.806841373E-1,3.081101418E0,1.432866096E0
3.796708983E1,1.598728418E0,3.845365047E0,2.417732239E0
3.802708296E1,1.847985148E0,4.350557327E0,8.991622925E-1
3.808707543E1,1.101689339E0,3.104057312E0,-1.899323940E0
3.814706786E1,1.906333208E0,6.180096865E-1,-5.017581940E0
3.820706032E1,3.207063437E0,1.700260878E0,-7.581301689E0
3.826705285E1,2.628156662E0,3.096240997E0,-9.120820999E0
3.832704532E1,-1.904200315E0,-1.044613361E0,4.772634506E-1
3.838703788E1,-7.492318153E-1,-1.025869942E1,7.126609802E0
3.844703034E1,-6.704267979E0,-1.613084984E1,-3.072365284E0
3.850702274E1,-7.517576218E-1,-3.941319942E0,5.960903168E-1
3.856701504E1,-9.527444839E-2,-8.302764893E-1,3.564408302E0
3.862700757E1,8.753395081E-1,6.428880692E-1,4.595250130E0
3.868700003E1,-7.487583160E-1,2.073654652E0,2.569343567E0
3.874699260E1,-1.671532154E0,3.212120056E0,-4.979338646E-1
3.880698536E1,-7.611446381E-1,2.820689440E0,-3.214573860E0
3.886697936E1,1.024646759E-1,5.747311115E-1,-5.527626038E0
3.892697389E1,1.426196694E0,-1.723920822E0,-5.069706440E0
3.898696842E1,2.272806168E0,1.729737997E0,-8.442791939E0
3.904696289E1,5.137806892E0,2.470525265E0,-1.061336231E1
3.910695712E1,1.020451307E0,-1.296272278E0,-1.069049835E0
3.916695015E1,-4.497976303E0,-8.438529968E0,6.280188084E0
3.922694248E1,3.722998142E0,-1.262811279E1,-2.536491632E0
3.928693501E1,-4.451053619E0,-4.891062260E0,6.004748344E-1
3.934692748E1,1.135105848E0,-1.868607521E0,4.474967480E0
3.940692001E1,6.168718338E-1,3.551769257E-2,2.613929749E0
3.946691254E1,-7.085509300E-1,3.568782806E-1,2.032890320E0
3.952690510E1,1.871428251E0,3.664889336E-1,-7.728843689E-1
3.958689737E1,3.962447643E0,2.506651878E-1,-2.268840313E0
3.964688986E1,4.501886368E0,2.439746141E0,-3.973004341E0
3.970688233E1,3.597573519E0,2.302551270E0,-3.798130989E0
3.976687486E1,2.446253777E0,1.059098244E-1,2.962045670E0
3.982686729E1,2.264534950E0,1.639201403E0,2.770442963E-1
3.988682871E1,8.588902354E-1,2.854727805E-1,-1.410781670E1
3.994682238E1,-1.761105537E0,-4.399221420E0,-1.126725674E1
4.000681677E1,-9.181465149E0,-9.706195831E0,1.920636177E0
4.006681104E1,-5.368975401E-1,-1.362492561E1,-6.803340912E-1
4.012680536E1,1.546757221E-1,-1.215453625E0,6.630104065E0
4.018679960E1,1.194388032E0,-1.726462841E0,9.507471085E0
4.024679269E1,-4.162368774E0,-1.801172256E0,3.453213692E0
4.030678496E1,2.317781448E-1,-5.377974510E-1,4.593326569E0
4.036677745E1,8.020565510E-1,1.093898535E0,4.529571533E-1
4.042676998E1,1.510393620E-1,8.716144562E-1,-1.910450935E0
4.048676248E1,-5.775945187E-1,5.681455135E-2,-2.557769775E0
4.054675498E1,2.892923355E-2,4.039843976E-1,-6.285089493E0
4.060674751E1,-2.060745239E0,3.933470547E-1,-5.968774796E0
4.066673990E1,3.290426254E0,1.590907574E-2,-9.932646751E0
4.072673224E1,4.940151691E0,9.661376476E-2,-6.648947716E0
4.078672470E1,-1.221759081E0,-6.253232956E-1,5.677995682E-1
4.084671713E1,-4.092805386E-1,-4.308815002E-1,1.275195122E0
4.090670966E1,-6.753013611E0,-1.157363796E1,6.805195808E0
4.096670216E1,-3.545282125E0,3.394970894E-1,4.718058109E0
4.102669526E1,3.029671192E0,1.756880283E0,7.389914036E0
4.108668839E1,-1.202254295E-1,1.510217667E0,3.406302929E0
4.114668158E1,1.519031525E0,7.162983418E-1,1.797464371E0
4.120667465E1,6.583485603E-1,-7.578411102E-1,4.864969254E-1
4.126666778E1,1.214477539E0,-2.781670570E0,-4.540109634E-1
4.132666034E1,-5.315558910E-1,-1.217431426E0,-6.304602623E0
4.138665281E1,1.366111994E0,2.793110013E-1,-8.231152534E0
4.144664527E1,7.252144814E0,2.245332718E0,-1.355292892E1
4.150663794E1,4.808235645E0,1.429166794E0,-9.995916367E0
4.156663043E1,1.481396437E0,-1.841818333E0,3.637634277E0
4.162662296E1,1.797728539E-1,-1.080514908E1,1.037886620E1
4.168661536E1,-9.723899841E0,-1.205002594E1,-1.246468067E0
4.174660776E1,-2.751373291E0,-1.011372566E0,3.755101681E0
4.180660012E1,-4.255285263E-1,1.042823792E0,5.998449326E0
4.186659268E1,-1.638432980E0,1.593707085E0,8.945426941E-1
4.192658515E1,2.935504913E-1,1.849862099E0,3.200283527E0
4.198657768E1,1.497521400E-1,1.036496162E0,7.536191940E-1
4.204657054E1,-1.095170021E0,3.500236988E0,-1.450254440E0
4.210656457E1,3.358817101E-1,3.292416334E0,-6.501817703E-1
4.216655887E1,7.918930054E-1,6.996533275E-1,-3.904902935E0
4.222655320E1,4.405091286E0,3.935929537E-1,-7.248762131E0
4.228654753E1,4.443293571E0,1.709841013E0,-1.136529160E1
4.234654146E1,1.174276114E0,-1.353034735E0,-4.328813076E0
4.240653413E1,-1.303072691E0,-6.813328743E0,4.308266640E0
4.246652642E1,1.496985197E0,-7.858668327E0,-1.996717453E-1
4.252651886E1,-7.762559414E0,-4.524002075E0,-1.499917746E0
4.258651138E1,-2.900325298E0,1.696872711E-1,5.001075268E0
4.264650392E1,-7.044625282E-1,4.094004631E-1,6.594181061E0
4.270649641E1,-2.835819721E0,1.279690266E0,2.392650604E0
4.276648894E1,1.009349823E-1,1.538915157E0,1.222041130E0
4.282648137E1,2.207183599E0,2.001811504E0,-5.307297707E-1
4.288647370E1,2.721078873E0,2.286533594E0,-1.911561966E0
4.294646617E1,1.994248629E0,5.955575109E-1,-3.787020683E0
4.300645873E1,-1.461083412E0,-6.696586132E0,-1.006187439E0
4.306645123E1,3.249427080E0,2.324544668E0,-1.417841148E1
4.312644386E1,2.705265284E0,2.735879421E-1,-7.819746017E0
4.318643709E1,-2.143611431E0,-5.564786911E0,4.766768456E0
4.324643029E1,1.174570203E0,-9.561189651E0,1.927818298E0
4.330642335E1,-4.216054916E0,-8.587311745E0,8.839445114E-1
4.336641651E1,-2.690077066E0,-1.634042740E0,4.763134003E0
4.342640948E1,-2.197828293E-1,-4.220142365E-1,4.780469418E0
4.348640184E1,-9.408752918E-1,1.673096657E0,3.078103542E0
4.354639418E1,1.008632898E0,8.213472366E-1,2.573594093E0
4.360638680E1,7.151956558E-1,1.305259705E0,-1.580371857E0
4.366637927E1,1.282885909E0,1.580306530E0,-2.206295490E0
4.372637180E1,-2.332212210E0,4.381490707E0,-3.916406155E0
4.378636433E1,6.595236063E-1,3.188303709E0,-5.486782074E0
4.384635679E1,-4.075727463E-1,4.711501598E0,-8.477218628E0
4.390634902E1,-9.315490723E-3,2.504687071E0,-3.070264339E0
4.396634149E1,-6.870448589E-1,-4.672872066E0,3.938976765E0
4.402633402E1,-3.927481413E0,-9.090361595E-1,-2.705860138E-2
4.408632655E1,6.308732986E0,-1.005227566E1,-1.541401386E0
4.414631908E1,-2.964303017E0,-7.141731262E0,6.208837509E0
4.420631238E1,-3.669168234E0,-1.189989090E0,3.950974941E0
4.426630661E1,1.613464355E-1,-2.493523121E0,4.352403164E0
4.432630114E1,6.198930740E-1,-3.035933018E0,1.995836258E0
4.438629568E1,5.956878662E-1,-2.723096371E0,-7.239422798E-1
4.444629014E1,1.619847775E0,-1.029206991E0,-3.112059116E0
4.450628391E1,3.940051794E0,2.623382330E0,-3.350337505E0
4.456627657E1,4.094461918E0,2.835921764E0,-6.798243999E0
4.462626903E1,5.243641376E0,1.726242781E0,-1.082040119E1
4.468626150E1,7.633608818E0,1.980141521E0,-1.441041374E1
4.474625409E1,-2.420067549E0,3.933906555E-4,-2.526188374E0
4.480624656E1,-5.244105339E0,-1.570271969E1,9.524322510E0
4.486623912E1,9.200752258E0,-9.561109543E0,-3.515278578E0
4.492623145E1,-4.273121834E0,-3.454702377E0,-2.190003395E-1
4.498622378E1,-3.077109098E0,-3.215550423E0,4.758214951E0
4.504621625E1,-2.233207226E0,-5.704431534E-1,5.820619583E0
4.510620888E1,-3.247081757E0,6.449961662E-1,6.774398327E0
4.516620134E1,-2.223259449E0,1.772089958E0,3.052024841E-1
4.522619387E1,-6.446886063E-2,3.022365570E0,-4.063911438E0
4.528618690E1,2.431361675E0,2.484183073E0,-5.303829193E0
4.534618090E1,1.789990425E0,2.000434637E0,-6.159771919E0
4.540617513E1,4.314061642E0,2.279974461E0,-1.026810074E1
4.546616946E1,4.386393547E0,2.198969603E0,-1.490488529E1
4.552616379E1,5.224862099E-1,-3.128685474E0,-3.404221058E0
4.558615762E1,-5.295783997E0,-3.831865788E0,5.070819378E0
4.564615032E1,4.732362270E0,-1.004375744E1,-6.823620796E-1
4.570614258E1,-3.466462612E0,-7.667062759E0,1.158394337E0
4.576613511E1,-2.655267477E0,-4.833993912E-1,3.278918982E0
4.582612764E1,-3.716872215E0,-1.837158203E-1,6.576467514E0
4.588612017E1,-1.107823610E0,1.051484585E0,6.338547707E0
4.594611260E1,-2.007625103E0,1.938804626E0,4.430231094E0
4.600610520E1,1.404077053E0,3.482640982E0,2.230895996E0
4.606609746E1,1.302034616E0,2.338018894E0,-3.695993423E-1
4.612608980E1,2.208151340E0,6.787052155E-1,-1.428498745E0
4.618608226E1,2.141832352E0,7.240211964E-1,-6.460855007E0
4.624607486E1,2.174315453E0,1.257212877E0,-1.031522369E1
4.630606732E1,1.282878876E0,-2.679454327E0,-1.107613182E1
4.636606005E1,-2.822182894E0,-7.863197327E0,-3.619164467E0
4.642605332E1,-3.611075640E0,-1.105132294E1,-1.775156021E0
4.648604648E1,1.195013523E-2,-8.621839523E0,1.020731926E0
4.654603954E1,-2.988917351E0,-3.282710075E0,4.068945885E0
4.660603274E1,-3.474583387E0,-1.625065804E0,1.081092072E1
4.666602570E1,-2.385751247E0,2.100012779E0,7.286777496E0
4.672601810E1,-1.077519417E0,2.696328163E0,7.050347328E0
4.678601053E1,1.288426876E0,3.436434746E0,3.618472099E0
4.684600306E1,1.467407465E0,3.391196251E0,4.332447052E-1
4.690599553E1,1.101804972E0,3.252139568E0,-1.921875477E0
4.696598809E1,9.801529646E-1,1.125336289E0,-4.093050480E0
4.702598055E1,7.932550907E-1,-2.134046555E0,-1.002109241E1
4.708597298E1,-7.141909599E-1,-6.980529785E0,-6.045689106E0
4.713598985E1,2.140574455E0,-2.562500715E0,-1.505650806E1
4.719598234E1,5.512913465E-1,-7.243209839E0,-6.938489914E0
4.725597487E1,-3.227461815E0,-9.886847496E0,1.100947857E0
4.731596734E1,1.010586977E0,-1.031614494E1,3.622230530E0
4.737595983E1,-9.371336699E-1,-7.708393097E0,8.403419495E0
4.743595306E1,-3.609642506E0,-3.022639275E0,9.106582642E0
4.749594720E1,-1.190258980E0,-4.156246185E-1,1.265996552E1
4.755594146E1,4.261842251E0,2.244023800E0,8.220926285E0
4.761593586E1,4.264446735E0,4.032668114E0,3.172417641E0
4.767593012E1,2.473633528E0,6.757876873E-1,-1.705889702E0
4.773592379E1,-6.226801872E-1,-3.179753780E0,-6.895999432E0
4.779591628E1,9.924819469E-1,-6.664898396E-1,-6.645066261E0
4.785590868E1,1.082420349E-4,7.347620010E0,-9.680631638E0
4.791590111E1,7.906740189E0,6.927959442E0,-1.758778763E1
4.797589371E1,7.925019264E0,4.399196625E0,-1.172236633E1
4.803588614E1,1.887153625E0,-3.533455849E0,1.203250885E-2
4.809587870E1,-9.081768990E0,-1.470025539E1,1.431233025E1
4.815587117E1,1.322329640E0,-1.048407173E1,1.182235479E0
4.821586360E1,-1.973486900E0,-1.134072304E0,3.945365191E0
4.827585596E1,-2.630131245E0,-6.160068512E-2,9.867994308E0
4.833584849E1,-1.634090424E0,1.294939995E0,7.204052925E0
4.839584099E1,-1.181866646E0,1.620369434E0,3.355755806E0
4.845583352E1,1.179437399E0,-1.158004284E0,-4.758682251E-1
4.851582625E1,2.119919300E0,-9.994707108E-1,-3.502861023E0
4.857581948E1,8.039562702E-1,1.416743994E0,-3.885491371E0
4.863581265E1,3.842327118E0,3.803124905E0,-8.096187592E0
4.869580578E1,7.446444511E0,6.985417843E0,-1.507301140E1
4.875579891E1,6.617713451E0,5.584057331E0,-8.792023659E0
4.881579170E1,-1.242009640E0,-2.551184177E0,4.996563911E0
4.887578404E1,-5.916902065E0,-1.043510723E1,7.612991810E0
4.893577647E1,-2.669941425E0,-1.008452129E1,2.683282852E0
4.899576910E1,-1.347571373E0,-9.153900146E-1,2.947527647E0
4.905576156E1,-9.056236744E-1,4.558906555E-1,8.834696770E0
4.911575422E1,-6.209456921E-1,2.031203270E0,6.205497742E0
4.917574672E1,-6.875460148E-1,2.386527061E0,4.260952950E0
4.923573912E1,4.308183193E-1,2.654679298E0,1.354138851E0
4.929573128E1,1.974757552E0,1.309129477E0,2.948675156E-1
4.935572385E1,-4.511523247E-2,1.851578116E0,-3.782911301E-1
4.941571625E1,5.915315151E-1,1.811411142E0,-7.439133644E0
4.947570881E1,2.468920231E0,1.034774780E0,-1.282855225E1
4.953570131E1,9.212169647E-1,-9.349799156E-1,-1.107692909E1
4.959569500E1,-1.979364872E0,-5.400681973E0,-3.041486740E-1
4.965568934E1,-4.437711716E0,-5.510623932E0,1.826552868E0
4.971568394E1,4.409233570E0,-8.755262375E0,8.131189346E-1
4.977567840E1,-2.068352461E0,-2.996294975E0,4.465062618E0
4.983567290E1,-3.379373550E-1,-7.849645615E-1,1.155831814E1
4.989566626E1,7.128996849E-1,1.322431087E0,9.579725266E0
4.995565880E1,1.290401936E0,2.017552853E0,4.219184875E0
5.001565126E1,1.328079700E0,1.293525219E0,1.534129620E0
5.007564382E1,5.505864620E-1,9.972381592E-1,-1.488752365E0
5.013563635E1,-3.728172779E-1,1.289590478E0,-2.599342823E0
5.019562888E1,-5.691869259E-1,1.299361706E0,-2.122342587E0
5.025562138E1,3.750869751E0,1.879782200E0,-1.008175945E1
5.031561365E1,3.214599133E0,7.547907829E-1,-1.269397163E1
5.037560598E1,1.517171741E0,-6.071875095E-1,-7.760570526E0
5.043559854E1,-1.251019478E0,-3.123122692E0,1.632410049E0
5.049559107E1,-2.524733543E-1,-7.332275867E0,3.107822895E0
5.055558354E1,-6.289035320E0,-1.085375595E1,4.216105938E0
5.061557613E1,1.875061035E0,-1.277070999E0,8.307462692E0
5.067556940E1,-1.618914604E-1,-9.402318001E-1,9.139522552E0
5.073556353E1,-4.162549973E-1,1.405548096E0,6.885456085E0
5.079555779E1,2.077287197E0,2.910028219E0,2.053438187E0
5.085555219E1,1.216310978E0,2.183945179E0,1.207542419E-1
5.091554645E1,9.060473442E-1,7.603909969E-1,-2.630655289E0
5.097554002E1,1.408215523E0,-1.711433649E0,-1.850390434E0
5.103553245E1,-2.390993834E0,-3.697361350E-1,-3.069065094E0
5.109552481E1,2.933125257E0,1.804811478E0,-1.205586433E1
5.115551731E1,5.486442566E0,2.169043064E0,-1.574237823E1
5.121550990E1,1.920325994E0,-9.785439968E-1,-7.274764061E0
5.127550237E1,-5.488243103E-1,-5.918205261E0,7.411889553E0
5.133549490E1,-4.577447891E0,-1.054406261E1,9.169342041E0
5.139548740E1,-7.161193848E0,-1.104344082E1,-7.782268524E-2
5.145547969E1,-1.649512768E0,-1.395549774E-1,6.224268913E0
5.151547202E1,3.659181595E-1,3.886146545E-1,6.962226391E0
5.157546455E1,-2.298029900E0,1.457917690E0,3.174334526E0
5.163545712E1,1.064246178E0,1.470521450E0,2.689665318E0
5.169544965E1,1.437837362E0,3.137763023E0,-1.208850861E0
5.175544248E1,-7.246012688E-1,2.509308815E0,3.985595703E-2
5.181543574E1,2.295000553E-1,1.991190791E0,-1.691371918E0
5.187542887E1,-1.486051083E-1,-2.168715000E-1,-3.732325077E0
5.193542194E1,6.176757812E-1,9.725756943E-2,-9.639363289E0
5.199541507E1,5.978235245E0,2.708983183E0,-1.327814865E1
5.205540790E1,2.458473682E0,7.652271986E-1,-6.188696861E0
5.211540023E1,1.021432400E0,-9.852023125E-1,1.013563156E0
5.217539270E1,-3.797437668E0,-9.382781982E0,1.102419281E1
5.223538526E1,-2.700745106E0,-1.343749428E1,3.455301285E0
5.229537779E1,-2.923320770E0,-1.363015175E0,3.552861691E0
5.235537029E1,1.183158278E0,-8.793544769E-2,7.961340904E0
5.241536275E1,-4.114966393E-1,9.913978577E-1,4.005547523E0
5.247535511E1,1.820061207E-1,1.391845703E0,1.337407112E0
5.253534741E1,1.049307108E0,1.963804007E0,5.560636520E-1
5.259533994E1,1.070832729E0,2.079735041E0,-2.031839371E0
5.265533244E1,2.385792732E0,2.376169920E0,-1.216563702E0
5.271532504E1,2.874380350E0,2.678195477E0,-1.831410408E0
5.277531760E1,3.251639366E0,3.014011860E0,-5.048638344E0
5.283531133E1,1.704780817E0,1.755221009E0,-8.327653885E0
5.289530560E1,8.299901485E-1,-3.898636818E0,-6.495626450E0
5.295529993E1,-3.894624949E0,-5.647647858E0,-2.374495029E0
5.301529419E1,-7.062371969E-1,-1.824983120E0,-8.760993958E0
5.307528852E1,-8.120065689E0,-1.165121841E1,-1.043496132E-1
5.313528165E1,6.384171247E-1,-5.232213974E0,9.412152290E0
5.319527398E1,2.516525030E0,-5.916700363E-1,1.233326054E1
5.325526641E1,-2.978487492E0,2.857990265E-1,1.070238686E1
5.331525894E1,-3.200954437E0,1.194849491E0,5.567592144E0
5.337525141E1,3.965177536E-1,2.242277861E0,3.858855724E0
5.343524390E1,1.401011944E0,1.983516693E0,2.010793686E-1
5.349523643E1,5.232682228E-1,2.795755148E0,-3.358268738E-1
5.355522887E1,1.990181088E0,3.910781384E0,-6.483453274E0
5.361522120E1,-4.796125889E-1,-3.411420822E0,-8.087544441E0
5.367521363E1,2.736344099E0,-4.686184406E0,-1.073689747E1
5.373520616E1,-2.606986761E-1,-7.183510780E0,-1.095515823E1
5.379519869E1,-6.622116566E-1,-5.102904320E0,-8.985731125E0
5.385519122E1,-2.342787981E-1,-5.252821922E0,-2.449492931E0
5.391518425E1,-2.382789373E0,-1.173973560E1,3.505557299E0
5.397517748E1,-2.888217211E0,-6.387326241E0,1.365034103E1
5.403517054E1,2.823335648E0,-3.151943207E0,1.883805084E1
5.409516377E1,-3.992176533E0,8.149595261E-1,1.268296814E1
5.415515684E1,-4.131722450E0,3.336229324E0,1.067941093E1
5.421514947E1,5.199360847E-1,4.904763222E0,6.503784180E0
5.427514177E1,2.765828133E0,4.975512505E0,3.311665058E0
5.433513436E1,-3.893518448E-2,2.887015820E0,-1.649994850E0
5.439512673E1,8.041143417E-3,1.658344626E0,-3.854555130E0
5.445505436E1,3.366265297E-1,-1.651611090E0,-7.222423077E0
5.451504683E1,1.374944687E0,-6.438689232E0,-1.083347893E1
5.457503936E1,7.837421894E-1,-1.382004499E0,-1.051034069E1
5.463503162E1,2.860409975E0,1.068735838E0,-9.679774284E0
5.469502405E1,-1.139016867E0,-4.141940117E0,4.132916927E0
5.475501658E1,-2.299797535E-1,-2.387836456E0,4.651597023E0
5.481500911E1,-5.209251881E0,-1.340670109E1,6.030838966E0
5.487500161E1,-4.775805473E0,-7.356520653E0,1.309399128E1
5.493499448E1,-6.200318336E-1,-5.426454544E-1,1.301364613E1
5.499498844E1,-2.368299723E0,-2.710065842E-1,1.139469051E1
5.505498297E1,-1.560327053E0,1.124399662E0,8.549999237E0
5.511497754E1,-2.163505554E-2,2.035335064E0,6.632030010E0
5.517497200E1,1.261066198E0,4.796421528E-1,-8.039932251E-1
5.523496620E1,1.348816156E0,-1.622957826E0,-4.633083344E0
5.529495920E1,-4.011344910E-1,3.678501844E-1,-1.499492836E1
5.535495163E1,2.350363255E0,-2.170268297E-1,-1.679364014E1
5.541494406E1,8.023382187E0,3.565227270E0,-1.231394958E1
5.547493666E1,3.288182020E0,2.084791422E0,-5.435642242E0
5.553492912E1,3.526039839E0,-2.184903145E0,7.873364449E0
5.559492169E1,1.905155301E0,-1.053103161E1,1.555523014E1
5.565491405E1,-4.697998047E0,-1.261109734E1,6.918890476E0
5.571490645E1,-3.415360451E0,-2.372232437E0,7.257845879E0
5.577489881E1,1.599452496E-1,-2.748813629E-1,1.102926540E1
5.583489141E1,2.521753311E-2,1.862294674E0,9.129419327E0
5.589488384E1,1.769993782E0,2.971623421E0,5.037290573E0
5.595487637E1,2.165829897E0,3.512527704E0,8.126788139E-1
5.601486900E1,-5.217614174E-1,2.156916618E0,-1.400027275E0
5.607486280E1,2.103168964E0,2.093504906E0,2.821145058E0
5.613485710E1,3.070304632E0,4.016213894E0,-9.111935616E0
5.619485143E1,5.619465351E0,3.895840168E0,-1.387262344E1
5.625484576E1,3.377539873E0,1.357380867E0,-6.653903008E0
5.631483992E1,-5.805392265E-1,-1.120651245E0,2.465445995E0
5.637483289E1,-4.029147625E-1,-5.278879166E0,5.556388855E0
5.643482518E1,-7.575309277E-1,-1.085772991E1,3.699470997E0
5.649481761E1,-4.692210197E0,-2.801898003E0,4.445730686E0
5.655481014E1,-2.488291264E-1,-4.237823486E-1,1.049440765E1
5.661480267E1,-1.005689144E0,6.698780060E-1,6.518317223E0
5.667479514E1,-7.278318405E-1,1.130572319E0,5.200257301E0
5.673478767E1,1.327632666E0,1.800111771E0,2.324660778E0
5.679478010E1,1.462523222E0,2.461626768E0,-1.016253471E0
5.685477243E1,1.975711584E0,7.281508446E-1,-7.544746399E-1
5.691476486E1,9.010875225E-1,3.040399313E0,-1.669559002E0
5.697475746E1,4.501674175E0,4.378352165E0,-8.959897041E0
5.703474992E1,5.607557774E0,3.814338684E0,-1.178997898E1
5.709474248E1,4.056146622E0,9.968929291E-1,-3.341684341E0
5.715473565E1,-4.226912498E0,-6.435805798E0,7.037088394E0
5.721472891E1,-4.060633659E0,-1.552659130E1,1.251741886E0
5.727472198E1,-2.288156509E0,-2.073902130E0,4.002210617E0
5.733471517E1,4.090905190E-2,6.724591255E-1,5.902832985E0
5.739470820E1,-1.387894154E0,1.470838070E0,4.623943329E0
5.745470070E1,-2.769474983E-1,1.460032940E0,4.315598011E0
5.751469307E1,-8.437252045E-2,1.663503647E0,2.428330898E0
5.757468566E1,8.942327499E-1,-1.517019272E-1,2.807762146E0
5.763467810E1,2.832477093E0,4.705832005E-1,2.193838120E0
5.769467072E1,2.348166466E0,4.420135498E0,-9.337276459E0
5.775466319E1,2.969737053E0,5.552203655E0,-1.478871727E1
5.781465559E1,2.970518589E0,2.080231667E0,-6.942574024E0
5.787464785E1,-2.620059252E0,-4.342964172E0,5.694344044E0
5.793464045E1,-3.516753912E0,-1.182947731E1,6.556792259E-1
5.799463288E1,-6.196618080E-3,-9.034684181E0,1.826987267E-1
5.805462544E1,7.521271706E-2,-3.142213821E-1,1.879670620E0
5.811461794E1,-1.525315762E0,-8.506746292E-1,5.858265877E0
5.817461087E1,1.132620811E0,8.291845322E-1,5.074505329E0
5.823460480E1,-5.799293518E-1,1.358188152E0,3.082529545E0
5.829459917E1,-6.762011051E-1,1.546197414E0,4.724063873E-1
5.835459346E1,-6.961658001E-1,2.423701286E0,-5.954677582E0
5.841458783E1,-1.254956722E0,2.070892811E0,-3.122605324E0
5.847458176E1,1.825839877E0,3.049358845E0,-6.036118507E0
5.853457439E1,3.703081608E0,4.118233681E0,-7.345992088E0
5.859456669E1,6.554267406E-1,-1.254971981E0,-9.907917976E-1
5.865455919E1,2.159930706E0,3.507642269E0,-6.437417030E0
5.871455172E1,2.158617973E-1,-8.265270233E0,-2.354184628E0
5.877454415E1,-7.360289574E0,-9.516576767E0,7.595102310E0
5.883453674E1,-9.758460522E-1,1.402827740E0,9.352624893E0
5.889452921E1,1.089849949E0,1.757247925E0,8.460648537E0
5.895452157E1,-1.131363392E0,2.293478966E0,3.701997280E0
5.901451384E1,8.247749805E-1,2.034893036E0,2.291274548E0
5.907450643E1,6.584167480E-2,9.093267918E-1,-1.572911263E0
5.913449890E1,-4.774689674E-1,-3.567825317E0,-4.256335735E0
5.919449149E1,-8.899383545E-1,-9.156098366E0,-1.031744862E1
5.925448409E1,2.197065830E0,-4.668199062E0,-1.110502815E1
5.931447742E1,4.052848339E0,-3.879609108E-1,-4.416697502E0
5.937447052E1,2.138187885E0,-8.396549225E-1,-5.641535759E0
5.943446372E1,-3.132954836E0,-6.683107376E0,4.565748692E0
5.949445678E1,3.690508604E0,-7.829017639E0,7.291213036E0
5.955444978E1,-5.156246185E0,-1.111857986E1,7.199661732E0
5.961444211E1,-4.780531406E0,-1.191869736E0,7.890725613E0
5.967443454E1,-9.407124519E-1,5.445547104E-1,1.397560501E1
5.973442707E1,1.261078358E0,4.204189301E0,9.508376122E0
5.979441960E1,1.497953892E0,4.727154732E0,3.967064381E0
5.985441213E1,1.519028664E0,3.693876505E0,1.574153900E0
5.991440466E1,-1.092009068E0,2.290337086E0,-2.886028767E0
5.997439709E1,-1.597633362E-1,1.076241255E0,-5.414890289E0
6.003438929E1,-1.688621998E0,1.371208787E0,-1.031052589E1
6.009438179E1,1.029121780E1,8.152712822E0,-1.414075089E1
6.015437432E1,4.299642563E0,1.436920643E0,-1.915737152E0
6.021436685E1,-5.527809620E0,-5.206179619E0,9.914574623E0
6.027435931E1,6.844484329E0,-1.067630768E1,2.469419718E0
6.033435274E1,-4.166133881E0,-7.071777344E0,4.367856979E0
6.039434698E1,-2.711131573E-1,-6.517219543E-2,7.504861355E0
6.045434151E1,4.322507381E-1,5.799436569E-1,7.899305344E0
6.051433598E1,-1.560258389E0,1.387610912E0,6.569963455E0
6.057433058E1,1.736497879E0,1.572942257E0,3.396853924E0
6.063432424E1,1.728142262E0,1.812904358E0,-1.888285637E0
6.069431690E1,-1.349232674E0,-3.273601532E-1,2.895002365E-1
6.075430937E1,9.063541889E-1,9.463768601E-1,-4.841433525E0
6.081430190E1,4.451537132E0,1.433691502E0,-1.375966263E1
6.087429436E1,5.706783772E0,-6.877212524E-1,-1.269731998E1
6.093428692E1,2.328453064E0,-2.444081306E-1,-6.563581944E0
6.099427939E1,-3.227234125E0,-5.346935272E0,7.336074829E0
6.105427172E1,1.486426353E0,-8.051311493E0,-1.000090837E0
6.111426405E1,-5.062963009E0,-6.091506958E0,6.733455658E0
6.117425658E1,-2.143649578E0,4.136238098E-1,6.248701096E0
6.123424911E1,-5.262203217E-1,3.519811630E-1,7.367111206E0
6.129424164E1,-2.487554073E0,1.416135788E0,4.325011730E0
6.135423417E1,-9.415788651E-1,1.284649849E0,3.481337070E0
6.141422724E1,3.127908707E-1,6.910138130E-1,3.355264664E-1
6.147422130E1,1.858682394E0,1.147570848E0,-3.381711006E0
6.153421550E1,4.764126301E0,2.779639006E0,-2.240391731E0
6.159420986E1,6.031032562E0,5.967376709E0,-1.401852798E1
6.165420419E1,2.371953249E0,1.581527948E0,-7.692972660E0
6.171412732E1,3.806276321E-1,-1.302869797E0,1.135034561E-1
6.177411985E1,-1.767050028E0,-5.369486332E0,4.080658436E0
6.183411224E1,5.123301029E0,-1.092096138E1,2.216378689E0
6.189410468E1,-4.332241058E0,-6.135647774E0,2.724126816E0
6.195409721E1,-1.474818468E0,-1.518030167E-1,5.053944111E0
6.201408964E1,-3.426305294E0,-2.160739899E-2,5.641910553E0
6.207408223E1,-7.466888428E-2,1.134729862E0,3.711069584E0
6.213407470E1,-7.195935249E-1,1.734227657E0,2.660706520E0
6.219406713E1,1.223243713E0,1.971622705E0,9.777994156E-1
6.225405946E1,2.405449629E0,2.510555506E0,-8.163189888E-1
6.231405205E1,2.198932409E0,1.231766939E-1,-2.765614510E0
6.237404452E1,3.524849892E0,-8.340420723E-1,-7.922162056E0
6.243403711E1,4.912475109E0,1.856532097E-1,-1.071589470E1
6.249402971E1,7.039719582E0,1.822256207E0,-9.446279526E0
6.255402304E1,7.128903866E-1,-1.964441299E0,-1.550062656E0
6.261401611E1,-2.624896049E0,-1.037437439E1,7.899006367E0
6.267400924E1,-1.742286682E-1,-1.270012283E1,-4.724707603E-1
6.273400230E1,-2.603310585E0,-3.986855507E0,1.745774746E0
6.279399533E1,-2.283786774E0,-2.603248596E0,4.591390610E0
6.285398760E1,1.224195004E0,-5.744562149E-1,3.247334957E0
6.291398009E1,-3.445491791E-1,1.214688301E0,1.253614426E0
6.297397262E1,1.029587746E0,2.436390400E0,-6.104178429E-1
6.303396515E1,7.386264801E-1,3.014099121E0,-1.924838066E0
6.309395762E1,1.538530827E0,2.817756176E0,-3.876850128E0
6.315395018E1,-5.372188091E-1,2.106147766E0,-1.637869358E0
6.321394254E1,4.938700199E0,5.055160046E0,-8.266286850E0
6.327393488E1,4.027693272E0,2.303091049E0,-7.881869316E0
6.333392741E1,4.070205688E-1,1.492129564E0,4.180088043E-1
6.339391987E1,-3.459171057E0,-8.908009529E-1,-3.699720860E0
6.345391237E1,-4.081101894E0,-1.260779190E1,7.005559444E0
6.351390490E1,2.008652925E0,-4.104715347E0,5.182991982E0
6.357389843E1,-4.637784958E-1,-7.337493896E-1,1.293555260E0
6.363389263E1,6.579670906E-1,2.148675919E-1,1.896184921E0
6.369388702E1,3.998506069E-1,3.529567719E-1,1.304906845E0
6.375388132E1,8.233594894E-2,9.128937721E-1,-9.904317856E-1
6.381387565E1,-9.570422173E-1,1.173392057E0,1.221763611E0
6.387386891E1,2.540575504E0,2.048355103E0,-2.400839329E0
6.393386138E1,1.598294258E0,3.883172035E0,-4.562182903E0
6.399385364E1,3.358145237E0,4.393607616E0,-9.397782326E0
6.405384620E1,1.783225894E0,-2.905106544E-1,-9.608146667E0
6.411383867E1,-3.426485300E0,-6.892636299E0,4.698734283E-1
6.417383123E1,-1.678984165E-1,-3.553899765E0,-1.763553143E0
6.423382370E1,-3.733817577E0,-1.183131886E1,3.796065331E0
6.429381629E1,-1.416067123E0,-2.113110065E0,5.957035065E0
6.435380856E1,3.909835815E-1,1.166212559E0,6.322862148E0
6.441380092E1,-8.882093430E-1,1.150618553E0,4.557960033E0
6.447379342E1,-7.192664146E-1,5.168447495E-1,4.453083038E0
6.453378595E1,-1.186499596E-1,5.260634422E-1,2.168859959E0
6.459377841E1,1.227651834E0,6.721758842E-1,-9.370241165E-1
6.465377138E1,2.323794603E0,-9.262840748E-1,-4.624012470E0
6.471376471E1,8.983471394E-1,1.600153446E-1,-3.838065624E0
6.477375787E1,3.146162271E0,1.576089859E-1,-1.186462402E1
6.483375100E1,2.813191891E0,-1.011282682E0,-1.207529545E1
6.489374407E1,-2.376399040E-1,-4.787761211E0,-3.631999493E0
6.495373687E1,-3.191808462E0,-5.970841408E0,1.965894222E0
6.501372916E1,2.606077433E0,-9.065273285E0,-7.276475430E-1
6.507372163E1,-2.827664137E0,-5.162876129E0,5.276644707E0
6.513371409E1,-5.677394867E-1,-1.046451569E0,1.043599796E1
6.519370669E1,-1.912245989E0,-6.675720215E-2,7.195834160E0
6.525369908E1,-3.616032600E-1,1.691865921E-1,6.793806553E0
6.531369161E1,-3.952479362E-1,-2.126073837E-2,4.789718628E0
6.537368391E1,2.267361403E0,-7.337155342E-1,1.277571201E0
6.543367631E1,6.424310207E-1,4.503433704E-1,-3.442971230E0
6.549366877E1,1.583249569E0,1.494694591E0,-5.836688042E0
6.555366134E1,1.258654118E0,-6.631792784E-1,-6.993552685E0
6.561365380E1,1.687781096E0,1.624090672E0,-1.110950470E1
6.567364650E1,3.211301088E0,1.098275661E0,-9.463125229E0
6.573364040E1,-1.575880766E0,-2.822215557E0,3.330311775E-1
6.579363479E1,-4.883679390E0,-3.637183666E0,4.931122303E0
6.585362906E1,1.414302230E0,-1.204008484E1,4.858603477E-1
6.591362339E1,1.415679455E0,-1.787455559E0,5.686538219E0
6.597361755E1,1.996152401E-1,7.950887680E-1,8.504439354E0
6.603361045E1,-1.889079809E0,7.234272957E-1,5.718138218E0
6.609360268E1,-1.804847717E0,1.170279503E0,4.512252331E0
6.615359521E1,-6.038217545E-1,6.427946091E-1,2.782521248E0
6.621358774E1,1.884060383E0,-2.199292183E-1,-9.698801041E-1
6.627358030E1,1.423108578E0,-9.494943619E-1,-4.505829811E0
6.633357287E1,-7.079670429E-1,-1.044365883E0,-5.015068531E0
6.639356537E1,2.810868263E0,1.321374178E0,-6.709422112E0
6.645355770E1,4.780188084E0,3.067912817E0,-1.126797867E1
6.651355003E1,1.434492111E0,-3.782801628E-1,-2.329318047E0
6.657354242E1,-3.027624130E0,-3.968396187E-1,5.046329498E0
6.663353486E1,8.395269394E0,-7.741392612E0,-2.466047287E0
6.669352749E1,-4.743954182E0,-4.975312233E0,5.916357994E0
6.675352002E1,-1.082115650E0,1.188816071E0,7.934552193E0
6.681351318E1,-3.434405327E-1,2.380048275E0,4.203038692E0
6.687350635E1,-1.974053383E0,1.077987194E0,3.135257721E0
6.693349954E1,-8.443627357E-1,5.508079529E-1,2.301829338E0
6.699349258E1,4.763460159E-2,-6.018190384E-1,6.156501770E-1
6.705348570E1,9.035820961E-1,-8.713662624E-1,-2.816754341E0
6.711347814E1,5.195999146E-2,-1.900531769E0,-2.730586529E0
6.717347050E1,2.860076427E0,2.613425255E0,-8.512932777E0
6.723346296E1,7.546714783E0,5.283207893E0,-1.333820534E1
6.729345556E1,4.037900925E0,1.274542570E0,-6.426699638E0
6.735344802E1,-2.702984095E0,-3.672425270E0,5.056273460E0
6.741344055E1,-3.757022381E0,-7.069993973E0,6.958864212E0
6.747343305E1,-2.049179077E0,-1.171822548E1,1.678341150E0
6.753342538E1,-4.693455696E0,-1.584606171E-1,2.802922249E0
6.759341768E1,-8.796691895E-3,2.828979492E-1,6.801533699E0
6.765341028E1,-1.081136942E0,1.237332344E0,3.435634136E0
6.771340284E1,-1.214612007E0,9.232430458E-1,2.902025700E0
6.777339537E1,-4.881906509E-1,2.981734276E-1,1.229310036E0
6.783338840E1,8.411729336E-1,1.103917122E0,-1.456274033E0
6.789338253E1,6.476675987E0,1.719177485E0,-2.240151405E0
6.795337700E1,4.988009453E0,2.327313423E0,-7.165126801E0
6.801337150E1,4.593070507E0,1.652078986E0,-1.473872375E1
6.807336603E1,8.046045303E-1,1.112300158E0,-9.380059242E0
6.813336010E1,7.900925875E-1,-3.737265587E0,1.346659660E-1
6.819335299E1,-8.909065247E0,-1.331178379E1,2.097763538E0
6.825334529E1,2.101975679E-1,-7.677012444E0,6.932866573E0
6.831333782E1,-1.311056376E0,-3.893938065E-1,7.599807262E0
6.837333035E1,-1.432817936E0,1.736402988E0,3.339399815E0
6.843332285E1,-1.752490759E0,2.147183895E0,3.058489799E0
6.849331531E1,-6.977994442E-1,1.867286205E0,2.082887173E0
6.855330787E1,-9.739255905E-2,1.990782499E0,2.489910126E-1
6.861330014E1,8.249092102E-2,1.635284424E0,-1.831888199E0
6.867329254E1,1.320530891E0,1.210576773E0,-3.841209888E0
6.873328500E1,3.733197212E0,1.948115587E0,-6.497591019E0
6.879327760E1,5.574333668E-1,-5.680046082E-1,-2.289355755E0
6.885327006E1,-1.489177227E0,3.431339264E-1,6.754274368E-1
6.891326289E1,-1.410670519E0,1.829186440E0,-3.576819658E0
6.896331868E1,-5.338680744E-1,-8.003313065E0,-1.944983959E0
6.902331300E1,-3.103736162E0,-3.521785736E0,4.860445976E0
6.908330734E1,-3.915691376E-2,7.223672867E-1,6.193479538E0
6.914330167E1,-3.450321913E0,1.051096916E0,3.937592506E0
6.920329583E1,-1.563055992E0,9.386806488E-1,2.519724846E0
6.926328889E1,-8.334810734E-1,6.346635818E-1,2.505226135E-1
6.932328122E1,5.270018578E-1,-4.585099220E-1,-7.933526039E-1
6.938327359E1,9.625434875E-3,-5.405592918E-2,-4.332509518E0
6.944326612E1,5.867369175E-1,-3.898389339E-1,-4.733675957E0
6.950325858E1,4.222695827E0,2.227314711E0,-7.668364048E0
6.956325108E1,3.053484678E0,1.169905901E0,-7.871371746E0
6.962324361E1,4.105293751E-1,-1.859301567E0,-1.196554661E0
6.968323611E1,-3.498966455E0,-3.464437008E0,6.398851871E0
6.974322837E1,1.141451931E1,-6.549977779E0,-1.396323204E0
6.980322090E1,-6.274182796E0,-4.486614227E0,1.624980927E0
6.986321336E1,-1.533637524E0,-2.840518951E-2,5.752429485E0
6.992320589E1,-5.547909737E-1,-9.219360352E-2,5.032326221E0
6.998319839E1,-1.299382687E0,1.437246323E0,1.163883209E0
7.004319156E1,9.525156021E-1,7.843952179E-1,-9.030485153E-2
7.010318469E1,2.782456636E0,-1.865592003E-1,-1.718091965E0
7.016317788E1,1.649921894E0,1.240532160E0,-4.426800728E0
7.022317102E1,2.572184086E0,1.721234083E0,-3.680839539E0
7.028316411E1,4.289884567E0,5.003674030E0,-8.827436447E0
7.034315661E1,9.117038250E-1,3.083171844E0,-5.929920673E0
7.040314907E1,-3.676538229E0,-4.091567516E0,6.047244549E0
7.046314154E1,-3.528656244E0,-1.839766979E0,1.308460236E0
7.052313400E1,1.092692494E0,-1.034887981E1,2.662821770E0
7.058312653E1,-5.280843258E0,-7.702913284E-1,6.573138237E-1
7.064311906E1,2.506794930E-1,7.888698578E-2,6.916098118E0
7.070311146E1,-1.624260902E0,8.050231934E-1,1.814055920E0
7.076310382E1,1.082762003E0,6.523022652E-1,1.872307777E0
7.082309622E1,7.254154682E-1,8.616447449E-4,-1.316884995E0
7.088308875E1,6.162738800E-2,-2.866201401E-1,-3.243004322E0
7.094308128E1,-1.892106771E0,-6.304316521E-1,6.716399193E-1
7.100307374E1,8.395581245E-1,2.734133005E0,-3.420658588E0
7.106306664E1,2.238985300E0,4.933605671E0,-8.736786842E0
7.112306067E1,1.675772190E0,2.809056997E0,-4.621982574E0
7.118305524E1,-1.864870071E0,5.046205521E-1,5.833448410E0
7.124304971E1,4.649059296E0,-1.246675014E0,-1.841454506E0
7.130304431E1,-3.840336800E0,-1.120342922E1,1.581448078E0
7.136303837E1,-4.487565994E0,-3.586301804E-1,-2.446241379E-1
7.142303134E1,1.804267883E0,6.667337418E-1,5.660650253E0
7.148302363E1,-1.013195038E0,7.236289978E-1,1.944761276E0
7.154301623E1,-8.000793457E-1,5.668182373E-1,2.272598267E0
7.160300869E1,1.519002914E-1,5.903334618E-1,2.001157284E0
7.166300129E1,4.574460983E-1,5.502750874E-1,-8.762168884E-2
7.172299375E1,5.393686295E-1,-2.263820171E-1,-1.455244064E0
7.178298622E1,1.592854738E0,2.426625490E-1,-3.854215145E0
7.184297848E1,4.649129868E0,1.579844832E0,-1.041770554E1
7.190297098E1,3.330354214E0,-9.599804878E-2,-1.093593693E1
7.196296344E1,8.331010342E-1,-3.779470444E0,2.860832214E-1
7.202295597E1,-1.794150829E0,-6.031417847E-1,1.639060497E0
7.208294857E1,1.027462482E0,-1.258963871E1,1.835152626E0
7.214294127E1,-5.365044594E0,-3.621714592E0,1.657697678E0
7.220293503E1,1.037995100E0,1.232057095E0,7.786334991E0
7.226292940E1,2.635345459E-1,1.461585522E0,4.015464783E0
7.232292373E1,-5.233478546E-1,7.524986267E-1,3.224562645E0
7.238291799E1,1.075596809E-1,3.428020477E-1,-5.807609558E-1
7.244291216E1,8.489019871E-1,-4.902315140E-2,-1.566089153E0
7.250290502E1,7.046878338E-1,3.991119862E-1,-4.396941662E0
7.256289732E1,1.354962349E0,1.920573950E0,-2.392257214E0
7.262288978E1,4.995407104E0,3.857018948E0,-6.654666901E0
7.268288231E1,5.406217575E0,2.543249846E0,-9.224582672E0
7.274287484E1,-5.227463245E-1,-1.916702509E0,-3.373614788E0
7.280286744E1,-2.266184092E0,-1.724962711E0,1.367593288E0
7.286285990E1,3.809921265E0,-3.949022293E0,-8.402471542E0
7.292285230E1,-6.492604256E0,-8.450003624E0,6.303305626E0
7.298284463E1,1.959043741E0,4.626255035E-1,8.591155052E0
7.304283716E1,-2.050073862E0,-4.134922028E-1,6.991553783E0
7.310282962E1,-2.203010321E0,8.368759155E-1,4.807641029E0
7.316282222E1,1.108361959E0,4.956521988E-1,5.098805428E-1
7.322281472E1,2.527451515E-2,-8.417119980E-1,-5.306978226E0
7.328280792E1,6.658473015E-1,-1.736733437E0,-7.022088528E0
7.334280098E1,-1.105814457E0,-1.093389034E0,-1.009352684E0
7.340279418E1,2.301074505E0,5.249011993E0,-1.045891285E1
7.346278724E1,6.906542778E0,6.821300983E0,-7.776554585E0
7.352278040E1,-1.037256002E0,-1.925442219E0,5.595036030E0
7.358277290E1,-4.983521938E0,-5.214382172E0,9.697973251E0
7.364276533E1,3.730463982E-2,-7.226681709E0,4.294176102E-1
7.370275783E1,-2.103194714E0,-9.709711075E-1,1.584240198E0
7.376275043E1,-1.880735636E0,5.469484329E-1,5.138478756E0
7.382274289E1,-1.891190767E0,1.002948761E0,4.704144001E0
7.388273532E1,-3.035504818E0,-3.831682205E-1,6.942942142E0
7.394272775E1,-1.420264244E-1,8.677635193E-1,1.860631466E0
7.400272005E1,1.875226259E0,2.193593025E0,-2.097227573E0
7.406271245E1,1.638245106E0,2.252661943E0,-5.242746830E0
7.412270498E1,1.831904173E0,1.092139721E0,-3.513848305E0
7.418269751E1,2.622133493E0,1.475751281E0,-4.569428444E0
7.424269004E1,4.873012543E0,1.082346439E0,-8.806073189E0
7.430268307E1,1.456433296E0,-1.306279182E0,-4.837470055E0
7.436267713E1,2.159923315E0,2.624402046E-1,-5.741438866E-1
7.442267146E1,5.457112312E0,-3.719487667E0,-2.087943316E0
7.448266579E1,-1.636369133E1,-1.048291779E1,3.277415276E0
7.454266012E1,1.990800858E0,1.178857803E0,9.420273781E0
7.460265389E1,-8.778944016E-1,1.590504169E0,4.739866257E0
7.466264655E1,-2.148387432E0,1.902019501E0,1.816757679E0
7.472263882E1,-4.221167564E-1,1.079455853E0,1.973119259E0
7.478263128E1,6.346073151E-1,1.486144066E-1,4.215922356E-1
7.484262375E1,1.526192427E0,-1.867871284E-1,-1.261284828E0
7.490261634E1,1.313719988E0,-9.545326233E-1,-2.281155586E0
7.496260880E1,-8.002758026E-2,1.528908849E0,-5.095221996E0
7.502260140E1,4.693610668E0,4.194489002E0,-8.919118881E0
7.508259373E1,5.542184830E0,2.345841408E0,-7.515652657E0
7.514258610E1,-1.507552862E0,-1.359490395E0,-7.382979393E-1
7.520257856E1,-2.359952688E0,-4.328287125E0,1.156765938E0
7.526257116E1,-8.004723787E-1,-1.453655624E1,-1.195054054E-1
7.532256362E1,2.313827276E-1,-5.278710365E0,3.977644205E0
7.538255628E1,-2.502436638E-1,-1.240358353E-1,6.090149879E0
7.544254958E1,-3.582973719E0,7.149839401E-1,4.735977173E0
7.550254271E1,1.180197477E0,3.555817604E-1,6.223297119E0
7.556253578E1,2.407178879E-1,1.673146725E0,1.853316784E0
7.562252891E1,1.536327839E0,7.529380322E-1,-2.736278057E0
7.568252190E1,1.360865951E0,-1.571276188E-1,-6.229797363E0
7.574251424E1,2.058100700E-2,-1.049517155E0,-6.975164413E-1
7.580250670E1,2.825746059E0,5.583338261E0,-1.412783909E1
7.586249916E1,3.213663816E0,3.496548653E0,-9.591353416E0
7.592249169E1,7.480096817E-2,-9.093194008E-1,1.481236458E0
7.598248422E1,-4.480968475E0,-6.408437729E0,8.802890778E0
7.604247675E1,1.790353417E0,-1.196707821E1,1.272633076E0
7.610246909E1,-4.406450272E0,-3.130524635E0,2.267789364E0
7.616246148E1,2.777392864E-1,-7.593698502E-1,7.207863808E0
7.622245388E1,3.615283966E-2,6.188273430E-1,2.256860733E0
7.627251004E1,1.923816204E-1,1.502749920E0,4.003481388E0
7.633250251E1,5.716173649E-1,2.027796030E0,2.018939018E0
7.639249504E1,6.155290604E-1,2.980385303E0,-1.123891830E0
7.645248824E1,1.374092340E0,3.079396725E0,-1.873921871E0
7.651248254E1,6.727441549E-1,2.376921892E0,-3.515776634E0
7.657247697E1,8.224486113E-1,8.403331041E-1,-4.603769302E0
7.663247150E1,2.705765247E0,2.532683372E0,-7.575737000E0
7.669246603E1,1.919942379E0,3.237090111E-1,-7.164371014E0
7.675245986E1,2.020323277E-2,-4.709161758E0,-2.403270721E0
7.681245253E1,5.494635105E-1,-3.008391857E0,-3.396541595E0
7.687244502E1,-4.054391384E-1,-1.471051502E1,-1.127597332E0
7.693243756E1,-4.513184547E0,-9.626424789E0,5.356283188E0
7.699243009E1,-9.207298756E-1,-2.100954056E0,8.404577255E0
7.705242258E1,-3.872331381E0,6.604771614E-1,9.854143143E0
7.711241508E1,-9.607536793E-1,3.303411484E0,6.179794312E0
7.717240748E1,3.581690788E-1,3.039924860E0,2.255354404E0
7.723239984E1,1.173116922E0,1.243080616E0,1.279292107E-1
7.729239237E1,1.422175646E0,1.472501636E0,-2.766168594E0
7.735238484E1,1.041218758E0,5.835381746E-1,-5.427837372E0
7.741237740E1,4.845328331E-1,-4.157056808E0,-5.551245689E0
7.747236986E1,2.590591669E0,-1.256288052E0,-1.251574707E1
7.753236276E1,2.949094534E0,-2.988818884E-1,-1.370020866E1
7.759235666E1,4.528245926E-1,-4.098668575E0,-1.995753288E0
7.765235106E1,-7.193031311E0,-8.697360992E0,8.855468750E0
7.771234532E1,2.623676300E0,-8.389025688E0,1.295318127E0
7.777233972E1,-2.379159689E0,-3.130708694E0,3.236838102E0
7.783233358E1,-2.149779797E-1,4.734106064E-1,1.034770679E1
7.789232628E1,6.441335678E-1,1.082932949E0,6.143021584E0
7.795231854E1,-2.848590374E0,1.531787872E0,3.214977026E0
7.801231111E1,5.759105682E-1,4.155130386E-1,1.815681934E0
7.807230357E1,3.516454697E-1,-8.856296539E-2,-1.164704800E0
7.813229617E1,-2.091879368E0,-5.857016563E0,-6.785488129E-1
7.819228873E1,6.284902096E-1,3.853404999E0,-7.267654419E0
7.825228126E1,9.628233910E0,9.593219757E0,-1.278126907E1
7.831227359E1,3.665245295E0,8.258366585E0,-9.743318558E0
7.837226602E1,-8.066966534E-1,-3.426251888E0,3.197192192E0
7.843225848E1,-3.911904573E0,-7.323311806E0,6.265157223E0
7.849225098E1,-3.750158548E-1,-1.784361076E1,4.611192703E0
7.855224351E1,-2.750214338E0,-3.721321106E0,2.743951559E0
7.861223614E1,1.317755699E0,-4.125843048E-1,2.582741499E0
7.867222931E1,-1.040406227E0,7.010135651E-1,2.252203941E0
7.873222244E1,-9.845771790E-1,2.299932480E0,2.254708290E0
7.879221557E1,1.025120974E0,1.873778820E0,-7.966804504E-2
7.885220870E1,7.397708893E-1,-6.542253494E-2,-2.944267750E0
7.891220170E1,-4.253110886E-1,-5.953366280E0,1.251073360E0
7.897219403E1,1.392611265E0,4.493517399E0,-6.795406818E0
7.903218652E1,7.405232430E0,9.071956635E0,-1.356494522E1
7.909217906E1,2.143561840E0,5.336577892E0,-4.260674953E0
7.915217158E1,-3.259231806E0,-3.086394310E0,8.584247589E0
7.921216408E1,1.514148712E0,-8.937300682E0,4.605303288E0
7.927215668E1,-2.638613701E0,-1.138147449E1,4.439189434E-1
7.933214898E1,-6.222443581E-1,-6.633319855E-1,2.950922966E0
7.939214131E1,7.828524113E-1,-3.162727356E-1,6.043003559E0
7.945213374E1,-1.726670504E0,1.128300667E0,2.460484505E0
7.951212630E1,-3.390097618E-1,1.559596539E0,2.258012772E0
7.957211877E1,3.233697414E-1,2.925503254E0,1.508828640E0
7.963211136E1,1.612435341E0,3.572793961E0,-5.507245064E-1
7.969210466E1,1.840544343E0,2.393974304E0,-2.580862045E0
7.975209889E1,1.310038567E0,1.094844341E0,-4.347074986E0
7.981209316E1,4.280730247E0,1.537381411E0,-9.086075783E0
7.987208755E1,4.473129511E-1,-2.357398748E0,-8.994373322E0
7.993208182E1,-2.226702929E0,-8.014446259E0,-3.098023415E0
7.999207531E1,-3.777047396E0,-7.747405529E0,-3.392877102E0
8.005206778E1,2.022330523E0,-8.162144661E0,-6.575284004E-1
8.011206011E1,2.023094893E-1,-3.891645432E0,3.140257359E0
8.017205254E1,-5.687963963E-1,-2.152585030E0,8.024304390E0
8.023204507E1,-1.667144060E0,-5.982151031E-1,8.019276619E0
8.029203760E1,-9.596076012E-1,6.385431290E-1,7.799907684E0
8.035203013E1,-6.711044312E-1,1.787352562E0,8.578976631E0
8.041202269E1,1.282076359E0,2.255480766E0,5.985582829E0
8.047201499E1,1.527829885E0,1.158030272E0,-1.547641277E0
8.053200739E1,3.053669930E-1,-1.959646940E0,-7.288640976E0
8.059199992E1,5.077438354E-1,8.227288723E-1,-7.204135418E0
8.065199245E1,2.319067478E0,2.707900524E0,-1.600950241E1
8.071198488E1,4.176396370E0,2.688535452E0,-1.289988899E1
8.077197778E1,-1.120005608E0,-3.045890808E0,-2.380488873E0
8.083197098E1,-5.523270607E0,-8.030536652E0,5.150802135E0
8.089196411E1,3.086149693E0,-1.114608669E1,1.896532536E0
8.095195717E1,2.743297100E0,-6.117377281E0,3.258126259E0
8.101195037E1,6.127866507E-1,-1.765334129E0,3.562315941E0
8.107194313E1,-2.009961843E0,-1.741706848E0,9.691785812E0
8.113193553E1,1.515556097E0,-7.203874588E-1,1.010754299E1
8.119192793E1,4.486339092E-1,6.015348434E-1,1.008714867E1
8.125192046E1,1.477953434E0,2.558175564E0,2.619693279E0
8.131191295E1,-9.244182110E-1,1.315043211E0,-1.189046478E1
8.137190555E1,2.637868881E0,-2.183952332E-1,-4.423807144E0
8.143189801E1,2.895043135E0,5.331871986E0,-1.871654510E1
8.149189041E1,3.539936781E0,2.260841370E0,-1.252412987E1
8.155188281E1,-8.570909500E-1,-4.096436501E-1,-4.194896221E0
8.161187531E1,-3.674759865E0,-6.182208061E0,6.397617817E0
8.167186777E1,3.726809502E0,-8.923403740E0,3.102095366E0
8.173186030E1,-7.757058144E-1,-6.277812958E0,3.954984665E0
8.179185290E1,6.051230431E-1,-1.061166763E0,8.069454193E0
8.185184663E1,4.283738136E-1,-5.467920303E-1,7.883405685E0
8.191184096E1,-1.192175865E0,1.208352566E0,6.776780128E0
8.197183522E1,-4.481875896E-1,2.413965702E0,4.031779289E0
8.203182955E1,9.804472923E-1,1.934585571E0,1.129462242E0
8.209182382E1,-1.800990105E-2,9.533569813E-1,-5.125907898E0
8.215181688E1,-1.247302771E0,1.365938425E0,-6.223131180E0
8.221180915E1,1.655802250E0,2.256433487E0,-4.416845322E0
8.227180154E1,5.898811817E0,5.369976044E0,-1.022691536E1
8.233179401E1,6.650711536E0,4.343489170E0,-7.695516109E0
8.239178657E1,3.087709188E0,1.560043812E0,-1.555331707E0
8.245177904E1,-1.872221470E0,-5.068181992E0,7.886484623E0
8.251177163E1,5.510204315E0,-1.524454498E1,5.255880356E-1
8.257176410E1,-2.535692215E0,-5.657721519E0,8.804130554E-1
8.263175649E1,2.482203245E0,-9.857854843E-1,8.411165237E0
8.269174876E1,1.291857004E0,1.246208668E0,3.026895523E0
8.275174129E1,7.515666485E-1,1.987269402E0,2.699627876E0
8.281173375E1,1.074593782E0,1.748853683E0,1.389856339E0
8.287172635E1,5.654871464E-1,1.809916973E0,-8.254098892E-1
8.293171938E1,2.247240543E0,9.633040428E-1,-2.158158779E0
8.299171268E1,9.316844940E-1,2.956942797E0,-1.888288021E0
8.305170581E1,4.120956421E0,4.736045837E0,-6.839216709E0
8.311169894E1,6.280169010E0,4.694374084E0,-1.205429077E1
8.317169200E1,2.073774338E0,1.266584396E-1,-3.714660645E0
8.323168464E1,-1.150547266E0,-2.785587311E0,1.744979382E0
8.329167697E1,2.900999069E0,-1.222846031E1,-2.143570185E0
8.335166946E1,-4.148515701E0,-8.132616043E0,4.506421089E-1
8.341166199E1,9.428235292E-1,-4.226770401E-1,5.130472660E0
8.347165452E1,-2.675788403E-1,9.343814850E-2,5.174165726E0
8.353152686E1,-2.548178434E0,3.075747490E-1,3.062329292E0
8.359151939E1,-1.156054974E0,1.368630409E0,1.786521435E0
8.365151175E1,-7.766246796E-2,1.823608398E0,2.766132355E-1
8.371150408E1,4.280806541E0,4.751267433E-1,-3.232462883E0
8.377149661E1,2.084479332E-1,2.811515331E0,-3.292597771E0
8.383148911E1,8.111443520E-1,3.295265198E0,-5.370416164E0
8.389148164E1,1.215433598E0,3.672773361E0,-5.907466412E0
8.395147450E1,5.785997868E0,3.496694088E0,-8.417240143E0
8.401146857E1,2.706001282E0,-1.734302044E0,-3.915741682E0
8.407146304E1,-3.332138062E-2,-2.540649891E0,-4.489598274E-1
8.413145760E1,1.597228765E0,-8.481894493E0,1.189442158E0
8.419145207E1,-7.777644634E0,-1.049151516E1,1.678547859E-1
8.425144626E1,-1.712900400E0,-3.575305939E-1,3.187198162E0
8.431143920E1,-1.691121817E0,-8.428897858E-1,8.680572510E0
8.437143160E1,-2.161641121E0,1.235746384E0,4.030408859E0
8.443142406E1,8.663434982E-1,2.246116877E0,2.147736549E0
8.449141666E1,1.185413361E0,1.592709303E0,-4.103984833E-1
8.455140912E1,2.550086498E0,9.663189650E-1,-3.692366600E0
8.461140165E1,5.115380764E0,-1.199295759E0,-5.194256783E0
8.467139418E1,3.780972004E0,4.714113474E-1,-7.934410095E0
8.473138658E1,6.890479088E0,2.748130322E0,-1.614379501E1
8.479137891E1,3.554224968E-1,-8.061976433E-1,-7.891997337E0
8.485137144E1,-3.010927677E0,-7.589251518E0,6.934362411E0
8.491136397E1,3.687432289E0,-7.645845413E0,-6.006597042E0
8.497135643E1,-5.486217499E0,-4.280398369E0,2.703230619E0
8.503134906E1,-2.931194305E-1,-8.803205490E-1,9.367668152E0
8.509134286E1,-6.607751846E-1,1.090570927E0,4.713332176E0
8.515133719E1,-1.336836576E0,1.041217804E0,4.062091827E0
8.521133152E1,-9.538817406E-2,1.120301247E0,2.042366505E0
8.527132589E1,-1.188376188E0,1.338093281E0,1.855902672E-1
8.533131998E1,-1.079353809E0,1.008927822E0,-4.824314117E-1
8.539131298E1,-4.138953686E-1,1.305191875E0,-4.081928730E0
8.545130535E1,7.399950027E-1,1.250428677E0,-8.798313141E0
8.551129774E1,5.461508751E0,5.770340443E0,-1.335773182E1
8.557129018E1,3.374621868E0,1.131618261E0,-7.931656361E0
8.563128277E1,-3.213135719E0,-6.162806511E0,7.883489132E0
8.569127524E1,1.185840368E0,-4.704967499E0,1.269070625E0
8.575126773E1,-2.545934439E0,-9.759208679E0,2.260729313E0
8.581126016E1,-2.162235260E0,-9.922580719E-1,2.059492111E0
8.587125256E1,-2.376131296E0,-2.584595680E-1,7.513765335E0
8.593124492E1,-4.246859550E-1,6.245031357E-1,5.428260326E0
8.599123752E1,-8.151133060E-1,1.018221378E0,2.816640377E0
8.605122998E1,6.260139942E-1,6.007122993E-1,6.180496216E-1
8.611122252E1,-1.729791164E-1,9.447815418E-1,-2.692827702E0
8.617121561E1,-1.595666409E-1,5.555579662E-1,-1.586635590E0
8.623120891E1,1.907207251E0,1.593520880E0,-3.556095600E0
8.629120201E1,4.069760323E0,2.797070026E0,-1.071104527E1
8.635119521E1,3.414175510E0,-1.006023645E0,-1.158156204E1
8.641118830E1,1.317627788E0,-2.895807505E0,-5.725645542E0
8.647118080E1,-5.406170845E0,-9.030184746E0,6.291998386E0
8.653117313E1,5.165265083E0,-7.246737003E0,-3.839965105E0
8.659116563E1,-3.544716835E0,-3.472368240E0,1.461510181E0
8.665115809E1,-1.709015846E0,-1.290989876E0,9.824899673E0
8.671115066E1,6.692678928E-1,1.450325966E0,4.769062519E0
8.677114322E1,-1.662570000E0,5.397682190E-1,4.011749268E0
8.683113562E1,-9.752798080E-2,2.219123840E-1,2.016202450E0
8.689112802E1,-6.429147720E-2,7.588138580E-1,6.367015839E-1
8.695112041E1,3.891279697E-1,1.580079794E0,-1.306148052E0
8.701111291E1,9.819681644E-1,2.587392330E-1,-9.941959381E-2
8.707110534E1,2.675106764E0,6.249860525E-1,-1.475526810E0
8.713109794E1,5.412853718E0,2.657038212E0,-1.074183464E1
8.719109083E1,4.310402870E0,2.065279245E0,-1.216756916E1
8.725108493E1,1.484128118E0,-1.212313890E0,-3.489403248E0
8.731107940E1,-5.552215099E0,-5.597500801E0,1.487177849E0
8.737107400E1,-1.121144295E-1,-1.432106972E1,-1.361602783E0
8.743106846E1,-4.062890053E0,-5.044044495E0,3.488468647E0
8.749106256E1,-1.951782703E0,-4.992675781E-1,4.913558483E0
8.755105539E1,-6.109783649E-1,8.703360558E-1,3.864908218E0
8.761104779E1,-1.007832527E0,1.848009109E0,3.384713650E0
8.767104029E1,2.966115475E-1,1.787070274E0,1.758717537E0
8.773103288E1,1.124656916E0,1.641742945E0,-3.077125549E-1
8.779102538E1,-3.741545677E-1,8.759815693E-1,-6.476840496E0
8.785101791E1,1.460864902E0,5.661371946E-1,-1.429975510E0
8.791101037E1,3.046585798E0,3.070405006E0,-1.018596172E1
8.797100274E1,1.322358131E0,1.833365917E0,-1.203994846E1
8.803099514E1,-6.177775860E-1,-3.534662724E0,-1.514153481E0
8.809098763E1,-4.014001846E0,-4.642191887E0,-1.474909782E-1
8.815098016E1,2.610312939E0,-1.204404163E1,-2.280020714E0
8.821097269E1,5.889919996E-1,-7.549407005E0,5.763957977E0
8.827096536E1,1.578718662E0,-1.094511032E0,4.605851173E0
8.833095919E1,-3.638552189E0,-1.627195358E0,7.891681671E0
8.839095355E1,1.978590488E-1,3.588581085E-1,4.349692822E0
8.845094788E1,2.494897842E-1,1.238469124E0,4.191634655E0
8.851094221E1,3.562140465E-2,1.258554459E0,1.762187958E0
8.857093634E1,5.686759949E-2,2.526974201E0,-3.761814594E0
8.863092924E1,7.469646931E-1,2.305579424E0,-5.615052223E0
8.869092147E1,1.259772778E0,1.128831625E0,-8.011349678E0
8.875091394E1,3.028190136E0,-9.452282190E-1,-8.753580093E0
8.881090647E1,2.716040611E0,-2.119028091E0,-8.122189522E0
8.887089900E1,1.270364642E0,-4.461739063E0,-1.051709175E0
8.893089146E1,-3.120460510E-1,-4.662224293E0,3.369426250E0
8.899088406E1,6.270538807E0,-1.231970882E1,-4.391584396E-1
8.905087639E1,-6.139832735E-1,-7.175362587E0,3.912707329E0
8.911086875E1,-1.072977781E-1,-1.830289841E0,5.103636742E0
8.917086122E1,-4.974094391E0,-8.972215652E-1,6.503523827E0
8.923085381E1,-5.921721458E-2,-3.074092865E-1,7.569767952E0
8.929084628E1,-3.985054493E-1,4.414319992E-1,2.802676201E0
8.935083891E1,9.548406601E-1,-3.868188858E-1,-2.017300606E0
8.941083200E1,2.692668438E0,2.137537003E-1,-5.889914036E0
8.947082514E1,4.411304951E0,2.442756653E0,-5.249386787E0
8.953081820E1,3.478995562E0,3.020373821E0,-1.364923286E1
8.959081140E1,4.972579002E0,4.717118740E0,-1.213288498E1
8.965080443E1,1.664940238E0,-1.315591335E0,-2.498902321E0
8.971079689E1,-2.033248186E0,-3.714118004E0,4.441204071E0
8.977078932E1,2.933873177E0,-9.869709015E0,1.806807041E0
8.983078185E1,-1.372587681E0,-8.634302139E0,2.245236874E0
8.989077432E1,-2.225276947E0,-1.784731865E0,3.800377846E0
8.995076685E1,-5.446939468E0,-1.659576416E0,7.106027603E0
9.001075938E1,-1.130968571E0,7.353744507E-1,7.314185143E0
9.007075181E1,-1.361478806E0,2.678992271E0,3.636524677E0
9.013074414E1,-4.519195557E-1,2.938135624E0,6.470904350E-1
9.019073654E1,1.846781969E0,2.874788046E0,-2.313110352E0
9.025072903E1,1.888399363E0,1.792089462E0,-5.046743393E0
9.031072163E1,2.134919167E0,-1.007303238E0,-8.024998665E0
9.037071416E1,4.778295517E0,-8.569645286E-1,-8.449570656E0
9.043070722E1,3.724844933E0,7.486596107E-1,-1.166481018E1
9.049070142E1,-2.472849607E0,-6.742094517E0,4.840028286E0
9.055069572E1,-6.151427031E-1,-8.052982330E0,5.025381565E0
9.061068998E1,1.049796343E-1,-1.066522884E1,3.229408264E-1
9.067068425E1,-1.147787094E0,-1.864390373E0,2.395294189E0
9.073067804E1,-2.116054773E0,-7.244253159E-1,8.378125191E0
9.078070539E1,-5.054036140E0,1.205089092E0,5.333116531E0
9.084069779E1,-1.959985256E0,1.377850056E0,7.288847923E0
9.090069022E1,-2.152860641E0,2.081642151E0,5.190055370E0
9.096068275E1,5.600142479E-1,2.938135624E0,1.439511299E0
9.102067528E1,1.454679489E0,9.795153141E-1,-6.025595665E-1
9.108066781E1,3.550601006E-1,-9.409912825E-1,-5.904519081E0
9.114066027E1,1.807739854E0,-2.104276419E0,-3.692693233E0
9.120065264E1,4.348760605E0,-5.935788155E-2,-1.214693069E1
9.126064497E1,1.780101299E0,-3.120706558E0,-1.178900433E1
9.132063746E1,-7.421290874E-1,-5.940782547E0,-4.531742096E0
9.138063000E1,-9.395329952E-1,-5.694780350E0,-1.377382278E0
9.144062246E1,3.368940830E0,-9.762509346E0,-6.751995087E-1
9.150061509E1,-3.881818056E0,-5.808836937E0,8.486539841E0
9.156060836E1,1.221454382E0,-1.209623337E0,1.321131325E1
9.162060152E1,-5.464232445E0,-5.364913940E-1,8.350855827E0
9.168059458E1,-2.502713203E0,8.580560684E-1,6.644410133E0
9.174058778E1,4.179930687E-1,2.296671867E0,4.275653839E0
9.180058074E1,1.813520670E0,2.028977633E0,1.985578537E-1
9.186057314E1,8.791284561E-1,2.389245272E0,-2.754565239E0
9.192056551E1,-1.843077183E0,3.887772560E-2,-5.171732426E0
9.198055810E1,1.610135078E0,6.964159608E-1,-6.384974003E0
9.204055057E1,5.381353855E0,2.578567982E0,-1.112151527E1
9.210054316E1,6.446524143E0,3.521791458E0,-1.066653156E1
9.216053563E1,2.911781311E0,-5.330607891E-1,-4.033312321E0
9.222052806E1,-1.831121922E0,-6.528119564E0,1.101078987E1
9.228052032E1,1.639787674E0,-8.016450882E0,2.060961246E0
9.234051288E1,-2.191379547E0,-5.860258102E0,4.193757057E0
9.240050535E1,3.215994835E-1,1.684749603E0,4.892223358E0
9.246049788E1,-8.798646927E-1,2.022028446E0,6.505276203E0
9.252049041E1,-6.339492798E-1,1.646635532E0,5.512225628E0
9.258048371E1,-6.871190071E-1,1.389891148E0,3.371825695E0
9.264047784E1,2.350883484E-1,6.627423763E-1,3.091812134E-3
9.270047237E1,1.854693651E0,1.104713440E0,-2.253210068E0
9.276046690E1,-4.259088039E0,-2.520738602E0,-2.464199066E-2
9.282046144E1,5.201050282E0,3.908324718E0,-1.150836372E1
9.288045520E1,7.398432732E0,4.599688530E0,-1.252569485E1
9.294044783E1,8.661353588E-1,-1.865891457E0,-1.189734936E0
9.300044030E1,-4.210862160E0,-4.863473415E0,4.970522881E0
9.306043283E1,4.957200050E0,-9.164896011E0,1.659984589E-1
9.312042536E1,-5.725505829E0,-4.337986946E0,4.458572865E-1
9.318041789E1,-8.330554962E-1,-2.290611267E-1,5.992124081E0
9.324041049E1,1.996325016E0,1.038079262E-1,5.130440712E0
9.330040282E1,-2.378671169E0,-1.956920624E-1,2.087575436E0
9.336039518E1,-1.495122910E-2,8.937950134E-1,3.382164478E0
9.342038765E1,1.364888906E0,5.944190025E-1,1.510656834E0
9.348038018E1,6.769742966E-1,9.620153904E-1,-2.774929523E0
9.354037264E1,2.477812290E0,4.943058491E-1,-4.790001869E0
9.360036524E1,4.206674099E0,2.015103817E0,-5.035668373E0
9.366035817E1,6.359262466E0,4.470591068E0,-1.283809280E1
9.372035213E1,1.936105013E0,-2.006376266E0,-3.902395248E0
9.378034640E1,-3.620767355E0,-6.425038338E0,7.515692711E0
9.384034079E1,3.488087416E0,-8.771009445E0,-1.000422001E0
9.390033506E1,-4.060463905E0,-5.942498207E0,3.577041626E-2
9.396032895E1,-1.662812948E0,-1.179806232E0,6.354329109E0
9.402032165E1,8.602039814E-1,1.716772556E0,3.668872356E0
9.408031398E1,-1.084756851E0,2.008674622E0,1.862214088E0
9.414030641E1,-1.129598141E0,1.610678196E0,1.754282951E0
9.420029901E1,1.211924314E0,1.857836246E0,7.040982246E-1
9.426029147E1,-9.380927086E-1,-5.038802624E-1,-2.659683704E0
9.432028404E1,2.370814800E0,7.240142822E-1,-1.827622414E0
9.438027657E1,7.254089355E0,5.204858780E0,-9.895696640E0
9.444026893E1,3.982118130E0,2.773425102E0,-9.994038582E0
9.450026123E1,-1.799579382E0,-5.078979015E0,5.123231411E0
9.456025376E1,2.185161114E-1,-2.050942421E0,-2.283864498E0
9.462024626E1,-3.856461287E0,-1.215675831E1,-6.538496017E-1
9.468023879E1,-1.378123760E0,-3.309857368E0,1.142826557E0
9.474023145E1,8.894724846E-1,1.356105804E-1,7.687442303E0
9.480022468E1,-3.703240633E0,1.454669476E0,4.817415237E0
9.486021781E1,-2.060001373E0,6.413750648E-1,6.232488632E0
9.492021094E1,-6.370244026E-1,4.762191772E-1,5.918542862E0
9.498020407E1,2.085163593E0,1.720642328E0,6.030693054E-1
9.504019700E1,-5.359835625E-1,-4.469180107E-1,-5.997115612E0
9.510018940E1,3.342772484E0,-2.004006863E0,-1.167956352E0
9.516018180E1,1.963219881E0,-3.458675742E-1,-1.513514137E1
9.522017433E1,9.593558311E-1,-3.224450111E0,-1.282427788E1
9.528016679E1,2.890095234E0,-5.011714458E0,-2.094442368E0
9.534015942E1,-3.793723345E0,-8.726032257E0,7.031237125E0
9.540015189E1,-4.885359764E0,-9.819840431E0,-2.329789162E0
9.546014435E1,-1.281032324E0,-2.631459236E0,6.591681004E0
9.552013662E1,-2.482157707E0,-8.568353653E-1,8.830167770E0
9.558012915E1,-4.090699196E0,2.220891953E0,3.816937923E0
9.564012158E1,-6.838295460E-1,2.218902588E0,5.733135700E0
9.570011417E1,-2.181897163E-1,2.078744888E0,2.141368866E0
9.576010664E1,-4.127144814E-2,6.243972778E-1,-1.020689011E0
9.582010010E1,5.254890919E-1,-6.004879475E-1,-5.632907867E0
9.588009430E1,-9.463162422E-1,-7.867226601E0,-5.154501915E0
9.594008863E1,3.823472500E0,4.176594734E0,-1.359362507E1
9.600008289E1,6.448488235E0,4.856703281E0,-9.269589424E0
9.606007722E1,-1.106755495E0,-3.581790447E0,2.655931950E0
9.612007062E1,-1.421489358E0,-4.035284519E0,5.069126606E0
9.618006309E1,7.325338840E0,-9.687653542E0,-9.826736450E-1
9.624005542E1,-3.360163450E0,-4.689249992E0,1.417259932E0
9.630004788E1,-2.265635729E0,-5.601263046E-1,5.291950226E0
9.636004041E1,-2.460124731E0,-2.235860825E-1,4.897241116E0
9.642003298E1,-2.620470524E0,-6.204113960E-1,7.506995201E0
9.648002550E1,6.546938419E-1,-1.488580704E-1,5.898165703E-1
9.654001800E1,1.227154970E0,6.020998955E-1,-6.307646751E0
9.660001040E1,2.966972828E0,2.612369061E0,-8.302228928E0
9.666000276E1,-6.543748379E0,-2.580017567E0,-1.295610619E1
9.671999533E1,8.568187714E0,9.372917175E0,-1.028286362E1
9.677998779E1,9.539744854E-1,2.599936962E0,-2.678247929E0
9.683998042E1,-3.008960009E0,-6.777092934E0,1.097313786E1
9.689997329E1,2.669345856E0,-6.707634926E0,3.824053764E0
9.695996655E1,-4.248185158E0,-9.018190384E0,-2.295546532E-1
9.701995955E1,-1.384989500E0,1.204147339E-1,1.200538397E0
9.707995268E1,-3.249092817E0,-3.509473801E-1,5.637645721E0
9.713994568E1,-1.374824524E0,1.277543545E0,2.996328831E0
9.719993848E1,7.996058464E-2,1.689313889E0,2.207583904E0
9.725993077E1,5.554196835E-1,2.037903309E0,-4.547743797E-1
9.731992330E1,8.124892712E-1,1.718456745E0,-3.937619209E0
9.737991583E1,-4.331216812E-1,-1.859190464E-1,-7.791393280E0
9.743990836E1,4.366853714E0,2.335161209E0,-5.424771309E0
9.749990083E1,3.622497320E0,7.296801567E0,-1.183304596E1
9.755989336E1,3.339664936E-1,2.550253868E-1,-8.382120132E-1
9.761988569E1,-2.643538713E0,-6.775749683E0,1.174700356E1
9.767987802E1,1.493071079E0,-4.635261536E0,-1.494827271E0
9.773987055E1,-1.648794413E0,-7.346508026E0,1.656577110E0
9.779986305E1,3.986501694E-1,2.250537872E-1,1.671046495E0
9.785985568E1,-4.987811089E0,-1.467793465E0,7.315722466E0
9.791984827E1,-1.248070955E0,3.518629074E-2,3.591114998E0
9.797984210E1,7.717256546E-1,1.250709057E0,3.155668259E0
9.803983650E1,5.263628960E-1,1.277920246E0,-5.527000427E-1
9.809982960E1,1.276338339E0,2.191700459E0,-4.817386627E0
9.815982396E1,1.941105127E0,3.175086975E0,-6.863861084E0
9.821981843E1,2.628020525E0,9.788088799E-1,-6.082110882E0
9.827981159E1,5.156621456E0,6.024040222E0,-1.010581589E1
9.833980406E1,1.887377143E0,2.832217216E-1,-3.777551651E-2
9.839979652E1,-4.481857300E0,-5.946997643E0,7.476548195E0
9.845978912E1,6.628712654E0,-7.140134811E0,-3.131589413E0
9.851978158E1,-3.901499510E0,-5.212146759E0,-1.114339352E0
9.857977411E1,1.167626381E0,-9.881210327E-2,3.960806370E0
9.863976657E1,-1.706722736E0,-2.871217728E-1,4.548746109E0
9.869975897E1,-2.435655594E0,9.947810173E-1,2.244160175E0
9.875975134E1,-9.441375732E-1,5.662388802E-1,2.692896366E0
9.881974387E1,1.808910370E-1,8.365440369E-1,2.396850586E-1
9.887973640E1,1.520343065E0,1.387746811E0,-3.957610130E0
9.893972893E1,2.407071829E0,1.782917261E0,-5.205931664E0
9.899972142E1,4.213401318E0,2.690502644E0,-8.388152122E0
9.905971489E1,4.033308506E0,1.707659364E0,-9.216667175E0
9.911970915E1,9.406461716E-1,-1.104989052E0,-2.755810261E0
9.917970348E1,-1.846446276E0,-5.500455379E0,5.141915798E0
9.923969781E1,-1.908077002E0,8.655805588E-1,-5.412695408E0
9.929969214E1,-2.934328318E0,-1.126525402E1,5.426759720E-1
9.935968544E1,-8.346261978E-1,-4.751111984E0,4.735952377E0
9.941967784E1,-1.764917850E0,-6.190528870E-1,6.554718971E0
9.947967024E1,-5.115872383E0,-8.900356293E-2,6.164959908E0
9.953966277E1,-3.013583183E0,1.408538342E0,3.304606199E0
9.959965526E1,-5.721912384E-1,2.056138992E0,1.686031818E0
9.965964773E1,4.136091232E0,1.388055801E0,1.022481441E0
9.971964026E1,3.356632710E0,-3.935487270E-1,-4.859712601E0
9.977963275E1,4.670019150E-1,-1.625538349E0,-5.838970184E0
9.983962509E1,2.602944851E0,1.664605141E0,-9.346224785E0
9.989961745E1,4.370136738E0,2.530520916E0,-1.117885685E1
9.995961004E1,1.979704976E0,-1.402806282E0,-5.664024353E0
1.000196025E2,-3.873799801E0,-6.062644005E0,2.976734638E0
1.000795950E2,-4.496472359E0,-9.026648521E0,6.097030640E-1
1.001395879E2,-8.199481964E-1,-1.028814602E1,3.104449272E0
1.001995812E2,-4.184359550E0,-1.985835075E0,6.279520035E0
1.002595743E2,-9.136842728E0,-6.942911148E-1,7.670624733E0
1.003195675E2,6.158785820E-1,1.183794975E0,5.746347427E0
1.003795606E2,1.043297529E0,3.133060217E0,1.009965897E0
1.004395533E2,5.394361019E-1,2.455311775E0,-4.528520107E0
1.004995456E2,1.168498039E0,8.031651974E-1,-4.644603252E0
1.005595382E2,1.162341595E0,2.091009617E-1,-4.859134674E0
1.006195306E2,9.485306740E-1,1.681747437E0,-4.363458633E0
1.006795231E2,6.113327503E0,5.086852551E0,-9.838575363E0
1.007395157E2,3.322295427E0,2.965059519E0,-8.605611801E0
1.007995082E2,6.809263229E-1,-8.778672218E-1,3.400309563E0
1.008595004E2,-3.123615980E0,-6.527042389E0,8.999025345E0
1.009194928E2,6.783411503E-1,-1.478341293E1,-5.262088776E-1
1.009794854E2,-5.032648087E0,-3.193285942E0,2.593586445E0
1.010394779E2,-5.565805435E0,-3.371286392E-1,7.050435543E0
1.010994704E2,1.942572594E-1,2.966625214E0,2.135124683E0
1.011594631E2,1.713063478E0,3.272688866E0,1.967821121E0
1.012194569E2,2.406363249E0,2.294710398E0,2.367162704E-1
1.012794513E2,1.028806925E0,5.432126522E-1,-1.161713123E0
1.013394456E2,1.186467648E0,-1.178400755E0,-1.696330547E0
1.013994399E2,3.753046513E0,1.756792426E0,-8.595244408E0
1.014594341E2,3.349311829E0,3.204359055E0,-1.319791317E1
1.015194270E2,2.444981813E0,1.677338600E0,-7.799377441E0
1.015794193E2,-2.353016853E0,-4.310203552E0,2.866269588E0
1.016394116E2,-1.724394441E0,-1.270576859E1,7.154001236E0
1.016994042E2,-4.173870087E0,-9.833031654E0,-2.661717892E0
1.017593966E2,1.375122070E-1,-1.131076813E-1,2.255396843E0
1.018193892E2,-1.727555513E0,-3.689117432E-1,7.910940170E0
1.018793817E2,-2.464553356E0,8.779969215E-1,3.842123032E0
1.019393742E2,3.865957260E-3,1.436598778E0,3.840500832E0
1.019993665E2,4.980180264E-1,1.703584671E0,1.330211163E0
1.020593589E2,-6.883349419E-1,1.842743635E0,-2.283390522E0
1.021193514E2,1.398974657E0,1.692207336E0,-3.841343403E0
1.021793439E2,1.749510765E-1,6.676168442E-1,-5.192185402E0
1.022393365E2,4.811348915E0,3.268523693E0,-8.586266518E0
1.022993297E2,2.167470217E0,1.442786694E0,-5.657490253E0
1.023593228E2,-5.768060684E-2,-1.830922604E0,5.060977936E0
1.024193160E2,2.404279709E-1,-4.202643394E0,-2.146146774E0
1.024793091E2,-7.837931633E0,-1.188562107E1,-5.214204788E-1
1.025393022E2,1.580078840E0,-9.339799881E-1,2.188910007E0
1.025992947E2,-1.208913326E-1,-3.742532730E-1,6.213901520E0
1.026592870E2,-5.583629608E0,2.465062141E-1,2.399068832E0
1.027192795E2,-7.976398468E-1,6.758260727E-2,2.493754387E0
1.027792721E2,6.378262043E-1,-3.994770050E-1,1.326555252E0
1.028392646E2,1.715877056E-1,4.522590637E-1,-4.284187317E0
1.028992571E2,6.643757820E-1,-1.681033134E0,-3.093755245E0
1.029592496E2,2.020772219E0,5.683354378E0,-6.962269306E0
1.030192419E2,4.539520741E0,7.061594486E0,-1.090470505E1
1.030792343E2,1.020767331E0,1.356906891E0,-1.705533504E0
1.031392267E2,-8.558845520E-2,-5.589982986E0,1.042842484E1
1.031992193E2,-1.679669857E0,-9.050781250E0,-5.724451542E0
1.032592118E2,-3.305544138E0,-4.750812531E0,3.024515152E0
1.033192049E2,1.097523451E0,-5.557441711E-2,3.893996239E0
1.033791990E2,1.701388359E-1,1.473763943E0,7.013745308E-1
1.034391935E2,-2.508189201E0,-1.208720207E-1,3.642826080E-1
1.034991880E2,-3.913644791E0,-1.732711315E0,1.284543514E0
1.035591826E2,-1.630944014E0,-2.129794121E0,2.010756493E0
1.036191765E2,1.426522732E-1,1.260598660E0,1.952652931E-1
1.036791694E2,-8.485760689E-1,-2.318618298E0,-1.245050430E-1
1.037391618E2,4.090251446E0,2.439532518E0,-1.276807022E1
1.037991544E2,6.499347687E0,7.204322815E0,-3.701879025E0
1.038591468E2,1.912257075E0,4.331423759E0,-1.586633682E0
1.039191394E2,7.105656624E0,-1.691019440E1,2.987821579E0
1.039791319E2,-1.605616188E1,-1.598404121E1,-1.980917215E0
1.040391243E2,2.138518810E0,-4.250715256E0,4.187821388E0
1.040991166E2,-1.228017092E0,-1.061525345E0,3.199069500E-1
1.041591091E2,-1.243256330E0,2.730484009E-1,3.047461510E-1
1.042191016E2,-2.281591892E-1,2.599549294E0,-2.867364883E-1
1.042790941E2,-3.846588135E-1,3.759996176E0,-1.623705864E0
1.043390867E2,8.005049229E-1,4.138885498E0,-8.476490974E-1
1.043990794E2,8.185036182E-1,5.872101307E0,-6.972336769E-1
1.044590733E2,1.876308560E0,4.328116417E0,4.567170143E-1
1.045190676E2,6.043080330E0,3.757232428E0,-3.375887632E0
1.045790619E2,1.902364016E0,2.966521740E0,-1.580642223E0
1.046390562E2,-1.047497988E0,-4.834460258E0,6.682601452E0
1.046990503E2,6.119761467E0,-9.163249969E0,-2.428069592E0
1.047590431E2,-3.503853798E0,-4.443814278E0,-2.932543755E0
1.048190355E2,-3.026886463E0,-2.850698948E0,1.449494600E0
1.048790279E2,3.594493866E-2,-2.425731659E0,2.860989094E0
1.049390205E2,-1.348346710E0,-2.087836742E0,1.589014053E0
1.049990129E2,2.382059097E-1,-1.051998615E0,-1.101346493E0
1.050590055E2,1.293032169E0,1.190609455E0,-3.888612747E0
1.051189980E2,1.814161539E0,1.080538511E0,-5.928341389E0
1.051789904E2,2.517650127E0,1.036407590E0,-6.921937943E0
1.052389827E2,6.321715832E0,4.373720169E0,-1.267868042E1
1.052989752E2,7.344008446E0,3.858790874E0,-5.758817673E0
1.053589668E2,7.808841467E-1,-1.088668442E1,9.382574081E0
1.054189594E2,2.276425362E0,-5.889130592E0,2.009060383E0
1.054789520E2,-8.107765198E0,-1.108055115E1,-4.441598892E0
1.055389452E2,1.937225699E0,-2.778972626E0,2.161495686E0
1.055989384E2,6.280772686E-1,-3.573750496E0,5.082060337E0
1.056589315E2,-5.660415173E0,-2.268323898E0,7.907128334E0
1.057189245E2,1.381864548E-1,1.157085896E0,6.973577499E0
1.057789176E2,1.655395985E0,3.552664995E0,-4.303131104E-1
1.058389100E2,1.517772675E0,3.747898102E0,-6.557664871E0
1.058989025E2,1.755571604E0,8.455135226E-1,-2.939221859E0
1.059588950E2,2.089173079E0,-3.483147323E-1,-6.122182846E0
1.060188874E2,2.788785934E0,3.974037468E-1,-1.113850212E1
1.060788800E2,2.354294777E0,-1.636941791E0,-9.544574738E0
1.061388725E2,1.050642014E0,-4.110959530E0,-1.836291790E0
1.061988649E2,-3.899804831E0,-5.423406601E0,-3.100867271E0
1.062588572E2,-9.880638123E-2,-1.425544453E1,-4.256153107E0
1.063188498E2,4.584440708E0,-9.383510590E0,6.682545662E0
1.063788422E2,2.171660185E0,-4.021851540E0,6.063174725E0
1.064388348E2,-5.324438095E0,-2.579375267E0,1.042009354E1
1.064988272E2,3.790192366E0,-2.409648895E-2,1.149549866E1
1.065588204E2,3.531385422E0,2.007857800E0,6.576261997E0
1.066188145E2,3.821561813E0,1.601691961E0,6.836810112E-1
1.066788088E2,2.142249584E0,9.130437374E-1,-4.947303295E0
1.067388031E2,1.357091188E0,-3.884942532E-1,-5.061883450E0
1.067987974E2,8.882527351E-1,-1.928045511E0,-8.361674309E0
1.068587911E2,4.661515713E0,1.346278191E0,-1.210231876E1
1.069187837E2,3.653064728E0,8.966007233E-1,-1.187979126E1
1.069787760E2,1.902184486E-1,-3.198943138E0,-1.920989990E0
1.070387685E2,-1.670178175E0,-1.170771503E1,5.275326729E0
1.070987611E2,-2.277816772E0,-9.080422401E0,-3.737378597E0
1.071587536E2,1.945450664E0,-7.506872177E0,4.905180454E0
1.072187461E2,1.172602534E0,-7.548236847E-1,3.211114407E0
1.072787386E2,-4.607594490E0,-1.991716385E0,9.860162735E0
1.073387309E2,2.942767143E-1,9.536762238E-1,6.797854424E0
1.073987233E2,1.294067621E0,2.190235615E0,3.083980083E0
1.074587158E2,2.669700146E0,1.674183846E0,-1.117186069E0
1.075187083E2,2.489468098E0,2.799274445E0,-5.502978325E0
1.075787008E2,1.479123831E0,1.744280577E0,-4.906676769E0
1.076386935E2,2.150788784E0,4.134199619E0,-7.705729008E0
1.076986868E2,5.185839653E0,5.359443665E0,-9.905790329E0
1.077586799E2,3.093321323E0,3.876169205E0,-7.061137676E0
1.078186731E2,-4.655438423E0,-6.534435272E0,-2.555561066E-1
1.078786662E2,-1.810438752E0,-1.850456238E1,2.230885506E0
1.079386591E2,1.704859972E0,-5.036623955E0,-2.222331047E0
1.079986514E2,2.285826683E0,-3.023289680E0,3.776238263E-1
1.080586439E2,1.383278131E0,-1.473282814E0,3.184945822E0
1.081186363E2,-4.432868004E0,-2.309452057E0,1.011302090E1
1.081786289E2,-1.284727573E0,-3.725011826E0,9.287265778E0
1.082386214E2,-2.717416763E0,1.619285107E0,4.912550449E0
1.082986139E2,2.331717014E0,4.096580505E0,-1.404454231E0
1.083586063E2,9.912261963E-1,3.209731579E0,-6.464879036E0
1.084185987E2,1.167744637E0,6.146319509E-1,-6.622295380E0
1.084785911E2,7.550406456E-1,-9.442576170E-1,-1.180761814E1
1.085385837E2,2.681595564E0,-1.926830292E0,-1.319494057E1
1.085985762E2,4.486618042E0,-4.651565552E-1,-1.208254433E1
1.086585688E2,-3.300997496E0,-8.522184372E0,-3.492294788E0
1.087185623E2,-8.447604775E-1,-1.097752762E1,4.659539700E0
1.087785567E2,-4.740521908E-1,-7.896161079E0,-2.068646669E0
1.088385512E2,-1.179478407E0,-4.655575752E0,6.510646820E0
1.088985457E2,-1.653738737E0,-2.244113922E0,1.116925716E1
1.089585402E2,-3.936309099E0,4.336071014E-2,7.885475159E0
1.090185336E2,-1.430374622E0,2.357572556E0,6.088003635E0
1.090785261E2,-8.084673882E-1,3.360000134E0,4.065128326E0
1.091385186E2,7.106430531E-1,4.472370625E0,3.557491302E-2
1.091985111E2,9.330348969E-1,3.551895380E0,-2.948439121E0
1.092585036E2,1.137785196E0,1.795146823E0,-4.980985641E0
1.093184962E2,3.371967554E0,1.939158916E0,-9.674216270E0
1.093784887E2,5.285363197E0,-7.153887749E-1,-7.789372444E0
1.094384811E2,-9.233722687E-1,-7.426109314E-1,-3.743467808E0
1.094984734E2,-6.509399414E0,-9.333070755E0,1.087825775E1
1.095584660E2,2.076584339E0,-4.769691467E0,-4.367169380E0
1.096184585E2,5.312318802E-1,-4.761301517E0,-4.478478432E-1
1.096784510E2,1.269059181E0,-9.817857742E-1,3.248703003E0
1.097384435E2,-6.539254665E0,-2.135603905E0,6.388292313E0
1.097984368E2,-3.843179226E0,-1.933833599E0,9.862064362E0
1.098584309E2,1.737723351E-1,1.561316013E0,5.425559044E0
1.099184253E2,1.339474916E0,5.142107010E-1,-2.838395596E0
1.099784196E2,2.933696032E0,-1.118900537E0,-7.008825302E0
1.100384139E2,1.783191204E0,1.180562973E-1,-8.253081322E0
1.100984075E2,2.926851273E0,1.838296294E0,-6.304686546E0
1.101583999E2,5.547266960E0,5.703305244E0,-7.910247803E0
1.102183922E2,1.796829104E0,1.598879576E0,-2.213810921E0
1.102783848E2,1.180324674E0,-1.132314682E0,3.206544399E0
1.103383773E2,-3.848806858E0,-5.378600121E0,3.708402157E0
1.103983698E2,-3.950383902E0,-1.218003368E1,-1.655595303E0
1.104583623E2,-4.012969971E0,-5.032626152E0,3.873736858E0
1.105183549E2,-1.731511354E0,1.405296326E-1,6.483897209E0
1.105783471E2,-6.066701889E0,-8.602809906E-2,5.134273529E0
1.106383395E2,-1.428938150E0,-2.564735413E-1,3.604039192E0
1.106983321E2,-8.757433891E-1,1.081040382E0,1.179441452E0
1.107583246E2,-6.476259232E-2,2.150936127E0,-3.248498917E0
1.108183171E2,1.174750566E0,2.534451962E0,-4.161519051E0
1.108783099E2,1.816838503E0,1.529929638E-1,-5.454461098E0
1.109383032E2,4.612350941E0,4.704132080E-1,-8.196590424E0
1.109982963E2,4.197222233E0,8.813596964E-1,-9.773089409E0
1.110582894E2,1.345098495E0,-1.382942677E0,-3.683609009E0
1.111182825E2,-1.590694904E0,-3.710151672E0,5.600908756E0
1.111782755E2,1.583101034E0,-4.204211235E0,1.250661373E0
1.112382677E2,-3.880690575E0,-1.057790375E1,3.187365532E0
1.112982602E2,-2.889579773E0,-3.979568481E-1,2.765181541E0
1.113582527E2,-1.022148132E0,-1.169233322E-1,7.974474430E0
1.114182453E2,-6.395487785E-1,1.089818478E0,4.585289478E0
1.114782376E2,1.239311695E-1,6.688432693E-1,7.723340988E-1
1.115382302E2,1.136638880E0,-4.366126060E-1,-2.148660183E0
1.115982225E2,1.754187346E0,1.565737724E-1,-8.243227959E0
1.116582149E2,2.672279358E0,3.043306351E0,-2.627517223E0
1.117182074E2,3.737270355E0,6.815846443E0,-1.047401237E1
1.117782000E2,4.205245972E0,7.667470932E0,-8.604290962E0
1.118381924E2,1.549350500E0,1.163627625E0,-2.285656929E-1
1.118981850E2,-6.169330597E0,-7.403255939E0,1.097631454E1
1.119581787E2,3.177560806E0,-5.583241463E0,-1.872891665E0
1.120181730E2,-1.655071735E0,-7.836112976E0,1.784937382E0
1.120781673E2,-2.230262756E-2,3.091239929E-1,3.417811394E-1
1.121381616E2,-3.533872604E0,6.856479645E-1,6.235701561E0
1.121981559E2,-1.399871826E0,1.200628757E0,5.112377167E0
1.122581490E2,4.379422665E-1,1.741665840E0,1.311307430E0
1.123181414E2,-3.739247322E-1,2.055435419E0,-1.208074093E0
1.123781337E2,7.662010193E-2,2.527973175E0,-2.952605247E0
1.124381262E2,-8.199324608E-1,1.124907017E0,-6.663928032E-1
1.124981187E2,2.159269571E0,2.799627542E0,-5.671816826E0
1.125581114E2,4.316792488E0,2.591375113E0,-1.069999790E1
1.126180323E2,3.167679787E0,1.411724091E-1,-7.601645947E0
1.126780249E2,-2.174716949E0,-3.469008446E0,2.772330761E0
1.127380171E2,2.463442326E0,-1.055961418E1,4.339488029E0
1.127980096E2,-5.611712456E0,-1.082827377E1,5.647211075E-1
1.128580019E2,-3.658452034E-1,-1.583803177E0,4.822589874E0
1.129179945E2,1.667355657E0,-4.232082367E-1,3.729828119E0
1.129779870E2,-2.945846796E0,-1.511540413E-1,1.534325123E0
1.130379801E2,4.312634468E-1,3.331146240E-1,1.995005608E-1
1.130979732E2,2.881440639E0,1.289604664E0,-1.702103615E-1
1.131579663E2,2.442635775E0,3.041306734E0,-3.119558096E0
1.132179594E2,-4.002220631E0,-8.484196663E0,7.468904495E0
1.132779526E2,4.391665459E0,1.219681168E1,-5.723368168E0
1.133379451E2,1.298983574E0,8.311786652E0,-4.699017525E0
1.133979375E2,-1.546325684E0,-6.213967323E0,4.838906765E0
1.134579300E2,9.389154911E-1,-8.654845238E0,1.881548166E0
1.135179226E2,-3.451132774E-2,-1.099658966E1,-4.721290588E0
1.135779150E2,2.002468109E-1,-2.731199265E0,-1.333762169E0
1.136379075E2,-3.178985119E-1,-1.384916306E0,3.048043966E0
1.136979000E2,-3.352982759E0,-9.491128922E-1,1.229139805E0
1.137578924E2,4.038133621E-1,-9.147958755E-1,1.390331745E0
1.138178848E2,-3.652443886E-1,4.561176300E-1,-2.792304516E0
1.138778772E2,1.656658173E0,3.744357109E0,-4.538474083E0
1.139378698E2,1.668122530E0,-4.733881950E-1,1.094046116E0
1.139978623E2,3.316733837E0,1.005927467E1,-7.306834221E0
1.140578551E2,-8.949261904E-1,5.579631805E0,-2.502619267E0
1.141178491E2,-3.266533852E0,-5.561608791E0,1.177198219E1
1.141778437E2,7.731236815E-1,-3.291436195E0,-3.413143158E0
1.142378381E2,2.925679922E0,-1.100728703E1,-6.756534576E-1
1.142978327E2,-6.230452061E-1,-1.171274185E-1,-3.287612438E0
1.143578269E2,-4.590543747E0,-5.424671173E-1,3.440738201E0
1.144178200E2,2.201056480E0,1.306947708E0,2.948276997E0
1.144778123E2,-2.493758202E0,8.048191071E-1,1.654523849E0
1.145378049E2,-1.951005936E0,1.228893280E0,-2.790098190E-1
1.145977973E2,6.791486740E-1,1.189083576E0,-2.119153500E0
1.146577898E2,-2.156195641E-1,3.170534611E0,-5.553498268E0
1.147177823E2,6.679467201E0,5.060679436E0,-3.088737965E0
1.147777748E2,4.347866535E0,5.354567051E0,-7.726181507E0
1.148377671E2,-6.943173409E-1,-2.281053066E0,2.842115879E0
1.148977596E2,-1.990951538E0,-9.911305428E0,8.950193405E0
1.149577521E2,9.842746258E-1,-1.328573799E1,-2.837853909E0
1.150177447E2,6.802101135E-1,-8.192763329E-1,-1.735201597E0
1.150777371E2,-2.173852205E0,4.390740395E-1,5.316451073E0
1.151377298E2,-1.355641365E0,9.406838417E-1,3.294452190E0
1.151977234E2,-9.411363602E-1,1.171923161E0,2.361815929E0
1.152577177E2,-1.522318840E0,1.745200872E0,1.257135868E0
1.153177121E2,1.026873112E0,2.251307964E0,2.037028313E0
1.153777064E2,9.053854942E-1,2.456858873E0,-1.300554752E0
1.154377006E2,1.723671198E0,1.689571381E0,-3.291157722E0
1.154976937E2,4.401446342E0,6.256371737E-2,-8.619188309E0
1.155576860E2,5.721615791E0,-2.397926569E0,-1.308034134E1
1.156176785E2,4.134781837E0,-3.015588522E0,-4.749672890E0
1.156776710E2,-4.099790573E0,-3.998432159E0,4.086686134E0
1.157376635E2,5.906917095E0,-7.042180061E0,-3.379787207E0
1.157976560E2,-4.004682064E0,-5.728133202E0,-1.760144234E-1
1.158576485E2,-2.116936684E0,-3.038845062E-1,4.386781693E0
1.159176409E2,-2.994423866E0,3.216218948E-2,5.492167473E0
1.159776331E2,-2.143656969E0,3.638792038E-2,6.375184059E0
1.160376257E2,-3.610882759E-1,5.140714645E-1,3.463499069E0
1.160976181E2,1.276888132E0,1.389101028E0,-2.971572876E-1
1.161576107E2,1.361654282E0,9.209420681E-1,-3.214471817E0
1.162176032E2,1.827330112E0,-2.741416454E0,-4.552481651E0
1.162775963E2,1.902085543E0,4.386278987E-1,-7.214211464E0
1.163375895E2,6.337512016E0,1.970832825E0,-1.418494606E1
1.163975827E2,1.368632793E0,-1.268116951E0,-6.339686394E0
1.164575758E2,-2.805497646E-1,-5.303225994E0,4.877122402E0
1.165175689E2,-1.302123547E0,-6.272379398E0,-3.719074249E0
1.165775614E2,-4.140717030E0,-4.930106163E0,3.303205967E0
1.166375539E2,3.294892311E-1,8.888068199E-1,5.555983067E0
1.166975463E2,-2.527996778E0,7.226557732E-1,4.627624512E0
1.167575388E2,-2.162886143E0,-3.724193573E-1,3.374220371E0
1.168175313E2,-5.920362473E-1,8.266897202E-1,1.546886921E0
1.168775239E2,7.955503464E-1,3.556504250E-1,2.638120651E-1
1.169375163E2,7.758827209E-1,1.669757128E0,-1.530259132E0
1.169975088E2,3.311119080E-1,2.042487860E0,-9.615845680E-1
1.170575012E2,-2.982625961E-1,4.516549110E-1,4.748501778E-1
1.171174937E2,2.440230131E0,2.220396042E0,-1.964416981E0
1.171774862E2,2.657022238E0,3.690329790E0,-5.135885239E0
1.172374787E2,5.176476955E0,4.104097843E0,-6.673793793E0
1.172974715E2,-1.475304127E0,-2.926047802E0,-1.059624672E0
1.173574655E2,-3.689823151E-1,-5.250912189E0,3.186051846E0
1.174174598E2,-8.430515289E0,-1.520231628E1,-2.931533337E0
1.174774541E2,-3.009390831E-1,-1.989221573E0,3.538794994E0
1.175374485E2,-3.963279724E-1,-6.709389687E-1,4.718874931E0
1.175974424E2,-2.737159252E0,9.900202751E-1,1.795445442E0
1.176574351E2,-7.012939453E-1,1.061118126E0,6.231198311E-1
1.177174273E2,5.059146881E-1,1.627161503E0,1.101343632E0
1.177774199E2,1.841624737E0,2.177420378E0,-9.508838654E-1
1.178374123E2,2.711304188E0,-1.908533573E-1,1.648985863E0
1.178974049E2,1.511783123E0,2.492052317E0,-5.307594299E0
1.179573974E2,4.784153938E0,4.390297890E0,-1.280673981E1
1.180173900E2,8.219456673E-1,1.399247169E0,-6.325865746E0
1.180773822E2,3.958800554E0,-6.972684383E0,9.068025589E0
1.181373746E2,-6.721170425E0,-8.128053665E0,-9.080754280E0
1.181973671E2,-4.038252831E-1,-6.230218887E0,4.302542686E0
1.182573596E2,3.272663593E0,-4.827122688E-1,4.512943745E0
1.183173522E2,-1.870334864E0,8.755393028E-1,-4.023237228E-1
1.183773448E2,-1.954804659E0,4.102544785E-1,8.597402573E-1
1.184373380E2,-3.061295748E0,-1.028941631E0,4.574394226E-2
1.184973312E2,-2.312754631E0,-1.712506294E0,2.799975872E0
1.185573243E2,2.184044123E0,-1.125011921E0,3.521067142E0
1.186173174E2,7.890087366E-1,4.294449329E0,-5.561727524E0
1.186773105E2,2.419795275E0,4.882138729E0,-4.983804703E0
1.187373028E2,3.085324049E0,6.972024918E0,-9.426700592E0
1.187972952E2,3.325510263E0,1.402945042E0,-4.930864334E0
1.188572877E2,-2.352034807E0,-3.096910954E0,4.279726028E0
1.189172802E2,3.354718685E0,-7.708920002E0,-4.990432262E0
1.189772727E2,-1.951374054E0,-5.114830017E0,3.581585884E-1
1.190372653E2,5.736572742E-1,-1.004808903E0,5.045065403E0
1.190972577E2,-9.098939896E-1,3.180503845E-2,4.119165897E0
1.191572502E2,-1.895924330E0,9.526486397E-1,3.441169262E0
1.192172427E2,-2.538199425E-1,1.397403240E0,2.846689224E0
1.192772352E2,2.216823101E-1,7.685248852E-1,1.187562943E-2
1.193372277E2,2.560513020E-1,1.431532621E0,-2.858252048E0
1.193972203E2,1.889457703E0,1.563910723E0,-3.674160957E0
1.194572134E2,1.935019255E0,1.769039869E0,-7.135115147E0
1.195172076E2,1.325081587E0,3.001741409E0,-7.068139076E0
1.195772021E2,3.459162951E0,1.564271450E-1,-3.711974144E0
1.196371967E2,-3.203489780E0,-2.076574326E0,2.098306656E0
1.196971912E2,-2.368462324E0,-3.909775257E0,7.986660004E-1
1.197571848E2,1.218388557E0,-1.135831070E1,1.075980663E0
1.198171775E2,-2.088249445E0,-1.673386097E0,5.221123695E-1
1.198771622E2,-1.393807888E0,-7.026338577E-2,4.849781990E0
1.199371546E2,-1.453109026E0,9.041185379E-1,4.064870358E0
1.199971472E2,1.406221151E0,1.256797314E0,2.616163254E0
1.200571397E2,1.515336037E-1,1.939395905E0,-2.358965874E-1
1.201171322E2,1.917072535E0,1.629481554E0,-5.283741951E-1
1.201771246E2,1.813258648E0,-4.297389984E-1,-3.221364021E0
1.202371170E2,1.270824432E0,1.140637159E0,-3.715333939E0
1.202971095E2,3.369847059E0,2.980035782E0,-7.916154385E0
1.203571021E2,3.996880054E0,2.381460667E0,-8.445235252E0
1.204170946E2,2.733910084E-1,-1.122069120E0,-2.581089020E0
1.204770871E2,-3.412459135E0,-5.779585361E0,9.328418732E0
1.205370802E2,-8.138177395E-1,-1.069312286E1,-4.672006130E0
1.205970742E2,1.113988519E0,-7.247381687E0,4.274177551E-1
1.206570685E2,1.803083181E0,-1.554708004E0,2.457001686E0
1.207170628E2,6.631779671E-1,4.911909103E-1,1.925143719E0
1.207770571E2,7.186784744E-1,1.596155405E0,1.800036430E0
1.208370509E2,1.001540899E0,2.441043854E0,2.916722298E-1
1.208970435E2,-5.912609100E-1,1.988903522E0,-1.689347267E0
1.209570358E2,1.651806474E0,8.773603439E-1,-2.934852600E0
1.210170283E2,-2.099463701E0,-4.173929214E0,-9.768390656E-1
1.210770208E2,3.211508512E0,6.642086983E0,-1.173150444E1
1.211370133E2,3.012526989E0,7.564224243E0,-1.130494976E1
1.211970058E2,2.167559385E0,-1.464486122E-1,6.088290215E-1
1.212569984E2,-5.984010220E0,-1.284933472E1,7.509517193E0
1.213169907E2,-6.598574162E0,-1.070266247E1,-6.126307011E0
1.213769831E2,1.424602866E0,-2.466018677E0,2.925572872E0
1.214369755E2,3.655970097E-1,-1.388987541E0,4.610301495E0
1.214969682E2,-2.503096342E0,1.846714020E-1,-1.981592655E0
1.215569606E2,-1.347353458E0,1.069787502E0,8.049726486E-2
1.216169533E2,4.695494175E-1,3.153904200E0,-9.109730721E-1
1.216769466E2,1.783326507E0,3.124233723E0,7.010364532E-2
1.217369397E2,-2.279249430E0,-7.506136894E-1,-3.100839615E0
1.217969328E2,-9.767675400E-2,3.873704910E0,-3.581805229E0
1.218569259E2,4.347626686E0,5.768774509E0,-7.132366180E0
1.219169189E2,-1.990610600E0,-2.404101849E0,1.406240940E0
1.219769112E2,2.373623848E-1,-1.295012951E0,4.246706963E-1
1.220369037E2,3.596252918E0,-1.291668510E1,-2.287580967E0
1.220968962E2,-4.899201393E0,-3.808454037E0,-2.401672363E0
1.221568887E2,-4.620223045E-1,7.544994354E-2,3.517899036E0
1.222168812E2,8.798649311E-1,-9.652709961E-2,3.940234661E0
1.222768737E2,-5.550599098E-1,3.470444679E-1,-1.146993637E-1
1.223368661E2,-6.901264191E-3,1.134699345E0,1.696072578E0
1.223968585E2,3.691105843E-1,1.458467960E0,8.569722176E-1
1.224568510E2,7.176725864E-1,1.977219820E0,-1.684183598E0
1.225168435E2,1.317066669E0,2.086713314E0,-3.770345926E0
1.225768359E2,2.696970224E0,1.298232079E0,-6.039666653E0
1.226368286E2,4.224924088E0,4.774353504E-1,-6.136066437E0
1.226968220E2,-5.033801079E0,-5.585948467E0,2.307337284E0
1.227568162E2,-1.355974674E-1,-3.431025982E0,-1.538608074E0
1.228168105E2,-1.077845573E0,-7.802968979E0,-2.175199032E0
1.228768048E2,-1.893942118E0,-2.902341366E0,1.227072716E0
1.229367991E2,-9.758641720E-1,-3.611879349E-1,5.284437180E0
1.229967925E2,-2.688534737E0,6.674075127E-1,4.864974976E0
1.230567849E2,-1.091939449E0,1.250924110E0,5.138729095E0
1.231167773E2,8.253550529E-1,1.415197849E0,2.368602753E0
1.231767698E2,1.220310688E0,1.116850853E0,-6.036539078E-1
1.232367623E2,1.673125505E0,5.067093372E-1,-2.596155643E0
1.232967547E2,9.726333618E-1,5.251748562E-1,-4.783015728E0
1.233567473E2,1.201566458E0,1.744793296E0,-8.493972778E0
1.234167398E2,2.736249924E0,3.055937052E0,-7.980624199E0
1.234767321E2,6.056010723E-1,-2.653673649E0,-2.828490734E0
1.235367245E2,-6.316804886E-1,-2.942265987E0,1.643009186E-1
1.235967170E2,1.458925605E0,-7.242035389E0,-3.904479742E0
1.236567095E2,-1.099179268E0,-7.981777191E0,3.695921898E-1
1.237167020E2,-1.297833443E0,-4.877185822E-1,1.642679214E0
