"Time (s)","Acceleration x (m/s^2)","Acceleration y (m/s^2)","Acceleration z (m/s^2)"
5.000118400E-2,-5.997658253E0,3.567469418E-1,5.554717541E0
1.020011160E-1,-4.194769382E0,2.394274771E-1,5.875550270E0
1.540011080E-1,2.770175934E0,2.245829821E0,4.419831276E0
2.040012680E-1,5.684008598E0,2.190761566E0,4.486870766E0
2.560011310E-1,8.851634026E0,2.930592299E0,5.370358467E0
3.060013240E-1,9.761458397E0,2.894678354E0,3.548315287E0
3.580011840E-1,8.554743767E0,1.393467903E0,1.640078187E0
4.100011820E-1,1.355159521E0,-6.859597206E0,5.497254848E0
4.620011430E-1,1.322836876E1,3.629720688E0,-6.201171875E-1
5.140011360E-1,9.198803902E0,2.806090117E0,-6.023995399E0
5.660011010E-1,1.299851799E1,2.892283916E0,-2.913832426E0
6.160011610E-1,1.597460175E1,6.857203007E0,-5.016005516E0
6.660013210E-1,2.327953339E1,3.644086361E0,2.106961727E0
7.180010850E-1,1.997543526E1,4.671230316E0,2.882706881E0
7.680011130E-1,1.399932480E1,2.746233225E0,1.132491946E0
8.200011060E-1,7.951386452E0,1.448536277E0,-7.901107073E-1
8.720011030E-1,3.969707727E0,1.106154919E0,1.836408734E0
9.220012970E-1,5.027977005E-2,1.652049661E0,4.644893110E-1
9.720014210E-1,-1.891477108E-1,1.594586968E0,1.972882390E0
1.024001019E0,2.035133541E-1,1.834014535E0,2.030344963E0
1.074001280E0,-1.972882390E0,2.418217659E0,2.305686712E0
1.126001072E0,-4.089421272E0,3.701548815E0,7.470137596E0
1.176001169E0,-1.231375504E1,6.541158676E0,1.452367115E1
1.226001531E0,-2.235055542E1,8.868393898E0,1.747102356E1
1.278001155E0,-4.009692001E1,1.733694458E1,9.905115128E0
1.330001019E0,-3.342886353E1,5.138113976E0,-1.225868702E1
1.380001250E0,3.608172178E0,-7.350423932E-1,1.773199844E1
1.432001142E0,3.476965714E1,-6.621366882E1,-3.482472610E1
1.484001138E0,-1.204320192E0,-7.563514233E0,-1.829944229E1
1.534001234E0,8.844450951E0,-2.176395893E0,-1.273275375E1
1.584001260E0,-3.869148016E0,3.969707727E0,-8.739103079E-1
1.636000955E0,-5.291347504E0,9.941028595E0,-7.697593689E0
1.686001153E0,-2.513988495E0,1.283331275E0,-3.016786337E0
1.736001213E0,-4.987274647E0,-5.937801600E-1,3.591412306E-1
1.788001106E0,-4.324060440E0,-3.672817469E0,-1.221080124E-1
1.838001137E0,-5.818088055E-1,-1.482056141E0,3.057488918E0
1.890001163E0,2.796513081E0,-2.956929445E0,2.523565531E0
1.942000957E0,7.374366283E0,-1.323794556E1,7.089447498E0
1.992000988E0,1.494745731E1,-3.037376976E1,1.189715195E1
2.042001014E0,2.052851295E1,-2.297067261E1,6.093429565E0
2.094000941E0,2.163706207E1,-1.750454330E1,1.184447765E1
2.144001039E0,1.591713905E1,-1.244065189E1,1.032171917E1
2.196001031E0,9.948211670E0,-9.004867554E0,7.776604652E0
2.248000924E0,9.177255630E0,-6.835654736E0,5.861184597E0
2.298000956E0,8.954587936E0,-7.283383846E0,5.231490612E0
2.350000882E0,7.577879906E0,-1.055396366E1,3.608172178E0
2.400000943E0,5.779779434E0,-1.326667690E1,2.561874151E0
2.450001107E0,3.203539610E0,-1.489478397E1,6.416656375E-1
2.502000966E0,1.391073704E0,-1.526829052E1,1.675992459E-2
2.554000860E0,6.225114316E-2,-1.132970810E1,-4.261809289E-1
2.606000858E0,6.416656375E-1,-9.828497887E0,6.129343510E-1
2.656000918E0,-2.370332032E-1,-9.953000069E0,9.816526622E-2
2.708000911E0,-1.096577883E0,-8.624177933E0,1.958516836E0
2.760000910E0,-1.041509509E0,-7.556331158E0,2.837215662E0
2.810001004E0,9.672870040E-1,-7.982511997E0,4.218712330E0
2.862000964E0,1.647261024E0,-9.330489159E0,4.084632874E0
2.914000895E0,4.168432236E0,-1.035523891E1,4.771789551E0
2.964000922E0,6.565101624E0,-9.768641472E0,5.648094177E0
3.014001248E0,1.071437931E1,-6.375953674E0,1.134886265E1
3.064860132E0,9.890748978E0,-7.020013809E0,6.069486618E0
3.116860158E0,4.917840481E0,-5.851607800E0,1.666415215E0
3.168860084E0,5.286558628E0,-2.645673752E0,5.169239521E0
3.220860082E0,6.012023926E0,-1.975276709E0,2.494834423E0
3.270860141E0,2.315263748E0,8.547561169E-1,-3.170019865E0
3.322860101E0,-1.309668303E0,4.204346657E0,-2.760598898E0
3.374860066E0,-2.633702278E0,4.106181145E0,-3.495641232E0
3.426860026E0,-1.130097747E0,7.000859737E0,4.980091572E0
3.476860086E0,1.583094501E1,5.930618763E0,1.597460175E1
3.528860084E0,1.215573311E1,8.727131844E0,1.688442612E1
3.578860110E0,1.351807594E1,1.260106850E1,1.168884945E1
3.630860070E0,7.810124397E0,7.101418972E0,1.800494671E0
3.682860035E0,3.409447432E0,6.308914185E0,3.538738251E0
3.732860062E0,9.433442950E-1,2.059076309E0,3.450150013E0
3.784860056E0,-1.517970204E0,-1.798100352E0,-8.332076073E-1
3.836860021E0,-3.213116884E0,-4.903474808E0,-3.581835032E0
3.888860015E0,-5.267404765E-2,-5.739076614E0,-5.530774593E0
3.938860041E0,2.231464148E0,-1.119084072E1,-2.949746609E0
3.990860005E0,6.620169640E0,-1.639599419E1,8.523618579E-1
4.042859998E0,1.315414619E1,-2.471609879E1,1.045819283E1
4.092860024E0,8.047157288E0,-2.529790688E1,2.985660791E0
4.142860156E0,1.049171257E1,-1.810790062E1,7.965752125E0
4.194860049E0,1.338639069E1,-1.190433407E1,1.330737972E1
4.246859942E0,8.578686714E0,-8.719948769E0,1.353722954E1
4.296859974E0,2.353572130E0,-1.015172482E1,9.007262230E0
4.346860000E0,-1.470084786E0,-9.610619545E0,5.231490612E0
4.398859959E0,2.035133541E-1,-9.490905762E0,4.118152618E0
4.450859957E0,3.926610649E-1,-1.082930470E1,4.903474808E0
4.500860217E0,1.561067224E0,-1.654922676E1,3.756617069E0
4.552859943E0,4.762212753E0,-1.094662476E1,7.008042336E0
4.604859942E0,6.203566074E0,-9.337671280E0,7.960963726E0
4.654860070E0,5.288952827E0,-8.269824982E0,6.301731110E0
4.706859997E0,5.377541065E0,-4.549122334E0,5.480494976E0
4.758859962E0,5.420638084E0,-4.091815472E0,3.933793545E0
4.808860090E0,6.323279858E0,-3.313676357E0,3.715914488E0
4.860859914E0,5.681613922E0,-4.230683804E0,3.785348415E0
4.910859946E0,5.877944469E0,-4.652075768E0,3.852388144E0
4.960860109E0,7.470137596E0,-5.681613922E0,4.443774223E0
5.012860035E0,1.117168617E1,-2.557085514E0,8.775016785E0
5.064859899E0,1.135604572E1,4.357580245E-1,9.371191978E0
5.114860129E0,9.785401344E0,6.919454336E-1,5.521197796E0
5.166860087E0,8.499675751E0,2.394274808E-3,3.440572977E0
5.218859850E0,7.467742920E0,1.635289669E0,3.205934048E0
5.268860113E0,5.782173634E0,2.916226625E0,4.599401951E0
5.318860240E0,5.035160065E0,3.148471355E0,3.636903524E0
5.370860001E0,3.093403101E0,3.167625666E0,4.367157459E0
5.420860031E0,1.994430900E0,4.726298332E0,4.649681568E0
5.470860090E0,4.218712330E0,3.852388144E0,3.490852594E0
5.522859784E0,7.889135361E0,1.228263021E0,1.185166001E0
5.572860148E0,8.329682350E0,1.616135478E0,1.412622184E-1
5.624860040E0,1.600333214E1,-5.454157829E0,-9.660899162E0
5.676859767E0,4.477293968E0,3.301704884E0,5.432609558E0
5.726859898E0,4.259414673E0,5.530774593E0,9.696813226E-1
5.776859923E0,4.793338299E0,4.788549423E0,2.185972929E0
5.828859851E0,2.375120640E0,6.624958515E0,-2.384697676E0
5.878859982E0,8.238699913E0,6.232297421E0,-4.568276405E0
5.928860008E0,8.875576973E0,1.766974807E0,-1.268965602E0
5.980859802E0,1.486844635E1,-3.847599506E0,-3.732674360E0
6.032859801E0,1.534969616E1,-7.764633179E0,-3.569863796E0
6.082859827E0,1.647500420E1,-8.561926842E0,2.992843390E-1
6.134859787E0,1.785650063E1,-6.105400562E0,1.412622184E-1
6.186859786E0,2.203929901E1,-6.349617004E0,-1.697540879E0
6.236859847E0,1.999937820E1,-5.734288216E0,-7.350423932E-1
6.288859773E0,1.596502399E1,-4.795732498E0,-1.355159521E0
6.338859805E0,1.129379463E1,-4.161249638E0,-1.249811411E0
6.390859766E0,5.674431324E0,-2.109356165E0,-9.936240315E-1
6.442859759E0,2.411034822E0,-5.842030644E-1,-8.954587579E-1
6.492859790E0,5.889915824E-1,-1.055875182E0,5.267404318E-1
6.542859916E0,1.053480864E0,1.922602654E0,1.616135478E0
6.594859710E0,-1.826831698E0,5.590631485E0,7.144515991E0
6.646859675E0,-1.449015141E1,1.189954567E1,9.974549294E0
6.696859769E0,-3.767630768E1,1.684611702E1,7.331269264E0
6.748859695E0,-3.589017868E1,1.190194035E1,-1.186123753E1
6.798859727E0,-1.911828423E1,-4.932206154E0,1.618529797E0
6.848859887E0,2.476637840E1,-1.775115395E1,3.495641351E-1
6.898860046E0,2.007599449E1,-1.528744507E1,5.636122704E0
6.948860110E0,2.592999697E0,-1.127942848E1,-9.505270958E0
7.000859737E0,-1.661626697E0,-4.573064744E-1,-1.274711895E1
7.050859796E0,-1.369285774E1,1.467451000E1,-8.207573891E0
7.102859693E0,-2.470891714E0,3.117345810E0,-2.226675510E0
7.152859788E0,-7.292961121E0,3.158048391E0,1.843591630E-1
7.202859881E0,-8.775016785E0,1.776551962E0,2.195549965E0
7.254859612E0,-9.699207306E0,-2.609759569E-1,3.914639235E0
7.304859775E0,-1.032890129E1,-8.739103079E-1,6.229903221E0
7.354859801E0,-1.064733982E1,-2.566662550E0,5.858790398E0
7.406859530E0,-1.106394386E1,-3.371139050E0,6.282577038E0
7.456859827E0,-9.610619545E0,-3.256213665E0,5.595420361E0
7.506859987E0,-7.613793850E0,-2.588211060E0,5.593026161E0
7.558859614E0,-6.931425571E0,-2.502017260E0,6.536370277E0
7.608859744E0,-5.916253090E0,-2.363149166E0,6.419050694E0
7.658859870E0,-4.778972626E0,-9.888355136E-1,6.512427330E0
7.710859564E0,-3.217905283E0,7.422251999E-2,7.209161282E0
7.760859695E0,-2.157241583E0,5.387118459E-1,9.663292885E0
7.810859754E0,-1.113337755E0,1.027143836E0,1.108070374E1
7.862859581E0,1.053480953E-1,-2.250618339E-1,1.221559048E1
7.912859613E0,2.595393896E0,-6.129343510E-1,1.084367085E1
7.962859706E0,2.042316437E0,-3.136500120E-1,1.117886925E1
8.014859600E0,2.423006058E0,1.316851079E-1,1.009905148E1
8.064859664E0,3.244242430E0,1.197137386E-1,9.438231468E0
8.116859656E0,4.379128456E0,-5.650488734E-1,9.414288521E0
8.168859582E0,5.087833881E0,-9.313728809E-1,8.901913643E0
8.220859580E0,4.307300568E0,-3.759011328E-1,8.315316200E0
8.270859606E0,4.070267200E0,9.337671846E-2,9.009655952E0
8.320859632E0,4.034353256E0,6.225114316E-2,8.913885117E0
8.372859530E0,4.484476566E0,2.346389294E-1,8.037580490E0
8.422859557E0,5.710345268E0,-1.683175206E0,9.220352173E0
8.472859584E0,4.762212753E0,-2.360754967E0,8.358413696E0
8.522859616E0,5.288952827E0,-3.938581944E0,9.349642754E0
8.574859508E0,4.872349262E0,-3.979284763E0,8.279402733E0
8.624859667E0,5.044736862E0,-4.874743462E0,8.916279793E0
8.676859563E0,4.513207912E0,-4.204346657E0,7.264229774E0
8.728859589E0,4.867560863E0,-4.206740856E0,7.410280704E0
8.780859582E0,4.733481407E0,-4.067873001E0,6.636929989E0
8.832859512E0,4.987274647E0,-4.297723293E0,6.907482624E0
8.882859673E0,4.946571827E0,-4.273780346E0,6.699181080E0
8.934859500E0,4.759818554E0,-4.288146019E0,6.730306625E0
8.984859596E0,5.528380394E0,-4.369551659E0,6.866780281E0
9.036859522E0,5.332049847E0,-4.434196949E0,6.818894863E0
9.088859514E0,5.308107376E0,-4.288146019E0,6.749460697E0
9.138859544E0,5.724710941E0,-4.098998547E0,6.723123550E0
9.190859471E0,5.684008598E0,-4.108575344E0,7.465348721E0
9.242859430E0,5.284164429E0,-4.297723293E0,7.199584484E0
9.292859460E0,5.279376030E0,-3.308887720E0,7.527599812E0
9.342859587E0,5.672037125E0,-3.577046633E0,8.401510239E0
9.394859413E0,5.645699978E0,-3.957736254E0,7.778998852E0
9.444859511E0,5.619362831E0,-3.737462997E0,7.889135361E0
9.494859773E0,5.528380394E0,-3.835628271E0,7.283383846E0
9.546859598E0,5.363175392E0,-3.268185139E0,6.830865860E0
9.598859495E0,5.849213123E0,-3.213116884E0,6.821289062E0
9.648859791E0,6.294548512E0,-3.929004908E0,7.570696831E0
9.700859516E0,5.559505939E0,-4.067873001E0,6.754249096E0
9.752859513E0,5.209941864E0,-3.787742853E0,6.677632332E0
9.802859576E0,5.588237286E0,-4.218712330E0,6.426233768E0
9.854859534E0,5.842030525E0,-3.852388144E0,6.742278099E0
9.906859430E0,5.765413761E0,-3.526766777E0,6.725517750E0
9.956859659E0,5.458946705E0,-3.067065954E0,6.854808807E0
1.000691942E1,5.842030525E0,-2.681587696E0,7.673650742E0
1.005891915E1,6.332856655E0,-2.554691315E0,8.753468513E0
1.010891935E1,6.433416367E0,-2.219492674E0,9.024022102E0
1.015891941E1,7.127756119E0,-1.992036581E0,9.622590065E0
1.021091924E1,6.912271500E0,-1.314456820E0,9.088666916E0
1.026291927E1,6.708757877E0,-9.912297726E-1,8.844450951E0
1.031291936E1,7.314509392E0,-1.029538140E-1,9.871595383E0
1.036491912E1,7.513234138E0,-4.333637357E-1,9.715967178E0
1.041491925E1,6.780586243E0,-1.915419847E-2,8.877970695E0
1.046691928E1,5.837242126E0,1.604164094E-1,9.059935570E0
1.051891911E1,3.687183142E0,7.374366522E-1,8.832479477E0
1.056891917E1,3.581835032E0,8.451790214E-1,8.640937805E0
1.061891923E1,2.166818619E0,1.130097747E0,7.328875065E0
1.067091913E1,1.944151163E0,5.889915824E-1,7.613793850E0
1.072291912E1,1.879505754E0,1.426987767E0,5.540351868E0
1.077291915E1,1.594586968E0,2.030344963E0,6.251451492E0
1.082291918E1,3.617749214E0,3.543526828E-1,6.117372036E0
1.087491918E1,4.309694767E0,1.261782765E0,6.004841328E0
1.092691914E1,5.494860649E0,7.350423932E-1,5.595420361E0
1.097891910E1,5.549929142E0,5.099805593E-1,5.320078850E0
1.102891923E1,9.756669998E0,-4.956148863E-1,3.555498123E0
1.108091909E1,2.177114105E1,-6.086246490E0,6.591438770E0
1.113091911E1,6.402290821E0,7.446194887E-1,6.354405403E0
1.118291911E1,7.419857502E0,4.192375183E0,4.901080608E0
1.123491907E1,7.704776287E0,6.170046329E0,1.764580488E0
1.128691907E1,5.341627121E0,2.547508478E0,7.889135361E0
1.133691910E1,1.012538815E1,6.988888264E0,6.201171875E0
1.138891906E1,4.036747456E0,4.941783428E0,6.134131908E0
1.143891908E1,2.324840784E0,2.899466753E0,9.050358772E0
1.149091902E1,1.338399649E0,3.033546209E0,6.387925148E0
1.154091908E1,3.050306082E0,3.155654192E0,9.596253395E0
1.159091910E1,-2.250618339E-1,4.333637238E0,1.190433407E1
1.164291907E1,-8.652909279E0,6.251451492E0,1.886927986E1
1.169491903E1,-2.210873413E1,6.000052452E0,2.239125824E1
1.174491905E1,-3.595482635E1,9.902720451E0,3.605777979E0
1.179691905E1,-2.127552605E1,2.066259146E0,-5.640911579E0
1.184891904E1,9.337671280E0,-1.335765934E1,2.706248856E1
1.190091897E1,5.226701736E0,-4.255583954E1,2.229069948E0
1.195091900E1,1.650373650E1,7.297749519E0,-7.869981289E0
1.200091913E1,-5.944984436E0,-8.396721840E0,-9.416683197E0
1.205291902E1,-6.780586243E0,1.694907188E1,-2.276955366E0
1.210491902E1,-1.049171257E1,4.726298332E0,-6.363982677E0
1.215691898E1,-7.637736797E-1,-1.692752242E0,2.990449190E0
1.220891897E1,-3.562680960E0,-1.206714511E0,2.588211060E0
1.225891900E1,-2.803695917E0,-1.221080184E0,1.192348838E0
1.230891903E1,-1.187560320E0,1.221080124E-1,3.849993944E0
1.235891906E1,5.889915824E-1,4.218712330E0,7.132544518E0
1.241091906E1,3.900273561E0,2.343995094E0,1.181335163E1
1.246091919E1,1.095141315E1,5.118959427E0,1.442071724E1
1.251291908E1,1.842633820E1,3.883513689E0,1.545504379E1
1.256491891E1,1.746384048E1,7.441406250E0,1.228262997E1
1.261491914E1,1.396580505E1,9.402317047E0,1.007032013E1
1.266691903E1,8.356019020E0,9.227535248E0,8.030397415E0
1.271891893E1,6.847625732E0,5.013611317E0,6.861991405E0
1.276891912E1,8.126168251E0,1.110943556E0,6.768614769E0
1.281891922E1,9.318517685E0,-1.508393139E-1,6.522004604E0
1.287091898E1,8.487704277E0,-4.070267081E-2,4.889109135E0
1.292091904E1,7.003253937E0,-7.182824612E-1,5.367964268E0
1.297091913E1,5.700768471E0,5.746259689E-1,4.424619675E0
1.302291883E1,4.668835640E0,1.189954638E0,5.195576191E0
1.307291903E1,5.109382629E0,9.888355136E-1,5.554717541E0
1.312491905E1,6.589044094E0,4.788549542E-1,5.557111740E0
1.317691891E1,7.122967720E0,5.435003638E-1,6.802134514E0
1.322691898E1,7.937020779E0,8.667274714E-1,7.427040577E0
1.327891904E1,7.484503269E0,1.393467903E0,7.841249943E0
1.333091893E1,7.324086666E0,1.719089270E0,7.704776287E0
1.338291893E1,7.826884270E0,2.468497276E0,7.788576126E0
1.343291895E1,8.537983894E0,2.224281311E0,7.175641537E0
1.348491885E1,8.061523438E0,1.486844659E0,7.048745155E0
1.353691885E1,7.915472507E0,8.092648983E-1,6.639324188E0
1.358691891E1,7.877163887E0,3.423812985E-1,5.798933506E0
1.363891884E1,6.897905827E0,6.895511150E-1,5.631334305E0
1.369091883E1,6.658478260E0,1.063058019E0,6.876357079E0
1.374091889E1,5.530774593E0,3.124528646E0,1.610389328E1
1.379291882E1,8.080677032E0,2.940169573E0,2.567620277E1
1.384491882E1,1.741356087E1,4.740664005E0,2.577915764E1
1.389691878E1,1.914701653E1,6.998465061E0,8.250671387E0
1.394891877E1,9.071907043E0,4.180403709E0,1.565855742E0
1.400091874E1,3.785348415E0,1.920208454E0,-4.309694767E-1
1.405091893E1,-1.403045058E0,1.189954638E0,-3.258608103E0
1.410091902E1,-2.154847234E-2,1.400650740E0,1.608952641E0
1.415291882E1,8.643332124E-1,8.451790214E-1,8.547561169E-1
1.420291885E1,4.525179267E-1,3.210722446E0,8.595446348E-1
1.425491877E1,-3.759011328E-1,5.181210518E0,1.096577883E0
1.430491890E1,-2.897072554E0,6.371165276E0,7.781392932E-1
1.435691880E1,-3.340013266E0,7.388731956E0,1.601769805E0
1.440891876E1,-4.031958580E0,7.338452339E0,1.134886265E0
1.445891899E1,-1.757397652E0,5.782173634E0,1.431776285E0
1.451091878E1,-1.041509509E0,3.392687321E0,3.232271075E-1
1.456291877E1,6.919454336E-1,2.856369734E0,8.715160489E-1
1.461491874E1,2.466102988E-1,1.228263021E0,1.321639657E0
1.466491876E1,-1.728666425E0,3.529160976E0,5.815693378E0
1.471491879E1,-6.172440529E0,8.815719604E0,5.231490612E0
1.476491882E1,-5.973715782E0,5.616968632E0,9.888355255E0
1.481691878E1,-5.219519138E-1,4.465322495E0,8.662486076E0
1.486891871E1,4.467716694E0,2.195549965E0,1.281894779E1
1.491891874E1,3.955342054E0,1.755003452E0,7.668862343E0
1.496891893E1,1.100169277E1,-1.556278616E-1,1.078381348E1
1.502091882E1,8.775016785E0,1.891477108E-1,9.304151535E0
1.507291869E1,1.120520592E1,-3.486064196E0,1.035763264E1
1.512291879E1,7.580274105E0,-3.926610708E0,8.109408379E0
1.517291888E1,8.135746002E0,-4.896292210E0,6.893116951E0
1.522491884E1,7.352818012E0,-4.362368584E0,4.731087208E0
1.527691880E1,6.715940952E0,-6.253845692E0,4.707144260E0
1.532891869E1,6.557918549E0,-7.527599812E0,5.640911579E0
1.538091862E1,8.590658188E0,-9.833286285E0,5.102199554E0
1.543091885E1,5.456552505E0,-7.309720993E0,3.845205307E0
1.548091888E1,4.891503334E0,-7.223526955E0,2.928198099E0
1.553291871E1,5.253038883E0,-7.637736797E0,3.385504484E0
1.558291897E1,4.288146019E0,-7.668862343E0,3.562680960E0
1.563491886E1,5.066285610E0,-9.203592300E0,3.581835032E0
1.568691863E1,5.193181992E0,-9.378374100E0,3.610566378E0
1.573691902E1,4.034353256E0,-8.892336845E0,3.062277555E0
1.578891881E1,3.926610708E0,-8.782199860E0,2.944957972E0
1.584091861E1,3.440572977E0,-8.502069473E0,2.389486313E0
1.589091877E1,4.008016109E0,-9.196409225E0,2.672010660E0
1.594091883E1,3.385504484E0,-8.815719604E0,2.183578730E0
1.599291856E1,2.600182533E0,-8.973741531E0,1.843591571E0
1.604291879E1,2.736656189E0,-9.196409225E0,1.489238977E0
1.609491879E1,3.442967176E0,-9.296969414E0,1.874717116E0
1.614691858E1,3.208328247E0,-9.134158134E0,1.929785490E0
1.619691885E1,3.493247032E0,-9.282603264E0,2.329629421E0
1.624691890E1,3.253819466E0,-9.320911407E0,2.044710636E0
1.629891856E1,3.232270956E0,-9.100638390E0,2.178790092E0
1.635091856E1,3.265790939E0,-9.105426788E0,2.274561167E0
1.640091886E1,3.316070557E0,-8.935433388E0,2.049499273E0
1.645291858E1,3.296916485E0,-9.045570374E0,2.061470509E0
1.650491851E1,3.672817469E0,-9.095849991E0,2.877918243E0
1.655491864E1,3.885908127E0,-8.978530884E0,3.134105682E0
1.660691857E1,4.589824677E0,-8.719948769E0,4.788549423E0
1.665691860E1,3.938581944E0,-8.660092354E0,5.229096413E0
1.670891852E1,3.991255999E0,-9.035993576E0,5.715134144E0
1.676091845E1,4.137306690E0,-9.086273193E0,5.643305779E0
1.681091862E1,4.819674969E0,-8.954587936E0,6.804529190E0
1.686291854E1,4.733481407E0,-9.119792938E0,6.265817165E0
1.691491850E1,4.529967785E0,-7.848433018E0,5.933012962E0
1.696491853E1,4.474899769E0,-7.166064739E0,5.875550270E0
1.701491856E1,4.721509933E0,-6.205960274E0,5.581054688E0
1.706691848E1,4.678412914E0,-5.413455486E0,6.071880817E0
1.711891848E1,4.355185986E0,-4.075055599E0,5.956955910E0
1.717091848E1,4.489265442E0,-3.780560017E0,5.944984436E0
1.722291847E1,3.742251635E0,-2.997632027E0,5.358386993E0
1.727291854E1,3.735068798E0,-2.288926601E0,5.739076614E0
1.732485090E1,3.790137053E0,-2.061470509E0,7.352818012E0
1.737485096E1,3.871542454E0,-1.944151163E0,8.595446587E0
1.742685092E1,4.359974384E0,-1.211503029E0,9.493299484E0
1.747885092E1,4.398283005E0,-1.110943556E0,9.718361855E0
1.753085091E1,4.189980984E0,-5.770202279E-1,8.978530884E0
1.758085097E1,4.510813713E0,-5.985686779E-1,9.759063721E0
1.763085100E1,4.417437077E0,2.178790122E-1,9.299363136E0
1.768285093E1,4.448562622E0,4.261809289E-1,9.517242432E0
1.773485086E1,3.924216509E0,8.595446348E-1,9.830892563E0
1.778685085E1,3.476486921E0,1.206714511E0,9.569916725E0
1.783685094E1,2.818061352E0,1.010383964E0,9.210775375E0
1.788885084E1,3.701548815E0,9.912297726E-1,9.524425507E0
1.793885087E1,3.227482557E0,1.393467903E0,8.245882034E0
1.799085083E1,2.420611858E0,1.575432777E0,7.901106834E0
1.804085086E1,2.322446585E0,1.719089270E0,7.422251701E0
1.809085099E1,2.147664547E0,1.589798450E0,7.841249943E0
1.814285081E1,1.874717116E0,1.958516836E0,8.030397415E0
1.819285085E1,1.989642382E0,1.656838179E0,8.051946640E0
1.824285097E1,3.227482557E0,1.424593568E0,8.095043182E0
1.829285103E1,5.935407162E0,-6.225114316E-2,5.245856285E0
1.834485080E1,1.020439911E1,-2.004008055E0,-2.801301479E-1
1.839485109E1,4.417437077E0,9.000079155E0,5.276981831E0
1.844685102E1,4.302511692E0,3.040729046E0,4.400677204E0
1.849885081E1,6.799740314E0,6.340039730E0,7.211555958E0
1.854885104E1,3.861965179E0,3.464515686E0,6.469330311E0
1.859885110E1,6.155680656E0,1.115732074E0,8.145322800E0
1.865085080E1,7.934626579E0,1.436564922E-1,9.270631790E0
1.870085099E1,1.097774982E1,4.094209969E-1,1.338399601E1
1.875285102E1,9.474145889E0,1.156434774E0,1.319963741E1
1.880485068E1,7.901106834E0,6.368771195E-1,1.262740517E1
1.885485091E1,6.507638931E0,1.312062621E0,1.074790001E1
1.890485100E1,3.404658794E0,2.023162127E0,6.871568680E0
1.895685073E1,2.439765930E0,1.977671027E0,6.361588001E0
1.900685076E1,1.376708031E0,1.345582485E0,4.661653042E0
1.905685089E1,-1.053480953E-1,1.278542757E0,5.238673210E0
1.910885078E1,-1.546701550E0,2.094990492E0,5.966532707E0
1.916085071E1,-4.558699131E0,3.136499882E0,9.229928970E0
1.921085074E1,-1.030016994E1,7.110996246E0,1.190912247E1
1.926285073E1,-1.946066475E1,1.128421688E1,1.434170628E1
1.931485073E1,-3.520780945E1,2.044710732E1,5.171633720E0
1.936485086E1,-3.292127991E1,5.808510780E0,3.404658794E0
1.941685065E1,8.506858826E0,-1.618050957E1,2.335136223E1
1.946685068E1,2.280307388E1,-3.623255920E1,1.417889500E1
1.951685074E1,7.817307472E0,-7.216344357E0,-1.304640388E1
1.956885070E1,-1.100648117E1,2.049499273E0,-1.581179047E1
1.962085070E1,-1.007750225E1,1.111422348E1,-3.390293121E0
1.967285066E1,-2.923409462E0,6.227508545E0,3.299310684E0
1.972285072E1,-5.559505939E0,6.826077461E0,3.395081758E0
1.977285075E1,-4.151672363E0,3.409447432E0,3.869148016E0
1.982485064E1,-1.412622094E0,1.862745762E0,8.499675393E-1
1.987485067E1,1.029538155E0,1.800494671E0,1.948939681E0
1.992685067E1,2.178790122E-1,-2.418217510E-1,4.836435020E-1
1.997685070E1,4.405465722E-1,1.261782765E0,2.992843628E0
2.002885066E1,2.195549965E0,-5.363175869E-1,1.020918751E1
2.008085066E1,3.208328247E0,-4.455745220E0,1.450451660E1
2.013085068E1,5.724710941E0,-4.134912491E0,2.148382759E1
2.018285068E1,3.823656797E0,-4.249837875E0,1.681259727E1
2.023485064E1,6.905088425E0,-3.263396502E0,1.496421719E1
2.028685063E1,5.365570068E0,-1.276148438E0,1.285964966E1
2.033885063E1,4.553910732E0,-1.163617611E0,1.066888809E1
2.038885066E1,6.387925148E0,-9.720755816E-1,9.404711723E0
2.044085062E1,6.581861496E0,-1.221080184E0,9.189227104E0
2.049285058E1,6.146103382E0,-1.989642382E0,8.245882034E0
2.054285061E1,6.117372036E0,-2.367937803E0,7.580274105E0
2.059285070E1,6.356799603E0,-3.059883118E0,7.434223175E0
2.064485056E1,5.798933506E0,-2.806090117E0,7.343240738E0
2.069485060E1,6.414262295E0,-4.063084126E0,6.981705189E0
2.074485076E1,5.746259689E0,-3.727885962E0,6.871568680E0
2.079685062E1,6.246663094E0,-4.146883965E0,6.605803967E0
2.084885055E1,5.018400192E0,-3.931399345E0,6.581861496E0
2.089885074E1,5.387118340E0,-3.524372578E0,6.332856655E0
2.095085064E1,5.889915943E0,-3.541132450E0,7.075081825E0
2.100285060E1,5.734288216E0,-3.404658794E0,7.065505028E0
2.105285073E1,6.136526108E0,-3.675211906E0,7.216344357E0
2.110485069E1,5.640911579E0,-3.442967176E0,6.955368519E0
2.115685052E1,5.236279011E0,-3.340013266E0,6.885934353E0
2.120685075E1,6.347222328E0,-3.545921087E0,7.020013809E0
2.125885071E1,6.876357079E0,-3.651269197E0,7.331269264E0
2.131085050E1,7.067899227E0,-3.845205307E0,7.295355320E0
2.136085077E1,6.462147713E0,-3.450150013E0,6.696786404E0
2.141285069E1,6.478907585E0,-3.328042030E0,6.426233768E0
2.146485049E1,6.438204765E0,-3.067065954E0,6.227508545E0
2.151485065E1,7.020013809E0,-3.399870157E0,6.232297421E0
2.156485078E1,6.876357079E0,-3.390293121E0,6.308914185E0
2.161685044E1,6.984099388E0,-3.747040033E0,6.584255695E0
2.166685057E1,6.682421207E0,-3.648874760E0,6.222720146E0
2.171685063E1,6.857203007E0,-3.452544212E0,6.701575279E0
2.176885045E1,6.390319347E0,-3.129317284E0,5.947378635E0
2.181885065E1,6.962551117E0,-3.316070557E0,6.335251331E0
2.187085058E1,6.818894863E0,-3.512401104E0,6.414262295E0
2.192285040E1,6.304125786E0,-3.531555414E0,6.184412003E0
2.197285047E1,6.629746914E0,-3.335224867E0,6.217931747E0
2.202285053E1,6.591438770E0,-3.294522047E0,6.193988800E0
2.207485052E1,6.771008968E0,-3.141288519E0,6.069486618E0
2.212685045E1,6.557918549E0,-2.844398499E0,6.232297421E0
2.217885041E1,6.668055534E0,-2.777358770E0,5.949772835E0
2.222885047E1,7.079870701E0,-2.724684715E0,6.263422966E0
2.228085044E1,7.278595448E0,-3.083826065E0,6.663266659E0
2.233285036E1,7.115784645E0,-2.736656189E0,6.893116951E0
2.238285046E1,6.969734192E0,-2.760598898E0,6.957762718E0
2.243285069E1,6.359193802E0,-2.533142805E0,7.321692467E0
2.248485051E1,6.771008968E0,-2.703136206E0,7.685622215E0
2.253685047E1,6.988888264E0,-2.887495518E0,7.563514233E0
2.258885044E1,7.376760483E0,-2.226675510E0,7.683228016E0
2.264085040E1,6.943397045E0,-1.774157643E0,7.877163887E0
2.269085042E1,7.556331158E0,-9.864411950E-1,8.822902679E0
2.274285039E1,6.562707424E0,-5.913859010E-1,9.040781975E0
2.279285041E1,6.586649895E0,9.816526622E-2,9.811738014E0
2.284285054E1,5.820482254E0,5.195576549E-1,8.997684479E0
2.289485040E1,5.432609558E0,7.015225291E-1,8.358413696E0
2.294685036E1,4.814886570E0,1.917814136E0,7.108602047E0
2.299885032E1,5.765413761E0,2.123721838E0,9.019232750E0
2.304885039E1,5.382329941E0,2.241041183E0,9.313729286E0
2.310085032E1,2.803695917E0,3.191568375E0,6.023995399E0
2.315285031E1,4.173221111E0,3.083826065E0,8.506858826E0
2.320285041E1,2.015979290E0,2.863552570E0,6.842837334E0
2.325285043E1,4.336031914E0,2.193155766E0,6.253845692E0
2.330485039E1,5.293741703E0,3.335224867E0,4.594613552E0
2.335685036E1,4.793338299E0,2.774964571E0,2.322446585E0
2.340885032E1,7.166064739E0,1.242628574E0,5.363175869E-1
2.346085031E1,6.442993641E0,8.379961550E-2,2.078230619E0
2.351085038E1,-3.079037428E0,2.449343204E0,4.094210148E0
2.356085057E1,4.635315895E0,9.457385063E0,-3.419024467E0
2.361285053E1,2.820455790E0,4.422225475E0,1.460507679E1
2.366485029E1,-1.314456820E0,3.153259993E0,9.265843391E0
2.371485042E1,7.450983047E0,1.302485466E0,6.012023926E0
2.376685028E1,6.466936111E0,-6.170046329E0,1.020679379E1
2.381885028E1,1.157871342E1,-5.530774593E-1,1.800015831E1
2.386885054E1,1.298654652E1,-4.604190350E0,1.749736023E1
2.392085033E1,1.326667690E1,-2.104567528E0,1.529941559E1
2.397285026E1,6.864386082E0,-4.501236677E-1,9.931451797E0
2.402285046E1,4.936994553E0,1.611346960E0,7.089447498E0
2.407285048E1,3.407052994E0,3.639297783E-1,4.726298332E0
2.412485021E1,1.695146561E0,1.359948039E0,4.539545059E0
2.417485064E1,1.245022893E0,1.405439258E0,4.726298332E0
2.422685044E1,-1.161223292E0,2.791724443E0,4.891503334E0
2.427885027E1,6.416656375E-1,2.640885115E0,4.422225475E0
2.432885043E1,-2.011190802E-1,2.097384691E0,3.754222870E0
2.437885082E1,-2.722290516E0,4.496448040E0,3.993650436E0
2.443085038E1,-8.616994858E0,7.968146324E0,8.492492676E0
2.448285041E1,-1.701371765E1,1.464817333E1,1.072156239E1
2.453285047E1,-3.683352280E1,2.519016457E1,7.759844780E0
2.458479141E1,-3.356533813E1,1.726750946E1,5.698374271E0
2.463479151E1,-5.904281616E0,8.693612099E0,3.162837029E0
2.468479154E1,2.536734200E1,-7.733747101E1,-3.470740891E1
2.473679136E1,9.687235832E0,1.199531674E0,-1.031932449E1
2.478679140E1,9.265843630E-1,-5.624151707E0,-1.397059345E1
2.483679145E1,-3.854782343E0,9.342460632E0,-6.308914185E0
2.488879138E1,-4.474899769E0,7.269018173E0,-5.851607800E0
2.494079138E1,-1.642472506E0,4.898686409E0,-3.471698463E-1
2.499079141E1,-5.384724140E0,4.707144260E0,-2.873129845E-1
2.504279137E1,-3.225088120E0,1.067846537E0,1.721483588E0
2.509279140E1,-2.226675510E0,3.304099143E-1,4.869955063E0
2.514479139E1,-4.348002911E0,2.652856588E0,3.885908127E0
2.519479145E1,-1.822043180E0,4.209135056E0,8.193208694E0
2.524679132E1,-4.764606953E-1,8.621783257E0,1.116210938E1
2.529679138E1,-8.810931444E-1,5.157268047E0,1.625712585E1
2.534879130E1,3.210722446E0,6.296942711E0,1.482295513E1
2.539879134E1,6.957762718E0,5.695979595E0,1.643190765E1
2.545079133E1,5.736682415E0,5.286558628E0,1.249332619E1
2.550079136E1,6.682421207E0,4.932206154E0,1.023552513E1
2.555079145E1,7.190007210E0,3.840416908E0,8.712765694E0
2.560279141E1,7.216344357E0,3.193962574E0,7.410280704E0
2.565479127E1,6.964945316E0,2.583422422E0,7.910684109E0
2.570479130E1,5.918647289E0,2.537931204E0,6.220325947E0
2.575679130E1,6.469330311E0,2.233858347E0,6.974522591E0
2.580879129E1,7.156487465E0,2.262589693E0,5.956955910E0
2.586079129E1,7.470137596E0,1.683175206E0,6.184412003E0
2.591279128E1,7.652102470E0,1.661626697E0,5.832453251E0
2.596279131E1,7.180429935E0,1.522758722E0,5.511620522E0
2.601479131E1,6.814105988E0,1.431776285E0,6.253845692E0
2.606679127E1,7.065505028E0,1.635289669E0,6.050332546E0
2.611879126E1,7.431828976E0,1.486844659E0,6.179623127E0
2.616879129E1,7.012830734E0,1.486844659E0,6.134131908E0
2.621879132E1,7.091842175E0,1.333611012E0,6.555524349E0
2.627079124E1,7.407886028E0,1.534730196E0,6.505244732E0
2.632079131E1,8.109408379E0,1.491633177E0,6.380742550E0
2.637079137E1,7.786181450E0,1.415016413E0,6.488484859E0
2.642279126E1,7.913078308E0,1.532335877E0,6.244268894E0
2.647479123E1,7.903501034E0,1.491633177E0,6.119766235E0
2.652479142E1,7.661679268E0,1.474873304E0,5.834847927E0
2.657679128E1,7.817307472E0,1.369525194E0,5.604997158E0
2.662879125E1,7.486897469E0,1.415016413E0,5.336838722E0
2.667879137E1,7.922655106E0,1.359948039E0,5.590631485E0
2.673079127E1,8.444606781E0,1.151646137E0,5.588237286E0
2.678279116E1,7.951386452E0,1.170800328E0,5.655277252E0
2.683279143E1,8.250671387E0,1.077423692E0,5.705556870E0
2.688479129E1,7.513234138E0,1.161223292E0,5.509226322E0
2.693679108E1,7.960963726E0,1.125309110E0,5.729499817E0
2.698679144E1,7.877163887E0,1.041509509E0,5.473312378E0
2.703879140E1,8.195602417E0,1.007989645E0,5.777385235E0
2.709079113E1,7.836461544E0,1.113337755E0,5.394300938E0
2.714079153E1,7.822095871E0,1.149251938E0,5.521197796E0
2.719279132E1,7.721536160E0,1.242628574E0,5.423032284E0
2.724479112E1,8.035185814E0,1.233051538E0,5.502043724E0
2.729479132E1,8.279402733E0,1.154040456E0,5.485283375E0
2.734679134E1,7.937020779E0,1.209108829E0,5.348809719E0
2.739879110E1,8.250671387E0,1.216291547E0,5.348809719E0
2.744879130E1,7.927443981E0,1.197137356E0,5.197970390E0
2.749879140E1,8.370385170E0,1.187560320E0,5.731894016E0
2.755079106E1,7.862798691E0,1.091789365E0,6.174834728E0
2.760079116E1,7.175641537E0,8.236305118E-1,6.830865860E0
2.765079125E1,6.936213970E0,4.070267081E-1,6.806923389E0
2.770279111E1,6.929031372E0,4.620950520E-1,7.003253937E0
2.775479108E1,7.776604652E0,3.328042030E-1,6.711152077E0
2.780479123E1,7.233104229E0,3.184385598E-1,6.366376877E0
2.785679109E1,7.331269264E0,5.243461728E-1,6.701575279E0
2.790879106E1,6.761432171E0,7.972934842E-1,7.190007210E0
2.795879115E1,7.060716629E0,1.087000728E0,8.066311836E0
2.801079111E1,6.543552876E0,1.431776285E0,8.468549728E0
2.806279111E1,6.193988800E0,1.285725594E0,9.095849991E0
2.811479107E1,5.882733345E0,1.467690468E0,9.277814865E0
2.816679103E1,6.062304020E0,1.795706153E0,9.318517685E0
2.821679109E1,5.528380394E0,2.358360767E0,8.885153770E0
2.826879105E1,4.292934895E0,2.312869549E0,8.028003693E0
2.831879108E1,3.608172178E0,3.009603500E0,7.711959362E0
2.837079104E1,3.510006905E0,3.363956213E0,8.356019020E0
2.842279104E1,4.127729893E0,3.773377180E0,8.207573891E0
2.847479103E1,2.492439985E0,4.302511692E0,7.776604652E0
2.852679103E1,1.958516836E0,4.324060440E0,7.376760483E0
2.857879099E1,1.951334000E0,3.967313290E0,7.812518597E0
2.862879105E1,2.427794695E0,3.026363373E0,8.478127480E0
2.868079102E1,2.442160368E0,3.244242430E0,8.308133125E0
2.873279101E1,2.212309837E0,3.067065954E0,8.241093636E0
2.878479100E1,2.020767927E0,4.043930054E0,9.459779739E0
2.883679100E1,2.870735407E0,3.727885962E0,8.535589218E0
2.888879100E1,2.643279314E0,3.126922846E0,8.039975166E0
2.893879102E1,2.315263748E0,3.272973776E0,7.587456703E0
2.899079095E1,2.530748367E0,2.849187136E0,7.826884270E0
2.904279094E1,2.255406857E0,2.727078915E0,6.943397045E0
2.909279097E1,3.478881359E0,1.467690468E0,7.510839939E0
2.914279107E1,1.021637058E1,5.219519138E-1,3.011997700E0
2.919479096E1,2.171607208E1,-1.785889626E1,9.984126091E0
2.924679092E1,1.628106833E-1,1.557715225E1,1.618529797E0
2.929679099E1,3.632114887E0,4.795732498E0,6.146103382E0
2.934879098E1,1.874717116E0,5.964138508E0,5.257827282E0
2.939879114E1,1.735849261E0,7.525205612E0,3.744645834E0
2.944879120E1,4.355185986E0,4.369551659E0,9.153312683E0
2.950079096E1,6.555524349E0,6.397502422E0,1.398495960E1
2.955079102E1,6.043149471E0,6.691998005E0,1.786368370E1
2.960279085E1,3.993650436E0,4.537150860E0,1.152843285E1
2.965279098E1,6.225114465E-1,3.536343813E0,6.715940952E0
2.970479084E1,6.632141471E-1,2.592999697E0,3.680000305E0
2.975479100E1,8.882759809E-1,2.245829821E0,4.963331699E0
2.980479103E1,-9.888355136E-1,8.643332124E-1,5.660065651E0
2.985679089E1,-2.643279314E0,2.128510237E0,6.689603806E0
2.990879085E1,-5.430215359E0,5.856396198E0,9.067118645E0
2.995879122E1,-1.210066509E1,9.718361855E0,1.389158249E1
3.001079101E1,-2.545832443E1,1.568968296E1,1.683893394E1
3.006079104E1,-3.674254227E1,2.176874733E1,1.347976685E0
3.011079130E1,-2.996674347E1,1.091789365E0,-1.314456820E0
3.016279110E1,1.199771118E1,-9.689630508E0,1.620684624E1
3.021479079E1,3.102501297E1,-4.274498749E1,3.049587822E1
3.026479106E1,2.157241583E0,-3.569863796E0,-1.462183666E1
3.031479115E1,-3.636903524E0,3.524372578E0,-1.041749001E1
3.036679088E1,-4.312088966E0,1.012778282E1,-2.293715239E0
3.041879091E1,-3.189173937E0,6.727912426E0,-9.577099234E-2
3.046879097E1,-4.221106529E0,4.491659641E0,2.609759569E0
3.052079073E1,-3.069460392E0,1.448536277E0,4.079844475E0
3.057079089E1,-2.504411459E0,-1.388679445E-1,2.090201855E0
3.062279092E1,-3.136500120E-1,-1.877111435E0,3.725491524E0
3.067279111E1,-7.637736797E-1,-8.834874034E-1,2.885101080E0
3.072479084E1,-4.070267081E-1,-1.060663700E0,4.848406315E0
3.077479097E1,6.464542150E-1,4.206740856E0,9.222746849E0
3.082679083E1,2.279349566E0,3.483669758E0,1.769129562E1
3.087679093E1,8.243488312E0,3.208328187E-1,1.847422409E1
3.092879082E1,1.434410000E1,2.691164970E0,1.672401047E1
3.098079075E1,1.263937664E1,4.060689926E0,1.351089287E1
3.103079092E1,9.790189743E0,4.819674969E0,9.507665634E0
3.108279074E1,9.215563774E0,3.747040033E0,7.558725357E0
3.113279077E1,8.794171333E0,3.146077156E0,6.809317589E0
3.118279080E1,8.324893951E0,1.359948039E0,6.457359314E0
3.123479073E1,7.314509392E0,7.182824425E-3,5.763019562E0
3.128479075E1,8.121379852E0,-5.411061049E-1,5.952167034E0
3.133479082E1,8.248276711E0,-1.505998850E0,5.693585396E0
3.138679075E1,7.496474266E0,-1.027143836E0,5.303318501E0
3.143879074E1,7.412674904E0,-1.194743156E0,5.652883053E0
3.149079067E1,6.902694225E0,-9.744698405E-1,5.461340904E0
3.154079083E1,6.885934353E0,-7.398309112E-1,5.209941864E0
3.159279072E1,7.431828976E0,-6.296942830E-1,5.806116581E0
3.164279075E1,6.773403645E0,-3.806896806E-1,5.650488377E0
3.169479068E1,8.794171333E0,4.549122229E-2,6.007235527E0
3.174679071E1,8.557138443E0,-5.746259540E-2,6.088640690E0
3.179679074E1,7.616188049E0,-1.460507661E-1,5.763019562E0
3.184879073E1,8.403904915E0,-2.801301479E-1,6.083852291E0
3.190079069E1,8.095043182E0,-2.729473412E-1,5.911464691E0
3.195278498E1,8.051946640E0,-3.759011328E-1,5.877944469E0
3.200478497E1,8.530800819E0,-4.573064744E-1,5.525986195E0
3.205678496E1,8.387145042E0,-3.759011328E-1,5.322473049E0
3.210878496E1,8.080677032E0,-3.088614643E-1,4.960937500E0
3.216078496E1,8.573898315E0,-3.399870098E-1,5.097411156E0
3.221078498E1,9.004867554E0,-6.775797606E-1,5.382329941E0
3.226278498E1,8.293767929E0,-6.560313106E-1,5.047131062E0
3.231478491E1,8.322499275E0,-8.284190893E-1,5.353598595E0
3.236478497E1,8.257853508E0,-8.308133483E-1,5.327261448E0
3.241678493E1,7.618582249E0,-9.050358534E-1,5.956955910E0
3.246678506E1,7.853221416E0,-1.170800328E0,5.411061287E0
3.251878492E1,6.854808807E0,-1.029538155E0,7.053533554E0
3.256878495E1,9.002472878E0,-6.991282701E-1,6.632141113E0
3.261878508E1,7.472531796E0,4.118152559E-1,6.828471661E0
3.267078497E1,9.045570374E0,9.984126091E-1,9.632167816E0
3.272278490E1,1.058748341E1,1.920208454E0,9.383162498E0
3.277278510E1,9.888355255E0,2.152452946E0,9.768641472E0
3.282478499E1,7.738296032E0,2.308080912E0,6.244268894E0
3.287678489E1,5.521197796E0,1.527547359E0,4.110970020E0
3.292678512E1,5.502043724E0,3.117345810E0,3.873936653E0
3.297878501E1,4.427014351E0,2.954535007E0,2.023162127E0
3.303078481E1,5.415849686E0,1.082212210E0,2.758204460E0
3.308078510E1,8.755863190E0,1.845985889E0,1.316851139E0
3.313278503E1,1.191870022E1,3.378321648E0,-5.865973234E-1
3.318478479E1,1.077423692E0,3.684788942E0,9.833286285E0
3.323478506E1,5.995264053E0,7.676044941E0,4.130124092E0
3.328478508E1,2.502017260E0,5.391906738E0,5.083045483E0
3.333678488E1,6.261028767E0,4.278569221E0,3.833234072E0
3.338678497E1,5.502043724E0,3.634509087E0,2.576239586E0
3.343678500E1,6.289760113E0,3.682394743E0,3.696760416E0
3.348878480E1,8.186025620E0,5.049525738E0,6.411868095E0
3.353878486E1,1.305598068E1,2.444554567E0,1.449972820E1
3.358878489E1,1.511026859E1,4.910657406E0,1.439916897E1
3.364078482E1,1.224192715E1,3.878725290E0,9.615407944E0
3.369278481E1,8.810931206E0,2.846792698E0,6.031178474E0
3.374278487E1,4.793338299E0,1.822043180E0,4.735875607E0
3.379478480E1,2.978477955E0,1.580221415E0,3.737462997E0
3.384678480E1,1.237840056E0,1.393467903E0,2.966506481E0
3.389678493E1,8.379961848E-1,1.592192769E0,2.075836182E0
3.394878475E1,-2.849186957E-1,1.529941559E0,2.607365370E0
3.399878479E1,-6.919454336E-1,3.684788942E0,3.617749214E0
3.405078478E1,-4.065478802E0,5.664854050E0,9.158101082E0
3.410078484E1,-1.047974110E1,8.174054146E0,1.594587040E1
3.415278477E1,-1.789720345E1,1.180377483E1,2.060991669E1
3.420478476E1,-3.551667404E1,1.697301483E1,1.473436737E1
3.425678472E1,-3.475529480E1,1.167687798E1,-3.304099321E0
3.430678475E1,-2.913832426E0,3.064671755E0,6.210748672E0
3.435878475E1,2.989012718E1,-7.611160278E1,-3.444643021E1
3.441078474E1,1.632895470E0,-5.650488734E-1,-1.343188167E0
3.446078477E1,4.015198708E0,-5.830059052E0,-1.821085358E1
3.451278473E1,-1.098972130E1,1.073114014E1,-8.236305237E0
3.456478469E1,1.223474383E0,4.110970020E0,-1.115732074E0
3.461478472E1,-3.328042030E-1,5.291347504E-1,2.657645047E-1
3.466678471E1,-2.013585091E0,-3.902668059E-1,1.496421814E0
3.471678477E1,3.351984918E-2,8.930644989E-1,-7.422251999E-2
3.476878477E1,4.573064744E-1,1.398256540E0,3.780560017E0
3.482078467E1,2.777358770E0,7.412674904E0,1.103281784E1
3.487078469E1,3.979284763E0,5.367964268E0,1.545504379E1
3.492078472E1,1.129379463E1,8.284190893E-1,1.975276756E1
3.497278472E1,1.467929840E1,4.309694767E0,1.559630585E1
3.502478471E1,1.143266201E1,3.699154615E0,1.530659866E1
3.507678464E1,1.040073013E1,4.230683804E0,1.266571331E1
3.512878467E1,1.063776302E1,4.616161823E0,9.035993576E0
3.517878470E1,9.871595383E0,3.711125851E0,7.113390446E0
3.523078466E1,8.667274475E0,1.407833576E0,5.774991035E0
3.528078472E1,8.135746002E0,1.221080124E-1,5.715134144E0
3.533278465E1,7.759844780E0,-6.033572555E-1,5.238673210E0
3.538478461E1,8.128562927E0,-4.788549542E-1,5.296135902E0
3.543478471E1,7.283383846E0,-5.219519138E-1,5.267404556E0
3.548678464E1,6.589044094E0,-7.015225291E-1,5.597814560E0
3.553878463E1,5.818087578E0,1.292908341E-1,5.250644684E0
3.558878483E1,6.241874218E0,4.525179267E-1,6.019207001E0
3.564078462E1,6.196382999E0,1.024749637E0,6.395108223E0
3.569278462E1,7.008042336E0,8.212362528E-1,6.744672298E0
3.574278478E1,8.396721840E0,1.010383964E0,6.749460697E0
3.579478474E1,8.049551964E0,1.218685865E0,6.308914185E0
3.584678457E1,8.430241585E0,1.419804931E0,6.428627968E0
3.589678480E1,8.023215294E0,1.470084786E0,5.980898380E0
3.594878469E1,8.123774529E0,1.410227895E0,5.571477413E0
3.600078455E1,8.681640625E0,1.110943556E0,5.698374271E0
3.605078478E1,8.391933441E0,8.499675393E-1,5.734288216E0
3.610278471E1,7.805335999E0,7.853221297E-1,5.286558628E0
3.615478457E1,7.905895233E0,7.589851022E-1,5.025582790E0
3.620478477E1,7.860404015E0,7.877163887E-1,5.020794392E0
3.625478483E1,8.427846909E0,6.775797606E-1,5.233884811E0
3.630678452E1,8.576292038E0,5.842030644E-1,5.329655647E0
3.635678469E1,8.293767929E0,4.333637357E-1,5.684008598E0
3.640678475E1,8.202785492E0,2.753416002E-1,5.801327705E0
3.645878448E1,7.817307472E0,3.328042030E-1,5.578660488E0
3.650878457E1,8.097437859E0,2.753416002E-1,5.557111740E0
3.655878467E1,8.248276711E0,4.716721475E-1,5.243461609E0
3.661078453E1,8.183630943E0,5.195576549E-1,5.159662247E0
3.666278456E1,8.288979530E0,5.267404318E-1,5.159662247E0
3.671278472E1,8.293767929E0,6.368771195E-1,5.087833881E0
3.676478448E1,7.977723598E0,7.254652381E-1,5.054314137E0
3.681478454E1,8.516435623E0,6.560313106E-1,5.145296574E0
3.686678454E1,8.609811783E0,7.757450342E-1,5.346415520E0
3.691878446E1,8.628966331E0,7.613793612E-1,4.994457245E0
3.696878450E1,8.526012421E0,8.643332124E-1,4.817280769E0
3.702078449E1,8.468549728E0,9.074301720E-1,4.826858044E0
3.707078452E1,8.631361008E0,6.775797606E-1,4.951360226E0
3.712078455E1,8.877970695E0,5.435003638E-1,4.910657406E0
3.717278454E1,8.253065109E0,5.027977228E-1,4.822069645E0
3.722478443E1,8.657697678E0,4.644893110E-1,4.982485771E0
3.727478447E1,8.310527802E0,4.764606953E-1,4.838829517E0
3.732678443E1,8.679245949E0,3.663240373E-1,5.042342663E0
3.737678455E1,8.420664787E0,4.668835998E-1,4.958543301E0
3.742878448E1,8.631361008E0,4.644893110E-1,5.150084972E0
3.748078444E1,8.298556328E0,4.333637357E-1,5.176422119E0
3.753278440E1,8.399115562E0,4.453351200E-1,5.499649048E0
3.758278444E1,8.255459785E0,6.177229285E-1,5.506832123E0
3.763278446E1,7.699987888E0,4.908263385E-1,5.698374271E0
3.768478442E1,7.597033978E0,6.009629965E-1,5.899493217E0
3.773478445E1,7.745479107E0,1.580221355E-1,5.794145107E0
3.778478448E1,7.503657341E0,-5.746259540E-2,5.494860649E0
3.783478454E1,7.920260906E0,-2.394274808E-3,6.083852291E0
3.788678440E1,7.989695072E0,-3.112557158E-2,5.456552505E0
3.793678443E1,7.585062504E0,1.149251908E-1,5.734288216E0
3.798878436E1,7.901106834E0,2.178790122E-1,5.516408920E0
3.803878442E1,7.474925995E0,7.446194887E-1,6.605803967E0
3.808878452E1,7.592245579E0,1.625712633E0,6.847625732E0
3.814078438E1,7.280989647E0,1.453324795E0,7.230710030E0
3.819278437E1,8.652909279E0,1.393467903E0,8.183630943E0
3.824278450E1,8.710371971E0,1.017566800E0,6.744672298E0
3.829478446E1,8.221940041E0,3.016786277E-1,6.883540154E0
3.834678432E1,8.849239349E0,2.513988614E-1,6.442993641E0
3.839678459E1,7.757450581E0,7.805336118E-1,5.729499817E0
3.844878448E1,8.549955368E0,9.577099085E-1,6.754249096E0
3.850078434E1,7.484503269E0,1.984853864E0,6.799740314E0
3.855078454E1,8.025609016E0,2.683982134E0,6.842837334E0
3.860278446E1,7.819701672E0,3.241847992E0,7.290566921E0
3.865478426E1,8.085466385E0,3.687183142E0,7.695199013E0
3.870478462E1,6.059909344E0,3.596200705E0,6.390319347E0
3.875678455E1,5.648094177E0,3.452544212E0,6.232297421E0
3.880878434E1,6.000052452E0,3.493247032E0,6.409473896E0
3.885878451E1,5.039948463E0,4.087027073E0,5.784567833E0
3.891078450E1,5.502043724E0,3.272973776E0,6.502850533E0
3.896278426E1,4.438985348E0,3.701548815E0,4.187586784E0
3.901278439E1,4.922628880E0,2.901860952E0,3.802108288E0
3.906278448E1,4.628133297E0,1.608952641E0,3.035940409E0
3.911478424E1,6.917059898E0,-8.858816624E-1,2.099778891E0
3.916678428E1,9.308940887E0,-1.798100352E0,2.394274808E-2
3.921874386E1,9.601042271E-1,-3.766194344E0,1.282612991E1
3.927074366E1,8.669669151E0,6.124555111E0,5.511620522E0
3.932074382E1,7.948992252E0,5.928224564E0,1.082930470E1
3.937074385E1,6.828471661E0,7.230710030E0,3.079037428E0
3.942274368E1,9.912297249E0,4.903474808E0,4.714327335E0
3.947274374E1,1.309189510E1,1.028819847E1,4.048718929E0
3.952274377E1,6.117372036E0,8.583475113E0,4.975303173E0
3.957474369E1,4.163643837E0,6.761432171E0,5.166844845E0
3.962474373E1,3.203539610E0,6.814105988E0,2.762993097E0
3.967674369E1,7.996878028E-1,4.285751820E0,3.993650436E0
3.972874368E1,6.033572555E-1,5.011217117E0,3.689577579E0
3.978074368E1,3.615354896E-1,4.565882206E0,3.749434233E0
3.983274364E1,-9.816526771E-1,4.455745220E0,4.534756660E0
3.988274373E1,-2.346389294E0,5.174027920E0,6.861991405E0
3.993474370E1,-6.289760113E0,9.074301720E0,1.278303337E1
3.998474376E1,-1.797860909E1,1.359229851E1,1.912307358E1
4.003674365E1,-3.217187119E1,1.822761345E1,1.377665710E1
4.008874368E1,-3.669944382E1,1.110704041E1,1.494027495E0
4.013874371E1,-9.354432106E0,-3.131711483E0,1.416931820E1
4.019074363E1,2.439766121E1,-6.687209320E1,-2.069371796E1
4.024274363E1,9.057541847E0,3.586623669E0,2.557085514E0
4.029474362E1,-2.695953369E0,-5.162056446E0,-1.583812809E1
4.034674362E1,-2.968900800E-1,1.121238899E1,-3.076643229E0
4.039874362E1,-2.147664547E0,4.266597748E0,-2.322446585E0
4.044874368E1,-2.154847383E0,2.669616461E0,-1.166011810E0
4.050074357E1,-1.982459545E0,-1.664021015E0,1.886688590E0
4.055074367E1,-1.810071707E0,-1.498816013E0,2.949746609E0
4.060274359E1,-2.284138203E0,-1.003201127E0,7.149304390E0
4.065474352E1,-2.542719841E0,1.709512234E0,1.050607777E1
4.070474358E1,-7.470137477E-1,1.436564885E-2,1.270641613E1
4.075674358E1,7.575485706E0,2.248224020E0,1.727229881E1
4.080874361E1,8.233911514E0,-3.742251635E0,1.744947433E1
4.086074360E1,7.573091030E0,1.972882390E0,1.607995033E1
4.091274360E1,8.691217422E0,-1.577827096E0,1.228023529E1
4.096474356E1,8.688823700E0,-5.243461728E-1,1.083888245E1
4.101674356E1,8.095043182E0,1.359948039E0,9.409500122E0
4.106874352E1,7.984906673E0,1.690358043E0,8.854028702E0
4.111874354E1,8.736708641E0,4.788549617E-2,8.875576973E0
4.117074354E1,8.466156006E0,-2.068653345E0,8.109408379E0
4.122274354E1,7.721536160E0,-3.112557173E0,7.589851379E0
4.127474353E1,7.381549358E0,-2.947352171E0,6.541158676E0
4.132474363E1,6.677632332E0,-3.483669758E0,6.047938347E0
4.137674359E1,6.426233768E0,-3.543526649E0,5.332049847E0
4.142874355E1,5.674431324E0,-2.909043789E0,4.908263206E0
4.148074351E1,5.992869854E0,-1.989642382E0,4.470110893E0
4.153074354E1,6.340039730E0,-1.675992370E0,5.169239521E0
4.158274350E1,7.012830734E0,-1.288119793E0,5.370358467E0
4.163474346E1,7.498868465E0,-1.486844659E0,6.361588001E0
4.168474356E1,7.951386452E0,-1.470084786E0,6.761432171E0
4.173674345E1,7.994483471E0,-1.336005330E0,6.287365437E0
4.178874345E1,7.654496670E0,-1.678386688E0,6.711152077E0
4.183874358E1,8.001666069E0,-1.309668303E0,6.507638931E0
4.189074347E1,8.221940041E0,-1.448536277E0,6.301731110E0
4.194274350E1,8.401510239E0,-1.546701550E0,6.071880817E0
4.199274363E1,7.771816254E0,-1.319245458E0,5.451763630E0
4.204474355E1,8.107014656E0,-1.386285067E0,5.643305779E0
4.209674352E1,8.454184532E0,-1.814860344E0,5.478100777E0
4.214674368E1,8.554743767E0,-2.456526041E0,5.616968632E0
4.219874357E1,8.095043182E0,-2.264983892E0,5.351204395E0
4.225074347E1,7.965752125E0,-2.444554567E0,5.300924301E0
4.230074363E1,7.508445740E0,-2.315263748E0,4.999245644E0
4.235274356E1,8.135746002E0,-2.753416061E0,5.468523502E0
4.240474342E1,7.563514233E0,-2.818061352E0,5.169239521E0
4.245474362E1,7.984906673E0,-2.487651587E0,5.315289974E0
4.250474368E1,7.185218811E0,-2.411034822E0,5.344021320E0
4.255674337E1,7.257047176E0,-2.504411459E0,5.463735104E0
4.260674354E1,7.958569527E0,-2.521171331E0,5.631334305E0
4.265674366E1,8.408693314E0,-2.554691315E0,5.449369431E0
4.270874332E1,8.023215294E0,-2.384697676E0,5.384724140E0
4.275874342E1,8.138139725E0,-2.169213057E0,5.375146866E0
4.280874352E1,7.850827217E0,-1.968093872E0,5.078257084E0
4.286074344E1,8.190814018E0,-1.996825218E0,4.953754425E0
4.291274337E1,8.557138443E0,-2.114144564E0,5.042342663E0
4.296274343E1,8.320104599E0,-2.083019018E0,4.915446281E0
4.301474333E1,8.202785492E0,-2.185972929E0,4.783761024E0
4.306474339E1,8.370385170E0,-2.178790092E0,4.853195190E0
4.311474342E1,8.260248184E0,-2.212309837E0,4.769395351E0
4.316674334E1,8.411087036E0,-2.169213057E0,4.862771988E0
4.321874334E1,8.123774529E0,-2.272166729E0,4.922628880E0
4.327074337E1,8.298556328E0,-2.241041183E0,5.169239521E0
4.332074340E1,7.963357925E0,-2.293715239E0,5.047131062E0
4.337274336E1,8.159688950E0,-2.272166729E0,5.176422119E0
4.342474332E1,8.135746002E0,-2.348783493E0,5.102199554E0
4.347674331E1,8.004060745E0,-2.159635782E0,5.063891411E0
4.352674335E1,8.150111198E0,-2.224281311E0,5.032765865E0
4.357674344E1,8.097437859E0,-2.068653345E0,4.960937500E0
4.362874347E1,8.212362289E0,-2.059076309E0,5.286558628E0
4.368074333E1,7.903501034E0,-2.078230619E0,5.348809719E0
4.373074336E1,8.035185814E0,-1.975276709E0,5.387118340E0
4.378274325E1,7.889135361E0,-1.845985889E0,5.214730740E0
4.383274328E1,8.478127480E0,-2.032739401E0,5.135719299E0
4.388474328E1,8.181237221E0,-2.032739401E0,4.879531860E0
4.393674327E1,8.054340363E0,-1.960911036E0,5.279376030E0
4.398874324E1,7.790970325E0,-1.841197371E0,5.224307537E0
4.403874340E1,7.910684109E0,-2.241041183E0,5.451763630E0
4.408874342E1,7.652102470E0,-2.130904675E0,5.925830364E0
4.414074325E1,7.812518597E0,-2.387091875E0,5.684008598E0
4.419074328E1,7.113390446E0,-2.051893473E0,5.695979595E0
4.424074331E1,6.428627968E0,-1.573038578E0,5.238673210E0
4.429274320E1,7.525205612E0,-1.726272106E0,5.140508175E0
4.434274330E1,7.774210453E0,-2.782147408E0,6.246663094E0
4.439474329E1,8.729525566E0,-3.191568375E0,8.028003693E0
4.444474335E1,9.474145889E0,-3.332830429E0,7.999272346E0
4.449674331E1,8.882759094E0,-3.179596901E0,8.126168251E0
4.454874321E1,8.518829346E0,-2.454131603E0,7.340846539E0
4.459874347E1,8.427846909E0,-1.752609134E0,7.668862343E0
4.465074333E1,8.135746002E0,-1.460507631E0,7.134938717E0
4.470274323E1,7.771816254E0,-1.273754239E0,7.333663940E0
4.475474319E1,7.000859737E0,-1.376708031E0,6.845231533E0
4.480474332E1,6.328068256E0,-1.211503029E0,6.203566074E0
4.485674321E1,5.657671452E0,-6.536370516E-1,5.839636326E0
4.490674328E1,5.423032284E0,-2.801301479E-1,6.462147713E0
4.495674341E1,5.360781193E0,1.101366431E-1,6.222720146E0
4.500874336E1,5.162056446E0,9.481328130E-1,6.505244732E0
4.506074323E1,5.286558628E0,1.467690468E0,6.545947552E0
4.511074336E1,5.475706577E0,2.102173328E0,7.151699066E0
4.516074342E1,5.885127544E0,2.418217659E0,7.278595448E0
4.521274315E1,5.739076614E0,2.528354168E0,7.376760483E0
4.526274328E1,5.868367672E0,2.753416061E0,8.494887352E0
4.531274337E1,5.880339146E0,2.980872154E0,7.814912796E0
4.536474306E1,7.187613010E0,3.071854591E0,8.315316200E0
4.541474326E1,6.960156918E0,2.935380936E0,7.843644142E0
4.546474329E1,6.340039730E0,2.830032825E0,6.495667458E0
4.551674312E1,5.748653889E0,1.778946161E0,4.728692532E0
4.556874315E1,6.328068256E0,-1.939362586E-1,2.442160368E0
4.561874317E1,9.589070320E0,-8.810931444E-1,-3.854782581E-1
4.567074307E1,8.018425941E0,-7.063110471E-1,4.233078003E0
4.572274306E1,-4.608979225E0,-6.656084061E-1,1.041270161E1
4.577274316E1,2.420611858E0,2.039922237E0,8.523618698E0
4.582474312E1,8.274613380E0,7.065505028E0,4.055901527E0
4.587474315E1,9.603436470E0,2.375120640E0,3.794925690E0
4.592674311E1,1.081493950E1,4.908263385E-1,6.778192043E0
4.597874310E1,1.355877781E1,4.213923812E-1,7.453377247E0
4.603074310E1,1.481337833E1,1.189954638E0,1.232572651E1
4.608274299E1,1.054438591E1,1.910631299E0,1.045340347E1
4.613274309E1,1.142787361E1,1.747820616E0,1.065691757E1
4.618474302E1,8.959376335E0,1.067846537E0,9.337671280E0
4.623474305E1,6.840443134E0,2.518777132E0,7.673650742E0
4.628674297E1,4.745452881E0,2.865947008E0,6.445387840E0
4.633674310E1,2.537931204E0,1.848380208E0,6.859597206E0
4.638874310E1,8.619388938E-2,3.083826065E0,2.102173328E0
4.644074302E1,2.573845387E0,2.688770533E0,3.114951611E0
4.649074305E1,-9.194015265E-1,2.442160368E0,1.738243461E0
4.654269905E1,-7.972934842E-1,2.518777132E0,2.442160368E0
4.659469904E1,-1.874717116E0,3.256213665E0,3.873936653E0
4.664669897E1,-3.442967176E0,4.965725899E0,5.193181992E0
4.669869893E1,-6.450176239E0,7.510839939E0,1.016130257E1
4.674869896E1,-1.228502369E1,9.871595383E0,1.411185551E1
4.679869899E1,-1.991318321E1,1.508632565E1,1.491872597E1
4.685069895E1,-3.462121201E1,2.169212914E1,9.229928970E0
4.690069901E1,-2.939929962E1,1.232572651E1,2.513988495E0
4.695269900E1,-1.453324795E0,-2.650462151E0,1.686048317E1
4.700469900E1,3.714956665E1,-7.844362640E1,3.886386871E1
4.705669896E1,8.822902679E0,-4.113364220E0,-2.407682800E1
4.710869896E1,-7.697593689E0,1.340793967E-1,-1.357793236E1
4.715869898E1,-4.539545059E0,6.665660858E0,-4.747847080E0
4.721069894E1,2.032739401E0,2.384697676E0,2.521171331E0
4.726069897E1,-2.837215662E0,3.493247032E0,4.932206154E0
4.731269890E1,-3.198751211E0,-4.237866402E-1,2.717501879E0
4.736269893E1,9.170072675E-1,1.616135478E0,4.374340057E0
4.741269896E1,2.250618219E0,1.968093872E0,7.537177086E0
4.746269909E1,1.841197371E0,2.662433624E0,1.170321560E1
4.751269918E1,5.360781193E0,7.156487465E0,1.233051491E1
4.756469901E1,1.037678719E1,2.844398499E0,1.592432213E1
4.761469911E1,1.146139336E1,8.312922478E0,1.280458164E1
4.766669903E1,1.478225231E1,5.339232922E0,1.299851799E1
4.771869886E1,7.953781128E0,5.640911579E0,8.379961967E0
4.776869909E1,7.381549358E0,4.683201313E0,7.000859737E0
4.782069905E1,7.992089272E0,4.082238674E0,6.220325947E0
4.787269878E1,8.930644989E0,2.734261751E0,5.679219723E0
4.792269904E1,9.409500122E0,1.757397652E0,5.202759266E0
4.797469900E1,8.557138443E0,1.259388566E0,5.011217117E0
4.802669883E1,8.267431259E0,1.082212210E0,4.764606953E0
4.807669903E1,8.008849144E0,9.337671995E-1,4.467716694E0
4.812669909E1,7.982511997E0,1.149251938E0,4.343214512E0
4.817869878E1,7.405491829E0,7.948992252E-1,4.529967785E0
4.822869898E1,7.891529560E0,8.451790214E-1,5.176422119E0
4.828069901E1,7.695199013E0,8.499675393E-1,5.164450645E0
4.833269880E1,8.794171333E0,6.991282701E-1,5.327261448E0
4.838269890E1,7.881952763E0,7.805336118E-1,5.856396198E0
4.843269893E1,8.356019020E0,8.571503758E-1,5.600208759E0
4.848469882E1,8.059128761E0,1.139674783E0,5.176422119E0
4.853469885E1,8.856422424E0,9.194015265E-1,5.195576191E0
4.858669884E1,8.408693314E0,1.010383964E0,4.862771988E0
4.863869881E1,8.997684479E0,5.674431324E-1,5.269798756E0
4.868869884E1,8.025609016E0,6.919454336E-1,5.209941864E0
4.874069883E1,9.002472878E0,6.847625971E-1,5.684008598E0
4.879269879E1,8.514040947E0,5.315290093E-1,5.473312378E0
4.884469879E1,8.645726204E0,2.729473412E-1,5.525986195E0
4.889669882E1,8.320104599E0,-1.436564885E-2,5.253038883E0
4.894869881E1,8.351230621E0,-2.657645047E-1,5.245856285E0
4.900069877E1,8.286584854E0,-3.543526828E-1,5.281770229E0
4.905269880E1,8.274613380E0,-5.458946824E-1,5.418243885E0
4.910469876E1,7.829278469E0,-3.615354896E-1,5.159662247E0
4.915669876E1,8.016032219E0,-3.423812985E-1,5.351204395E0
4.920669882E1,8.068706512E0,-3.280156553E-1,5.420638084E0
4.925869874E1,8.176448822E0,-2.298503816E-1,5.147690773E0
4.930869878E1,8.379961967E0,-1.197137404E-2,5.351204395E0
4.936069877E1,8.123774529E0,-3.112557158E-2,5.197970390E0
4.941269873E1,8.265036583E0,1.460507661E-1,5.159662247E0
4.946469873E1,8.312922478E0,1.221080124E-1,5.092622280E0
4.951469875E1,8.253065109E0,1.652049571E-1,5.051919937E0
4.956669871E1,8.758256912E0,1.508393139E-1,5.600208759E0
4.961869871E1,8.956981659E0,6.584255695E-1,6.409473896E0
4.966869897E1,8.693612099E0,1.400650740E0,6.198777676E0
4.972069873E1,8.820508003E0,1.532335877E0,7.879558563E0
4.977269870E1,8.715160370E0,2.269772530E0,7.190007210E0
4.982469869E1,8.643332481E0,2.715107679E0,7.376760483E0
4.987669868E1,9.268238068E0,2.683982134E0,8.964164734E0
4.992869872E1,7.218738556E0,3.665634632E0,5.640911579E0
4.998069871E1,6.593832970E0,2.504411459E0,5.116565228E0
5.003269867E1,6.823683262E0,1.687963724E0,4.685595989E0
5.008269870E1,6.031178474E0,2.825244367E-1,3.076643229E0
5.013469870E1,7.070293427E0,-1.513181686E0,1.917814136E0
5.018669869E1,1.049889469E1,-2.339206457E0,1.130097747E0
5.023869865E1,1.293147850E1,1.108549237E0,2.801301479E-1
5.029069865E1,5.691191196E0,-1.098972082E0,1.183729458E1
5.034269864E1,9.033598900E0,7.211555958E0,4.479688168E0
5.039269867E1,8.356019020E0,5.047131062E0,3.639297724E0
5.044469863E1,4.575459003E0,4.664047241E0,-6.943397224E-2
5.049669859E1,7.934626579E0,2.042316437E0,-1.012778282E0
5.054669866E1,7.814912796E0,2.250618219E0,1.539518714E0
5.059669868E1,7.939415455E0,3.773377180E0,-2.083019018E0
5.064869861E1,8.913885117E0,4.024775982E0,-2.727078915E0
5.070069860E1,1.725074959E1,4.273780346E0,5.351204395E0
5.075069863E1,2.332023621E1,3.711125851E0,2.279349566E0
5.080269862E1,2.305686569E1,5.111776829E0,3.895485163E0
5.085469862E1,1.338639069E1,2.518777132E0,3.284945011E0
5.090469868E1,1.177504349E1,3.500429869E0,1.326428294E0
5.095669858E1,5.612180233E0,1.175588965E0,3.337619066E0
5.100669861E1,3.624932051E0,1.515576005E0,2.636096478E0
5.105669884E1,5.746259540E-2,1.951334000E0,1.719089270E0
5.110869876E1,5.985686779E-1,2.015979290E0,1.415016413E0
5.116069862E1,-8.523618579E-1,1.522758722E0,2.130904645E-1
5.121069895E1,-1.098972082E0,1.790917516E0,2.523565531E0
5.126269858E1,-1.790917516E0,3.378321648E0,4.027170181E0
5.131269864E1,-5.633728504E0,5.959350109E0,8.564320564E0
5.136269887E1,-1.481577206E1,9.318517685E0,1.237600613E1
5.141469870E1,-2.268814850E1,1.056832886E1,1.577108860E1
5.146669849E1,-3.512640381E1,1.768650818E1,1.164096451E1
5.151669872E1,-3.596200943E1,1.602009201E1,-9.993702888E0
5.156669878E1,-9.287391663E0,-3.687183261E-1,3.759011328E-1
5.161869841E1,2.363388634E1,-6.150413132E1,1.652049661E0
5.166869861E1,1.015651417E1,2.415823221E0,-1.416452980E1
5.171869870E1,-1.515576005E0,-1.261782837E1,-1.670964432E1
5.177069846E1,-6.328068256E0,7.891529560E0,7.661679387E-2
5.182069883E1,-4.067873001E0,5.243461609E0,-8.564320564E0
5.187269879E1,-2.564268351E0,1.800494671E0,3.047911882E0
5.192469845E1,-3.782954216E0,1.996825218E0,-3.088614643E-1
5.197469851E1,-2.911438227E0,-6.225114316E-2,1.331216812E0
5.202469854E1,-2.020767927E0,2.954535007E0,6.225114346E0
5.207669850E1,-3.067065954E0,2.056682110E0,9.517242432E0
5.212869843E1,2.408640385E0,4.297723293E0,1.267050266E1
5.217869866E1,1.005116558E1,1.206714511E0,1.946066475E1
5.223069842E1,1.068325424E1,-9.816526622E-2,1.739680099E1
5.228269842E1,1.089395046E1,1.872322917E0,1.395143890E1
5.233469841E1,1.049410629E1,1.745426297E0,1.154758739E1
5.238669840E1,7.532388687E0,2.085413456E0,9.241900444E0
5.243669847E1,8.073494911E0,2.162030220E0,8.166871071E0
5.248669853E1,8.497281075E0,9.337671995E-1,7.314509392E0
5.253869842E1,8.825297356E0,-4.644893110E-1,6.629746914E0
5.259069838E1,7.767027378E0,-1.067846537E0,6.478907585E0
5.264269838E1,8.176448822E0,-1.139674783E0,5.990475655E0
5.269269844E1,6.656084061E0,-1.276148438E0,5.116565228E0
5.274269847E1,7.702382088E0,-1.608952641E0,6.208354473E0
5.279469840E1,6.419050694E0,-1.046298146E0,5.468523502E0
5.284469879E1,7.110996246E0,-8.332076073E-1,5.171633720E0
5.289669832E1,7.106207848E0,-4.453351200E-1,5.461340904E0
5.294669848E1,7.163670063E0,-3.495641351E-1,5.370358467E0
5.299869837E1,7.582668304E0,-3.998439014E-1,5.569083214E0
5.305069840E1,7.417463303E0,-6.847625971E-1,5.384724140E0
5.310069846E1,6.251451492E0,-6.871568561E-1,4.908263206E0
5.315269839E1,4.776578426E0,-2.147664547E0,4.893897533E0
5.320469835E1,3.622537851E0,-3.088614464E0,3.864359617E0
5.325669834E1,3.153259993E0,-5.267404556E0,4.319271564E0
5.330669837E1,7.479714394E0,-8.322499275E0,4.860377789E0
5.335869837E1,6.385530949E0,-8.030397415E0,6.859597206E0
5.341069836E1,9.670475960E0,-8.894730568E0,4.683201313E0
5.346069839E1,7.891529560E0,-9.816526413E0,5.537957668E0
5.351269835E1,6.754249096E0,-9.598648071E0,3.943370581E0
5.356469828E1,3.105374336E0,-1.007032013E1,1.309668303E0
5.361469831E1,8.308133483E-1,-9.921875000E0,8.020820618E-1
5.366669824E1,3.014391899E0,-9.696812630E0,1.170800328E0
5.371669843E1,3.011997700E0,-8.808537483E0,1.496421814E0
5.376869832E1,1.620923996E0,-9.423865318E0,2.080624819E0
5.381871815E1,1.817254543E0,-8.207573891E0,1.151646137E0
5.386871821E1,2.351177931E0,-1.098014450E1,1.613741279E0
5.392071810E1,2.693559170E0,-1.059466648E1,2.676799297E0
5.397271803E1,2.425400496E0,-9.234718323E0,2.111750364E0
5.402271860E1,2.978477955E0,-8.715160370E0,2.104567528E0
5.407471812E1,3.732674360E0,-9.067118645E0,2.863552570E0
5.412671795E1,3.069460392E0,-1.023791885E1,2.525959969E0
5.417671825E1,3.459727049E0,-9.895537376E0,2.564268351E0
5.422871817E1,2.516382933E0,-7.769421577E0,1.620923996E0
5.428071797E1,2.554691315E0,-8.341653824E0,9.792584181E-1
5.433071830E1,3.141288519E0,-9.833286285E0,7.925049663E-1
5.438271816E1,3.287339211E0,-9.778218269E0,7.877163887E-1
5.443471799E1,3.191568375E0,-8.722343445E0,7.134938836E-1
5.448471825E1,2.885101080E0,-9.021627426E0,3.830839694E-1
5.453671821E1,3.536343813E0,-9.495694160E0,3.591412306E-1
5.458871800E1,3.763799906E0,-9.557945251E0,2.873129845E-1
5.463871830E1,3.653663397E0,-9.574705124E0,2.202732861E-1
5.469071819E1,2.626519442E0,-9.074301720E0,2.226675600E-1
5.474271795E1,2.516382933E0,-9.450202942E0,-4.788549617E-2
5.479271809E1,3.519583941E0,-1.079339123E1,1.611346960E0
5.484271811E1,1.743032098E0,-9.766246796E0,1.652049661E0
5.489471801E1,2.260195494E0,-9.790189743E0,9.265843630E-1
5.494471804E1,1.702329397E0,-9.567522049E0,4.453351200E-1
5.499471806E1,2.343995094E0,-9.227535248E0,7.996878028E-1
5.504671796E1,2.949746609E0,-9.510059357E0,9.840469360E-1
5.509871796E1,3.414235830E0,-9.071907043E0,7.829278708E-1
5.514871802E1,3.555498123E0,-9.268238068E0,1.362342358E0
5.520071791E1,3.881119490E0,-9.502876282E0,7.877163887E-1
5.525271791E1,3.799714088E0,-9.387951851E0,4.812492430E-1
5.530271800E1,3.474092722E0,-9.031204224E0,6.153286099E-1
5.535471793E1,3.342407703E0,-9.205986977E0,9.337671995E-1
5.540671789E1,3.117345810E0,-9.368797302E0,7.158881426E-1
5.545671792E1,3.373533249E0,-9.510059357E0,6.775797606E-1
5.550871788E1,3.579440832E0,-9.220352173E0,5.243461728E-1
5.555871791E1,3.622537851E0,-9.177255630E0,7.996878028E-1
5.560871797E1,3.572257996E0,-9.081484795E0,9.864411950E-1
5.566071790E1,3.770982742E0,-9.330489159E0,7.446194887E-1
5.571071796E1,3.723097324E0,-9.115004539E0,9.457385540E-1
5.576071802E1,3.924216509E0,-9.069513321E0,1.211503029E0
5.581271798E1,3.914639235E0,-9.158101082E0,1.118126392E0
5.586471788E1,3.826051235E0,-9.366402626E0,9.577099085E-1
5.591671784E1,4.122941017E0,-9.316123009E0,7.278595567E-1
5.596671786E1,4.197163582E0,-9.356825829E0,1.103760719E0
5.601671790E1,3.924216509E0,-9.069513321E0,9.098244309E-1
5.606871782E1,3.840416908E0,-9.057541847E0,7.781392932E-1
5.611871785E1,3.193962574E0,-8.973741531E0,8.691217303E-1
5.616871788E1,3.375927448E0,-8.798959732E0,1.012778282E0
5.622071784E1,4.189980984E0,-9.562733650E0,1.711906433E0
5.627071800E1,5.631334305E0,-9.129369736E0,1.680780888E0
5.632271800E1,5.291347504E0,-8.978530884E0,2.241041183E0
5.637471789E1,5.176422119E0,-8.279402733E0,1.810071707E0
5.642671782E1,4.671230316E0,-7.968146324E0,1.728666425E0
5.647671785E1,4.546727657E0,-7.982511997E0,1.462901950E0
5.652671791E1,4.745452881E0,-7.915472507E0,1.374313712E0
5.657671794E1,4.541939259E0,-7.944203854E0,9.864411950E-1
5.662871777E1,4.529967785E0,-8.075888634E0,1.089395046E0
5.667871803E1,4.386311531E0,-8.073494911E0,1.431776285E0
5.673071782E1,4.130124092E0,-8.470944405E0,1.819648862E0
5.678271775E1,5.006428719E0,-8.643332481E0,1.965699673E0
5.683271805E1,4.309694767E0,-9.076695442E0,2.126116037E0
5.688471787E1,4.410254002E0,-9.160495758E0,1.376708031E0
5.693671770E1,5.801327705E0,-9.052753448E0,2.262589693E0
5.698671807E1,5.784567833E0,-8.899519920E0,1.230657220E0
5.703871796E1,4.362368584E0,-9.119792938E0,1.582615614E0
5.709071768E1,4.146883965E0,-8.734314919E0,1.453324795E0
5.714071798E1,2.624125242E0,-9.031204224E0,9.553156495E-1
5.719271798E1,4.115758419E0,-8.983319283E0,2.229069948E0
5.724471770E1,5.104593754E0,-9.033598900E0,1.652049661E0
5.729471790E1,6.416656494E0,-8.418270111E0,2.600182533E0
5.734671793E1,5.291347504E0,-8.511647224E0,2.020767927E0
5.739871789E1,5.705556870E0,-8.389538765E0,1.685569525E0
5.745071789E1,6.184412003E0,-8.959376335E0,2.695953369E0
5.750071795E1,6.658478260E0,-8.401510239E0,2.619336605E0
5.755271767E1,6.308914185E0,-8.420664787E0,2.068653345E0
5.760271781E1,5.949772835E0,-7.759844780E0,1.872322917E0
5.765271787E1,5.786962032E0,-7.422251701E0,1.910631299E0
5.770471773E1,6.208354473E0,-7.053533554E0,2.051893473E0
5.775671776E1,6.991282463E0,-6.593832970E0,2.375120640E0
5.780671782E1,8.147717476E0,-6.114977837E0,4.122941017E0
5.785871768E1,9.160495758E0,-5.557111740E0,4.201952457E0
5.791071768E1,1.047255802E1,-4.321666241E0,5.018400192E0
5.796071777E1,1.008947372E1,-4.276175022E0,4.400677204E0
5.801271766E1,1.096817303E1,-2.940169573E0,5.664854050E0
5.806271786E1,9.763853073E0,-2.801301479E0,4.280963421E0
5.811471762E1,8.875576973E0,-2.145270348E0,4.460534096E0
5.816671762E1,9.182044029E0,-2.633702278E0,4.441379547E0
5.821671765E1,8.557138443E0,-3.706337452E0,3.510006905E0
5.826871761E1,5.142902374E0,-2.918621063E0,1.467690468E0
5.831871767E1,1.589798450E0,-4.419831276E0,-2.059076309E0
5.836871770E1,-2.298264313E1,-2.670095253E1,1.203362560E1
5.842071762E1,1.350849819E1,2.291321039E0,-4.235472202E0
5.847271762E1,8.645726204E0,2.418217510E-1,2.217098475E0
5.852471762E1,9.933846474E0,1.620923996E0,-3.984073162E0
5.857671757E1,1.187320900E1,6.919454336E-1,-1.192348838E0
5.862671760E1,1.677429008E1,1.268965602E-1,1.771763414E-1
5.867671767E1,2.295630646E1,1.872322917E0,2.463708878E0
5.872871759E1,2.034654808E1,3.392687321E0,-6.991282701E-1
5.878071759E1,1.691315651E1,2.549902678E0,1.553884387E0
5.883071762E1,1.455240250E1,9.744698405E-1,2.906649590E0
5.888071764E1,9.198803902E0,6.584255695E-1,1.455719113E0
5.893271764E1,8.193208694E0,7.158881426E-1,1.010383964E0
5.898471757E1,3.371139050E0,3.806896806E-1,8.092648983E-1
5.903671753E1,2.176395893E0,5.243461728E-1,1.436564885E-2
5.908671759E1,4.980091453E-1,1.867534399E0,1.254600048E0
5.913671769E1,-2.633702382E-2,2.181184292E0,2.466103077E0
5.918871758E1,-6.464542150E-1,5.427821159E0,4.659258842E0
5.924071754E1,-7.970541000E0,8.274613380E0,9.802161217E0
5.929071760E1,-1.952770615E1,9.960183144E0,1.319245434E1
5.934071763E1,-2.795555305E1,1.118126297E1,1.243586349E1
5.939271746E1,-3.448474121E1,1.323555088E1,-3.428601503E0
5.944271765E1,-2.483341789E1,6.878751755E0,-1.755003357E1
5.949271768E1,8.818114281E0,-1.252205753E1,1.967615128E1
5.954471761E1,3.265790939E1,-5.527183533E1,8.892336845E0
5.959671760E1,-1.388679385E0,5.123748183E-1,-1.610389328E1
5.964671770E1,5.849213123E0,-7.491685867E0,-1.003919411E1
5.969871759E1,-9.933846474E0,7.814912796E0,-1.743032098E0
5.975071746E1,-1.050128937E1,5.111776829E0,-2.643279314E0
5.980071765E1,-4.225894928E0,4.486870766E0,4.525179386E0
5.985271758E1,-6.557918549E0,8.978530765E-1,5.973715782E0
5.990471757E1,-4.355185986E0,9.648927450E-1,6.634535313E0
5.995471770E1,-2.782147408E0,1.762186289E0,6.897905827E0
6.000471780E1,-2.023162127E0,2.118933201E0,8.660092354E0
6.005471806E1,4.549122229E-2,6.423839092E0,8.753468513E0
6.010671776E1,2.676799297E0,1.324033976E0,1.328104210E1
6.015871771E1,1.166011810E0,1.477267504E0,1.421241570E1
6.021071741E1,3.344801903E0,1.276148438E0,1.262501144E1
6.026071751E1,5.102199554E0,3.454938650E0,1.164814663E1
6.031071777E1,7.436617374E0,2.616942406E0,1.190433407E1
6.036271739E1,7.228315830E0,3.529160976E0,1.012778282E1
6.041271749E1,8.118986130E0,2.523565531E0,1.024031353E1
6.046271752E1,7.620976925E0,1.690358043E0,8.863605499E0
6.051471741E1,6.850020409E0,9.744698405E-1,8.221940041E0
6.056471768E1,7.008042336E0,4.070267081E-1,7.360000610E0
6.061671750E1,6.854808807E0,-4.477293789E-1,6.612987041E0
6.066871740E1,6.237085819E0,-3.495641351E-1,6.088640690E0
6.071871749E1,6.416656494E0,-5.722316504E-1,6.081458092E0
6.077071732E1,6.739883423E0,1.197137404E-2,5.985687256E0
6.082071741E1,6.660872459E0,2.897072434E-1,5.921041489E0
6.087271741E1,7.087053299E0,4.285751879E-1,6.426233768E0
6.092471737E1,7.951386452E0,5.219519138E-1,6.275394440E0
6.097471750E1,7.166064739E0,6.584255695E-1,6.213143349E0
6.102671736E1,7.321692467E0,7.685621977E-1,6.035966873E0
6.107869319E1,7.685622215E0,6.536370516E-1,5.786962032E0
6.112869325E1,6.806923389E0,1.125309169E-1,5.413455486E0
6.117869328E1,7.810124397E0,-2.394274808E-2,5.482889175E0
6.123069317E1,5.406272411E0,-3.687183261E-1,4.438985348E0
6.128269317E1,5.123748302E0,-1.144463301E0,3.632114887E0
6.133469317E1,3.929004908E0,-3.747040033E0,4.367157459E0
6.138669316E1,3.962524891E0,-6.177228928E0,4.168432236E0
6.143669318E1,5.245856285E0,-1.041749001E1,4.692778587E0
6.148669335E1,5.231490612E0,-1.214855003E1,3.890696526E0
6.153869318E1,5.633728504E0,-1.338160229E1,1.922602654E0
6.159069317E1,6.617775440E0,-1.233290958E1,2.181184292E0
6.164269313E1,5.954561234E0,-9.998491287E0,1.438959122E0
6.169269316E1,5.241067410E0,-9.438231468E0,1.223474383E0
6.174469309E1,4.161249638E0,-9.270631790E0,8.068706393E-1
6.179469312E1,3.806896925E0,-8.858817101E0,1.182771802E0
6.184469315E1,3.689577579E0,-8.643332481E0,7.015225291E-1
6.189669307E1,3.838022470E0,-9.380768776E0,1.161223292E0
6.194669310E1,3.684788942E0,-9.354432106E0,9.457385540E-1
6.199669320E1,3.672817469E0,-9.431048393E0,1.115732074E0
6.204869309E1,3.241847992E0,-9.601041794E0,6.632141471E-1
6.210069309E1,3.076643229E0,-9.239506721E0,7.541965842E-1
6.215069322E1,3.129317284E0,-9.167677879E0,8.020820618E-1
6.220269311E1,2.968900681E0,-9.052753448E0,1.041509509E0
6.225469308E1,3.124528646E0,-9.167677879E0,8.930644989E-1
6.230469321E1,3.399870157E0,-9.251478195E0,1.149251938E0
6.235469330E1,3.421418667E0,-9.265843391E0,1.094183564E0
6.240669306E1,3.440572977E0,-9.292180061E0,1.046298146E0
6.245669326E1,3.167625666E0,-9.093455315E0,9.912297726E-1
6.250869318E1,3.462121487E0,-9.172467232E0,9.936240315E-1
6.256069298E1,3.304099321E0,-9.205986977E0,1.060663700E0
6.261069324E1,3.270579338E0,-9.194015503E0,8.308133483E-1
6.266069330E1,3.160442829E0,-9.500482559E0,7.805336118E-1
6.271269296E1,3.589017868E0,-9.170072556E0,1.058269501E0
6.276269313E1,3.457332850E0,-9.179649353E0,1.036720991E0
6.281269326E1,3.751828671E0,-9.308940887E0,1.173194647E0
6.286469298E1,3.510006905E0,-9.256266594E0,1.206714511E0
6.291469315E1,4.000833035E0,-9.296969414E0,1.276148438E0
6.296469317E1,3.402264595E0,-9.203592300E0,1.058269501E0
6.301669297E1,3.126922846E0,-9.091061592E0,1.077423692E0
6.306669300E1,5.023188591E0,-9.162889481E0,1.546701550E0
6.311669309E1,3.869148016E0,-8.906702042E0,5.674431324E-1
6.316869295E1,6.557918549E0,-8.844450951E0,2.272166729E0
6.321869298E1,8.018425941E0,-8.909096718E0,2.209915638E0
6.326869304E1,8.947404861E0,-9.399923325E0,3.687183142E0
6.332069297E1,8.645726204E0,-9.203592300E0,3.225088120E0
6.337269297E1,7.405491829E0,-8.990502357E0,2.355966330E0
6.342469296E1,7.233104229E0,-8.327287674E0,2.396669149E0
6.347669295E1,7.072687626E0,-7.699987888E0,2.274561167E0
6.352869292E1,7.735901833E0,-6.780586243E0,3.945764780E0
6.357869301E1,8.250671387E0,-5.597814560E0,3.249030828E0
6.362869310E1,8.367990494E0,-4.477293968E0,4.582642078E0
6.368069297E1,8.581081390E0,-3.268185139E0,4.381523132E0
6.373269290E1,8.001666069E0,-1.446141958E0,4.005621910E0
6.378269292E1,8.911490440E0,-1.699935049E-1,4.800520897E0
6.383269295E1,7.946598053E0,7.039167881E-1,3.220299721E0
6.388469291E1,8.375173569E0,9.050358534E-1,3.014391899E0
6.393469307E1,7.659285069E0,1.022355318E0,2.066259146E0
6.398669304E1,6.624958515E0,1.259388566E0,2.399063349E0
6.403869290E1,7.031985283E0,1.877111435E0,2.025556564E0
6.409069289E1,7.498868465E0,6.943396926E-1,2.815667152E0
6.414269285E1,5.174027920E0,-8.619388938E-2,1.704723716E0
6.419269298E1,4.874743462E0,-3.284945011E0,-2.104567528E0
6.424469284E1,6.871568680E0,-5.142902374E0,-3.689577579E0
6.429469287E1,7.534782887E0,1.505998850E0,1.675992459E-2
6.434469293E1,9.562733650E0,-4.122941017E0,4.908263385E-1
6.439669286E1,1.070240879E1,4.237866402E-1,-3.289733648E0
6.444869282E1,1.168884945E1,-1.436564922E0,-2.312869549E0
6.449869292E1,1.320921421E1,-8.715160489E-1,-3.940976381E0
6.455069284E1,9.783006668E0,-1.019961119E0,-4.910657406E0
6.460269284E1,1.632177162E1,-2.231464148E0,-3.256213665E0
6.465269293E1,1.826592255E1,-3.306493521E0,-2.581028223E0
6.470469286E1,2.112468719E1,-3.002420664E0,-2.004008055E0
6.475669286E1,1.962826538E1,-1.690358043E0,-3.035940409E0
6.480669295E1,1.582615662E1,-3.759011507E0,4.956148863E-1
6.485869288E1,1.182053471E1,-2.925803900E0,5.770202279E-1
6.491069284E1,8.822902679E0,-2.549902678E0,6.512427330E-1
6.496069304E1,3.964919090E0,-2.027950764E0,-4.213923812E-1
6.501269290E1,3.732674360E0,-1.956122518E0,-1.048692346E0
6.506469273E1,2.025556564E0,-4.237866402E-1,-6.919454336E-1
6.511469296E1,1.324033976E0,4.010410309E0,4.211529255E0
6.516469299E1,-3.727885962E0,9.002472878E0,1.090352726E1
6.521669278E1,-9.014444351E0,1.298175812E1,1.717173958E1
6.526669294E1,-1.841436768E1,1.435846615E1,1.726990509E1
6.531669300E1,-2.909283257E1,1.700413895E1,1.094662476E1
6.536869270E1,-3.184146118E1,3.826051235E0,-8.739103079E-1
6.541869286E1,5.051919818E-1,-3.648874760E0,1.693231201E1
6.546869289E1,2.983984756E1,-7.835742950E1,-7.297749519E0
6.552069272E1,7.594639778E0,2.406246185E0,-1.666175842E1
6.557069282E1,1.695146561E0,-1.766974807E0,-1.446620846E1
6.562069301E1,-1.570644259E0,8.372778893E0,-2.971295118E0
6.567269293E1,-4.163643837E0,6.524398804E0,-4.201952457E0
6.572469276E1,-4.290540695E0,1.874717116E0,7.853221297E-1
6.577469279E1,-3.452544212E0,-4.716721475E-1,-3.447755575E-1
6.582669272E1,-7.494080067E-1,-4.508419514E0,8.715160489E-1
6.587869272E1,2.389486313E0,-6.550735950E0,4.477293968E0
6.593069274E1,3.723097324E0,-1.460268211E1,7.546754360E0
6.598269270E1,2.418217659E0,-1.548856354E1,1.039833546E1
6.603469270E1,4.867560863E0,-1.870646858E1,6.703969479E0
6.608469290E1,8.894730568E0,-2.150777054E1,2.628913641E0
6.613669279E1,1.473436737E1,-2.066977501E1,5.971321583E0
6.618869272E1,1.217967606E1,-1.553166103E1,2.961717844E0
6.624069271E1,8.475732803E0,-1.388918781E1,1.539518714E0
6.629069274E1,9.981731415E0,-9.490905762E0,2.717501879E0
6.634069280E1,8.480521202E0,-6.347222328E0,2.698347807E0
6.639269266E1,6.919454098E0,-8.559532166E0,1.515576005E0
6.644469262E1,5.770202160E0,-9.890748978E0,9.768640995E-1
6.649469279E1,4.817280769E0,-1.057790565E1,1.046298146E0
6.654669268E1,3.988861799E0,-1.084367085E1,8.715160489E-1
6.659869264E1,3.148471355E0,-1.118844604E1,1.963305324E-1
6.664869267E1,2.736656189E0,-1.117647457E1,9.577099234E-2
6.669869276E1,2.229069948E0,-1.060903168E1,-1.915419847E-2
6.674869292E1,2.269772530E0,-9.057541847E0,-4.788549617E-3
6.680069286E1,2.332023621E0,-8.741497040E0,4.908263385E-1
6.685269261E1,2.439765930E0,-7.805335999E0,8.906702399E-1
6.690469254E1,2.645673752E0,-8.078283310E0,8.523618579E-1
6.695469264E1,3.258608103E0,-8.468549728E0,1.558672905E0
6.700469270E1,3.598595142E0,-9.239506721E0,1.307274103E0
6.705469286E1,4.618556023E0,-9.976943016E0,2.348783493E0
6.710669266E1,4.314483166E0,-1.038157558E1,1.455719113E0
6.715869258E1,4.683201313E0,-1.013496494E1,1.364736676E0
6.720869261E1,5.051919937E0,-9.703995705E0,1.491633177E0
6.725869264E1,4.017592907E0,-9.354432106E0,1.125309110E0
6.730869274E1,4.510813713E0,-9.062330246E0,1.103760719E0
6.736069259E1,4.060689926E0,-9.059935570E0,1.005595446E0
6.741269262E1,4.151672363E0,-9.210775375E0,6.225114465E-1
6.746269272E1,3.715914488E0,-9.584281921E0,8.619389534E-1
6.751469261E1,3.907456398E0,-9.677659035E0,8.164477348E-1
6.756669244E1,3.371139050E0,-9.577098846E0,9.433442950E-1
6.761669270E1,2.983266354E0,-9.172467232E0,7.925049663E-1
6.766869266E1,2.724684715E0,-9.524425507E0,5.458946824E-1
6.772069246E1,2.626519442E0,-9.375980377E0,5.698373914E-1
6.777069275E1,2.705530643E0,-9.268238068E0,5.123748183E-1
6.782269264E1,2.947352171E0,-9.249083519E0,9.050358534E-1
6.787469247E1,2.609759569E0,-9.150918007E0,9.577099085E-1
6.792469267E1,2.736656189E0,-9.320911407E0,8.643332124E-1
6.797469273E1,2.796513081E0,-9.328094482E0,8.715160489E-1
6.802669249E1,3.105374336E0,-9.244295120E0,1.094183564E0
6.807669269E1,3.067065954E0,-9.411893845E0,1.460507631E0
6.812869265E1,3.680000305E0,-9.304151535E0,1.118126392E0
6.818069238E1,3.191568375E0,-9.229928970E0,9.553156495E-1
6.823069261E1,3.529160976E0,-9.591464996E0,9.505270720E-1
6.828069266E1,3.703943014E0,-9.304151535E0,1.000806928E0
6.833269263E1,4.022381783E0,-9.328094482E0,1.154040456E0
6.838462756E1,3.794925690E0,-9.256266594E0,9.457385540E-1
6.843662748E1,3.562680960E0,-9.261054993E0,9.098244309E-1
6.848862734E1,3.435784340E0,-9.419076920E0,1.098972082E0
6.853862741E1,3.265790939E0,-9.366402626E0,8.930644989E-1
6.859062740E1,3.193962574E0,-9.443019867E0,9.337671995E-1
6.864262730E1,3.081431627E0,-9.311334610E0,8.427847624E-1
6.869462733E1,3.136499882E0,-9.399923325E0,1.034326673E0
6.874662735E1,2.844398499E0,-9.311334610E0,9.241901040E-1
6.879862731E1,2.901860952E0,-9.222746849E0,9.840469360E-1
6.885062731E1,2.971295118E0,-9.301757812E0,9.050358534E-1
6.890062734E1,3.074248791E0,-9.256266594E0,7.733507752E-1
6.895262720E1,3.507612705E0,-9.292180061E0,1.065452337E0
6.900462720E1,3.759011507E0,-9.210775375E0,1.051086664E0
6.905462729E1,3.725491524E0,-9.316123009E0,1.122914910E0
6.910662722E1,3.883513689E0,-9.119792938E0,1.039115310E0
6.915862721E1,3.306493521E0,-9.150918007E0,8.882759809E-1
6.921062724E1,3.565075159E0,-9.273026466E0,1.134886265E0
6.926262717E1,3.402264595E0,-9.153312683E0,9.217957854E-1
6.931262720E1,3.181991339E0,-9.277814865E0,9.481328130E-1
6.936262726E1,3.038334846E0,-9.289786339E0,1.065452337E0
6.941462718E1,3.696760416E0,-9.232323647E0,1.343188167E0
6.946662718E1,3.493247032E0,-9.258660316E0,1.347976685E0
6.951862718E1,3.502824068E0,-9.232323647E0,1.177983165E0
6.956862720E1,3.210722446E0,-9.265843391E0,8.739103079E-1
6.962062720E1,3.395081758E0,-9.256266594E0,1.029538155E0
6.967262716E1,3.292127848E0,-9.308940887E0,7.134938836E-1
6.972262719E1,3.428601503E0,-9.170072556E0,1.249811411E0
6.977462718E1,3.407052994E0,-9.129369736E0,9.648927450E-1
6.982662711E1,5.435003757E0,-8.760651588E0,2.162030220E0
6.987662724E1,6.234691620E0,-8.978530884E0,3.079037428E0
6.992662727E1,9.713572502E0,-8.478127480E0,5.363175392E0
6.997862719E1,1.118844604E1,-8.238699913E0,5.695979595E0
7.003062709E1,9.902720451E0,-1.120520592E1,4.874743462E0
7.008062712E1,8.518829346E0,-1.144942188E1,3.349590540E0
7.013262711E1,6.179623127E0,-1.059945488E1,1.525153041E0
7.018462707E1,4.419831276E0,-8.209968567E0,8.140534163E-1
7.023662704E1,4.491659641E0,-5.549929142E0,1.946545362E0
7.028662710E1,5.042342663E0,-4.151672363E0,2.494834423E0
7.033662736E1,6.775797844E0,-3.605777979E0,3.873936653E0
7.038862709E1,6.929031372E0,-3.064671755E0,3.256213665E0
7.043862731E1,7.474925995E0,-2.341600657E0,3.972101927E0
7.049062724E1,7.826884270E0,-1.297696948E0,4.211529255E0
7.054262707E1,7.812518597E0,-2.825244367E-1,4.599401951E0
7.059262720E1,9.320911407E0,6.273000240E-1,5.209941864E0
7.064462706E1,9.620196342E0,1.529941559E0,5.001639843E0
7.069662706E1,8.985713005E0,9.050358534E-1,3.878725290E0
7.074662718E1,8.212362289E0,1.819648892E-1,2.044710636E0
7.079862707E1,7.858009815E0,-2.138087511E0,-7.661679387E-1
7.085062707E1,7.324086666E0,-4.795732498E0,-4.453351021E0
7.090062720E1,-1.853168726E0,-1.261782765E0,-1.295302629E0
7.095262706E1,1.551490116E1,6.782980442E0,1.113337755E0
7.100462702E1,6.732700825E0,5.583448887E0,5.363175869E-1
7.105462716E1,8.066311836E0,2.576239586E0,1.553884387E0
7.110662711E1,8.662486076E0,2.966506481E0,-8.619389534E-1
7.115862698E1,1.199531651E1,-2.897072434E-1,-2.083019018E0
7.120862724E1,1.683175278E1,1.659232497E0,-2.492439985E0
7.126062717E1,1.863942909E1,-3.016786277E-1,6.416656375E-1
7.131262696E1,2.230027580E1,-3.878725171E-1,1.084606528E0
7.136262719E1,1.786128998E1,-5.004034638E-1,-1.015172482E0
7.141462715E1,1.311344337E1,-1.786128998E0,2.705530643E0
7.146662692E1,1.117647457E1,-1.211503029E0,1.300091267E0
7.151662718E1,7.630553722E0,-5.770202279E-1,1.158828974E0
7.156662731E1,4.139701366E0,1.580221355E-1,-3.160442710E-1
7.161862690E1,3.023969173E0,3.543526828E-1,9.768640995E-1
7.166862710E1,-2.394274808E-3,-2.705530524E-1,1.719089270E0
7.171862712E1,4.812492430E-1,2.051893473E0,1.783734679E0
7.177062688E1,-1.675992459E-2,4.721509933E0,5.324867249E0
7.182062705E1,-4.608979225E0,8.413481712E0,9.371191978E0
7.187262707E1,-1.154758739E1,1.144223976E1,1.509111404E1
7.192462690E1,-2.308080864E1,1.308710575E1,1.292669010E1
7.197462700E1,-3.503302765E1,1.609192085E1,8.444606781E0
7.202462702E1,-3.215032196E1,1.101366425E1,-2.968900681E0
7.207662695E1,-5.080651283E0,-8.475732803E0,1.578066540E1
7.212662702E1,3.011039925E1,-7.841968536E1,1.109746361E1
7.217862694E1,9.220352173E0,-1.245022863E-1,-1.148294163E1
7.223062691E1,-2.612153769E0,-6.110189438E0,-9.478934288E0
7.228262690E1,-6.756643295E0,1.385327435E1,-2.822849989E0
7.233262693E1,-7.443800449E0,5.523591995E0,1.905842781E0
7.238462689E1,-1.016130257E1,3.660846233E0,1.484450340E0
7.243462692E1,-8.382355690E0,2.262589693E0,3.452544212E0
7.248462695E1,-6.016812801E0,3.328042030E-1,1.386285067E0
7.253662687E1,-2.399063349E0,1.867534369E-1,1.781340480E0
7.258862687E1,-3.007209063E0,-9.050358534E-1,1.541913033E0
7.264062687E1,-3.292127848E0,2.537931204E-1,5.435003638E-1
7.269262686E1,-5.171633363E-1,1.838803053E0,3.160442829E0
7.274462686E1,4.415042877E0,-3.893090725E0,6.577073097E0
7.279662682E1,1.167208958E1,-8.748680115E0,5.435003757E0
7.284862681E1,1.837366486E1,-1.886209679E1,9.818921089E0
7.290062681E1,1.248853779E1,-1.544546700E1,3.988861799E0
7.295062684E1,1.482056141E1,-1.739680099E1,2.140481710E0
7.300062686E1,1.697780228E1,-1.272796535E1,8.906702399E-1
7.305262679E1,9.534002304E0,-1.001285744E1,5.099805593E-1
7.310262682E1,8.638543129E0,-8.466156006E0,4.333637357E-1
7.315262684E1,6.902694225E0,-7.544359684E0,-5.770202279E-1
7.320262691E1,5.794145107E0,-7.963357925E0,2.753416002E-1
7.325262713E1,5.806116581E0,-8.463761330E0,3.974496126E-1
7.330462683E1,5.265010357E0,-9.443019867E0,7.757450342E-1
7.335462706E1,5.037554264E0,-9.620196342E0,4.309694767E-1
7.340462708E1,4.268991947E0,-9.921875000E0,4.309694469E-2
7.345662678E1,3.957736254E0,-9.941028595E0,1.580221355E-1
7.350662681E1,3.828445435E0,-9.433443069E0,1.915419847E-2
7.355662684E1,3.648874760E0,-9.450202942E0,1.723877788E-1
7.360662696E1,3.591412306E0,-9.560338974E0,8.810931444E-1
7.365862673E1,2.889889717E0,-9.107821465E0,-7.182824425E-3
7.370862716E1,2.736656189E0,-8.906702042E0,9.553156495E-1
7.376062692E1,2.947352171E0,-8.463761330E0,1.182771802E0
7.381262668E1,3.677606106E0,-8.056735039E0,1.690358043E0
7.386262694E1,3.495641232E0,-8.763046265E0,1.953728199E0
7.391462690E1,4.130124092E0,-9.253871918E0,1.788523316E0
7.396662666E1,4.331243038E0,-9.438231468E0,1.580221415E0
7.401662703E1,4.494053841E0,-9.052753448E0,1.087000728E0
7.406862699E1,4.371945858E0,-8.810931206E0,1.110943556E0
7.412062665E1,4.257020473E0,-8.777411461E0,9.002473354E-1
7.417062681E1,5.025582790E0,-9.105426788E0,1.055875182E0
7.422262680E1,5.408666611E0,-8.952193260E0,1.082212210E0
7.427462660E1,5.133325100E0,-8.609811783E0,1.096577883E0
7.432462696E1,4.721509933E0,-8.832479477E0,1.067846537E0
7.437662689E1,4.336031914E0,-9.313729286E0,6.632141471E-1
7.442862668E1,4.257020473E0,-8.923461914E0,1.151646137E0
7.447862678E1,4.331243038E0,-8.844450951E0,1.103760719E0
7.452862684E1,3.967313290E0,-9.282603264E0,8.284190893E-1
7.458062663E1,3.823656797E0,-9.167677879E0,8.786988258E-1
7.463062676E1,3.823656797E0,-8.494887352E0,1.261782765E0
7.468262676E1,3.814079762E0,-9.112609863E0,1.324033976E0
7.473262678E1,3.835628271E0,-9.076695442E0,1.058269501E0
7.478462668E1,3.919427872E0,-8.947404861E0,1.084606528E0
7.483662664E1,3.624932051E0,-9.035993576E0,8.763045669E-1
7.488662677E1,4.448562622E0,-8.638543129E0,8.427847624E-1
7.493862660E1,4.774183750E0,-9.014444351E0,1.230657220E0
7.498862666E1,5.214730740E0,-9.122186661E0,7.757450342E-1
7.504062655E1,5.861184597E0,-8.935433388E0,1.209108829E0
7.509262655E1,5.930618763E0,-8.277008057E0,1.072635174E0
7.514262664E1,5.734288216E0,-8.035185814E0,1.331216812E0
7.519462664E1,5.408666611E0,-7.996877670E0,4.740664065E-1
7.524662660E1,6.368771076E0,-8.039975166E0,8.786988258E-1
7.529662663E1,6.481301785E0,-7.996877670E0,5.004034638E-1
7.534862655E1,7.314509392E0,-7.685622215E0,1.053480864E0
7.540062655E1,7.963357925E0,-6.897905827E0,1.091789365E0
7.545062658E1,9.110215187E0,-6.691998005E0,7.829278708E-1
7.550262654E1,1.034805584E1,-6.064698219E0,2.660039425E0
7.555262670E1,1.199292278E1,-5.645699978E0,2.669616461E0
7.560462656E1,1.148773098E1,-4.917840481E0,2.722290516E0
7.565462672E1,1.260106850E1,-4.936994553E0,3.454938650E0
7.570464104E1,1.223953247E1,-3.802108288E0,3.663240433E0
7.575664077E1,1.256036568E1,-3.407052994E0,3.311282158E0
7.580864066E1,9.538790703E0,-1.793311834E0,1.565855742E0
7.586064066E1,7.673650742E0,-3.222693920E0,9.720755816E-1
7.591264065E1,2.164424419E0,-3.342407703E0,2.753416002E-1
7.596264081E1,4.168432236E0,-3.785348415E0,-1.630501151E0
7.601464068E1,1.133689117E1,-3.045517445E0,-9.768640995E-1
7.606664054E1,6.402290821E0,-1.857957244E0,-1.110943556E0
7.611664060E1,-9.438231468E0,-1.086761379E1,7.609005451E0
7.616664073E1,1.589080143E1,6.450176239E0,3.462121487E0
7.621864069E1,3.136499882E0,-1.268965602E-1,-5.803721905E0
7.627064058E1,7.328875065E0,7.661679387E-2,-4.525179386E0
7.632264061E1,1.285246754E1,2.348783493E0,-6.677632332E0
7.637264071E1,1.128182316E1,2.664827824E0,-8.521224022E0
7.642464063E1,2.196507645E1,1.620923996E0,-4.137306690E0
7.647664056E1,2.495073700E1,2.959323645E0,-9.098244458E-2
7.652664073E1,2.086849976E1,2.571451187E0,-2.145270348E0
7.657864062E1,1.724117279E1,1.252205729E0,-3.064671755E-1
7.663064055E1,8.413481712E0,1.137280583E0,-1.204320192E0
7.668064074E1,6.529187202E0,3.878725171E-1,-3.112557158E-2
7.673264060E1,3.840416908E0,1.532335877E-1,-3.112557232E-1
7.678464053E1,1.201925993E0,1.936968327E0,1.491633177E0
7.683464080E1,-7.254652381E-1,5.267404765E-2,3.735068738E-1
7.688664065E1,8.715160489E-1,1.364736676E0,1.015172482E0
7.693864048E1,-1.237840056E0,4.338426113E0,4.029564381E0
7.698864081E1,-1.138717079E1,9.313729286E0,1.405439281E1
7.704064067E1,-2.496270943E1,1.191151714E1,1.752609253E1
7.709264050E1,-3.803784561E1,1.394904518E1,1.177743816E1
7.714264077E1,-3.623255920E1,1.429860878E1,-1.146618176E1
7.719464069E1,-8.688823700E0,-2.219492674E0,4.266597748E0
7.724664049E1,2.475440788E1,-7.107883453E1,-3.649114227E1
7.729664072E1,1.081493950E1,3.198751211E0,-1.932419205E1
7.734864071E1,5.794144869E-1,-4.201952457E0,-1.568728828E1
7.740064044E1,1.292908430E0,3.957736254E0,-1.125309110E0
7.745064064E1,-3.170019865E0,3.766194344E0,-7.455771923E0
7.750064066E1,-2.935380936E0,1.197137356E0,-1.364736676E0
7.755264049E1,-2.676799297E0,9.385557175E-1,2.039922237E0
7.760264056E1,-2.497228622E0,-2.638490915E0,-2.944957912E-1
7.765264062E1,3.148471355E0,-4.120546818E0,5.389512539E0
7.770464048E1,3.909850836E0,-1.452127647E1,8.030397415E0
7.775664048E1,9.117398262E0,-2.171607208E1,9.804554939E0
7.780664060E1,1.189236259E1,-2.788372421E1,8.854028702E0
7.785864060E1,2.030344963E1,-2.453892326E1,8.126168251E0
7.791064053E1,1.882378769E1,-1.481577206E1,9.634561539E0
7.796264052E1,1.521082783E1,-7.386337757E0,9.155706406E0
7.801464041E1,9.692024231E0,-9.105426788E0,5.559505939E0
7.806664041E1,7.915472507E0,-8.011243820E0,4.024775982E0
7.811664047E1,6.591438770E0,-8.765439987E0,3.481275558E0
7.816864040E1,5.164450645E0,-1.090113354E1,2.190761566E0
7.821864043E1,3.866753817E0,-1.116450310E1,2.257801056E0
7.827064042E1,3.435784340E0,-1.088916206E1,1.865140080E0
7.832064045E1,2.535537004E0,-1.031932449E1,1.443747759E0
7.837064048E1,2.202732801E0,-9.280209541E0,1.113337755E0
7.842264041E1,3.160442829E0,-8.159688950E0,1.551490068E0
7.847264043E1,2.940169573E0,-7.072687626E0,1.120520592E0
7.852464040E1,3.181991339E0,-6.926637173E0,2.085413456E0
7.857464043E1,2.980872154E0,-6.893116951E0,2.164424419E0
7.862664039E1,4.082238674E0,-8.023215294E0,2.619336605E0
7.867664042E1,4.506025314E0,-8.971347809E0,3.000026226E0
7.872864038E1,5.399089813E0,-9.845257759E0,2.985660791E0
7.878064037E1,5.487678051E0,-1.015172482E1,2.774964571E0
7.883064040E1,5.980898380E0,-1.008468533E1,2.454131603E0
7.888064043E1,5.583448887E0,-9.617801666E0,2.324840784E0
7.893264036E1,5.305713177E0,-9.383162498E0,1.747820616E0
7.898464032E1,4.714327335E0,-8.911490440E0,1.699935079E0
7.903464038E1,4.501236439E0,-8.619389534E0,1.415016413E0
7.908664037E1,4.027170181E0,-9.028810501E0,1.544307232E0
7.913864034E1,3.885908127E0,-9.241900444E0,1.065452337E0
7.919064033E1,3.766194344E0,-9.407105446E0,9.553156495E-1
7.924264029E1,3.399870157E0,-9.454991341E0,9.026415944E-1
7.929264032E1,3.301704884E0,-9.325700760E0,1.043903828E0
7.934264038E1,3.117345810E0,-8.978530884E0,1.058269501E0
7.939464034E1,3.100585938E0,-9.059935570E0,1.300091267E0
7.944664031E1,3.416630268E0,-8.686429024E0,1.065452337E0
7.949664044E1,3.768588543E0,-8.684034348E0,1.324033976E0
7.954864033E1,3.893090725E0,-8.968953133E0,1.079817891E0
7.960064029E1,4.448562622E0,-9.162889481E0,1.697540879E0
7.965064056E1,4.383917332E0,-9.031204224E0,1.666415215E0
7.970264035E1,4.254626274E0,-9.035993576E0,2.035133600E0
7.975464031E1,4.118152618E0,-8.861210823E0,1.683175206E0
7.980464041E1,4.489265442E0,-8.858817101E0,1.984853864E0
7.985664033E1,4.271386147E0,-8.973741531E0,1.479661822E0
7.990864026E1,4.379128456E0,-8.765439987E0,1.642472506E0
7.995864043E1,4.216318130E0,-8.794171333E0,1.450930476E0
8.001064039E1,4.395888329E0,-9.004867554E0,1.300091267E0
8.006264022E1,4.367157459E0,-8.858817101E0,1.175588965E0
8.011264045E1,4.348002911E0,-8.865999222E0,1.022355318E0
8.016464037E1,4.927417755E0,-8.820508003E0,1.517970204E0
8.021664020E1,5.499649048E0,-8.399115562E0,1.807677507E0
8.026664046E1,6.325674057E0,-8.760651588E0,2.497228622E0
8.031864039E1,5.861184597E0,-8.734314919E0,2.288926601E0
8.037064015E1,5.566689014E0,-8.490098000E0,2.461314440E0
8.042064032E1,5.286558628E0,-8.205180168E0,2.645673752E0
8.047264031E1,5.803721905E0,-7.745479107E0,2.983266354E0
8.052464010E1,6.091034889E0,-7.515628815E0,2.274561167E0
8.057464040E1,6.680026531E0,-8.013637543E0,3.749434233E0
8.062664043E1,5.662459850E0,-7.333663940E0,3.974496126E0
8.067864039E1,6.636929989E0,-6.993676662E0,4.939388752E0
8.072864042E1,9.035993576E0,-5.504437923E0,8.399115562E0
8.078064044E1,1.145421028E1,-4.570670605E0,8.655303001E0
8.083264014E1,1.049410629E1,-3.002420664E0,7.259441376E0
8.088264024E1,1.073832226E1,-2.425400496E0,6.366376877E0
8.093264026E1,9.866806030E0,-6.727912426E-1,3.976890564E0
8.098464012E1,8.863605499E0,-1.316851079E-1,2.604970932E0
8.103664009E1,6.414262295E0,8.978530765E-1,1.103760719E0
8.108664014E1,5.348809719E0,-6.703969836E-2,1.173194647E-1
8.113864010E1,4.474899769E0,-7.972934842E-1,-1.462901950E0
8.118864017E1,9.038387299E0,-4.340820312E0,-2.408640385E0
8.124064016E1,-3.543526649E0,-2.332981300E1,1.944151115E1
8.129264012E1,1.054438591E1,1.056593513E1,-1.051326084E1
8.134464009E1,5.810904980E0,-2.389486313E0,1.309668303E0
8.139464015E1,4.743058205E0,2.597788095E0,-2.106961906E-1
8.144664011E1,1.123393726E1,9.170072675E-1,-1.671203852E0
8.149864010E1,1.860590935E1,1.158828974E0,-3.059883118E0
8.154864017E1,3.227482605E1,3.203539610E0,-3.481275558E0
8.160064013E1,2.527635956E1,4.302511692E0,5.674431324E-1
8.165264012E1,2.039443207E1,1.546701550E0,2.633702382E-2
8.170464008E1,1.098732662E1,1.223474383E0,-2.078230619E0
8.175464011E1,8.377567291E0,-1.134886265E0,9.936240315E-1
8.180664008E1,3.979284763E0,-3.591412306E-1,-5.554717779E-1
8.185864007E1,1.841197371E0,3.830839694E-2,1.723877788E-1
8.190864023E1,5.315290093E-1,2.753416002E-1,-1.843591630E-1
8.196064006E1,4.788549617E-3,7.972934842E-1,-1.367130876E0
8.201264005E1,-9.337671995E-1,1.647261024E0,7.948992252E-1
8.206264008E1,-4.903474808E0,6.828471661E0,7.939415455E0
8.211464004E1,-1.412861538E1,1.118365765E1,1.748778343E1
8.216464007E1,-2.301855850E1,1.184447765E1,1.965939140E1
8.221664003E1,-3.521738815E1,1.575432777E1,8.873182297E0
8.226664006E1,-3.724773407E1,5.114171028E0,-3.589017868E0
8.231863999E1,-7.613793612E-1,-4.558699131E0,1.754524612E1
8.236864015E1,2.394035339E1,-7.556092072E1,-1.741834831E1
8.242064002E1,1.203841400E1,6.153286099E-1,-1.288119888E1
8.247064004E1,-2.806090117E0,-3.981678963E0,-1.839521408E1
8.252064010E1,1.477267504E0,5.166844845E0,-4.877137661E0
8.257263997E1,-3.955342054E0,5.607391834E0,-3.893090725E0
8.262264006E1,-1.822043180E0,-1.221080124E-1,4.932205975E-1
8.267464002E1,-5.870761871E0,1.039115310E0,3.337619066E0
8.272464005E1,-6.112583637E0,-1.292908341E-1,5.142902374E0
8.277464012E1,-4.750241280E0,1.350371003E0,7.594639778E0
8.282664007E1,-2.971295118E0,7.206767201E-1,9.347249031E0
8.287863990E1,1.510787368E0,-1.094183564E0,1.278542709E1
8.292864017E1,3.478881359E0,-7.458166122E0,1.178222656E1
8.298058738E1,6.548341751E0,-5.619362831E0,1.214376163E1
8.303258731E1,4.606584549E0,-7.834067345E0,1.186842060E1
8.308258754E1,8.020820618E0,-1.080296803E1,5.406272411E0
8.313458740E1,1.452606487E1,-1.477028084E1,1.110225201E1
8.318658723E1,1.438480282E1,-8.686429024E0,3.785348415E0
8.323658752E1,1.143745041E1,-1.135125732E1,4.197163582E0
8.328858745E1,6.881145954E0,-9.534002304E0,3.256213665E-1
8.334058731E1,4.436591148E0,-9.522030830E0,1.675992459E-2
8.339058751E1,5.504437923E0,-8.739103317E0,1.118126392E0
8.344258750E1,4.515602112E0,-8.947404861E0,1.134886265E0
8.349458726E1,3.902667999E0,-9.806949615E0,5.650488734E-1
8.354458743E1,2.997632027E0,-9.383162498E0,5.267404318E-1
8.359658745E1,3.093403101E0,-9.514847755E0,1.290514112E0
8.364858721E1,2.595393896E0,-9.115004539E0,7.015225291E-1
8.369858734E1,2.703136206E0,-8.791776657E0,1.197137356E0
8.374858741E1,2.882706881E0,-8.573898315E0,1.127703428E0
8.380058720E1,4.309694767E0,-8.291373253E0,1.766974807E0
8.385058726E1,4.539545059E0,-9.143735886E0,1.733454943E0
8.390058732E1,4.343214512E0,-9.399923325E0,1.247417212E0
8.395258722E1,4.048718929E0,-9.423865318E0,1.031932473E0
8.400458718E1,3.991255999E0,-9.438231468E0,2.743839025E0
8.405458724E1,4.295329094E0,-8.880365372E0,1.759791970E0
8.410658720E1,4.407859802E0,-8.719948769E0,9.624984860E-1
8.415858720E1,4.860377789E0,-8.928250313E0,1.118126392E0
8.420858723E1,4.352791786E0,-9.126976013E0,1.252205729E0
8.426058719E1,3.996044636E0,-9.251478195E0,1.381496549E0
8.431058722E1,3.217905283E0,-9.115004539E0,6.799740195E-1
8.436058738E1,3.481275558E0,-8.933039665E0,1.606558442E0
8.441258730E1,3.660846233E0,-8.954587936E0,1.108549237E0
8.446458720E1,4.443774223E0,-8.925856590E0,2.071047783E0
8.451658716E1,5.025582790E0,-9.014444351E0,1.606558442E0
8.456658719E1,4.398283005E0,-8.889942169E0,1.999219418E0
8.461858715E1,5.059102535E0,-8.478127480E0,1.819648862E0
8.466858721E1,5.332049847E0,-8.485309601E0,2.224281311E0
8.472058714E1,6.191594601E0,-8.482915878E0,1.886688590E0
8.477258714E1,6.282577038E0,-8.217150688E0,2.253012657E0
8.482458713E1,5.066285610E0,-7.999272346E0,1.256994247E0
8.487458716E1,5.178816319E0,-8.135746002E0,1.125309110E0
8.492658716E1,5.545140266E0,-7.726325035E0,1.098972082E0
8.497858715E1,6.622564316E0,-7.563514233E0,1.800494671E0
8.503058711E1,7.604216576E0,-7.173247337E0,2.480468750E0
8.508058718E1,8.130957603E0,-6.976916790E0,2.626519442E0
8.513258714E1,8.039975166E0,-6.596227169E0,2.420611858E0
8.518458709E1,7.865192890E0,-6.162863255E0,2.250618219E0
8.523458712E1,7.412674904E0,-6.009629726E0,2.863552570E0
8.528458715E1,7.213950157E0,-5.346415520E0,3.454938650E0
8.533658708E1,6.859597206E0,-4.857983589E0,3.936187744E0
8.538658718E1,5.765413761E0,-4.326454639E0,6.311308384E0
8.543858710E1,6.416656494E0,-4.436591148E0,7.316903591E0
8.549058706E1,6.735095024E0,-3.442967176E0,6.677632332E0
8.554058709E1,6.584255695E0,-3.296916485E0,7.764633179E0
8.559058719E1,6.270605564E0,-2.717501879E0,7.652102470E0
8.564258701E1,6.059909344E0,-2.849187136E0,7.496474266E0
8.569258705E1,6.141314983E0,-2.645673752E0,8.162082672E0
8.574258721E1,6.344828129E0,-2.128510237E0,7.946598053E0
8.579458710E1,6.146103382E0,-1.345582485E0,8.451789856E0
8.584658703E1,6.069486618E0,-5.961744189E-1,8.667274475E0
8.589658726E1,5.509226322E0,2.370332032E-1,8.281796455E0
8.594858715E1,6.469330311E0,1.292908341E-1,1.005116558E1
8.600058698E1,5.767807961E0,1.072635174E0,8.686429024E0
8.605058722E1,6.356799603E0,1.146857619E0,9.368797302E0
8.610258714E1,6.023995399E0,1.996825218E0,8.356019020E0
8.615458697E1,4.580247879E0,2.801301479E0,6.167652130E0
8.620458720E1,4.290540695E0,1.822043180E0,5.334444046E0
8.625458723E1,2.849187136E0,5.961744189E-1,3.739857197E0
8.630658696E1,3.165231228E0,-3.785348415E0,-1.630501151E0
8.635658712E1,1.522758722E0,-5.964138508E0,-7.338452339E0
8.640658728E1,5.257827282E0,-4.778972626E0,-6.703969836E-2
8.645858691E1,3.409447432E0,7.096630573E0,-5.722316504E-1
8.650858697E1,8.923461914E0,5.011217117E0,3.617749214E0
8.655858727E1,1.045100975E1,-7.422251701E-1,4.374340057E0
8.661058716E1,2.075357437E1,-6.172440529E0,3.756617069E0
8.666258702E1,2.504411507E1,-2.961717844E0,6.452570438E0
8.671458705E1,2.044471169E1,1.731060743E0,5.672037125E0
8.676658691E1,1.772481728E1,-9.505270720E-1,5.554717541E0
8.681858694E1,1.574235725E1,-2.085413456E0,3.476486921E0
8.686858700E1,8.432636261E0,-1.245022893E0,1.458113313E0
8.692058693E1,6.287365437E0,-4.932205975E-1,7.206767201E-1
8.697258693E1,1.788523316E0,-9.433442950E-1,1.513181686E0
8.702258695E1,1.364736676E0,-4.716721475E-1,1.070240855E0
8.707258701E1,1.187560320E0,1.185166001E0,-2.394274771E-1
8.712458694E1,1.783734679E0,2.578634024E0,8.140534163E-2
8.717658687E1,-1.527547359E0,4.960937500E0,5.492466450E0
8.722658690E1,-7.494080067E0,8.810931206E0,1.119084072E1
8.727858686E1,-1.603685188E1,1.147575951E1,1.484929276E1
8.733058682E1,-2.383979416E1,1.287401581E1,1.398017025E1
8.738058688E1,-3.656296921E1,1.730102921E1,6.217931747E0
8.743058708E1,-3.042644501E1,1.082212257E1,-4.482082367E0
8.748258701E1,3.239453793E0,-1.003201103E1,1.906082153E1
8.753458687E1,4.253189850E1,-6.275633621E1,2.009754181E1
8.758458690E1,9.792584181E-1,-1.070240855E0,-2.327953339E1
8.763458692E1,-1.352765322E0,-3.524372578E0,-9.258660316E0
8.768458705E1,-4.649681568E0,1.381017685E1,2.035133541E-1
8.773658688E1,-1.019003391E1,4.400677204E0,-3.747040033E0
8.778858688E1,-5.818087578E0,5.382329941E0,3.684788942E0
8.784058687E1,-3.114951611E0,3.328042030E-1,4.386311531E0
8.789258680E1,-4.836435318E0,-1.359948039E0,3.902667999E0
8.794258683E1,-4.216318130E0,1.479661822E0,4.822069645E0
8.799458679E1,-4.951360226E0,3.033546209E0,5.315289974E0
8.804458695E1,-5.418243885E0,3.299310684E0,5.542746067E0
8.809658684E1,-5.142902374E0,7.903501034E0,8.930644989E0
8.814858684E1,-1.635289669E0,7.280989647E0,1.415016365E1
8.820058680E1,-6.081457734E-1,7.218738556E0,1.363539505E1
8.825058686E1,3.074248791E0,6.782980442E0,1.466972160E1
8.830058689E1,4.448562622E0,5.320078850E0,1.290274715E1
8.835258675E1,2.147664547E0,5.011217117E0,9.909903526E0
8.840258701E1,4.369551659E0,4.486870766E0,9.067118645E0
8.845458694E1,5.300924301E0,3.924216509E0,8.300951004E0
8.850658674E1,5.774991035E0,3.330436230E0,8.130957603E0
8.855658697E1,5.078257084E0,3.119740009E0,8.025609016E0
8.860858679E1,4.743058205E0,2.882706881E0,7.486897469E0
8.866058679E1,4.922628880E0,2.777358770E0,6.696786404E0
8.871058715E1,5.344021320E0,2.401457548E0,6.610592842E0
8.876258688E1,6.380742550E0,2.023162127E0,6.306519985E0
8.881458677E1,6.402290821E0,1.970488191E0,6.466936111E0
8.886458697E1,5.873156071E0,1.788523316E0,6.019207001E0
8.891658686E1,5.751048088E0,1.654443860E0,5.906675816E0
8.896858666E1,7.015225410E0,1.369525194E0,6.486090660E0
8.901858689E1,7.072687626E0,1.048692346E0,6.936213970E0
8.906858694E1,8.257853508E0,6.656084061E-1,7.051139355E0
8.912058667E1,8.458972931E0,5.530774593E-1,6.981705189E0
8.917058687E1,8.269824982E0,9.050358534E-1,6.747066498E0
8.922058690E1,8.176448822E0,1.053480864E0,6.342433929E0
8.927258679E1,8.260248184E0,1.132491946E0,6.035966873E0
8.932258689E1,8.078283310E0,1.144463301E0,5.569083214E0
8.937258702E1,8.655303001E0,8.164477348E-1,5.808510780E0
8.942458671E1,8.540378571E0,6.440598965E-1,5.686402798E0
8.947458674E1,8.300951004E0,2.657645047E-1,5.734288216E0
8.952458677E1,8.071100235E0,1.915419847E-1,6.069486618E0
8.957658673E1,8.286584854E0,4.788549617E-3,6.217931747E0
8.962858666E1,7.731113434E0,-8.619388938E-2,5.985687256E0
8.967858678E1,7.922655106E0,-7.182824612E-2,5.628940105E0
8.972858681E1,7.443800449E0,-4.788549617E-3,5.480494976E0
8.977858684E1,8.145322800E0,4.070267081E-2,5.241067410E0
8.983058657E1,8.315316200E0,0.000000000E0,5.303318501E0
8.988058663E1,8.181237221E0,2.178790122E-1,5.310501575E0
8.993058669E1,8.250671387E0,2.490045726E-1,5.490072250E0
8.998258665E1,7.800547123E0,3.064671755E-1,5.379935265E0
9.003458658E1,8.245882034E0,1.819648892E-1,5.571477413E0
9.008658658E1,8.085466385E0,2.059076279E-1,5.624151707E0
9.013658661E1,8.284191132E0,2.729473412E-1,5.621757030E0
9.018858660E1,8.061523438E0,1.795706153E-1,5.616968632E0
9.024058656E1,7.865192890E0,3.232271075E-1,5.621757030E0
9.029256538E1,8.054340363E0,2.466102988E-1,5.662459850E0
9.034256547E1,8.083071709E0,1.891477108E-1,5.308107376E0
9.039456527E1,8.458972931E0,1.723877788E-1,5.444581032E0
9.044456533E1,8.085466385E0,2.370332032E-1,5.367964268E0
9.049656529E1,8.030397415E0,2.873129845E-1,5.365570068E0
9.054656536E1,7.853221416E0,4.764606953E-1,5.353598595E0
9.059856535E1,8.372778893E0,5.530774593E-1,5.470917702E0
9.065056528E1,8.224333763E0,6.153286099E-1,5.221913338E0
9.070056531E1,8.272219658E0,5.267404318E-1,5.291347504E0
9.075056533E1,8.056735039E0,5.243461728E-1,5.056708336E0
9.080056549E1,8.176448822E0,4.764606953E-1,5.090228081E0
9.085256536E1,8.605023384E0,3.591412306E-1,5.176422119E0
9.090256538E1,8.545166969E0,2.513988614E-1,5.296135902E0
9.095456528E1,8.475732803E0,2.490045726E-1,5.391906738E0
9.100656528E1,8.303344727E0,3.902668059E-1,5.518803596E0
9.105656534E1,8.401510239E0,4.309694767E-1,5.473312378E0
9.110856530E1,8.612206459E0,4.597007632E-1,5.413455486E0
9.116056529E1,8.624177933E0,5.051919818E-1,5.209941864E0
9.121056542E1,8.449396133E0,4.285751879E-1,5.013611317E0
9.126256535E1,8.253065109E0,3.423812985E-1,5.004034519E0
9.131456518E1,8.399115562E0,3.304099143E-1,4.917840481E0
9.136456548E1,8.260248184E0,3.974496126E-1,4.836435318E0
9.141656537E1,8.190814018E0,1.699935049E-1,4.867560863E0
9.146856516E1,8.059128761E0,1.843591630E-1,5.197970390E0
9.151856553E1,8.427846909E0,1.987248063E-1,5.511620522E0
9.157056542E1,7.738296032E0,1.101366431E-1,5.698374271E0
9.162256518E1,8.004060745E0,4.788549617E-3,6.280182838E0
9.167256541E1,7.462954521E0,-2.394274808E-2,6.447782040E0
9.172456537E1,7.886741161E0,-3.399870098E-1,6.562707424E0
9.177656514E1,7.692804813E0,-2.753416002E-1,5.944984436E0
9.182656543E1,7.989695072E0,-1.891477108E-1,5.662459850E0
9.187856539E1,7.877163887E0,-1.795706153E-1,5.695979595E0
9.193056525E1,7.755055904E0,-1.245022863E-1,5.681613922E0
9.198056532E1,7.965752125E0,-1.245022863E-1,5.870761871E0
9.203056534E1,7.635342598E0,-1.221080124E-1,6.031178474E0
9.208256517E1,7.798152924E0,-8.140534163E-2,5.971321583E0
9.213256524E1,7.422251701E0,-2.705530524E-1,5.904281616E0
9.218256533E1,7.020013809E0,-4.644893110E-1,5.822876453E0
9.223456519E1,6.150891781E0,-6.009629965E-1,5.231490612E0
9.228656515E1,6.244268894E0,-1.489238977E0,5.511620522E0
9.233656518E1,7.051139355E0,-2.030344963E0,5.344021320E0
9.238856514E1,6.495667458E0,-2.509200096E0,4.709538460E0
9.243856517E1,6.256239891E0,-3.095797300E0,4.271386147E0
9.249056520E1,6.572284222E0,-3.481275558E0,4.551516533E0
9.254256513E1,7.752661705E0,-5.796539307E0,5.145296574E0
9.259256516E1,6.150891781E0,-5.906675816E0,3.459727049E0
9.264456515E1,5.497254848E0,-8.949799538E0,4.166038036E0
9.269656514E1,6.433416367E0,-1.003440571E1,2.820455790E0
9.274856511E1,7.410280704E0,-9.921875000E0,2.253012657E0
9.280056507E1,7.937020779E0,-9.435836792E0,2.504411459E0
9.285056513E1,4.893897533E0,-9.028810501E0,9.289786220E-1
9.290256509E1,6.277788639E0,-9.100638390E0,1.371919513E0
9.295256512E1,4.755029678E0,-8.703188896E0,9.864411950E-1
9.300456504E1,4.168432236E0,-8.691217422E0,1.307274103E0
9.305456511E1,4.015198708E0,-9.031204224E0,1.757397652E0
9.310656507E1,4.087027073E0,-8.983319283E0,1.034326673E0
9.315656510E1,4.405465603E0,-8.992896080E0,9.840469360E-1
9.320856509E1,4.295329094E0,-8.559532166E0,1.024749637E0
9.325856515E1,4.362368584E0,-8.765439987E0,1.417410731E0
9.331056508E1,4.259414673E0,-8.973741531E0,1.376708031E0
9.336256501E1,4.752635479E0,-9.047964096E0,1.149251938E0
9.341256507E1,4.592218876E0,-8.499675751E0,1.051086664E0
9.346456503E1,4.017592907E0,-9.189227104E0,1.419804931E0
9.351456506E1,3.845205307E0,-8.832479477E0,1.228263021E0
9.356656502E1,4.039141655E0,-9.273026466E0,1.309668303E0
9.361856502E1,4.295329094E0,-8.971347809E0,6.751855016E-1
9.366856508E1,4.034353256E0,-9.409500122E0,9.672870040E-1
9.371856518E1,3.598595142E0,-8.856422424E0,1.666415215E0
9.377056500E1,3.656057596E0,-8.741497040E0,1.630501151E0
9.382256500E1,3.481275558E0,-9.062330246E0,1.060663700E0
9.387256513E1,3.505218267E0,-8.643332481E0,7.661679387E-1
9.392456499E1,3.191568375E0,-9.500482559E0,1.254600048E0
9.397656498E1,3.301704884E0,-8.940221786E0,1.108549237E0
9.402656508E1,4.743058205E0,-8.494887352E0,1.539518714E0
9.407856500E1,4.826858044E0,-8.420664787E0,1.137280583E0
9.413056500E1,5.039948463E0,-9.141341209E0,7.613793612E-1
9.418056510E1,5.008822918E0,-9.335277557E0,1.031932473E0
9.423256499E1,4.532361984E0,-8.810931206E0,1.628106833E0
9.428456495E1,3.814079762E0,-8.664880753E0,1.063058019E0
9.433456518E1,3.629720688E0,-8.911490440E0,1.221080184E0
9.438656497E1,3.687183142E0,-9.000079155E0,7.230709791E-1
9.443856484E1,4.003227711E0,-9.105426788E0,1.144463301E0
9.448856517E1,3.888302326E0,-9.213169098E0,1.096577883E0
9.453856529E1,4.400677204E0,-9.043175697E0,1.671203852E0
9.459056495E1,4.218712330E0,-8.875576973E0,1.752609134E0
9.464056518E1,4.661653042E0,-8.818114281E0,1.901054144E0
9.469256508E1,3.849993944E0,-9.074301720E0,1.417410731E0
9.474456504E1,4.211529255E0,-9.138946533E0,1.259388566E0
9.479456517E1,3.658451796E0,-8.959376335E0,9.481328130E-1
9.484656506E1,3.620143414E0,-9.000079155E0,1.424593568E0
9.489856489E1,3.660846233E0,-8.865999222E0,1.410227895E0
9.494856502E1,4.221106529E0,-8.952193260E0,2.104567528E0
9.499856508E1,5.032765865E0,-8.911490440E0,2.487651587E0
9.505056488E1,5.619362831E0,-8.676852226E0,3.775771379E0
9.510056497E1,6.098217964E0,-8.837267876E0,3.665634632E0
9.515056527E1,5.411061287E0,-8.767834663E0,3.414235830E0
9.520256506E1,5.834847927E0,-8.803748131E0,3.138894320E0
9.525456479E1,5.401484013E0,-8.588263512E0,2.497228622E0
9.530456492E1,5.221913338E0,-8.375173569E0,2.466103077E0
9.535656488E1,5.061496735E0,-7.395915031E0,1.953728199E0
9.540856481E1,5.655277252E0,-6.909877300E0,3.284945011E0
9.546056483E1,6.148497581E0,-6.301731110E0,3.591412306E0
9.551256476E1,6.912271500E0,-5.521197796E0,3.893090725E0
9.556256486E1,7.568302631E0,-5.516408920E0,4.824463844E0
9.561456485E1,8.303344727E0,-4.989668846E0,4.427014351E0
9.566456488E1,8.992896080E0,-4.369551659E0,4.872349262E0
9.571656487E1,9.543579102E0,-3.711125851E0,4.793338299E0
9.576856487E1,9.814132690E0,-2.822849989E0,4.640104771E0
9.582056486E1,1.008947372E1,-2.013585091E0,5.315289974E0
9.587256476E1,1.014693642E1,-1.182771802E0,4.948966026E0
9.592256478E1,9.124581337E0,-7.901107073E-1,4.829252243E0
9.597256481E1,9.098244667E0,7.422251999E-2,4.565882206E0
9.602456481E1,8.423058510E0,4.237866402E-1,4.046324253E0
9.607656477E1,6.047938347E0,2.968900800E-1,2.947352171E0
9.612656480E1,4.829252243E0,1.154040456E0,2.238646984E0
9.617856476E1,5.360781193E0,3.711125851E-1,1.405439258E0
9.622856482E1,7.443800449E0,-1.759791970E0,-1.096577883E0
9.627856485E1,1.026904488E1,-1.656838179E0,-2.253012657E0
9.632856495E1,6.902694225E0,-1.353004742E1,6.172440529E0
9.638056474E1,7.278595448E0,1.528744507E1,9.122186899E-1
9.643256473E1,5.657671452E0,5.940196037E0,6.277788639E0
9.648256493E1,8.250671387E0,5.535563469E0,3.964919090E0
9.653456476E1,1.055156898E1,4.139701366E0,3.775771379E0
9.658456485E1,9.332882881E0,3.454938650E0,1.865140080E0
9.663656468E1,8.377567291E0,1.872322917E0,-7.063110471E-1
9.668656477E1,6.586649895E0,5.171633363E-1,-1.824437380E0
9.673856470E1,9.517242432E0,-1.091789365E0,-5.913859010E-1
9.678856476E1,1.098972130E1,-1.426987767E0,1.146857619E0
9.683856492E1,1.273035908E1,-1.036720991E0,-2.490045726E-1
9.689056478E1,1.758115959E1,-3.007209063E0,3.222693920E0
9.694256468E1,2.093074989E1,-3.344801903E0,1.908236980E0
9.699256491E1,1.909194756E1,-3.000026226E0,3.490852594E0
9.704456473E1,1.484210968E1,-2.353572130E0,1.477267504E0
9.709656466E1,1.197616291E1,-2.762993097E0,1.355159521E0
9.714656509E1,7.142121792E0,-2.303292274E0,8.092648983E-1
9.719856475E1,3.589017868E0,-4.668835998E-1,1.436564885E-2
9.725056458E1,1.893871427E0,-6.249057055E-1,-1.831620216E0
9.730056485E1,-3.136500120E-1,4.501236677E-1,-1.699935049E-1
9.735056500E1,-3.304099143E-1,9.624984860E-1,3.469304085E0
9.740256457E1,-2.650462151E0,4.067873001E0,7.956175327E0
9.745256486E1,-6.155680656E0,1.094901848E1,1.337441921E1
9.750456486E1,-1.650852394E1,1.245022869E1,1.912307358E1
9.755459508E1,-2.571451187E1,1.176067829E1,1.698019600E1
9.760459524E1,-3.595003510E1,1.718849945E1,3.088614464E0
9.765459527E1,-2.881509781E1,6.201171875E-1,4.644893110E-1
9.770659506E1,7.403097630E0,-1.350131607E1,1.953728294E1
9.775659510E1,4.977457809E1,-5.419440842E1,2.618618393E1
9.780659515E1,-1.764101601E1,-1.069043732E1,-2.191958618E1
9.785859505E1,1.321160793E1,1.608952641E0,-1.395143890E1
9.791059505E1,-3.059883118E0,1.896265626E0,-1.170800328E0
9.796059507E1,-5.360781193E0,9.615407944E0,-5.593026161E0
9.801059510E1,-4.781366825E0,5.288952827E0,-1.197137386E-1
9.806259503E1,-5.032765865E0,3.507612705E0,3.478881359E0
9.811259506E1,-6.093429565E0,3.019180536E0,4.077449799E0
9.816459498E1,-6.931425571E0,1.029538140E-1,5.882733345E0
9.821459502E1,-7.695199013E0,1.857957244E0,5.698374271E0
9.826659501E1,-4.467716694E0,1.067846537E0,1.172236919E1
9.831659517E1,-2.068653345E0,-2.379909277E0,1.442071724E1
9.836859500E1,-3.591412306E-2,-2.245829821E0,1.443268871E1
9.841859503E1,2.377514839E0,-2.085413456E0,1.519646263E1
9.847059496E1,4.225894928E0,-1.989642382E0,1.353244114E1
9.852059499E1,5.384724140E0,-1.096577883E0,1.197137451E1
9.857259495E1,4.178009510E0,-9.529213905E-1,9.074301720E0
9.862259497E1,5.918647289E0,-1.063058019E0,8.415876389E0
9.867259507E1,6.390319347E0,-1.865140080E0,8.044763565E0
9.872459500E1,7.110996246E0,-2.808484316E0,7.446194649E0
9.877659496E1,6.091034889E0,-3.308887720E0,7.307326794E0
9.882859492E1,5.861184597E0,-3.495641232E0,6.522004604E0
9.887859502E1,5.947378635E0,-4.273780346E0,6.641718388E0
9.893059501E1,6.040755272E0,-4.249837875E0,5.784567833E0
9.898259501E1,5.305713177E0,-4.881926537E0,5.384724140E0
9.903459500E1,4.362368584E0,-4.884320736E0,4.132518291E0
9.908659496E1,4.228289127E0,-6.076669693E0,4.280963421E0
9.913859486E1,5.437397957E0,-8.253065109E0,4.671230316E0
9.918859492E1,5.123748302E0,-8.181237221E0,3.749434233E0
9.924059488E1,5.200365067E0,-9.033598900E0,3.378321648E0
9.929059498E1,4.898686409E0,-9.988914490E0,2.583422422E0
9.934059500E1,4.807703972E0,-1.069283104E1,2.849187136E0
9.939259486E1,5.391906738E0,-1.064733982E1,1.759791970E0
9.944459486E1,5.042342663E0,-9.677659035E0,1.855562925E0
9.949459505E1,3.732674360E0,-8.945011139E0,1.759791970E0
9.954659491E1,4.075055599E0,-8.875576973E0,2.073441982E0
9.959859484E1,3.514795303E0,-8.949799538E0,2.068653345E0
9.964859504E1,2.952140808E0,-9.419076920E0,2.116539001E0
9.970059496E1,2.425400496E0,-9.510059357E0,1.680780888E0
9.975259483E1,2.324840784E0,-9.318517685E0,1.328822494E0
9.980259509E1,2.849187136E0,-9.227535248E0,1.534730196E0
9.985459495E1,2.739050388E0,-9.366402626E0,1.371919513E0
9.990459501E1,2.614548206E0,-9.244295120E0,1.292908430E0
9.995459504E1,2.707924843E0,-9.148524284E0,9.217957854E-1
1.000065950E2,2.712713242E0,-9.404711723E0,8.619389534E-1
1.000585948E2,2.904255390E0,-9.361614227E0,1.271359921E0
1.001085950E2,2.894678354E0,-9.320911407E0,9.074301720E-1
1.001585951E2,2.834821463E0,-9.421471596E0,1.096577883E0
1.002105948E2,3.442967176E0,-9.483722687E0,1.486844659E0
1.002605949E2,3.102980137E0,-9.366402626E0,1.889082789E0
1.003105950E2,3.646480560E0,-9.354432106E0,1.977671027E0
1.003625948E2,3.615355015E0,-9.471751213E0,1.197137356E0
1.004125948E2,3.098191500E0,-9.426259995E0,1.024749637E0
1.004625950E2,2.861158371E0,-9.450202942E0,8.739103079E-1
1.005145947E2,3.114951611E0,-9.304151535E0,1.029538155E0
1.005645948E2,3.081431627E0,-9.294574738E0,1.206714511E0
1.006145948E2,2.949746609E0,-9.392740250E0,1.786128998E0
1.006665948E2,2.296109438E0,-9.287391663E0,1.309668303E0
1.007185948E2,2.724684715E0,-9.419076920E0,1.723877907E0
1.007705948E2,2.822849989E0,-9.438231468E0,1.529941559E0
1.008225948E2,3.016786337E0,-9.301757812E0,1.352765322E0
1.008725949E2,3.026363373E0,-9.083878517E0,1.271359921E0
1.009245948E2,3.141288519E0,-8.985713005E0,1.225868702E0
1.009765947E2,3.560286522E0,-9.296969414E0,1.333611012E0
1.010265948E2,3.591412306E0,-9.483722687E0,2.054287672E0
1.010785947E2,3.102980137E0,-9.426259995E0,1.836408734E0
1.011285947E2,2.700742006E0,-9.289786339E0,1.091789365E0
1.011785948E2,2.887495518E0,-9.241900444E0,1.158828974E0
1.012285948E2,2.937775135E0,-9.421471596E0,1.525153041E0
1.012805947E2,2.542719841E0,-9.222746849E0,1.324033976E0
1.013325947E2,3.117345810E0,-9.536396980E0,1.795706153E0
1.013825947E2,3.450150013E0,-9.000079155E0,1.477267504E0
1.014345947E2,3.201145411E0,-8.916279793E0,1.314456820E0
1.014865947E2,3.739857197E0,-9.155706406E0,1.489238977E0
1.015365947E2,3.974496126E0,-9.244295120E0,1.637683988E0
1.015865947E2,3.390293121E0,-9.249083519E0,1.369525194E0
1.016385947E2,3.289733648E0,-9.287391663E0,1.738243461E0
1.016905946E2,3.249030828E0,-9.486116409E0,1.510787368E0
1.017425946E2,3.134105682E0,-9.263449669E0,1.532335877E0
1.017925947E2,3.167625666E0,-9.098244667E0,1.517970204E0
1.018425948E2,2.944957972E0,-8.976136208E0,1.206714511E0
1.018945947E2,3.265790939E0,-9.191620827E0,1.268965602E0
1.019465947E2,3.414235830E0,-9.134158134E0,1.230657220E0
1.019965950E2,3.395081758E0,-9.275420189E0,1.510787368E0
1.020485947E2,3.438178539E0,-9.244295120E0,2.020767927E0
1.021005947E2,3.227482557E0,-9.265843391E0,1.769369125E0
1.021505947E2,3.181991339E0,-9.287391663E0,1.357553840E0
1.022025946E2,3.251425266E0,-9.172467232E0,1.206714511E0
1.022545946E2,3.143682718E0,-9.210775375E0,1.331216812E0
1.023045947E2,3.239453793E0,-9.383162498E0,1.704723716E0
1.023565946E2,3.110162973E0,-9.112609863E0,1.738243461E0
1.024085945E2,3.371139050E0,-8.990502357E0,1.664021015E0
1.024585949E2,3.538738251E0,-8.657697678E0,1.613741279E0
1.025105949E2,3.646480560E0,-8.909096718E0,1.376708031E0
1.025625946E2,3.876330853E0,-9.457385063E0,1.491633177E0
1.026125948E2,3.742251635E0,-8.942616463E0,1.371919513E0
1.026645947E2,3.639297724E0,-1.002004051E1,1.723877907E0
1.027165945E2,3.756617069E0,-9.624984741E0,1.910631299E0
1.027665948E2,3.356773376E0,-9.366402626E0,1.462901950E0
1.028165948E2,3.162837029E0,-9.354432106E0,1.436564922E0
1.028685945E2,2.561874151E0,-9.371191978E0,8.092648983E-1
1.029185953E2,2.418217659E0,-9.364008904E0,6.919454336E-1
1.029705948E2,2.264983892E0,-9.785401344E0,4.836435020E-1
1.030225946E2,2.152452946E0,-9.737515450E0,6.225114465E-1
1.030725948E2,2.492439985E0,-9.646533012E0,4.573064744E-1
1.031245947E2,2.080624819E0,-9.328094482E0,7.733507752E-1
1.031765945E2,2.253012657E0,-9.407105446E0,1.096577883E0
1.032265946E2,2.387091875E0,-9.545973778E0,6.464542150E-1
1.032765946E2,2.822849989E0,-8.674457550E0,1.594586968E0
1.033285945E2,3.282550812E0,-9.328094482E0,2.044710636E0
1.033805945E2,3.514795303E0,-9.878777504E0,1.719089270E0
1.034305946E2,3.545921087E0,-9.644139290E0,1.513181686E0
1.034825946E2,3.131711483E0,-8.959376335E0,8.906702399E-1
1.035345945E2,3.505218267E0,-9.112609863E0,9.385557175E-1
1.035865945E2,2.935380936E0,-8.798959732E0,4.860377908E-1
1.036365945E2,3.519583941E0,-8.925856590E0,4.237866402E-1
1.036865947E2,3.589017868E0,-9.457385063E0,7.709565163E-1
1.037385945E2,3.665634632E0,-9.514847755E0,2.106961727E0
1.037905945E2,3.138894320E0,-8.712765694E0,1.364736676E0
1.038425945E2,4.221106529E0,-8.976136208E0,1.764580488E0
1.038925945E2,4.778972626E0,-9.577098846E0,2.142875910E0
1.039425945E2,4.757423878E0,-8.458972931E0,1.036720991E0
1.039945944E2,4.367157459E0,-8.784594536E0,8.236305118E-1
1.040445945E2,4.316877365E0,-9.256266594E0,1.242628574E0
1.040965945E2,4.362368584E0,-9.237112045E0,1.984853864E0
1.041465946E2,4.288146019E0,-8.605023384E0,2.025556564E0
1.041985944E2,3.885908127E0,-8.739103317E0,1.278542757E0
1.042505944E2,3.895485163E0,-8.669669151E0,1.304879785E0
1.043005946E2,3.742251635E0,-8.901913643E0,1.017566800E0
1.043525944E2,3.670423269E0,-9.110215187E0,1.326428294E0
1.044045943E2,3.098191500E0,-8.803748131E0,6.584255695E-1
1.044545944E2,3.471698523E0,-9.452596664E0,1.472478986E0
1.045045944E2,3.407052994E0,-8.995290756E0,1.223474383E0
1.045565944E2,3.421418667E0,-9.047964096E0,1.556278586E0
1.046085944E2,3.498035431E0,-9.150918007E0,1.350371003E0
1.046585947E2,3.550709486E0,-9.404711723E0,1.362342358E0
1.047105945E2,3.888302326E0,-8.820508003E0,1.788523316E0
1.047625944E2,3.672817469E0,-9.371191978E0,1.563461423E0
1.048145345E2,3.526766777E0,-9.404711723E0,1.352765322E0
1.048645345E2,3.237059593E0,-8.717555046E0,9.624984860E-1
1.049165345E2,3.869148016E0,-9.253871918E0,1.438959122E0
1.049665346E2,3.749434233E0,-9.098244667E0,1.304879785E0
1.050185345E2,3.569863796E0,-9.186832428E0,1.525153041E0
1.050705345E2,3.780560017E0,-9.227535248E0,1.494027495E0
1.051205346E2,3.725491524E0,-9.258660316E0,1.383890867E0
1.051725345E2,3.521978140E0,-8.734314919E0,1.209108829E0
1.052245344E2,3.524372578E0,-9.320911407E0,1.098972082E0
1.052745346E2,3.526766777E0,-9.361614227E0,1.458113313E0
1.053265345E2,3.390293121E0,-8.992896080E0,1.166011810E0
1.053785345E2,3.435784340E0,-9.062330246E0,1.347976685E0
1.054285346E2,3.138894320E0,-9.184437752E0,1.331216812E0
1.054805345E2,3.462121487E0,-9.088666916E0,1.850774407E0
1.055325344E2,3.658451796E0,-9.210775375E0,2.049499273E0
1.055825347E2,3.785348415E0,-9.217958450E0,1.604164124E0
1.056345346E2,3.694365978E0,-8.964164734E0,1.168406129E0
1.056865344E2,3.651269197E0,-9.007262230E0,1.158828974E0
1.057365347E2,3.639297724E0,-9.038387299E0,1.194743156E0
1.057885346E2,4.048718929E0,-8.997684479E0,1.747820616E0
1.058405345E2,4.257020473E0,-8.980924606E0,1.632895470E0
1.058905346E2,3.964919090E0,-8.937828064E0,1.594586968E0
1.059425346E2,4.470110893E0,-8.664880753E0,2.487651587E0
1.059945344E2,3.421418667E0,-9.189227104E0,1.812466025E0
1.060445346E2,4.048718929E0,-9.246688843E0,2.600182533E0
1.060965346E2,4.304905891E0,-9.294574738E0,2.748627424E0
1.061485344E2,3.747040033E0,-9.007262230E0,1.620923996E0
1.061985345E2,3.380716085E0,-8.868393898E0,1.261782765E0
1.062485345E2,3.011997700E0,-8.303344727E0,1.139674783E0
1.063005344E2,3.778165579E0,-8.315316200E0,1.735849261E0
1.063505346E2,4.103786945E0,-8.351230621E0,2.025556564E0
1.064025345E2,4.704750061E0,-8.901913643E0,2.513988495E0
1.064545343E2,4.601796150E0,-8.660092354E0,2.272166729E0
1.065045344E2,4.455745220E0,-8.442213058E0,2.238646984E0
1.065545344E2,4.415042877E0,-8.288979530E0,2.327235222E0
1.066065343E2,4.757423878E0,-8.317710876E0,2.456526041E0
1.066565344E2,5.695979595E0,-8.310527802E0,2.868341208E0
1.067085343E2,5.724710941E0,-8.308133125E0,2.360754967E0
1.067605343E2,5.861184597E0,-7.829278469E0,2.090201855E0
1.068105343E2,6.067092419E0,-8.260248184E0,1.788523316E0
1.068605344E2,6.565101624E0,-7.831672668E0,1.719089270E0
1.069125343E2,6.648900986E0,-7.750267506E0,2.621730804E0
1.069625343E2,7.338452339E0,-7.604216576E0,3.114951611E0
1.070125343E2,7.604216576E0,-7.163670063E0,2.889889717E0
1.070645343E2,8.059128761E0,-7.010436535E0,3.622537851E0
1.071145343E2,8.442213058E0,-6.675238132E0,3.294522047E0
1.071645343E2,9.464568138E0,-6.447782040E0,3.150865555E0
1.072165342E2,9.895537376E0,-5.887521744E0,4.098998547E0
1.072685343E2,1.096577835E1,-5.260221958E0,4.252232075E0
