"Time (s)","Gyroscope x (rad/s)","Gyroscope y (rad/s)","Gyroscope z (rad/s)"
5.000043600E-2,1.013578176E-1,6.913162023E-2,9.634749591E-2
1.000007440E-1,1.184620410E-1,-2.799595520E-2,2.075249851E-1
1.500007700E-1,2.198656797E-1,-1.759188056E0,5.367813110E-1
2.020004660E-1,4.147316813E-1,-3.005964041E0,7.066018581E-1
2.520005310E-1,1.013990521E0,-7.287518501E0,3.883410990E-1
3.020005890E-1,1.202136993E0,-1.048417664E1,-9.115801454E-1
3.520006150E-1,1.238788962E0,-8.943573952E0,-7.649724483E-1
4.040006120E-1,9.559583068E-1,-4.082308769E0,-2.555108666E-1
4.560006380E-1,2.577393055E-1,-1.369456053E0,2.588376403E-1
5.080005330E-1,5.717240572E-1,-4.545955181E0,-2.585652173E-1
5.600005310E-1,2.475790977E0,-5.517841816E0,1.015699744E0
6.100005580E-1,1.847821474E0,-2.407927036E0,1.800360382E-1
6.620004850E-1,9.186955094E-1,-2.359668732E0,8.684811592E-1
7.140004500E-1,1.441183835E-1,-4.128410518E-1,1.049908161E0
7.640005430E-1,-1.050123215E0,-1.788796633E-1,3.498565555E-1
8.140006700E-1,-6.616128683E-1,2.507705450E0,-1.641564131E0
8.660004340E-1,-4.728555381E-1,4.985374928E0,-2.781438828E0
9.160004950E-1,-3.934430182E-1,5.970089912E0,-3.294565439E0
9.680004210E-1,-6.029697657E-1,5.843640804E0,-3.040445566E0
1.018000452E0,-4.948466420E-1,5.315853119E0,-2.286638021E0
1.068000744E0,-6.500064135E-1,4.086181164E0,-1.570703745E0
1.118000770E0,-9.346696138E-1,3.012891293E0,-1.255497336E0
1.170000401E0,-1.277364969E0,3.190042257E0,-1.080178976E0
1.220000527E0,-1.551643610E0,2.624991655E0,-1.060020328E0
1.272000453E0,-1.629223347E0,2.499764442E0,-7.991809845E-1
1.322000583E0,-1.146639943E0,3.276174068E0,-2.634521127E-1
1.374000576E0,-5.815895200E-1,4.962772846E0,1.032193065E0
1.426000435E0,-6.237392426E-1,5.061733246E0,2.096320391E0
1.478000401E0,-5.350003242E0,-2.318740606E0,6.200112820E0
1.530000361E0,-5.295025826E0,-4.501973152E0,7.489649296E0
1.580000489E0,-2.621268511E0,1.409643078E1,5.600853920E0
1.632000419E0,4.500809193E0,2.171118975E0,-2.113762856E0
1.684000345E0,2.246716499E0,-5.690716743E0,-2.620170116E0
1.736000338E0,4.782616496E-1,4.670779228E0,6.754477620E-1
1.786000370E0,2.424676865E-1,7.707286626E-2,-2.322068214E0
1.836000398E0,-5.258022621E-2,-9.357417226E-1,-3.830294132E0
1.888000324E0,3.964057267E-1,-2.618064642E0,-3.825407505E0
1.938000554E0,-1.765858829E-1,-7.041339874E0,-2.553586006E0
1.990000515E0,-9.798736572E-1,-7.472610950E0,-2.579543591E-1
2.042000340E0,-1.589517236E0,-8.809183121E0,2.772548199E0
2.094000305E0,-2.171060801E0,-8.546511650E0,5.958821297E0
2.144000433E0,-1.678703547E0,-8.095693588E0,8.740090370E0
2.196000324E0,-2.015901089E0,-7.366320133E0,7.491481781E0
2.248000355E0,-2.833238840E0,-1.342578053E0,6.126198292E0
2.298000518E0,-2.595001459E0,2.124693155E0,3.991835117E0
2.350000375E0,-1.145418048E0,1.467114985E-1,2.310734034E0
2.402000272E0,2.491872162E-1,-1.583869696E0,2.215748727E-1
2.452000469E0,7.103904486E-1,-3.890173137E-1,-1.262827635E0
2.504000360E0,8.429482579E-1,9.664926529E-1,-2.235325098E0
2.556000291E0,1.268110514E0,1.397763491E0,-3.405742884E0
2.606000720E0,1.383563995E0,1.104548216E0,-3.681854010E0
2.658000379E0,1.419605017E0,9.750447869E-1,-2.951259375E0
2.710000174E0,1.097068071E0,-1.080192998E-1,-2.476006031E0
2.760000505E0,7.806399465E-1,6.485556066E-2,-1.594527483E0
2.812000430E0,2.119244188E-1,-3.987911642E-1,-3.776839375E-1
2.864000226E0,-2.804329395E-1,1.491549611E-1,9.466719627E-1
2.914000457E0,-8.241029978E-1,-5.930463076E-1,1.588080406E0
2.964000651E0,-9.132893682E-1,-5.478422642E-1,1.888626099E0
3.016000145E0,-7.746229172E-1,-1.314478159E0,2.381594419E0
3.066000376E0,-2.584418058E-1,-2.782998323E0,2.358992338E0
3.116000536E0,1.154077128E-1,-3.269246817E0,1.608239055E0
3.166478015E0,5.613393784E-1,-1.082960248E0,-4.027293921E-1
3.218477612E0,1.347522974E0,5.272805691E-1,-1.476630449E0
3.268477738E0,1.864314914E0,7.111510038E-1,-3.243252754E0
3.320477665E0,1.621190548E0,1.558421135E0,-3.814411879E0
3.372477629E0,1.382342339E0,2.217544794E0,-3.762488365E0
3.422477689E0,1.612027645E0,1.349505186E0,-2.828475237E0
3.474477616E0,1.791621923E0,5.651541948E-1,-2.114373684E0
3.524477648E0,1.725648522E0,4.057183862E-1,-3.165672779E0
3.576477641E0,1.950446844E0,2.147295237E0,-3.445449114E0
3.628477600E0,1.629742622E0,6.971010566E-1,-3.085649729E0
3.680477598E0,1.852708459E0,2.064828396E0,-2.149803877E0
3.730477624E0,1.009103537E0,4.581593037E0,-1.285429716E0
3.782477617E0,3.200475872E-1,1.857745171E0,-3.343124986E-1
3.834477582E0,-1.209971309E-1,1.005588055E0,2.759419084E-1
3.886477542E0,-8.405963778E-1,-4.225862026E0,8.666485548E-1
3.936477602E0,1.276051641E0,-4.613150597E0,5.398356915E-1
3.988477600E0,2.532601595E0,-2.632725239E0,-9.729678184E-2
4.040477626E0,3.162403584E0,-1.349908352E0,-1.586586356E0
4.092477586E0,2.762286901E0,1.597516537E0,-1.408824444E0
4.144477551E0,2.317576885E0,4.887960553E-1,-1.117441773E0
4.194477578E0,2.111715317E0,1.690367937E0,6.149721146E-1
4.246477572E0,1.437320113E0,3.635363102E0,3.243525028E0
4.298477537E0,4.416097701E-1,3.154612064E0,5.327797413E0
4.350477531E0,-9.450542927E-1,2.050167799E0,5.691873074E0
4.400477557E0,-2.227260590E0,2.922483206E0,6.596564293E0
4.452477521E0,-2.694572449E0,8.278262615E-1,7.387635231E0
4.504477514E0,-2.890660048E0,2.467999458E0,7.800580025E0
4.554477540E0,-2.903488398E0,-1.677942991E0,6.096877098E0
4.604477672E0,-2.940140247E0,4.674157798E-1,4.166542530E0
4.656477565E0,-2.976181507E0,3.402623177E0,2.734063625E0
4.708477458E0,-1.905334473E0,3.640249729E0,7.628014684E-1
4.758477490E0,-6.785185635E-2,1.717246056E0,-1.164478421E0
4.808477516E0,1.407998562E0,-1.930841208E0,-1.346516252E0
4.860477475E0,2.114769697E0,-2.845917225E0,-1.351403117E0
4.912477473E0,2.285811901E0,-2.122652769E0,-1.419209242E0
4.962477733E0,1.816056490E0,-1.607082605E0,-1.042305350E0
5.014477459E0,9.474061728E-1,1.821416914E-1,-1.224954009E0
5.066477458E0,7.861377597E-1,1.361111522E0,-1.055744410E0
5.116477586E0,9.657320976E-1,1.377604961E0,-8.401089311E-1
5.168477513E0,1.095846415E0,7.826222777E-1,-1.251221180E0
5.220477478E0,1.152656913E0,7.056531906E-1,-1.629957676E0
5.270477606E0,1.365848899E0,-1.095177531E0,-2.581685781E0
5.322477430E0,1.426935434E0,-1.192916036E0,-2.972028494E0
5.372477462E0,8.160701394E-1,-1.130607724E0,-2.892616272E0
5.422477625E0,3.554777503E-1,-4.678189456E-1,-1.607355714E0
5.474477551E0,5.350721478E-1,-1.239952683E0,-1.253664732E0
5.526477415E0,7.378793955E-1,-3.120482862E-1,-1.697152853E0
5.576477645E0,7.427663207E-1,6.372363567E-1,-1.859643102E0
5.628477603E0,7.274947166E-1,1.035520434E0,-1.709981084E0
5.680477366E0,4.971984923E-1,6.079148054E-1,-1.584142804E0
5.730477629E0,4.733747542E-1,9.096822143E-1,-1.247555971E0
5.780477756E0,5.179678798E-1,7.013771534E-1,-8.431632519E-1
5.832477517E0,4.819268584E-1,-2.005470730E-2,-2.487913668E-1
5.882477547E0,1.771050990E-1,-4.172209650E-3,3.009873629E-1
5.932477606E0,3.872427344E-1,-1.756744623E0,7.365342975E-1
5.984477300E0,2.449111491E-1,-2.737794161E0,3.571869433E-1
6.034477664E0,-2.278985381E-1,-2.473900318E0,-4.265531600E-1
6.086477556E0,-6.836040020E-1,-5.988818645E0,-2.506549358E0
6.138477283E0,-8.192161322E-1,-1.122666478E0,-2.197451353E0
6.188477414E0,-2.227260590E0,-1.302871704E0,-5.316219330E-1
6.238477439E0,-2.127078533E0,-1.516674519E0,4.695861638E-1
6.290477367E0,-2.527806044E0,-1.523393989E0,1.776837826E0
6.340477498E0,-2.751382828E0,-3.362709284E0,3.205651522E0
6.390477524E0,-3.150277853E0,-2.275979996E0,4.010160923E0
6.442477318E0,-4.102616787E0,-2.040185928E0,4.567880630E0
6.494477317E0,-3.962117672E0,3.525730968E-1,4.118895054E0
6.544477343E0,-4.309089184E0,8.663107753E-1,2.250869036E0
6.596477303E0,-3.719604254E0,1.252988577E0,-6.675352156E-2
6.648477302E0,-2.941362143E0,2.366595745E0,-2.006250620E0
6.698477363E0,-2.309116364E0,4.070909977E0,-3.899932861E0
6.750477289E0,-1.643884182E0,5.218114853E0,-4.645188332E0
6.800477321E0,-9.994212985E-1,5.951764107E0,-4.464983463E0
6.852477282E0,-4.655251503E-1,5.882736206E0,-3.650699854E0
6.904477275E0,-2.981480360E-1,4.926121235E0,-2.706912994E0
6.954477306E0,-1.173319370E-1,3.932243347E0,-1.780841470E0
7.004477432E0,-5.406615734E-1,3.552896023E0,-1.532219291E0
7.056477226E0,-1.201617837E0,4.529058456E0,-1.034363985E0
7.108477191E0,-1.048901439E0,6.859509945E0,-4.845853448E-1
7.158477285E0,-6.854366660E-1,6.135634422E0,-5.023004413E-1
7.210477211E0,-2.752604485E0,2.540692329E0,1.316856146E0
7.260477243E0,-5.986525536E0,-4.296111107E0,7.569062233E0
7.310477403E0,-4.926063061E0,-3.471443415E0,9.193352699E0
7.360477562E0,-9.310044646E-1,1.368409634E1,6.372376919E0
7.410477626E0,5.498352051E0,2.125303984E0,-5.441756725E0
7.462477253E0,3.721345186E0,-1.733818799E-1,-3.939639091E0
7.512477312E0,1.613860130E0,8.498173952E-1,-9.091367126E-1
7.564477209E0,1.056751132E0,-2.238717318E0,-2.563359976E0
7.614477304E0,2.736218274E-1,1.803091019E-1,-2.832751513E0
7.664477397E0,1.062447354E-1,-6.205351949E-1,-2.617115974E0
7.716477128E0,2.638479471E-1,-1.211852789E0,-2.761890888E0
7.766477291E0,1.923767328E-1,-9.711718559E-1,-2.266479254E0
7.816477317E0,6.926753521E-1,-1.592421889E0,-2.102767229E0
7.868477046E0,9.779494405E-1,-1.227735400E0,-1.541993022E0
7.918477343E0,1.303540707E0,-1.972380042E0,-8.969193697E-1
7.968477503E0,1.403722525E0,-1.864867806E0,-1.608267725E-1
8.020477130E0,1.428767920E0,-1.860591650E0,2.008054554E-1
8.070477260E0,1.444039702E0,-2.272925854E0,9.478936791E-1
8.120477386E0,1.245508432E0,-2.205119610E0,1.236832857E0
8.172477080E0,7.042818069E-1,-2.896008253E0,1.723692536E0
8.222477211E0,3.294090554E-2,-2.257043123E0,1.643669248E0
8.272477270E0,-4.178776443E-1,-1.664503932E0,1.431698918E0
8.324477097E0,-3.824474514E-1,-2.414646387E0,1.424979329E0
8.374477129E0,-1.313818395E-1,-2.013918877E0,1.366336346E0
8.424477222E0,-2.875648066E-2,-1.659617066E0,1.326019287E0
8.476477116E0,-2.370615304E-1,-1.443370700E0,1.388327479E0
8.526477180E0,-4.563621581E-1,-6.956716776E-1,1.237443686E0
8.578477172E0,-5.638744235E-1,-8.929811120E-1,1.338236570E0
8.630477098E0,-5.192812681E-1,-5.991549492E-1,1.415816426E0
8.682477096E0,-6.231283545E-1,-5.802181363E-1,1.366947293E0
8.732477122E0,-6.243500710E-1,-2.821159065E-1,1.021808386E0
8.782477148E0,-6.017481089E-1,-6.351959705E-1,8.299966455E-1
8.834477046E0,-5.302768350E-1,-6.840652227E-1,5.117358565E-1
8.884477073E0,-3.574019670E-1,-3.749673963E-1,2.979330420E-1
8.934477100E0,-2.731025815E-1,-3.456458747E-1,1.388069056E-2
8.984477132E0,-2.981480360E-1,-3.260982037E-1,-9.118813276E-2
9.036477024E0,-3.121979535E-1,-1.782688051E-1,-3.257603645E-1
9.086477183E0,-1.826945245E-1,-2.310903184E-2,-2.994931936E-1
9.138477079E0,-6.235406920E-2,2.881451324E-2,-3.123213649E-1
9.190477105E0,-5.441282317E-2,-2.692877054E-1,-1.913700253E-1
9.242477098E0,-1.051146388E-1,-4.571104795E-2,-1.544084027E-2
9.294477028E0,-5.441282317E-2,-2.075903267E-1,1.067322046E-1
9.344477189E0,6.042984501E-2,-1.550559253E-1,3.034308255E-1
9.396477016E0,1.911550164E-1,-5.539509058E-1,5.911483765E-1
9.446477112E0,2.693457603E-1,-4.672080576E-1,7.371451259E-1
9.498477038E0,3.976274729E-1,-4.207823277E-1,8.642051220E-1
9.550477030E0,3.872427344E-1,-7.420974374E-1,9.857672453E-1
9.600477060E0,3.218801618E-1,-4.946970046E-1,1.030971289E0
9.652476987E0,2.638479471E-1,-4.873666167E-1,9.943193793E-1
9.704476946E0,3.872427344E-1,-4.134519398E-1,1.013256192E0
9.754476976E0,5.106375217E-1,-6.840652227E-1,9.998171926E-1
9.804477103E0,5.448459983E-1,-4.708732665E-1,6.992715001E-1
9.856476929E0,5.717240572E-1,-2.082011998E-1,4.127756953E-1
9.906477027E0,5.760000944E-1,-2.644008100E-1,1.876761205E-2
9.956477289E0,4.471075535E-1,-9.059132077E-3,-1.681571454E-1
1.000847711E1,2.724000812E-1,-1.532233208E-1,-2.897193432E-1
1.006047701E1,-3.914118931E-2,4.530787840E-2,-3.202626109E-1
1.011047731E1,-9.472993016E-2,1.693135202E-1,-3.672992289E-1
1.016247703E1,1.795485616E-1,3.769038711E-3,-4.644267857E-1
1.021447703E1,2.901151776E-1,-3.432024121E-1,-2.182481140E-1
1.026447709E1,2.162004858E-1,-1.862100512E-1,1.326982584E-2
1.031647705E1,1.257924289E-1,-4.403299987E-1,2.670885995E-2
1.036847695E1,1.728290617E-1,4.714047164E-2,7.863240689E-2
1.041847718E1,2.015397251E-1,-6.892392784E-2,2.374573648E-1
1.046853694E1,1.960419267E-1,3.675575927E-2,3.498565555E-1
1.052053667E1,2.552958429E-1,2.682736814E-1,3.077068925E-1
1.057053687E1,3.304322958E-1,1.289964169E-1,8.962798119E-2
1.062053693E1,3.298214078E-1,2.615541816E-1,-3.233169317E-1
1.067253675E1,4.416097701E-1,7.850656509E-1,-5.823237896E-1
1.072453678E1,6.230367422E-1,5.950866342E-1,-8.694304824E-1
1.077453688E1,8.007985353E-1,1.381593943E-1,-1.232895255E0
1.082653664E1,9.736734033E-1,1.075837493E0,-1.281764507E0
1.087653677E1,9.706190825E-1,7.416942716E-1,-1.456471920E0
1.092853680E1,9.596234560E-1,1.781386852E0,-1.281764507E0
1.098053662E1,7.910246849E-1,1.459460974E0,-1.083233237E0
1.103053669E1,6.725168228E-1,1.511995316E0,-6.800622344E-1
1.108053675E1,5.149135590E-1,1.178462863E0,-1.479986012E-1
1.113253664E1,3.652516007E-1,6.180123612E-2,1.388069056E-2
1.118453664E1,3.059976697E-1,-1.259500265E0,1.769817024E-1
1.123453667E1,3.377626538E-1,-2.968701124E0,4.213278294E-1
1.128453669E1,4.978093505E-1,-2.382881641E0,8.861963153E-1
1.133653669E1,3.634189963E-1,-1.739029527E0,9.955411553E-1
1.138853665E1,1.196837798E-1,-1.781790018E0,1.313191056E0
1.144053661E1,2.675131559E-1,-1.662060380E0,1.245385051E0
1.149053674E1,-1.460426003E-1,-2.067675114E0,6.699499488E-1
1.154253660E1,-1.275532484E0,-3.481828213E0,-3.449725389E0
1.159253663E1,-2.651613355E-1,5.877562165E-1,-2.203560114E0
1.164453663E1,-1.283275187E-1,-2.407316208E0,-2.526096821E0
1.169653659E1,-1.591960669E0,-7.818036675E-1,-1.859643102E0
1.174853658E1,-1.888841152E0,4.545875788E-1,-1.076513767E0
1.179853661E1,-2.220541000E0,1.267038345E0,-1.563984275E0
1.185053658E1,-2.180834770E0,2.271911621E0,-1.653781414E0
1.190053660E1,-1.948095083E0,1.604846835E0,-1.877969027E0
1.195253653E1,-1.632888675E0,1.872405887E0,-1.775343657E0
1.200253659E1,-1.707414150E0,3.002506495E0,-1.795502186E0
1.205253662E1,-1.496665597E0,5.092276573E0,-1.582310200E0
1.210453658E1,-9.810953736E-1,5.637168407E0,-9.867165685E-1
1.215653654E1,-4.056603312E-1,7.100801468E0,-2.704728208E-2
1.220653657E1,-5.571548939E-1,8.453256607E0,2.021183729E0
1.225853657E1,-5.633445263E0,-4.140627682E-1,5.492120266E0
1.231053656E1,-5.711024761E0,-3.755495548E0,8.062029839E0
1.236253649E1,-3.468538523E0,7.174105644E0,7.774923801E0
1.241253652E1,4.368251324E0,-1.838600636E0,-2.504106045E0
1.246253664E1,3.547859669E0,-9.363526106E-1,-4.715437889E0
1.251453654E1,1.046977162E0,1.707472205E0,-4.656485319E-1
1.256653654E1,6.462496519E-1,-9.106962085E-1,-1.416765690E0
1.261853650E1,6.712951064E-1,-2.825758696E0,-1.904236197E0
1.267053649E1,9.669538736E-1,-1.454977155E0,-2.160188675E0
1.272053652E1,1.281549454E0,-4.007172108E0,-1.789393544E0
1.277053655E1,1.135552764E0,-5.376731873E0,-4.094489217E-1
1.282053657E1,7.142541558E-2,-5.509901047E0,1.158642173E0
1.287253657E1,-5.889199376E-1,-6.512941360E0,2.823250055E0
1.292253670E1,1.422857791E-1,-6.798215389E0,4.433490753E0
1.297453659E1,1.259558320E0,-4.808627605E0,4.384010792E0
1.302653643E1,1.713431120E0,-2.269260406E0,3.971676588E0
1.307653666E1,9.596234560E-1,5.718737245E-1,2.401752949E0
1.312853655E1,-3.274695873E-1,1.460071802E0,2.912135124E-1
1.318053644E1,-6.438977718E-1,7.966721058E-1,-1.429593921E0
1.323053664E1,-2.859307528E-1,9.188451767E-1,-1.317805529E0
1.328053673E1,1.771050990E-1,8.620347381E-1,-1.034974933E0
1.333253649E1,2.742326558E-1,7.502463460E-1,-9.482320547E-1
1.338253656E1,3.395952880E-1,9.600968659E-2,-9.928252697E-1
1.343253665E1,1.691638678E-1,3.238624334E-1,-7.887962461E-1
1.348453634E1,-1.252731979E-1,2.328435034E-1,-4.247205555E-1
1.353453654E1,-3.256369829E-1,3.446318507E-1,2.655571699E-1
1.358653657E1,-3.231935501E-1,-2.014816850E-1,4.897447228E-1
1.363853643E1,-2.749351859E-1,-1.120833874E0,6.626195908E-1
1.368853649E1,-1.130558848E-1,-6.455807090E-1,7.041584253E-1
1.374053655E1,2.561052516E-2,-6.865086555E-1,6.943845749E-1
1.379253645E1,-4.708243906E-2,-4.659863412E-1,7.084344625E-1
1.384453644E1,-1.808619201E-1,-5.234076381E-1,3.791781068E-1
1.389453647E1,-3.329673707E-1,1.354288310E-2,-5.575794727E-2
1.394653636E1,-4.471991956E-1,2.456716746E-1,-4.002859592E-1
1.399853636E1,-2.902068198E-1,3.427992463E-1,-4.363270104E-1
1.404853642E1,-1.729206890E-1,2.920974493E-1,-3.453080654E-1
1.410053635E1,-1.898263767E-2,-8.297382295E-2,-3.813491166E-1
1.415253635E1,-1.295492351E-1,3.183646500E-1,-1.406682134E-1
1.420253641E1,-1.878410578E-3,8.760845661E-1,-3.501950204E-1
1.425453634E1,1.426324606E0,2.471664667E0,-8.883672357E-1
1.430653634E1,3.208829403E0,5.254479647E-1,-2.745397806E0
1.435853630E1,3.032289267E0,4.500958920E0,-3.669025898E0
1.441053629E1,2.318187714E0,1.858966827E0,-3.226759434E0
1.446253625E1,1.792843580E0,5.135036945E0,-9.103583694E-1
1.451253645E1,1.423270226E0,2.383699894E0,1.115270734E0
1.456253654E1,1.238178015E0,-1.446712166E-1,1.443916202E0
1.461453634E1,1.324920893E0,1.078281045E0,1.817154884E0
1.466453636E1,8.490568995E-1,4.167139530E-1,4.805817306E-1
1.471653629E1,5.760000944E-1,1.851960123E-1,-5.261241794E-1
1.476653642E1,7.386887819E-2,5.083436966E-1,-1.019703269E0
1.481853631E1,-4.117689729E-1,6.347928643E-1,-1.061853051E0
1.487053627E1,-6.719975471E-1,4.038857818E-1,-6.018714309E-1
1.492053650E1,-7.355275750E-1,-2.527943552E-1,-8.645434976E-1
1.497253630E1,-6.506173015E-1,-4.439951777E-1,-1.545047402E0
1.502453629E1,-8.595331907E-1,-1.412216544E0,-2.421639204E0
1.507653625E1,-1.292025805E0,-1.480022550E0,-2.620170116E0
1.512653628E1,-1.341505885E0,-1.148322701E0,-2.283583403E0
1.517653631E1,-1.496665597E0,-9.754479527E-1,-1.026422858E0
1.522653634E1,-1.354334116E0,-3.873392582E0,5.312835574E-1
1.527853630E1,-1.382433891E0,-5.986986160E0,1.416427255E0
1.533053622E1,-8.320442438E-1,-4.087806225E0,2.760330915E0
1.538053626E1,-1.373881698E0,-3.575290442E0,4.053532600E0
1.543053645E1,-1.139920354E0,-3.466556311E0,2.965581656E0
1.548253634E1,-1.558363080E0,-2.285753965E0,2.784765482E0
1.553453621E1,-1.670151353E0,-8.795421124E-1,1.862969875E0
1.558453630E1,-1.697640419E0,-1.153496876E-1,1.502559304E0
1.563453639E1,-1.289582372E0,-4.910317957E-1,1.321743131E0
1.568653636E1,-1.194287300E0,-1.794905365E-1,1.188574553E0
1.573853632E1,-1.375103474E0,-7.930862904E-2,1.159863949E0
1.579053621E1,-1.391596794E0,-1.629971713E-1,1.632062793E0
1.584253614E1,-7.679034472E-1,7.035334408E-2,1.013867140E0
1.589253637E1,-3.848909438E-1,-1.483364105E-1,7.878469825E-1
1.594253640E1,-4.777424335E-1,-6.742913723E-1,7.707427144E-1
1.599453623E1,-7.642382383E-1,4.042095318E-2,8.434356451E-1
1.604453649E1,-9.591042399E-1,5.138415098E-1,1.027917027E0
1.609653638E1,-8.424290419E-1,3.018712699E-1,7.933447361E-1
1.614853614E1,-6.469520926E-1,7.533007264E-1,5.190662146E-1
1.619853654E1,-5.284442902E-1,7.056531906E-1,2.289052606E-1
1.625053633E1,-3.201391995E-1,6.757208109E-1,3.159578145E-2
1.630253613E1,-1.741424054E-1,3.305819333E-1,-1.027945727E-1
1.635253629E1,-1.973552853E-1,5.779823661E-1,-1.498311907E-1
1.640253635E1,-1.069472358E-1,8.766955137E-1,-2.982714474E-1
1.645453608E1,1.923767328E-1,3.733424842E-1,-3.899012506E-1
1.650453631E1,2.644588351E-1,-4.317778945E-1,-2.634521127E-1
1.655653630E1,1.135751158E-1,-2.185859084E-1,1.021549944E-2
1.660853610E1,-1.959350146E-2,-3.126591444E-1,1.879772842E-1
1.665853636E1,4.230241757E-3,-2.411879301E-1,2.038597912E-1
1.670853642E1,7.875579596E-2,-2.912788689E-1,1.818686426E-1
1.676053608E1,1.569465548E-1,-6.089287996E-1,1.091756672E-1
1.681253608E1,1.062447354E-1,-4.696515203E-1,2.423443049E-1
1.686253637E1,8.730791509E-2,-4.690406621E-1,3.327523470E-1
1.691453610E1,1.783268452E-1,-6.211461425E-1,2.429551482E-1
1.696653603E1,1.569465548E-1,-5.319597721E-1,2.771635950E-1
1.701653616E1,2.198656797E-1,-7.359887958E-1,1.103973985E-1
1.706853608E1,2.168113440E-1,4.295421243E-1,-1.727343537E-2
1.711853612E1,4.006817937E-1,7.514680624E-1,-6.247746199E-2
1.717053604E1,8.667719960E-1,3.708990514E-1,-1.993112862E-1
1.722253597E1,1.358518481E0,2.511694729E-1,-3.294255733E-1
1.727253613E1,1.665783644E0,-1.947621554E-1,-6.660123467E-1
1.732453606E1,1.981601119E0,2.297891825E-1,-8.822585940E-1
1.737653602E1,2.048796177E0,8.929017931E-2,-9.738884568E-1
1.742653605E1,1.869812727E0,5.394978523E-1,-8.712630868E-1
1.747653607E1,1.593701601E0,5.767606497E-1,-8.321676850E-1
1.752853600E1,1.382342339E0,8.388218284E-1,-8.187286258E-1
1.758053600E1,1.148380876E0,9.536644816E-1,-7.820767164E-1
1.763253599E1,1.094624758E0,4.936829507E-1,-8.065113425E-1
1.768453599E1,8.710480332E-1,1.149465069E-1,-6.385233998E-1
1.773453605E1,5.338504314E-1,-5.070181214E-4,-5.200154781E-1
1.778646841E1,3.127171993E-1,1.038470946E-4,-4.644267857E-1
1.783646847E1,2.192548066E-1,-2.705094516E-1,-4.216662347E-1
1.788846844E1,3.383735418E-1,-2.149207145E-1,-4.491551518E-1
1.794046843E1,4.183968902E-1,-1.287887245E-1,-4.748114944E-1
1.799246842E1,4.923115969E-1,-2.631790638E-1,-4.161684215E-1
1.804246849E1,5.485111475E-1,4.530787840E-2,-3.630231619E-1
1.809246852E1,5.191896558E-1,2.358978242E-1,-3.422537446E-1
1.814446844E1,4.324467778E-1,6.415123343E-1,-2.866650224E-1
1.819646837E1,3.573103547E-1,9.347276688E-1,-2.915519476E-1
1.824846837E1,3.994600475E-1,1.033077002E0,-2.121394575E-1
1.829846846E1,4.678769410E-1,6.598383188E-1,-1.644919515E-1
1.835046836E1,5.631719232E-1,2.236805260E-1,-2.182481140E-1
1.840046838E1,5.986021161E-1,4.918503761E-1,-2.622303963E-1
1.845246834E1,5.014745593E-1,2.310109138E-1,-1.614376307E-1
1.850246838E1,3.224910200E-1,5.996863917E-2,-5.514708161E-2
1.855246850E1,1.997071207E-1,3.134777248E-1,8.351932466E-2
1.860446833E1,1.160185859E-1,-1.605537087E-1,7.618895173E-2
1.865446836E1,2.162004858E-1,-1.092123151E0,2.099684328E-1
1.870446849E1,4.611574411E-1,-1.467194438E0,2.325704545E-1
1.875446855E1,7.928572893E-1,-3.390198231E0,-4.277748764E-1
1.880646831E1,2.622138895E-2,-4.379799843E0,-1.701429009E0
1.885646861E1,-1.138087749E0,3.614489734E-2,-1.060020328E0
1.890846853E1,-1.040349364E0,-1.183753014E0,-1.522746533E-1
1.896046833E1,-1.540647984E0,1.778656244E-1,1.158951893E-1
1.901046856E1,-1.924882174E0,4.509223998E-1,2.979330420E-1
1.906046862E1,-1.921217084E0,-3.804652095E-1,4.689753056E-1
1.911246831E1,-1.750785589E0,-7.897449136E-1,2.808288038E-1
1.916246851E1,-1.152748585E0,-4.006237388E-1,-4.063946009E-1
1.921446854E1,-3.103653491E-1,6.616709232E-1,-1.377059460E0
1.926646820E1,2.357481718E-1,1.216336489E0,-1.925616503E0
1.931646843E1,6.468604803E-1,2.658589363E0,-1.852312565E0
1.936646852E1,6.321997046E-1,2.843070745E0,-1.898127556E0
1.941846825E1,6.150954366E-1,2.680580616E0,-1.772289276E0
1.946846828E1,5.637827516E-1,2.342772007E0,-1.849869132E0
1.951846840E1,5.882173777E-1,2.261527061E0,-1.650727034E0
1.957046830E1,3.389844000E-1,2.354378462E0,-1.433259010E0
1.962246823E1,5.650503444E-4,2.554742098E0,-1.060020328E0
1.967246826E1,-2.065182626E-1,3.329319239E0,-2.970497012E-1
1.972446825E1,-3.635106385E-1,4.161317825E0,5.147902369E-1
1.977646825E1,-4.111581147E-1,4.541275978E0,1.140927076E0
1.982646837E1,-4.158816338E0,8.318151534E-2,6.506156921E0
1.987846816E1,-5.422696590E0,-5.687051773E0,8.281941414E0
1.992846820E1,-1.686033964E0,9.019529343E0,6.588012695E0
1.997846826E1,4.735991955E0,5.370220184E0,-5.877303600E0
2.003046822E1,1.641349077E0,1.548036337E0,-1.895684123E0
2.008246822E1,-8.923213929E-2,-1.387171149E0,9.735499620E-1
2.013446818E1,-2.828764319E-1,-5.692225099E-1,-7.771897912E-1
2.018446824E1,-4.355927408E-1,1.051726714E-1,-6.098127365E-1
2.023446827E1,-1.881923079E-1,-1.233844042E0,-5.597218275E-1
2.028646816E1,2.320829779E-1,-1.982153893E0,-8.969193697E-1
2.033646819E1,6.673702504E-3,-2.622951508E0,-1.257329822E0
2.038846819E1,-2.193464339E-1,-3.128747940E0,-1.380113721E0
2.043846821E1,-1.411144495E0,-3.898438215E0,-1.235949636E0
2.049046817E1,-2.726948261E0,-4.344980240E0,-1.351704299E-1
2.054246817E1,-2.695794106E0,-3.754273891E0,7.554710507E-1
2.059246820E1,-2.351876974E0,-2.565530300E0,1.058460236E0
2.064446819E1,-1.567525983E0,-2.735350847E0,1.573419690E0
2.069646816E1,-7.752338052E-1,-2.350505590E0,1.298530221E0
2.074846815E1,-3.787822425E-1,-1.364569068E0,1.114048958E0
2.080046814E1,-2.242333591E-1,-8.673248291E-1,1.180022478E0
2.085046818E1,-1.558164507E-1,-1.098231792E0,9.472827911E-1
2.090246814E1,-2.260659486E-1,-2.692877054E-1,6.229133010E-1
2.095446810E1,-1.845271140E-1,-1.507798582E-1,4.573688805E-1
2.100446813E1,-1.234406009E-1,-1.532233208E-1,1.293342263E-1
2.105446822E1,-9.106473625E-2,1.949698627E-1,-1.596050411E-1
2.110646808E1,-1.409571525E-2,2.377304286E-1,-5.664412975E-1
2.115646811E1,5.798638240E-2,4.344290495E-1,-6.880034804E-1
2.120646827E1,1.086882055E-1,8.655959740E-3,-7.295423150E-1
2.125846813E1,1.522581559E-2,1.161682457E-1,-5.126851797E-1
2.131046806E1,1.156062540E-2,-3.774108887E-1,-4.094489217E-1
2.136046826E1,-6.357580423E-2,-5.466205478E-1,-3.782947958E-1
2.141246815E1,-2.608852983E-1,-4.928644001E-1,-4.363270104E-1
2.146446812E1,-4.429231286E-1,-2.106446624E-1,-5.004678369E-1
2.151446824E1,-5.033987761E-1,-1.587211192E-1,-5.242915750E-1
2.156646820E1,-4.649142623E-1,8.929017931E-2,-4.961917996E-1
2.161846803E1,-3.176957369E-1,2.209499478E-2,-2.377957851E-1
2.166846826E1,-2.975372076E-1,-3.349373862E-2,6.030644849E-2
2.172046822E1,-2.535548806E-1,2.576018684E-2,1.061213464E-1
2.177246802E1,-1.802510619E-1,2.701062858E-1,1.482710391E-1
2.182246828E1,-8.739954233E-2,9.967488050E-2,2.276835293E-1
2.187446821E1,7.081454992E-2,2.637105249E-2,2.563942075E-1
2.192646800E1,1.997071207E-1,-2.570704222E-1,2.832722664E-1
2.197646816E1,2.314721048E-1,-1.324539185E-1,2.936569750E-1
2.202646829E1,2.326938510E-1,-2.100338042E-1,2.881591916E-1
2.207846795E1,2.595719099E-1,-1.715492904E-1,2.961004376E-1
2.212846808E1,3.420387208E-1,-2.925006151E-1,2.460094839E-1
2.217846814E1,3.707493842E-1,-3.810760677E-1,1.525471061E-1
2.223046797E1,2.980564237E-1,-8.847161382E-2,1.830903590E-1
2.228046817E1,2.699566483E-1,-2.912788689E-1,2.854145691E-2
2.233246809E1,2.840065360E-1,9.356623143E-2,2.731972747E-2
2.238446792E1,3.860210180E-1,-2.356901467E-1,8.229760081E-2
2.243446798E1,4.202294648E-1,-2.863919735E-1,1.360537410E-1
2.248446804E1,3.957948685E-1,-1.978164911E-1,1.470493227E-1
2.253646804E1,3.432604671E-1,-2.833376229E-1,1.018452868E-1
2.258846797E1,2.620153725E-1,-2.356901467E-1,1.409406513E-1
2.264046793E1,1.722181886E-1,-1.965947598E-1,2.020271868E-1
2.269046799E1,6.165157259E-2,-2.149207145E-1,2.044706494E-1
2.274246795E1,7.814493775E-2,4.379903898E-3,2.282943875E-1
2.279446788E1,1.722181886E-1,-5.120883137E-2,1.549905688E-1
2.284446797E1,2.076483667E-1,2.536129355E-1,7.557807863E-2
2.289446820E1,2.076483667E-1,3.971662521E-1,1.708730608E-1
2.294646803E1,3.560886085E-1,4.222117364E-1,5.358693376E-2
2.299846799E1,5.827196240E-1,3.055364788E-1,-8.019255847E-2
2.305046795E1,6.792363524E-1,2.114632279E-1,-2.231350243E-1
2.310246791E1,7.146664858E-1,2.255131155E-1,-3.453080654E-1
2.315246794E1,7.781965137E-1,4.075509608E-1,-6.104235649E-1
2.320446790E1,8.356178403E-1,9.225103855E-1,-7.918505669E-1
2.325446793E1,9.315236807E-1,1.075837493E0,-9.500646591E-1
2.330446806E1,1.073244333E0,1.096606970E0,-9.537298679E-1
2.335646792E1,1.081796527E0,1.170521617E0,-9.079149961E-1
2.340846788E1,9.504604936E-1,4.778004885E-1,-7.881853580E-1
2.346046784E1,9.504604936E-1,2.392759174E-2,-1.001988173E0
2.351046791E1,1.103787661E0,7.768373191E-2,-1.218234539E0
2.356246783E1,1.122113705E0,-5.838832855E-1,-8.132308125E-1
2.361446782E1,1.060416222E0,-2.845593691E-1,-6.409668326E-1
2.366446792E1,8.343961239E-1,3.592925966E-1,1.998934336E-2
2.371446795E1,9.981079698E-1,-7.353779078E-1,-3.010160662E-2
2.376646791E1,7.128339410E-1,-9.974390864E-1,-2.646738589E-1
2.381846787E1,2.583501935E-1,-1.533167958E0,-1.822070479E-1
2.387046783E1,-5.907524824E-1,-1.718260169E0,-1.155315399E0
2.392246783E1,-1.665264487E0,2.254196644E0,-1.471132636E0
2.397246789E1,-1.096548915E0,2.708069563E0,4.439298213E-1
2.402246809E1,-2.195495605E0,-3.266803503E0,-4.094489217E-1
2.407446804E1,-2.226649761E0,1.219390869E0,3.159578145E-2
2.412646781E1,-2.240088701E0,-1.921067357E0,-3.544710279E-1
2.417646794E1,-2.494208574E0,-3.968687773E0,4.341559708E-1
2.422846780E1,-2.509480238E0,1.570962220E-1,2.000414371E0
2.428046779E1,-1.744676948E0,-1.516063690E0,5.929809809E-1
2.433046806E1,-4.062712193E-1,1.943589896E-1,-9.546418488E-2
2.438246785E1,7.134447694E-1,2.193109989E0,-1.474187016E0
2.443446778E1,1.679833651E0,3.294500113E0,-1.498010755E0
2.448446797E1,1.798341393E0,3.427668810E0,-1.265271068E0
2.453446800E1,1.092792153E0,3.256626368E0,-1.341018438E0
2.458646773E1,9.058673978E-1,3.119792700E0,-1.064907312E0
2.463646816E1,9.034239054E-1,2.158290863E0,-9.738884568E-1
2.468846795E1,1.050642490E0,1.798491120E0,-5.139068365E-1
2.474046778E1,1.053696752E0,1.697698355E0,-5.493370295E-1
2.479046794E1,1.170371890E0,1.976863742E0,-7.906288505E-1
2.484046834E1,8.093506694E-1,1.431971908E0,-6.922795177E-1
2.489246790E1,4.941441715E-1,2.485714674E0,2.976318821E-2
2.494446793E1,5.615378916E-2,2.397749901E0,3.648270294E-2
2.499446799E1,2.992781699E-1,3.592602253E0,7.175974846E-1
2.504640893E1,-1.544313073E0,6.470101476E-1,4.247787476E0
2.509640903E1,-5.826478481E0,-3.007796526E0,7.264240265E0
2.514640905E1,-5.463013649E0,-5.792835355E-2,7.436504364E0
2.519840888E1,4.056099415E0,1.265234470E1,-4.564855397E-1
2.524840891E1,3.886278868E0,-1.324862957E0,-3.502870560E0
2.529840897E1,1.738476634E0,9.793208838E-1,3.797889650E-1
2.535040890E1,7.665900588E-1,1.717569828E-1,-1.017870784E0
2.540240890E1,7.885812521E-1,-9.003115296E-1,-1.753352404E0
2.545240892E1,4.874246418E-1,-6.797891855E-1,-1.790004373E0
2.550440888E1,8.203461766E-1,-3.662033319E0,-2.131478071E0
2.555440892E1,7.708661556E-1,-3.199608326E0,-1.693487644E0
2.560640891E1,7.794182301E-1,-4.452493191E0,-8.498827219E-1
2.565640897E1,5.033071637E-1,-4.448827744E0,-2.521468513E-2
2.570840883E1,-1.234406009E-1,-4.498307705E0,1.074342728E0
2.575840889E1,-4.887380004E-1,-4.666296005E0,2.049894571E0
2.581040882E1,-3.897778392E-1,-5.288156509E0,2.513541222E0
2.586040885E1,1.044121385E-1,-3.531308174E0,2.931983948E0
2.591240884E1,3.133280575E-1,-1.923510909E0,1.930775881E0
2.596240887E1,1.209055036E-1,-8.477771282E-1,1.203846216E0
2.601240897E1,-3.364340216E-2,-4.702623785E-1,6.387958527E-1
2.606440893E1,-1.503186673E-1,-8.602815121E-2,2.008054554E-1
2.611640879E1,-7.457137108E-2,1.949698627E-1,-8.569034934E-2
2.616640882E1,9.117163718E-3,2.774366736E-1,9.604634717E-3
2.621840881E1,8.242098987E-2,-2.289706320E-1,1.204809546E-2
2.627040881E1,2.397646196E-3,1.259420812E-1,7.130202651E-2
2.632240880E1,-4.769330099E-2,-1.782688051E-1,-1.437225491E-1
2.637440880E1,-1.252731979E-1,-3.584740460E-1,-2.506239712E-1
2.642440882E1,-2.248442173E-1,-5.365229398E-2,-1.357813030E-1
2.647640882E1,-2.126269192E-1,-3.468676209E-1,-1.971689798E-2
2.652840878E1,-1.845271140E-1,-3.016635776E-1,7.069116086E-2
2.658040878E1,-1.497077942E-1,-2.094229311E-1,1.458275914E-1
2.663040881E1,-9.228646755E-2,-3.517545462E-1,1.849229634E-1
2.668040884E1,-3.181080893E-2,-3.621392548E-1,3.064851463E-1
2.673240876E1,6.898195297E-2,-2.631790638E-1,3.742912114E-1
2.678240882E1,1.459509730E-1,-9.030420333E-2,2.899917960E-1
2.683240889E1,1.581682861E-1,-2.228619754E-1,2.557833195E-1
2.688440878E1,1.783268452E-1,-4.937623441E-2,1.311668307E-1
2.693640874E1,2.027614415E-1,3.247970715E-2,1.152843237E-1
2.698640894E1,2.406350821E-1,-9.885632247E-2,6.580423564E-2
2.703840880E1,2.607936263E-1,6.729902327E-2,4.381308705E-2
2.709040876E1,1.997071207E-1,-1.672732234E-1,5.419779569E-2
2.714040889E1,7.570147514E-2,-2.497400343E-1,7.313462347E-2
2.719240878E1,-3.303254023E-2,-7.808690518E-2,-4.292977601E-2
2.724440868E1,-1.649794281E-1,-1.761124469E-2,-7.286217809E-2
2.729440894E1,-1.875814497E-1,1.027292088E-1,-8.019255847E-2
2.734640880E1,-1.607033759E-1,1.598634385E-2,-2.582555078E-2
2.739840860E1,-8.434522152E-2,2.148413099E-2,1.754588261E-2
2.744840896E1,5.451972596E-3,1.070052609E-1,9.940182418E-2
2.750040892E1,1.227381006E-1,-4.326758534E-2,9.756922722E-2
2.755240865E1,1.581682861E-1,1.936442801E-3,1.195603758E-1
2.760240905E1,2.131461501E-1,-9.702372551E-2,1.629318148E-1
2.765440884E1,1.923767328E-1,-4.326758534E-2,2.203531563E-1
2.770640864E1,1.813811660E-1,-1.348973662E-1,2.258509398E-1
2.775640883E1,1.392314583E-1,3.736662492E-2,2.026380450E-1
2.780840886E1,9.219484031E-2,-1.147388145E-1,1.708730608E-1
2.786040862E1,3.660609946E-2,-1.211345755E-2,1.525471061E-1
2.791040882E1,-1.776090637E-2,-4.448931664E-2,1.763708442E-1
2.796040891E1,-2.081523277E-2,2.902648449E-1,1.806468964E-1
2.801240857E1,-5.563455075E-2,8.669216037E-1,2.264617980E-1
2.806240867E1,9.463829547E-2,7.697940469E-1,2.912135124E-1
2.811240876E1,1.795485616E-1,9.493884444E-1,4.512601793E-1
2.816440863E1,2.296395153E-1,3.256950378E-1,3.358066678E-1
2.821640859E1,2.919477820E-1,2.780475318E-1,3.119829297E-1
2.826640875E1,3.169932663E-1,3.360797465E-1,2.588376403E-1
2.831840861E1,3.438712955E-1,2.701062858E-1,2.405117005E-1
2.837040858E1,4.300033152E-1,3.770076931E-1,3.193133175E-1
2.842040867E1,4.654335082E-1,6.415123343E-1,2.460094839E-1
2.847240863E1,5.314069390E-1,6.934359074E-1,2.234074771E-1
2.852440863E1,6.431953311E-1,8.931888342E-1,-2.582555078E-2
2.857640859E1,7.311599255E-1,1.132648110E0,3.831529990E-2
2.862840855E1,7.647574544E-1,8.400436044E-1,-2.420718521E-1
2.867840861E1,7.678118348E-1,1.568805814E0,-1.602158993E-1
2.873040857E1,6.639647484E-1,1.039185643E0,-3.159865439E-1
2.878040860E1,5.326286554E-1,1.650661707E0,-3.132333606E-2
2.883240856E1,4.672660828E-1,4.368725121E-1,-1.779309958E-1
2.888440855E1,5.204113722E-1,4.332073033E-1,-1.687680185E-1
2.893640855E1,3.896862268E-1,7.618528008E-1,-2.347414643E-1
2.898840855E1,1.147968546E-1,4.723026752E-1,-2.887987718E-2
2.904040851E1,-3.058907762E-2,4.380942285E-1,1.018452868E-1
2.909040857E1,-3.547599912E-2,1.442680508E-1,1.281124949E-1
2.914240853E1,6.653849781E-2,-3.548088670E-1,1.867555529E-1
2.919440852E1,2.424676865E-1,-1.898752451E-1,2.038597912E-1
2.924640852E1,2.253634632E-1,-1.121444702E0,1.513253748E-1
2.929840852E1,2.797304690E-1,-6.220440567E-2,4.176626205E-1
2.935040851E1,2.186439335E-1,1.125030518E-1,3.486348689E-1
2.940040854E1,1.532813609E-1,5.601634271E-3,3.333632350E-1
2.945240847E1,1.679421216E-1,-9.669996798E-3,4.030018747E-1
2.950440846E1,1.221272349E-1,-2.295814753E-1,5.123467445E-1
2.955440849E1,5.063614845E-1,-1.717038274E0,3.101503253E-1
2.960440858E1,5.546197891E-1,-3.747554541E0,-1.162645698E0
2.965640848E1,-9.045387059E-2,-1.878917575E0,-3.632984877E0
2.970840844E1,2.210873961E-1,2.044669867E0,-1.097283244E0
2.975840850E1,-9.157328010E-1,-2.230165243E0,-2.080165386E0
2.981040850E1,-1.202839494E0,5.321674943E-1,-6.580711007E-1
2.986040865E1,-2.138074160E0,-1.321197629E0,-8.877564073E-1
2.991040872E1,-1.964588523E0,-8.911485672E-1,-7.655833960E-1
2.996240848E1,-1.196730852E0,-1.326695442E0,-1.303144813E0
3.001240854E1,-3.170848787E-1,-2.249816619E-2,-2.184012413E0
3.006440837E1,2.895042896E-1,1.615231514E0,-2.382543802E0
3.011440850E1,3.249345124E-1,2.053221941E0,-2.136975765E0
3.016640835E1,2.229200006E-1,1.467402220E0,-2.053898096E0
3.021640852E1,3.782783076E-2,1.115543842E0,-2.033128738E0
3.026640855E1,2.119244188E-1,1.484506369E0,-1.639731526E0
3.031840841E1,2.499966137E-2,1.874238372E0,-9.610602260E-1
3.037040837E1,-4.581947625E-1,2.455171347E0,-4.186119139E-1
3.042040873E1,-9.536064267E-1,2.964632750E0,-5.267350674E-1
3.047240853E1,-8.296008110E-1,5.535153866E0,4.219386578E-1
3.052240856E1,-7.153690457E-1,3.591380596E0,1.756068349E0
3.057240882E1,-3.445936680E0,-3.083830774E-1,6.117035389E0
3.062440861E1,-4.796559334E0,-3.447619677E0,7.598383904E0
3.067640831E1,-3.305437803E0,1.284415627E1,7.122519493E0
3.072640857E1,3.481275082E0,8.241897583E0,-3.414906025E0
3.077640866E1,1.858206272E0,-1.172146559E0,-9.934360981E-1
3.082840839E1,2.681240141E-1,-8.037948012E-1,8.281640410E-1
3.088040842E1,-1.423774064E-1,-9.155831337E-1,-9.225757718E-1
3.093040848E1,-1.142776161E-1,-6.956716776E-1,-1.143097997E0
3.098240825E1,2.717892230E-1,-9.937739372E-1,-1.706926703E0
3.103240841E1,1.002384067E0,-2.266817093E0,-2.437521458E0
3.108440844E1,1.292545080E0,-3.120195866E0,-2.394150257E0
3.113440863E1,1.289490700E0,-4.195929527E0,-1.968987942E0
3.118640836E1,6.737385392E-1,-5.060914516E0,-8.498827219E-1
3.123640849E1,-5.901416540E-1,-4.799464226E0,2.710549533E-1
3.128840835E1,-1.348836303E0,-5.208744049E0,2.131750584E0
3.133840845E1,-9.542173743E-1,-6.621675491E0,3.241081715E0
3.139040834E1,1.960419267E-1,-5.021819115E0,3.249022961E0
3.144240826E1,6.108194590E-1,-2.035910130E0,2.416413784E0
3.149240843E1,2.925586104E-1,-3.138808906E-1,1.513554811E0
3.154440826E1,-6.601926684E-2,-5.365229398E-2,5.154010653E-1
3.159440828E1,-3.812257349E-1,2.328435034E-1,-1.901482940E-1
3.164440832E1,-4.930140674E-1,8.821932077E-1,-7.118272185E-1
3.169640824E1,-2.902068198E-1,6.390689015E-1,-6.941121221E-1
3.174640827E1,-2.382832617E-1,4.997916222E-1,-6.385233998E-1
3.179640833E1,-8.617781103E-2,3.275276124E-1,-6.873926520E-1
3.184840826E1,2.988658100E-2,-1.623863131E-1,-5.682738423E-1
3.190040826E1,7.936666906E-2,-1.025215164E-1,-3.813491166E-1
3.195240819E1,1.319010705E-1,-9.946718812E-2,-1.101249531E-1
3.200240834E1,1.209055036E-1,-5.930463076E-1,2.060020901E-2
3.205440824E1,1.661095321E-1,-4.268909693E-1,3.223676383E-1
3.210440827E1,1.508379132E-1,-4.165062606E-1,6.192481518E-1
3.215640820E1,5.432119220E-2,-6.022092700E-1,3.852867782E-1
3.220840822E1,-5.929974467E-2,-6.648045778E-2,3.193133175E-1
3.225840825E1,-4.463897645E-2,-1.333518792E-2,2.472312152E-1
3.231040825E1,7.997753471E-2,-8.236295730E-2,2.521181405E-1
3.236240820E1,2.308612466E-1,-2.799595520E-2,2.563942075E-1
3.241440249E1,3.664733171E-1,-1.917078346E-1,3.455805182E-1
3.246640249E1,4.049578607E-1,-1.318430454E-1,2.979330420E-1
3.251840248E1,3.194366992E-1,-1.501690000E-1,2.038597912E-1
3.257040248E1,1.881006807E-1,-2.509617507E-1,1.140625924E-1
3.262240247E1,3.171917796E-2,-2.894462943E-1,2.121107467E-2
3.267240250E1,-9.228646755E-2,1.607614160E-1,-8.202515543E-2
3.272440250E1,-1.069472358E-1,1.503766924E-1,-1.174553409E-1
3.277640242E1,-1.118341535E-1,1.412137151E-1,-9.607505053E-2
3.282640248E1,-8.190175891E-2,4.319855571E-1,-5.148189142E-2
3.287840245E1,2.866485156E-2,4.087727070E-1,6.458250433E-2
3.292840258E1,9.524916112E-2,3.165320456E-1,1.226147115E-1
3.298040244E1,5.485111475E-1,-1.904861182E-1,1.653752774E-1
3.303040247E1,6.383083463E-1,2.731606066E-1,1.427732557E-1
3.308040260E1,7.555944920E-1,-3.853521049E-1,9.695836902E-2
3.313240249E1,9.553474188E-1,4.747461677E-1,-3.349233568E-1
3.318440242E1,1.125778794E0,2.511694729E-1,-8.706521392E-1
3.323440262E1,1.536280274E0,1.245047212E0,-1.184636950E0
3.328640251E1,1.681055307E0,1.376383305E0,-1.246945143E0
3.333840240E1,1.472750187E0,1.456406593E0,-7.637507915E-1
3.338840263E1,1.006660104E0,4.484789371E-1,-4.864179492E-1
3.344040253E1,4.391662776E-1,-1.691058129E-1,3.648270294E-2
3.349240232E1,-1.674228907E-1,-1.086625338E0,-3.437766433E-2
3.354240262E1,-5.441282317E-2,-2.732296467E0,-4.167793095E-1
3.359440255E1,-5.504354239E-1,-2.097607374E0,-1.238393068E0
3.364640231E1,-6.445086598E-1,1.344618320E0,-6.098127365E-1
3.369640257E1,-6.561151147E-1,-1.220404863E0,-1.733804822E0
3.374640260E1,-1.171074510E0,-2.546269596E-1,-5.328437090E-1
3.379840239E1,-1.409311891E0,-1.213685393E0,-2.243567556E-1
3.384840249E1,-1.882732511E0,-3.749673963E-1,2.667788863E-1
3.389840252E1,-2.344546556E0,-9.088636637E-1,4.146082997E-1
3.395040231E1,-2.500928164E0,-1.558213353E0,2.099684328E-1
3.400040238E1,-1.216889381E0,-1.983986497E0,-4.137249887E-1
3.405040240E1,-8.373434842E-2,8.095002770E-1,-1.420430899E0
3.410240233E1,3.273779750E-1,2.036728621E0,-2.456458330E0
3.415440233E1,3.744145930E-1,3.282893658E0,-2.728904247E0
3.420440239E1,3.487582505E-1,3.094136238E0,-2.511436224E0
3.425640232E1,2.962238193E-1,2.711734533E0,-2.020911455E0
3.430840232E1,2.072360367E-2,2.611552715E0,-1.508395553E0
3.435840244E1,-3.665649593E-1,2.188833952E0,-1.239614725E0
3.441040227E1,-6.829931736E-1,1.681204915E0,-8.883672357E-1
3.446040230E1,-1.109377027E0,1.413645983E0,-6.763970256E-1
3.451240229E1,-1.249265313E0,1.060565948E0,-7.014424801E-1
3.456240235E1,-9.560499191E-1,2.095371485E0,-2.451261729E-1
3.461440228E1,-6.115218997E-1,3.790522814E0,1.091756672E-1
3.466640228E1,-4.036292434E-2,6.434347630E0,7.597471476E-1
3.471840224E1,-2.386696339E0,1.615842462E0,3.985115767E0
3.476840227E1,-6.471552372E0,-3.651648760E0,7.506753922E0
3.482040226E1,-3.705554485E0,-8.990897536E-1,9.041858673E0
3.487240226E1,4.125738144E0,8.659119606E0,-1.336131454E0
3.492240229E1,3.660869598E0,-3.414632797E0,-3.617713213E0
3.497440224E1,1.152656913E0,9.732121825E-1,1.456744432E0
3.502640221E1,7.586488128E-1,-3.021846533E0,-1.817493320E0
3.507640224E1,9.076999426E-1,-8.685464859E-1,-1.720365763E0
3.512840223E1,9.235824347E-1,-2.751233101E0,-2.570690155E0
3.517840229E1,3.414278626E-1,-4.249074936E0,-1.891407967E0
3.523040229E1,-8.373434842E-2,-5.714540482E0,-8.162851334E-1
3.528240218E1,-6.829931736E-1,-5.352908134E0,6.888867617E-1
3.533240221E1,-9.084023833E-1,-5.726758003E0,2.648542404E0
3.538240224E1,-5.015661716E-1,-6.813487530E0,3.909979343E0
3.543440224E1,7.142541558E-2,-3.347437859E0,4.037650108E0
3.548640223E1,1.911550164E-1,-1.293708682E0,3.408458710E0
3.553840216E1,1.038012803E-1,-2.332466692E-1,2.165958881E0
3.559040219E1,1.215163693E-1,9.112276882E-2,7.285929918E-1
3.564040221E1,-8.129089326E-2,7.838439345E-1,-2.481804937E-1
3.569240218E1,4.230241757E-3,8.528717160E-1,-1.030698895E0
3.574240224E1,2.449111491E-1,6.744990945E-1,-1.143708944E0
3.579440216E1,3.915188015E-1,2.297891825E-1,-8.181177974E-1
3.584640213E1,3.169932663E-1,-4.265671968E-2,-8.914216161E-1
3.589640222E1,1.752725095E-1,-6.342613697E-2,-9.305169582E-1
3.594840215E1,8.119926602E-2,-1.043541133E-1,-7.429813147E-1
3.600040215E1,5.065600201E-2,-4.953078628E-1,-4.015076756E-1
3.605040234E1,-2.386956103E-2,-6.944499612E-1,1.510242186E-2
3.610240213E1,-8.434522152E-2,-4.501038492E-1,2.515072823E-1
3.615440213E1,-5.502368510E-2,-7.213280201E-1,4.439298213E-1
3.620440230E1,4.454734921E-2,-2.424096465E-1,5.722115636E-1
3.625640225E1,4.821253940E-2,-1.996490955E-1,4.671427011E-1
3.630840208E1,5.187772959E-2,-1.972056329E-1,3.180915713E-1
3.635840231E1,6.531676650E-2,-2.310903184E-2,2.264617980E-1
3.641040221E1,4.088215530E-2,-1.837665886E-1,9.818009287E-2
3.646240207E1,-2.489275998E-3,2.209499478E-2,-2.582555078E-2
3.651240230E1,-1.715004072E-2,-2.371989749E-2,-1.516637951E-1
3.656440222E1,-2.325869352E-2,1.325577614E-3,-1.486094594E-1
3.661640209E1,-6.785185635E-2,-2.784507275E-1,-8.263601363E-2
3.666640229E1,-1.600925177E-1,-2.479074448E-1,-7.800749154E-4
3.671640234E1,-3.042567074E-1,4.379903898E-3,-1.116478443E-2
3.676840204E1,-3.494607210E-1,2.453845553E-2,-1.547181159E-1
3.681840220E1,-3.097544909E-1,-6.892392784E-2,-1.907591671E-1
3.686840226E1,-2.004096210E-1,6.241210178E-2,-2.035873383E-1
3.692040199E1,-2.875648066E-2,-3.715893254E-2,-8.569034934E-2
3.697040209E1,6.531676650E-2,-1.293995827E-1,-3.315593302E-2
3.702040218E1,7.570147514E-2,-1.272432320E-2,-1.238651481E-2
3.707240204E1,5.920811370E-2,-3.349373862E-2,7.435635477E-2
3.712440208E1,1.889100857E-2,-7.258912176E-2,7.435635477E-2
3.717440224E1,5.451972596E-3,-6.586959958E-2,7.924327254E-2
3.722640200E1,2.397646196E-3,-4.937623441E-2,1.623209417E-1
3.727640206E1,4.454734921E-2,-8.541729301E-2,1.568231732E-1
3.732840205E1,9.769262373E-2,-1.581102461E-1,9.146057814E-2
3.738040198E1,1.239598319E-1,-1.648297757E-1,4.992173985E-2
3.743040201E1,6.714936346E-2,-2.705094516E-1,-1.666257158E-2
3.748240201E1,-7.701484114E-2,-6.953479350E-2,-6.919698417E-2
3.753240203E1,-1.869705766E-1,-9.059132077E-3,-9.424245358E-2
3.758240206E1,-2.175138444E-1,2.059654444E-1,-1.076814979E-1
3.763440206E1,-2.211790383E-1,-7.381084561E-2,-1.510529369E-1
3.768640195E1,-2.340072095E-1,-3.410460800E-2,-1.638810933E-1
3.773640198E1,-2.468353659E-1,2.148413099E-2,-1.235639900E-1
3.778840194E1,-2.511114478E-1,-4.876537248E-2,-1.235639900E-1
3.783840207E1,-2.535548806E-1,7.279681414E-2,-1.455551386E-1
3.789040200E1,-2.193464339E-1,6.607729197E-2,-1.388356239E-1
3.794240196E1,-1.802510619E-1,1.925264001E-1,-1.144010052E-1
3.799440192E1,-1.313818395E-1,3.342471421E-1,-6.553179026E-2
3.804440195E1,-6.357580423E-2,4.784113467E-1,-4.598410428E-2
3.809440198E1,5.451972596E-3,2.817127407E-1,1.449155621E-2
3.814640194E1,-2.509128861E-2,4.863525629E-1,9.023884684E-2
3.819640197E1,8.547531813E-2,3.812837601E-1,2.185205519E-1
3.824640200E1,5.187772959E-2,1.577070802E-1,2.344030440E-1
3.829640206E1,5.309946090E-2,-1.116844937E-1,1.824794859E-1
3.834840192E1,-1.104138978E-2,2.499477416E-1,2.050815076E-1
3.839840195E1,-7.518224418E-2,-1.746036112E-1,2.637245655E-1
3.845040187E1,-1.301601082E-1,-8.114122599E-2,3.058742583E-1
3.850040194E1,-1.814727932E-1,-4.783074837E-3,9.451489896E-2
3.855040203E1,-2.468353659E-1,7.829460502E-2,1.305559576E-1
3.860240189E1,-1.906357706E-1,-4.378865361E-1,-9.912937880E-2
3.865440189E1,-1.967444271E-1,4.600853920E-1,-3.856251836E-1
3.870440202E1,-7.090618461E-2,5.278913975E-1,-5.401740670E-1
3.875640198E1,7.875579596E-2,4.228225946E-1,-6.360799670E-1
3.880840184E1,2.045940459E-1,5.046785474E-1,-8.077331185E-1
3.885840210E1,3.084411323E-1,-2.216402441E-1,-8.340002298E-1
3.891040200E1,3.670842052E-1,5.813604221E-2,-8.871455789E-1
3.896240186E1,3.780797720E-1,1.021183431E-1,-9.738884568E-1
3.901240206E1,4.477184117E-1,-1.770470738E-1,-9.946578145E-1
3.906440198E1,3.224910200E-1,2.212370634E-1,-1.023368478E0
3.911640178E1,2.497980595E-1,3.550165296E-1,-1.180360794E0
3.916640214E1,1.716073155E-1,9.774882197E-1,-9.482320547E-1
3.921840206E1,9.769262373E-2,3.684555888E-1,-6.708992124E-1
3.927040186E1,1.538922340E-1,5.080566555E-2,-5.713281631E-1
3.932040202E1,8.303186297E-2,1.980241835E-1,-2.603977919E-1
3.937240202E1,7.284567691E-3,1.387702674E-1,-1.785418540E-1
3.942440178E1,-1.277166456E-1,-1.185585618E0,-8.324687928E-2
3.947440191E1,-1.142776161E-1,-1.724368811E0,1.696513146E-1
3.952440200E1,-1.038929075E-1,-1.453755498E0,5.306726694E-1
3.957640176E1,-1.649794281E-1,-2.712137938E0,-7.164043933E-2
3.962840179E1,-4.832402468E-1,-2.101272821E0,-7.881853580E-1
3.968036138E1,-5.314986110E-1,2.972574234E0,-1.072848678E0
3.973236118E1,5.069723725E-1,-2.621729851E0,-1.570092916E0
3.978236134E1,9.028130174E-1,-1.111060023E0,-6.440211535E-1
3.983236137E1,3.738037050E-1,-5.802181363E-1,-7.713823020E-2
3.988436119E1,-1.454317421E-1,1.784441233E0,1.275016218E-1
3.993436126E1,-7.029531896E-2,1.909057736E0,-8.175069094E-1
3.998436128E1,-3.983299434E-1,2.959135056E0,-9.286844134E-1
4.003636121E1,-1.545947194E-1,3.156444550E0,-8.498827219E-1
4.008636124E1,-4.636925459E-1,2.968909025E0,-9.983230233E-1
4.013836120E1,-6.005263925E-1,2.386754513E0,-1.008096814E0
4.019036120E1,-5.901416540E-1,1.410591722E0,-8.162851334E-1
4.024236119E1,-9.908692837E-1,1.805821538E0,-7.582529783E-1
4.029436115E1,-1.124037862E0,2.282296419E0,-6.916686296E-1
4.034436125E1,-1.119761825E0,2.233427286E0,-6.391342878E-1
4.039636121E1,-1.384266496E0,2.935922146E0,-7.319858074E-1
4.044636127E1,-8.418180943E-1,4.756911755E0,-4.292977601E-2
4.049836116E1,-3.714518845E-1,5.593796730E0,9.821020961E-1
4.055036120E1,-2.864392996E0,2.528475046E0,3.776810646E0
4.060036122E1,-6.232704163E0,-2.343786240E0,7.966735363E0
4.065236115E1,-3.184486389E0,-2.304079771E0,7.535464287E0
4.070436115E1,2.925998688E0,1.226688862E1,1.432309866E0
4.075636114E1,3.668200016E0,-4.104300022E0,-2.614672422E0
4.080836113E1,8.160701394E-1,-6.468024254E-1,-9.179899842E-2
4.086036113E1,2.119244188E-1,8.742520213E-1,-1.512671471E0
4.091036119E1,3.512016833E-1,-1.837989569E0,-2.631165743E0
4.096236109E1,5.601176023E-1,-2.238106489E0,-2.903000832E0
4.101236118E1,7.281055450E-1,-4.633919716E0,-2.906055212E0
4.106436111E1,4.593248665E-1,-4.275952816E0,-1.962268472E0
4.111636104E1,1.068556085E-1,-5.150712013E0,-5.841563940E-1
4.116636110E1,-5.754808784E-1,-5.767074585E0,1.092668653E0
4.121836109E1,-1.417863965E0,-5.416438580E0,2.334557772E0
4.127036112E1,-1.281030297E0,-2.818428516E0,2.285688400E0
4.132236112E1,-1.156413674E0,-1.374342918E0,2.594175577E0
4.137436111E1,-4.062712193E-1,-2.795215607E0,2.448178768E0
4.142636107E1,9.769262373E-2,-1.986429930E0,2.146411419E0
4.147836107E1,2.717892230E-1,-1.221626639E0,1.627175808E0
4.153036103E1,1.734399050E-1,-8.770986199E-1,5.942026973E-1
4.158036106E1,-1.087798327E-1,2.242913991E-1,-4.851962328E-1
4.163236106E1,-7.334964722E-2,6.793859601E-1,-8.688195944E-1
4.168436105E1,1.062447354E-1,4.429811537E-1,-1.107056975E0
4.173636104E1,1.685529947E-1,7.087075114E-1,-1.212736726E0
4.178636114E1,3.469256461E-1,3.782294393E-1,-9.861057401E-1
4.183836110E1,4.226729572E-1,4.081618488E-1,-7.301532030E-1
4.189036106E1,6.089867949E-1,-3.096048236E-1,-2.585652173E-1
4.194236103E1,4.599356949E-1,-6.883413196E-1,9.695836902E-2
4.199236105E1,2.058157623E-1,-7.628667951E-1,3.309197426E-1
4.204436101E1,-9.289733320E-2,-4.953078628E-1,5.129575729E-1
4.209636098E1,-2.645504773E-1,-3.499219418E-1,6.058091521E-1
4.214636107E1,-2.633287311E-1,-4.751493335E-1,4.976859689E-1
4.219836096E1,-2.211790383E-1,-2.082011998E-1,4.793600142E-1
4.225036096E1,-1.662011594E-1,-3.560305834E-1,4.347668588E-1
4.230036109E1,1.786780776E-3,-2.375227362E-1,3.602412641E-1
4.235236098E1,1.422857791E-1,-2.332466692E-1,2.533398867E-1
4.240436101E1,2.082592249E-1,-3.224330246E-1,1.830903590E-1
4.245436114E1,7.631234080E-2,-1.245126650E-1,2.365453541E-2
4.250636107E1,-1.442100108E-1,-4.143498838E-2,-1.431116760E-1
4.255836103E1,-3.293021917E-1,2.328435034E-1,-2.420718521E-1
4.260836120E1,-3.928321600E-1,1.522092968E-1,-3.453080654E-1
4.266036109E1,-4.123798609E-1,6.546643376E-2,-4.192227721E-1
4.271236098E1,-4.307058156E-1,1.467114985E-1,-4.161684215E-1
4.276236115E1,-4.148232937E-1,5.630345270E-2,-3.886795044E-1
4.281436107E1,-3.671758473E-1,-3.532633558E-2,-2.610086799E-1
4.286636094E1,-3.806148767E-1,-1.141279489E-1,-1.021837071E-1
4.291636113E1,-3.903886974E-1,-1.104627624E-1,-1.785418540E-1
4.296636119E1,-3.409086168E-1,6.546643376E-2,-1.644919515E-1
4.301836089E1,-1.319927126E-1,-3.349373862E-2,5.053260550E-2
4.306836105E1,7.936666906E-2,-1.293995827E-1,1.360537410E-1
4.311836118E1,1.978745311E-1,-1.599428356E-1,1.036778763E-1
4.317036084E1,2.381916344E-1,-2.308032215E-1,2.793059126E-2
4.322036094E1,2.705674767E-1,-2.371989749E-2,4.442395270E-2
4.327036103E1,2.424676865E-1,-1.281778514E-1,7.069116086E-2
4.332236096E1,1.593900174E-1,-1.385625601E-1,4.503481835E-2
4.337436089E1,9.769262373E-2,-5.548489094E-2,-7.499592844E-3
4.342436095E1,6.470590085E-2,8.379238844E-2,-1.238651481E-2
4.347636084E1,1.889100857E-2,-3.471547365E-2,-2.277122252E-2
4.352636091E1,-1.715004072E-2,-1.031323746E-1,-4.109717906E-2
4.357636093E1,-1.203862652E-1,-8.358469605E-2,-5.453621596E-2
4.362836086E1,-2.010204792E-1,1.537547819E-2,-7.958168536E-2
4.368036086E1,-2.278985381E-1,6.241210178E-2,-6.736438721E-2
4.373236088E1,-1.704772115E-1,7.768373191E-2,-8.446861058E-2
4.378236091E1,-8.984300494E-2,4.836220294E-2,-8.263601363E-2
4.383436088E1,2.988658100E-2,-1.208474711E-1,-3.376679868E-2
4.388636084E1,8.852964640E-2,5.601634271E-3,-2.643641457E-2
4.393836083E1,1.221272349E-1,-1.281778514E-1,-6.277862005E-3
4.398836086E1,1.367879957E-1,-2.860681899E-2,6.641510129E-2
4.403836096E1,1.386205852E-1,2.637105249E-2,6.885856390E-2
4.409036098E1,1.667204052E-1,1.436571777E-1,1.177277863E-1
4.414236085E1,2.308612466E-1,1.735895723E-1,1.849229634E-1
4.419236087E1,2.895042896E-1,1.870286167E-1,2.172988057E-1
4.424436077E1,3.023324907E-1,3.171429038E-1,2.728875279E-1
4.429436080E1,2.950021029E-1,2.450608015E-1,2.460094839E-1
4.434636079E1,1.435075253E-1,2.346761078E-1,2.429551482E-1
4.439836079E1,4.027128965E-2,1.048855577E-2,1.684295982E-1
4.445036075E1,-1.399339586E-1,1.986350566E-1,9.512577206E-2
4.450036091E1,-1.625359654E-1,-7.930862904E-2,1.754588261E-2
4.455036094E1,-1.582599133E-1,9.051190317E-2,-2.399295382E-2
4.460236077E1,-1.356578916E-1,-4.326758534E-2,7.374548167E-2
4.465236080E1,-7.376197726E-3,-5.014165044E-1,4.808914661E-2
4.470236082E1,-2.065182626E-1,6.363382936E-2,2.307378501E-1
4.475436072E1,-3.592346013E-1,1.002857462E-1,4.555362463E-1
4.480436081E1,-4.496426284E-1,2.548346519E-1,6.143612266E-1
4.485636080E1,-3.964973390E-1,4.881851673E-1,3.211458921E-1
4.490636087E1,-4.097378626E-2,2.865996361E-1,-1.516637951E-1
4.495836083E1,4.379445910E-1,4.264878035E-1,-6.085910201E-1
4.501036072E1,6.615212560E-1,4.564201832E-1,-7.032750845E-1
4.506036099E1,8.270657063E-1,1.436571777E-1,-1.012372971E0
4.511236085E1,9.223607183E-1,8.864693046E-1,-1.014205456E0
4.516436074E1,9.193063974E-1,5.804258585E-1,-1.035585761E0
4.521636071E1,8.612741828E-1,1.226721287E0,-7.741354704E-1
4.526636084E1,8.136267066E-1,6.421232224E-1,-7.350401282E-1
4.531836073E1,7.287164330E-1,7.490246296E-1,-4.277748764E-1
4.536836079E1,6.273127794E-1,1.925264001E-1,-4.021185338E-1
4.541836092E1,6.609104276E-1,-1.728748670E-3,-2.603977919E-1
4.547036088E1,5.552307367E-1,-2.417987883E-1,-2.115285844E-1
4.552236074E1,4.324467778E-1,-1.208474711E-1,-7.286217809E-2
4.557236087E1,2.333047092E-1,-4.482712448E-1,-1.009619758E-1
4.562236093E1,9.158396721E-2,1.528201550E-1,7.772038691E-3
4.567436066E1,-5.543602165E-3,-3.043941408E-2,-3.376679868E-2
4.572436079E1,4.027128965E-2,1.790873557E-1,3.495981684E-3
4.577436088E1,1.074664667E-1,-2.188730240E-2,1.079539433E-1
4.582636058E1,2.956129909E-1,-4.898100793E-1,-1.211205274E-1
4.587636078E1,4.745964706E-1,-3.786326051E-1,-2.640630007E-1
4.592636080E1,5.778326988E-1,-7.072781324E-1,-3.037692308E-1
4.597836063E1,5.772218704E-1,-9.259678125E-1,-1.724332124E-1
4.603036066E1,5.821087360E-1,-1.683440804E0,-3.581362367E-1
4.608036069E1,-3.628997803E-1,-2.238717318E0,-1.527943254E0
4.613236058E1,-1.336619020E0,1.890731812E0,-1.307420731E0
4.618436058E1,-1.025077581E0,6.097473502E-1,4.262147248E-1
4.623436067E1,-4.911814630E-1,-2.464737415E0,7.084344625E-1
4.628636064E1,-1.240102291E0,-1.371899486E0,9.228482246E-1
4.633636066E1,-1.338451505E0,-2.215504408E0,1.167194247E0
4.638836063E1,-1.102046728E0,-4.122301936E-1,1.958264828E0
4.644036062E1,-1.282251954E0,-3.838066384E-2,8.251097202E-1
4.649236062E1,-9.419999719E-1,1.643942237E0,-5.636881292E-2
4.654436051E1,6.042984501E-2,1.430750251E0,-1.195021629E0
4.659436060E1,6.987839937E-1,2.101480246E0,-1.946385860E0
4.664636054E1,1.134941816E0,2.770377636E0,-2.377656698E0
4.669636056E1,1.458089471E0,2.824744701E0,-2.377656698E0
4.674836049E1,1.262612700E0,2.832075119E0,-2.328176737E0
4.679836062E1,1.304762363E0,2.390419483E0,-1.923172951E0
4.685036061E1,7.055035233E-1,2.524809837E0,-1.252442956E0
4.690236054E1,1.661095321E-1,2.141797304E0,-1.284818888E0
4.695236057E1,-1.112232879E-1,2.225485802E0,-1.162034869E0
4.700431656E1,-1.716989428E-1,1.618896723E0,-9.268518090E-1
4.705631656E1,-2.010204792E-1,7.233682871E-1,-8.278915882E-1
4.710831649E1,-3.250261247E-1,6.690012813E-1,-5.835455060E-1
4.716031645E1,-4.313166738E-1,6.329602599E-1,-4.766440988E-1
4.721031647E1,-4.435339868E-1,1.538873434E0,-2.475696355E-1
4.726031650E1,-2.584418058E-1,2.639652491E0,4.341559708E-1
4.731231646E1,-1.026711762E-1,3.490587950E0,1.018754005E0
4.736231652E1,-2.321944475E0,-5.059796944E-2,4.641796112E0
4.741431652E1,-6.192386627E0,-2.853247881E0,8.685112953E0
4.746631651E1,-2.398302794E0,9.317020416E0,8.825000763E0
4.751831647E1,5.120226383E0,3.259069920E0,-6.672650337E0
4.757031647E1,1.193584800E0,-1.245126650E-1,-8.993628621E-1
4.762031650E1,1.276250184E-1,-1.007823825E0,1.012344211E-1
4.767231646E1,8.303186297E-2,-1.659006119E0,-1.705094099E0
4.772231649E1,7.895433344E-3,-9.168048501E-1,-2.045346022E0
4.777431642E1,3.579212129E-1,-3.065217972E0,-1.888964653E0
4.782431644E1,3.499799669E-1,-5.638793468E0,-1.678216100E0
4.787431647E1,1.196837798E-1,-4.651634693E0,-7.551986575E-1
4.792431660E1,-1.374904960E-1,-4.871546268E0,5.654920340E-1
4.797431670E1,-1.857488602E-1,-5.329084396E0,1.860526323E0
4.802631653E1,3.395952880E-1,-4.277785778E0,1.947880030E0
4.807631662E1,2.858391106E-1,-4.007172108E0,2.554469347E0
4.812831655E1,3.279888332E-1,-1.319975972E0,1.963762522E0
4.818031638E1,8.058839291E-2,-2.472965717E-1,1.173303008E0
4.823031661E1,5.187772959E-2,-4.439951777E-1,4.353777170E-1
4.828231657E1,-2.529440224E-1,8.990103751E-2,2.698332071E-1
4.833431630E1,-2.358397990E-1,2.884322405E-1,-3.834401025E-3
4.838431656E1,-1.967444271E-1,5.914213657E-1,-2.701716721E-1
4.843631652E1,1.175915590E-3,3.971662521E-1,-3.697426617E-1
4.848831635E1,7.692319900E-2,1.277746856E-1,-3.282038569E-1
4.853831655E1,2.072360367E-2,-1.171822846E-1,-3.208734691E-1
4.858831660E1,-1.991878748E-1,-7.075652480E-2,-3.037692308E-1
4.864031630E1,-3.519042134E-1,-3.694696426E-1,-1.357813030E-1
4.869031650E1,-3.555693924E-1,-2.265271544E-1,-8.324687928E-2
4.874231652E1,-3.256369829E-1,-3.065505028E-1,1.171169207E-1
4.879431632E1,-2.932611406E-1,-5.380684137E-1,1.519362330E-1
4.884431642E1,-2.028530687E-1,-1.697166860E-1,1.995837241E-1
4.889431644E1,-6.174320728E-2,-2.876136899E-1,2.588376403E-1
4.894631634E1,-5.135849491E-2,-2.424096465E-1,3.040416837E-1
4.899631637E1,-5.196936056E-2,-1.086301655E-1,3.150372505E-1
4.904831636E1,-1.625359654E-1,1.033400744E-1,3.070960045E-1
4.910031632E1,-2.022422254E-1,2.346761078E-1,3.584086895E-1
4.915031635E1,-2.987589240E-1,2.151284218E-1,3.107612133E-1
4.920231635E1,-2.602744102E-1,6.057950482E-2,1.226147115E-1
4.925431630E1,-2.645504773E-1,2.157392800E-1,2.976318821E-2
4.930631630E1,-2.193464339E-1,3.309056908E-2,-1.040163040E-1
4.935831633E1,-1.857488602E-1,2.163501382E-1,-1.797636002E-1
4.941031632E1,-9.106473625E-2,1.546527594E-1,-2.298545390E-1
4.946231629E1,-4.891503602E-2,-1.272432320E-2,-2.103068531E-1
4.951431632E1,2.316706441E-2,-8.448266424E-3,-2.133611739E-1
4.956631628E1,8.303186297E-2,-2.433076315E-2,-1.156227440E-1
4.961831627E1,1.092990637E-1,-1.801013947E-1,-5.209275335E-2
4.966831633E1,1.202946380E-1,-5.792835355E-2,3.587184101E-2
4.972031626E1,1.221272349E-1,-1.141279489E-1,5.053260550E-2
4.977031629E1,7.997753471E-2,-1.153496876E-1,1.116191298E-1
4.982231629E1,5.920811370E-2,-4.876537248E-2,9.329317510E-2
4.987431624E1,2.866485156E-2,-7.625430822E-2,1.281124949E-1
4.992631624E1,1.033889409E-2,-1.028086152E-2,1.543796957E-1
4.997631627E1,3.049744852E-2,-1.110736281E-1,2.075249851E-1
5.002831623E1,9.280569851E-2,8.655959740E-3,1.580448896E-1
5.008031623E1,7.447974384E-2,3.049255908E-1,7.924327254E-2
5.013031649E1,1.630552113E-1,4.857417345E-1,-1.449442804E-1
5.018231625E1,1.117425263E-1,8.656998873E-1,-4.668702781E-1
5.023431621E1,2.033723146E-1,7.160379291E-1,-6.495189667E-1
5.028631621E1,3.023324907E-1,3.629578054E-1,-8.816477656E-1
5.033831620E1,4.904789627E-1,5.816475749E-1,-1.340407610E0
5.039031623E1,6.199824214E-1,1.302181333E-1,-1.014205456E0
5.044231623E1,6.370866299E-1,-4.696515203E-1,-7.393161654E-1
5.049431618E1,5.295743346E-1,2.499477416E-1,-2.237458974E-1
5.054431622E1,4.049578607E-1,-1.724979639E0,-3.132333606E-2
5.059631621E1,5.124701262E-1,-1.356016994E0,2.637245655E-1
5.064831620E1,5.540089607E-1,-2.303468943E0,-3.935664296E-1
5.070031617E1,-5.376072526E-1,-2.684648991E0,-1.783284903E0
5.075231616E1,-1.183291793E0,1.474121690E0,-1.314751267E0
5.080431616E1,1.551139504E-1,-2.503221989E0,-1.333077192E0
5.085431618E1,3.902970850E-1,-2.743292093E0,-8.492718935E-1
5.090631615E1,1.667204052E-1,-1.529502630E0,2.301269770E-1
5.095831611E1,1.618334800E-1,-1.486131310E0,9.362872243E-1
5.100831617E1,2.559067309E-1,2.102414817E-1,1.600908518E0
5.105831620E1,2.962238193E-1,-5.594487190E-1,2.406639814E0
5.111031612E1,-2.822655737E-1,8.443196416E-1,2.966192484E0
5.116231612E1,-2.834872603E-1,-1.754301190E0,1.861137152E0
5.121231615E1,-1.399339586E-1,6.781642437E-1,1.983619928E-1
5.126431614E1,1.033889409E-2,3.289002419E0,-2.318402767E0
5.131631614E1,-4.557512701E-1,5.176576138E0,-3.327552319E0
5.136631620E1,2.683225647E-2,5.460017681E0,-3.449114561E0
5.141831609E1,2.943912446E-1,4.456365585E0,-2.943928719E0
5.146831612E1,6.077650785E-1,4.632905960E0,-2.245709896E0
5.151831635E1,3.261562288E-1,3.245630741E0,-1.820547581E0
5.157031628E1,8.058839291E-2,2.360486984E0,-1.171808720E0
5.162231614E1,-5.412724018E-1,2.398971796E0,-1.090563774E0
5.167231647E1,-8.906873465E-1,1.788106441E0,-8.065113425E-1
5.172431609E1,-1.269423842E0,1.689146280E0,-7.631399035E-1
5.177431616E1,-1.353723168E0,1.846749544E0,-6.592927575E-1
5.182431639E1,-1.172296286E0,2.534583807E0,-3.721861541E-1
5.187631621E1,-7.856185436E-1,2.609109402E0,-1.406682134E-1
5.192831601E1,-2.333963364E-1,4.739807129E0,8.935266733E-1
5.197831624E1,-2.168617487E0,1.602403402E0,2.869675875E0
5.202831630E1,-6.566847324E0,-3.622937918E0,7.062654972E0
5.208031592E1,-2.915705681E0,-3.988846302E0,8.661289215E0
5.213031612E1,2.991361380E0,1.446661472E1,1.608239055E0
5.218031622E1,5.514235020E0,-6.255766869E0,-4.025160313E0
5.223231598E1,1.946781754E0,1.154028296E0,-7.478682995E-1
5.228231634E1,1.246730089E0,-1.813231409E-1,-1.628125072E0
5.233431630E1,1.154489517E0,-1.918623924E0,-1.659890175E0
5.238631596E1,9.492387772E-1,-2.323627472E0,-2.431412935E0
5.243631603E1,7.946898937E-1,-4.534348488E0,-1.991590023E0
5.248631605E1,-7.396051288E-2,-5.020597458E0,-1.106446147E0
5.253831602E1,-6.542824507E-1,-5.641847610E0,6.400175691E-1
5.259031595E1,-1.125870466E0,-8.029109001E0,2.548971415E0
5.264031617E1,-6.518390775E-1,-5.798229218E0,3.820182085E0
5.269231593E1,-4.154341817E-1,-3.622327089E0,3.438391447E0
5.274431593E1,-3.060892820E-1,-1.910071731E0,2.214828014E0
5.279631593E1,-2.144595236E-1,-1.302871704E0,1.945436597E0
5.284831592E1,-1.387122124E-1,-4.409408569E-1,9.063547850E-1
5.289831598E1,1.094975974E-2,-2.198076546E-1,2.618919611E-1
5.294831604E1,1.217149012E-2,1.601505429E-1,-3.043800890E-1
5.300031594E1,1.400408521E-2,4.081618488E-1,-6.537950635E-1
5.305231590E1,1.361771375E-1,-3.105027974E-2,-7.716920376E-1
5.310431589E1,1.978745311E-1,4.710809588E-1,-6.030932069E-1
5.315431595E1,8.425358683E-2,1.595396698E-1,-5.774368644E-1
5.320431598E1,1.453401148E-1,-3.267090321E-1,-6.061475277E-1
5.325631591E1,1.630552113E-1,2.908757031E-1,-2.084742635E-1
5.330631630E1,1.685529947E-1,-5.344032645E-1,-1.089032218E-1
5.335831584E1,1.031904146E-1,-5.124121308E-1,9.023884684E-2
5.340831599E1,-1.878410578E-3,-5.789964199E-1,2.759419084E-1
5.346031589E1,-1.533729881E-1,-3.792434633E-1,3.810107112E-1
5.351231592E1,-3.946647644E-1,-2.973875105E-1,4.940207899E-1
5.356231598E1,-8.601440787E-1,3.360797465E-1,6.528457403E-1
5.361431590E1,-1.318903923E0,6.158559918E-1,1.172081232E0
5.366631587E1,-1.731237888E0,2.169610113E-1,1.971703887E0
5.371831586E1,-1.927936554E0,-3.664153218E-1,3.010174751E0
5.376831588E1,-1.438633442E0,-1.501690000E-1,3.283231497E0
5.382031588E1,-1.607843161E0,-1.140381575E0,3.528799295E0
5.387231588E1,-1.294469237E0,-3.713022172E-1,2.525758505E0
5.392231590E1,-1.217500210E0,-1.008434653E0,1.869689345E0
5.397431587E1,-6.414543390E-1,-1.300104558E-1,1.217896104E0
5.402631579E1,-1.234406009E-1,-1.313256502E0,2.899917960E-1
5.407631582E1,5.371032655E-2,-2.739015818E0,7.145431638E-1
5.412831575E1,2.241417170E-1,-2.103716135E0,1.000126898E-1
5.417831595E1,2.736218274E-1,-1.167870522E0,-1.174553409E-1
5.423031584E1,1.551139504E-1,-6.144265532E-1,-5.331448838E-2
5.428033566E1,7.895433344E-3,-7.091107368E-1,5.297606811E-2
5.433033573E1,-8.739954233E-2,1.497658342E-1,3.028199375E-1
5.438233562E1,-4.891503602E-2,1.277746856E-1,4.133865535E-1
5.443433555E1,4.230241757E-3,-8.141794801E-1,3.687933981E-1
5.448433611E1,9.891435504E-2,-1.064634323E0,1.910316199E-1
5.453633564E1,2.397646196E-3,-5.337923765E-1,1.690404713E-1
5.458833547E1,1.583668217E-2,-1.593319923E-1,1.207821146E-1
5.463833576E1,1.373988688E-1,-1.944383979E-2,-6.277862005E-3
5.469033569E1,1.392314583E-1,-6.098267809E-2,-2.793346345E-1
5.474233549E1,1.691638678E-1,-1.098518968E-1,-2.280219495E-1
5.479233582E1,4.821253940E-2,-2.210293710E-1,-1.284509152E-1
5.484433567E1,-5.319108814E-2,2.187936157E-1,-6.308832765E-2
5.489633550E1,-1.759750098E-1,5.853127241E-1,-1.559398472E-1
5.494633577E1,-2.175138444E-1,6.415123343E-1,-2.261893451E-1
5.499833573E1,-3.121979535E-1,5.920323133E-1,-1.962569654E-1
5.505033552E1,-5.394397974E-1,1.168078303E0,-2.408501059E-1
5.510033582E1,-7.257537246E-1,2.185168982E0,-2.762803137E-1
5.515233571E1,-7.208667994E-1,2.305509329E0,-1.962569654E-1
5.520433547E1,-6.017481089E-1,1.324459672E0,-9.057725966E-2
5.525433560E1,-4.948466420E-1,1.372717977E0,4.014789686E-2
5.530433563E1,-2.773786187E-1,1.032466054E0,-1.021837071E-1
5.535633552E1,-6.174320728E-2,6.451775432E-1,-1.168444753E-1
5.540633555E1,3.904956207E-2,5.019479617E-2,3.342837840E-2
5.545633558E1,5.004513636E-2,-4.983621836E-1,-2.277122252E-2
5.550833547E1,2.397646196E-3,-7.036129236E-1,-1.055391878E-2
5.556033547E1,1.889100857E-2,-6.913956404E-1,-3.376679868E-2
5.561033553E1,6.653849781E-2,-5.563943982E-1,-2.521468513E-2
5.566233543E1,1.349553913E-1,-4.604885578E-1,-8.630120754E-2
5.571433542E1,5.432119220E-2,-1.495581418E-1,-2.188589573E-1
5.576433552E1,3.008511383E-3,5.691431463E-2,-2.720042467E-1
5.581633544E1,-7.151705027E-2,3.385231793E-1,-2.640630007E-1
5.586833541E1,-1.165225450E-2,1.283855438E-1,-1.522746533E-1
5.591833544E1,4.699081182E-2,-1.654406339E-1,-6.277862005E-3
5.597033539E1,5.650503444E-4,-1.715492904E-1,5.114347115E-2
5.602033543E1,-1.148884818E-1,1.021183431E-1,5.053260550E-2
5.607033548E1,-1.411556900E-1,2.682736814E-1,9.573663026E-2
5.612233541E1,-1.032820418E-1,2.670519650E-1,1.036778763E-1
5.617233548E1,-6.540839374E-2,3.928901851E-1,3.587184101E-2
5.622233554E1,-8.251262456E-2,4.741352797E-1,2.182194032E-2
5.627433550E1,-5.135849491E-2,7.673506141E-1,-4.903842881E-2
5.632633539E1,-1.470658090E-2,4.716918170E-1,-1.809853166E-1
5.637833535E1,-1.267545391E-3,4.515332580E-1,-2.652847171E-1
5.642833538E1,1.705841348E-2,2.438390851E-1,-5.255132914E-1
5.647833541E1,-5.543602165E-3,3.073690832E-1,-5.884324312E-1
5.653033534E1,-8.251262456E-2,5.437739491E-1,-5.151286125E-1
5.658033536E1,-1.063363627E-1,6.812185645E-1,-2.518456876E-1
5.663033540E1,-1.729206890E-1,2.963735163E-1,-1.345595717E-1
5.668233536E1,-6.724099070E-2,8.052242398E-1,-1.168444753E-1
5.673233552E1,-6.113233790E-2,-3.816869259E-1,-6.159213781E-1
5.678433552E1,1.147968546E-1,6.830512285E-1,-9.256300926E-1
5.683633541E1,1.007469445E-1,2.493368685E-1,-9.592276812E-1
5.688833534E1,2.003179789E-1,-1.516778395E-2,-7.784115672E-1
5.693833537E1,1.575574130E-1,4.469700903E-2,-4.650376439E-1
5.698833543E1,5.432119220E-2,8.440325409E-2,-2.048090696E-1
5.703833546E1,-2.020436898E-2,-8.448266424E-3,-3.926458210E-2
5.709033528E1,-1.222188622E-1,-1.898752451E-1,1.507145017E-1
5.714033555E1,-2.340072095E-1,-3.297633827E-1,3.810107112E-1
5.719233534E1,-2.944828570E-1,-5.258511305E-1,6.418501735E-1
5.724433527E1,-4.081037939E-1,2.847670615E-1,1.064568996E0
5.729433557E1,-3.415195048E-1,1.012307525E0,1.139705300E0
5.734633539E1,-1.973552853E-1,2.798801363E-1,1.118935943E0
5.739833522E1,-4.219551757E-2,-1.306213289E-1,4.720296264E-1
5.744833558E1,2.316706441E-2,1.204442978E-1,2.121107467E-2
5.750033547E1,1.264032871E-1,2.212370634E-1,-3.672992289E-1
5.755233520E1,5.371032655E-2,4.936829507E-1,-1.706006229E-1
5.760233550E1,7.692319900E-2,-1.165714115E-1,-6.277862005E-3
5.765433549E1,5.859724805E-2,-7.756950259E-1,-1.651028246E-1
5.770633522E1,2.760652900E-1,-1.913126111E0,-5.310111046E-1
5.775633542E1,2.363590449E-1,-5.093577504E-1,-4.247205555E-1
5.780833544E1,1.502270401E-1,7.007663250E-1,-3.697426617E-1
5.786033540E1,1.856572330E-1,8.009482026E-1,-2.787237465E-1
5.791233540E1,3.121063113E-1,4.576418996E-1,-5.627761483E-1
5.796233546E1,3.420387208E-1,8.870801926E-1,-7.460356355E-1
5.801433519E1,4.642117620E-1,4.124378860E-1,-9.244083166E-1
5.806433532E1,4.794833958E-1,2.652193606E-1,-1.062463880E0
5.811433538E1,4.733747542E-1,1.192225739E-1,-1.063685536E0
5.816633524E1,3.683059514E-1,5.691431463E-2,-8.382763267E-1
5.821833527E1,3.927405477E-1,-1.263452619E-1,-8.810368776E-1
5.826833533E1,4.978093505E-1,-2.039251477E-1,-9.995447397E-1
5.832033519E1,5.943260789E-1,-4.959187210E-1,-1.222510576E0
5.837233519E1,6.786254644E-1,-1.883297600E-2,-1.437535167E0
5.842233529E1,7.158882618E-1,2.713280022E-1,-1.399050713E0
5.847433518E1,6.108194590E-1,6.913162023E-2,-1.548101664E0
5.852433538E1,6.120411158E-1,1.037963867E0,-1.540771365E0
5.857633514E1,6.370866299E-1,8.889127970E-1,-1.479074001E0
5.862833513E1,7.843051553E-1,2.053545713E-1,-1.411878824E0
5.867833516E1,1.343246818E0,-1.791563988E0,-2.143695354E0
5.873033512E1,1.490465283E0,-4.216087818E0,-2.452793121E0
5.878033518E1,6.511365175E-1,-1.728644729E0,-1.199297786E0
5.883033521E1,-7.090618461E-2,2.689743519E0,-1.455551386E-1
5.888233514E1,6.645755768E-1,-6.026082039E0,-8.407197595E-1
5.893433513E1,1.103787661E0,1.756952286E0,1.594189048E0
5.898633513E1,6.383083463E-1,-7.995187640E-1,2.418246269E0
5.903833509E1,4.904789627E-1,7.649071217E-1,2.905106068E0
5.908833512E1,7.672009468E-1,-1.073186398E0,1.572197914E0
5.913833518E1,9.638995528E-1,-5.618921518E-1,1.146734506E-1
5.919033511E1,6.236475706E-1,3.037038743E-1,-1.664776921E0
5.924233510E1,1.685529947E-1,2.067882776E0,-3.160785913E0
5.929233513E1,3.477350250E-2,2.885831356E0,-3.667804241E0
5.934233516E1,-1.429882795E-1,4.131385803E0,-3.536468029E0
5.939433515E1,-2.786003649E-1,4.228513241E0,-3.315335035E0
5.944633508E1,-2.211790383E-1,4.235843182E0,-2.710578442E0
5.949833504E1,-5.357746482E-1,4.140548229E0,-2.320846081E0
5.954833510E1,-7.550752759E-1,2.754495144E0,-1.716700554E0
5.959833520E1,-8.363203406E-1,2.990900040E0,-1.257329822E0
5.965033510E1,-1.444131255E0,3.143005610E0,-1.315972924E0
5.970233506E1,-1.428859591E0,4.703766346E0,-1.022757649E0
5.975233512E1,-1.221776247E0,4.667114258E0,-1.110111356E0
5.980233515E1,-7.788990140E-1,3.910862923E0,-3.306473196E-1
5.985433497E1,-1.026299477E0,3.174159765E0,1.452468395E0
5.990433517E1,-4.639567375E0,6.225755811E-1,5.267932415E0
5.995433520E1,-7.152056217E0,-5.571598053E0,7.198266506E0
6.000633512E1,-4.568096161E0,7.736712456E0,8.439544678E0
6.005833512E1,4.254019737E0,5.358003139E0,-5.134491920E0
6.010833522E1,3.679806471E0,-5.316256523E0,-3.848009348E0
6.016033511E1,1.550940990E0,1.696476698E0,-5.829346180E-1
6.021233497E1,6.694624424E-1,-1.946112752E0,-6.110345125E-1
6.026233517E1,2.736218274E-1,-3.007796526E0,-1.694098473E0
6.031433509E1,4.666552544E-1,-1.640680194E0,-1.441200376E0
6.036633509E1,1.691638678E-1,-3.451284647E0,-1.533440948E0
6.041633522E1,2.540741265E-1,-3.803143024E0,-9.861057401E-1
6.046633531E1,-2.474462390E-1,-4.602154732E0,8.290845901E-2
6.051633557E1,-8.173834682E-1,-3.308953047E0,4.543145299E-1
6.056833527E1,-9.010720253E-1,-2.792772055E0,1.486676812E0
6.062033523E1,-1.039738417E0,-2.447633266E0,2.029125214E0
6.067233492E1,-2.914285362E-1,-2.509330511E0,2.279579878E0
6.072233502E1,-3.100140952E-3,-2.933881760E0,2.533699751E0
6.077233528E1,2.937803566E-1,-2.170911074E0,1.996749282E0
6.082433491E1,1.935984641E-1,-1.061579943E0,1.250271916E0
6.087433501E1,1.777159721E-1,-6.975042820E-1,7.066018581E-1
6.092433503E1,1.889100857E-2,-2.601247430E-1,-2.274110913E-1
6.097633493E1,5.981897563E-2,-5.386793017E-1,-6.427994370E-1
6.102633519E1,7.386887819E-2,-2.277488858E-1,-8.492718935E-1
6.107833502E1,1.911550164E-1,5.019479617E-2,-7.606964111E-1
6.113033491E1,1.819920391E-1,-1.703275591E-1,-5.059656501E-1
6.118033501E1,2.155896127E-1,-4.885883629E-1,-2.078633904E-1
6.123233484E1,1.648878008E-1,-6.816217899E-1,5.603039265E-2
6.128233493E1,-3.853032738E-2,-4.323887229E-1,2.380682379E-1
6.133433493E1,-1.197754070E-1,-5.783855319E-1,4.164408743E-1
6.138633489E1,-1.662011594E-1,-5.243056640E-2,4.201060832E-1
6.143633502E1,-2.199573070E-1,-1.574993879E-1,4.139974415E-1
6.148833488E1,-2.627178729E-1,1.008966118E-1,5.551072955E-1
6.154031071E1,-3.042567074E-1,4.002205729E-1,5.581616163E-1
6.159031077E1,-4.508643746E-1,-2.833376229E-1,6.259676218E-1
6.164031080E1,-6.677215695E-1,8.195979148E-2,5.172336698E-1
6.169231069E1,-9.865931869E-1,-1.923187077E-1,7.615797520E-1
6.174431068E1,-1.582186818E0,-8.480641991E-2,1.152533412E0
6.179631068E1,-2.076987505E0,-2.491291612E-1,1.960708261E0
6.184831068E1,-2.438009024E0,-3.077722490E-1,2.610057831E0
6.189831070E1,-2.211377859E0,-1.268663168E0,3.294227123E0
6.194831087E1,-1.641440630E0,-1.919845581E0,3.415789366E0
6.200031069E1,-9.762085080E-1,-2.811097860E0,3.434726000E0
6.205231068E1,-1.704772115E-1,-2.932049274E0,2.410305023E0
6.210431065E1,3.171917796E-2,-1.927175999E0,7.878469825E-1
6.215431068E1,2.927571721E-2,-3.835195303E-1,2.274251310E-3
6.220631060E1,-4.891503602E-2,1.864177436E-1,-1.211205274E-1
6.225631064E1,-5.380195752E-2,3.452427089E-1,-3.865372017E-2
6.230631066E1,1.278235577E-2,1.906937957E-1,-1.205096692E-1
6.235831059E1,5.371032655E-2,-2.616335824E-2,-2.597869337E-1
6.240831062E1,4.454734921E-2,1.186117008E-1,-4.308291972E-1
6.245831071E1,2.072360367E-2,3.061473370E-1,-5.694956183E-1
6.251031061E1,7.386887819E-2,3.171429038E-1,-5.664412975E-1
6.256231060E1,3.538436815E-2,1.094487235E-1,-5.664412975E-1
6.261231073E1,-3.711006371E-3,1.735895723E-1,-4.351052642E-1
6.266431063E1,-4.402811453E-2,3.348580003E-1,-2.640630007E-1
6.271631059E1,-8.984300494E-2,2.652193606E-1,-4.842756316E-2
6.276631072E1,-9.961685538E-2,2.701062858E-1,5.297606811E-2
6.281631081E1,-1.209971309E-1,3.458535671E-1,1.510242186E-2
6.286831058E1,-1.185536757E-1,2.242913991E-1,3.037405200E-2
6.291831077E1,-9.167559445E-2,2.395630181E-1,8.107586950E-2
6.297031070E1,-7.762569934E-2,-1.883297600E-2,1.067322046E-1
6.302231050E1,-7.151705027E-2,5.385999009E-2,1.103973985E-1
6.307231076E1,-1.295492351E-1,1.296072900E-1,1.537688226E-1
6.312231082E1,-5.502368510E-2,-1.165714115E-1,1.433841288E-1
6.317431048E1,-6.724099070E-2,-2.564595640E-1,1.763708442E-1
6.322431065E1,-5.868887529E-2,-7.808690518E-2,1.708730608E-1
6.327431077E1,-4.341724887E-2,-2.204184979E-1,1.256690323E-1
6.332631050E1,2.927571721E-2,-3.260982037E-1,-1.055391878E-2
6.337631066E1,8.506298065E-3,-2.778398395E-1,-2.338209003E-2
6.342631069E1,3.008511383E-3,9.845314920E-2,4.259135947E-2
6.347831048E1,-4.341724887E-2,1.619831324E-1,4.198049009E-2
6.352831052E1,-2.692388557E-2,3.996097147E-1,-1.055391878E-2
6.357831061E1,-3.303254023E-2,2.542237937E-1,-7.652736455E-2
6.363031047E1,-9.208793752E-3,8.174415231E-1,-5.035221577E-1
6.368031050E1,-5.746714771E-2,9.316733479E-1,-1.047803044E0
6.373031056E1,3.634189963E-1,8.052242398E-1,-1.942720652E0
6.378231048E1,5.686697364E-1,1.193123698E0,-2.331230879E0
6.383431048E1,6.224258542E-1,1.490004182E0,-2.391095638E0
6.388631047E1,5.955477953E-1,1.457017422E0,-2.213944912E0
6.393831047E1,6.523582935E-1,1.095996141E0,-2.078332663E0
6.399031043E1,7.342142463E-1,6.977120042E-1,-2.045956850E0
6.404031053E1,6.829015613E-1,-1.177931428E-1,-2.102767229E0
6.409031062E1,6.523582935E-1,1.913046688E-1,-2.150414705E0
6.414231048E1,5.888283253E-1,-3.731348217E-1,-2.204782009E0
6.419431041E1,4.544379413E-1,-7.311018705E-1,-1.988535523E0
6.424431044E1,3.603646755E-1,-8.325054646E-1,-1.750909090E0
6.429431047E1,3.108845949E-1,-1.947621554E-1,-1.232284427E0
6.434631043E1,1.294576079E-1,-1.348973662E-1,-9.592276812E-1
6.439631059E1,1.856572330E-1,-7.475951910E-1,-7.606964111E-1
6.444831055E1,1.972636580E-1,-7.231605649E-1,-3.856251836E-1
6.450031041E1,-2.814561687E-2,9.967488050E-2,8.535192162E-2
6.455231040E1,8.486445248E-2,-5.038599968E-1,2.172988057E-1
6.460431037E1,3.273779750E-1,-1.390225410E0,3.840650320E-1
6.465431050E1,2.785087228E-1,-2.890510559E0,5.215097070E-1
6.470631036E1,-4.600273371E-1,-2.737794161E0,2.274251310E-3
6.475631039E1,4.147316813E-1,-4.601543903E0,-6.195865273E-1
6.480631045E1,-2.486679703E-1,-1.629971713E-1,1.009591103E0
6.485831037E1,1.039036036E0,-9.571220279E-1,1.581971765E0
6.491031034E1,4.672660828E-1,7.361964583E-1,2.677864075E0
6.496031043E1,8.747131824E-1,1.467114985E-1,2.563632250E0
6.501231036E1,4.868137836E-1,-4.275018275E-1,2.757276535E0
6.506431036E1,6.932862401E-1,-1.960773587E0,2.269806147E0
6.511431045E1,8.655502200E-1,2.114632279E-1,6.375740767E-1
6.516631038E1,-4.891503602E-2,2.352869660E-1,-1.491291285E0
6.521831037E1,-3.977190852E-1,2.310396194E0,-3.022730350E0
6.526831047E1,-7.501883507E-1,3.609706640E0,-4.136337757E0
6.532031039E1,-4.533078372E-1,4.123444557E0,-4.540119648E0
6.537231036E1,-4.586071149E-2,5.450854301E0,-4.093577385E0
6.542231056E1,5.252982974E-1,4.211408615E0,-3.498594522E0
6.547431041E1,2.705674767E-1,3.546176434E0,-2.935376644E0
6.552631024E1,-4.826293588E-1,3.786857367E0,-2.582907438E0
6.557631048E1,-1.364107966E0,3.111240387E0,-1.727696180E0
6.562631050E1,-1.503385186E0,3.566946030E0,-1.046581388E0
6.567831030E1,-1.201006889E0,4.661616802E0,-4.717571735E-1
6.572831046E1,-7.581295967E-1,5.458184719E0,-5.236807466E-1
6.577831052E1,-6.907358766E-2,5.668322086E0,-2.756694257E-1
6.583031022E1,-3.048263311E0,1.047126889E0,4.983269691E0
6.588031038E1,-5.778831005E0,-2.640055656E0,8.821946144E0
6.593031041E1,-3.915692091E0,2.931035519E0,8.393118858E0
6.598231023E1,3.779988289E0,1.238722992E1,-3.293954611E0
6.603231033E1,3.471501350E0,-6.023638248E0,-2.690419674E0
6.608231052E1,3.878535926E-1,1.438080668E0,-2.043513536E0
6.613431045E1,-1.997987479E-1,-3.138808906E-1,-1.636066318E0
6.618631028E1,-1.033018947E0,-2.713970423E0,-2.216388464E0
6.623631031E1,-1.324401617E0,-3.077435255E0,-1.786339283E0
6.628831023E1,-1.998796821E0,-6.283866882E0,-1.220067143E0
6.634031023E1,-3.133784533E0,-7.334555149E0,-4.803093076E-1
6.639231026E1,-3.565055370E0,-3.635155201E0,1.065179825E0
6.644431022E1,-4.262052536E0,-5.178200722E0,1.782946467E0
6.649631022E1,-3.387904644E0,-5.315645695E0,3.281399012E0
6.654631041E1,-2.419683218E0,-8.776197433E0,4.462812424E0
6.659831030E1,-7.996683717E-1,-6.764617443E0,4.300322056E0
6.665031023E1,-7.245320082E-1,-2.073783636E0,3.726108789E0
6.670231023E1,-3.604562879E-1,-2.709694386E0,2.301571131E0
6.675231025E1,8.852964640E-2,-2.062177181E0,1.450635791E0
6.680231032E1,7.936666906E-2,-4.610994160E-1,4.903555810E-1
6.685431018E1,6.898195297E-2,5.456064939E-1,-5.200154781E-1
6.690631014E1,1.471727192E-1,5.382761359E-1,-1.312918544E0
6.695631030E1,1.416749209E-1,2.633867860E-1,-1.914010048E0
6.700831020E1,6.042984501E-2,9.884838462E-1,-2.137586594E0
6.706031016E1,1.783268452E-1,1.056289792E0,-2.480893135E0
6.711031019E1,1.887115538E-1,4.826873839E-1,-2.372159004E0
6.716031028E1,2.247525901E-1,2.413956076E-1,-2.100323915E0
6.721031044E1,5.554292351E-2,-1.434494853E-1,-1.676994205E0
6.726231037E1,-1.258840561E-1,4.836220294E-2,-9.757210016E-1
6.731431013E1,-2.621069849E-1,3.226406872E-1,-1.797636002E-1
6.736631006E1,-3.708409965E-1,1.687026471E-1,5.441116691E-1
6.741631015E1,-3.708409965E-1,-6.831305474E-2,1.205678821E0
6.746631022E1,-3.848909438E-1,-1.822211035E-2,1.834869981E0
6.751631037E1,-3.311347663E-1,4.469700903E-2,2.026070833E0
6.756831017E1,-1.808619201E-1,-3.743565381E-1,1.822041869E0
6.762031010E1,-6.765332539E-3,-8.312837481E-1,1.347399592E0
6.767031013E1,8.608618379E-2,-8.300620317E-1,6.522348523E-1
6.772031016E1,1.483944356E-1,-7.995187640E-1,1.397189349E-1
6.777031025E1,1.215163693E-1,-6.150375009E-1,-5.820140988E-2
6.782231011E1,4.515821487E-2,-4.510018229E-2,-1.666257158E-2
6.787431014E1,-1.104138978E-2,3.550165296E-1,-5.392535031E-2
6.792431024E1,-8.739954233E-2,6.268515587E-1,-1.999221444E-1
6.797631012E1,-1.301601082E-1,6.488426924E-1,-4.742006660E-1
6.802830995E1,-1.698663533E-1,8.815823793E-1,-7.136597633E-1
6.807831022E1,-1.277166456E-1,9.958142042E-1,-8.181177974E-1
6.813031018E1,-2.509128861E-2,7.313095927E-1,-7.161032557E-1
6.818230997E1,4.393647984E-2,1.906937957E-1,-5.395632386E-1
6.823231027E1,2.744312026E-2,-2.310903184E-2,-3.611905873E-1
6.828431016E1,-7.029531896E-2,8.501411229E-2,-1.889265776E-1
6.833630999E1,-9.045387059E-2,2.426173538E-1,-3.834401025E-3
6.838631018E1,-5.319108814E-2,9.662055224E-2,9.390404075E-2
6.843631025E1,-3.914118931E-2,-2.472965717E-1,2.521181405E-1
6.848831001E1,-2.814561687E-2,-3.328177333E-1,4.298799038E-1
6.853831020E1,-2.203696407E-2,-1.483364105E-1,5.862613916E-1
6.859031016E1,-1.470658090E-2,-1.709384173E-1,5.147902369E-1
6.864230989E1,-5.543602165E-3,-1.129062176E-1,5.105141401E-1
6.869231012E1,1.786780776E-3,-2.827267647E-1,3.651282191E-1
6.874231018E1,4.699081182E-2,-5.319597721E-1,1.623209417E-1
6.879431014E1,6.837109476E-2,-3.835195303E-1,5.114347115E-2
6.884624507E1,1.278235577E-2,-8.663901687E-2,-3.193420172E-2
6.889824500E1,-2.875648066E-2,7.585113496E-2,-9.240985662E-2
6.895024486E1,-7.029531896E-2,3.311928213E-1,-1.211205274E-1
6.900024492E1,-3.181080893E-2,3.171429038E-1,-1.956460923E-1
6.905224492E1,1.889100857E-2,9.173363447E-2,-2.964388430E-1
6.910424481E1,4.454734921E-2,-8.602815121E-2,-3.740187287E-1
6.915624484E1,1.094975974E-2,7.951632887E-2,-3.263712525E-1
6.920824487E1,-6.765332539E-3,1.515984386E-1,-2.096959800E-1
6.926024483E1,-2.264782973E-2,1.442680508E-1,-1.168444753E-1
6.931224483E1,-1.043052413E-2,2.698191814E-2,-1.666257158E-2
6.936224485E1,1.400408521E-2,-9.335853904E-2,8.168672770E-2
6.941424471E1,7.895433344E-3,-1.000780538E-1,8.779538423E-2
6.946624471E1,-4.581489338E-5,4.347528145E-2,-6.277862005E-3
6.951624480E1,-1.267545391E-3,1.827525496E-1,8.993769065E-3
6.956824473E1,8.506298065E-3,3.531839550E-1,4.416555748E-4
6.962024473E1,-2.489275998E-3,3.831163645E-1,4.136962444E-2
6.967224476E1,2.438879572E-2,-2.738508955E-2,2.548713051E-2
6.972424468E1,-1.043052413E-2,1.687026471E-1,-8.110457100E-3
6.977424472E1,5.451972596E-3,-8.908247948E-2,-3.682112321E-2
6.982424478E1,-2.020436898E-2,-2.472965717E-1,5.939442664E-3
6.987624470E1,-2.570215613E-2,-8.358469605E-2,1.082636416E-2
6.992824470E1,-6.479752809E-2,1.283855438E-1,1.326982584E-2
6.998024469E1,-1.898263767E-2,6.057950482E-2,-3.804285452E-2
7.003024472E1,5.187772959E-2,-3.279307783E-1,-8.385775238E-2
7.008224472E1,3.538436815E-2,-3.890173137E-1,-1.296726316E-1
7.013424468E1,-2.875648066E-2,-1.910969764E-1,-3.865372017E-2
7.018424470E1,-2.997821197E-2,-1.691058129E-1,4.416555748E-4
7.023624470E1,-5.624542013E-2,-2.979983687E-1,8.382904343E-3
7.028824463E1,1.202946380E-1,6.241210178E-2,-2.072525322E-1
7.033824475E1,1.092990637E-1,2.652193606E-1,-4.821418822E-1
7.038824478E1,2.754544020E-1,-1.648297757E-1,-7.173250318E-1
7.044024471E1,7.384902835E-1,1.011085868E0,-1.187691331E0
7.049224460E1,1.301707983E0,9.127365351E-1,-1.838262677E0
7.054224464E1,1.561325788E0,6.311275959E-1,-2.395371914E0
7.059424463E1,1.559493184E0,6.549513936E-1,-2.610396385E0
7.064624459E1,1.274219155E0,7.685723305E-1,-2.432634592E0
7.069824455E1,8.985369802E-1,8.033916354E-1,-1.798556566E0
7.074824461E1,6.584669352E-1,2.547307871E-3,-1.382557273E0
7.079824487E1,4.971984923E-1,-6.004805677E-3,-1.217623711E0
7.085024460E1,5.338504314E-1,-4.262800813E-1,-1.187080264E0
7.090024483E1,3.847992718E-1,-6.272547841E-1,-1.323303342E0
7.095224476E1,2.088700980E-1,-4.623211324E-1,-1.268325448E0
7.100424459E1,1.997071207E-1,-6.162591577E-1,-1.144930720E0
7.105424472E1,1.850463599E-1,-1.329138875E0,-1.111333132E0
7.110624457E1,2.699566483E-1,-7.439299822E-1,-9.989339113E-1
7.115824457E1,3.896862268E-1,-1.173979163E0,-1.019703269E0
7.120824470E1,6.370866299E-1,-2.387768269E0,-1.134546041E0
7.126024459E1,6.389192343E-1,-2.149530888E0,-1.176084876E0
7.131224459E1,-4.502535164E-1,-2.747855186E-1,-1.268325448E0
7.136224472E1,-1.554087043E0,4.689716339E0,2.217882633E0
7.141424458E1,-9.395565987E-1,-3.916153431E0,3.724585772E-1
7.146624454E1,-3.928321600E-1,3.672338426E-1,1.337014794E0
7.151624467E1,2.485763431E-1,-3.957081318E0,1.468350887E0
7.156824463E1,3.200475872E-1,-2.332179785E0,2.682140112E0
7.162024449E1,-8.277682662E-1,-1.581102461E-1,3.224588394E0
7.167024476E1,-1.348836303E0,-4.073432684E-1,2.186728239E0
7.172224468E1,-8.998503685E-1,4.270986617E-1,4.109431207E-1
7.177424448E1,-1.120983481E0,1.555977702E0,-1.399050713E0
7.182424471E1,-1.289582372E0,3.056873560E0,-2.877955437E0
7.187624467E1,-9.731541872E-1,3.871156931E0,-3.701401711E0
7.192824443E1,-3.891669512E-1,3.890704632E0,-3.929254293E0
7.197824470E1,-1.649794281E-1,4.409328938E0,-3.441783905E0
7.202824482E1,-8.129089326E-2,4.007380009E0,-2.835805655E0
7.208024442E1,-1.741424054E-1,3.210811615E0,-2.526707649E0
7.213024461E1,-2.639396191E-1,2.827188253E0,-2.220053434E0
7.218024464E1,-5.272225142E-1,2.554131269E0,-1.425928712E0
7.223224440E1,-1.161300659E0,2.646982908E0,-1.064296484E0
7.228224456E1,-1.571802139E0,2.977460861E0,-1.025812030E0
7.233424459E1,-1.073336005E0,4.071520805E0,-6.165322065E-1
7.238624442E1,-8.577006459E-1,4.960329533E0,-1.498311907E-1
7.243624452E1,-8.369312286E-1,4.631684303E0,8.318293095E-1
7.248624454E1,-3.474647284E0,-5.792835355E-2,4.655845642E0
7.253824447E1,-6.150847912E0,-3.294903278E0,9.906844139E0
7.258824453E1,-3.951122284E0,2.042226315E0,7.516527653E0
7.264024446E1,4.892374039E0,5.204675674E0,-4.450322628E0
7.269224442E1,2.905229330E0,-4.916426837E-1,-3.962852001E0
7.274424442E1,1.293155909E0,1.975642085E0,-1.788171768E0
7.279424445E1,7.189425826E-1,-2.766180933E-1,-1.743578672E0
7.284624441E1,5.576741099E-1,6.085256338E-1,-2.176071405E0
7.289624444E1,6.297562122E-1,-1.378008127E0,-1.527943254E0
7.294624446E1,8.240113854E-1,-2.140978813E0,-1.681270361E0
7.299824439E1,9.974971414E-1,-3.268635988E0,-1.707537651E0
7.305024439E1,1.230236769E0,-3.901492357E0,-1.278099298E0
7.310224438E1,5.778326988E-1,-5.385283947E0,-5.487262011E-1
7.315424438E1,-1.124648690E0,-7.364487171E0,1.172081232E0
7.320624437E1,-2.135630608E0,-8.740156174E0,3.460993052E0
7.325824433E1,-2.404411316E0,-8.228862762E0,5.234945774E0
7.331024433E1,-8.399855494E-1,-6.026082039E0,6.184841156E0
7.336224432E1,-3.176957369E-1,-3.493434668E0,6.294186115E0
7.341224435E1,1.966527998E-1,-5.381618977E0,5.583138943E0
7.346224438E1,1.218630314E0,-3.706626415E0,3.532464504E0
7.351424431E1,6.945080161E-1,3.568491638E-1,1.644280076E0
7.356424434E1,2.644588351E-1,-1.892643720E-1,8.660377264E-1
7.361424436E1,2.589610517E-1,-1.550559253E-1,2.160770893E-1
7.366424442E1,1.160185859E-1,-3.438133001E-1,-2.041981965E-1
7.371424465E1,-7.762569934E-2,-3.370937705E-1,-6.922795177E-1
7.376624434E1,-1.796402037E-1,3.617360890E-1,-9.366255999E-1
7.381624457E1,-2.786003649E-1,1.014140129E0,-1.168754339E0
7.386624460E1,-3.018132448E-1,9.481666684E-1,-1.411267996E0
7.391824429E1,-3.244152665E-1,7.777352929E-1,-1.383168101E0
7.396824433E1,-4.502535164E-1,9.475558400E-1,-1.204795480E0
7.401824436E1,-6.182414293E-1,1.381270170E0,-9.445669055E-1
7.406824448E1,-5.919742584E-1,1.701363564E0,-6.079801321E-1
7.412024424E1,-3.610671759E-1,1.431361079E0,-4.528203309E-1
7.417024467E1,-3.219718039E-1,5.914213657E-1,-1.840396374E-1
7.422224443E1,-3.421303332E-1,-1.465038210E-1,-6.247746199E-2
7.427424420E1,-2.975372076E-1,6.302297115E-2,3.180915713E-1
7.432424446E1,-3.091436028E-1,2.560563982E-1,6.730042696E-1
7.437624442E1,-1.313818395E-1,-5.548489094E-2,7.066018581E-1
7.442824418E1,2.744312026E-2,-4.574342370E-1,6.039764881E-1
7.447824454E1,5.798638240E-2,-6.168700457E-1,3.260328472E-1
7.453024450E1,9.280569851E-2,-5.710551739E-1,3.242002130E-1
7.458224416E1,3.660609946E-2,-4.629320204E-1,3.046525717E-1
7.463224433E1,7.692319900E-2,-8.917593956E-1,2.032489181E-1
7.468424432E1,1.581682861E-1,-8.538857698E-1,9.940182418E-2
7.473624411E1,2.988658100E-2,-1.312321723E-1,1.213929728E-1
7.478624448E1,-4.524984211E-2,4.692483544E-1,7.802154869E-2
7.483824440E1,-9.900598228E-2,4.118270278E-1,-7.530563325E-2
7.489024420E1,-1.582599133E-1,4.588636458E-1,-3.437766433E-2
7.494024429E1,-5.685628206E-2,6.335710883E-1,-5.270362273E-2
7.499024435E1,1.786780776E-3,2.401738912E-1,-3.960098922E-1
7.504224415E1,-3.669773042E-2,-1.978164911E-1,-4.864179492E-1
7.509224428E1,-4.402811453E-2,1.461006403E-1,-2.316871285E-1
7.514424427E1,-6.052147225E-2,3.342471421E-1,-4.964929447E-2
7.519424430E1,-3.730859235E-2,1.833634228E-1,-8.110457100E-3
7.524624420E1,2.499966137E-2,-4.754364118E-2,-6.277862005E-3
7.529824416E1,-6.765332539E-3,-1.006889194E-1,-1.046271697E-1
7.534824428E1,-3.303254023E-2,-2.283597589E-1,-2.032776177E-2
7.540024412E1,-2.264782973E-2,-5.304142833E-2,-9.546418488E-2
7.545024418E1,-5.685628206E-2,-8.419555426E-2,-1.840396374E-1
7.550224407E1,-1.429882795E-1,-8.541729301E-2,-4.277748764E-1
7.555424407E1,-1.539838612E-1,1.803091019E-1,-5.975953937E-1
7.560424416E1,-1.148884818E-1,3.715099096E-1,-6.342473030E-1
7.565624415E1,4.841106944E-3,3.385231793E-1,-6.037040949E-1
7.570824412E1,-2.142609842E-2,-4.783074837E-3,-6.745644808E-1
7.575824414E1,-1.374904960E-1,4.338181615E-1,-7.393161654E-1
7.581024407E1,-2.657721937E-1,5.468282700E-1,-8.602674603E-1
7.586224407E1,-3.824474514E-1,6.134125590E-1,-1.070405126E0
7.591224410E1,-4.624707997E-1,1.095996141E0,-1.254886508E0
7.596424406E1,-4.917923212E-1,1.325070500E0,-1.578644991E0
7.601424422E1,-5.797569752E-1,1.705639601E0,-1.818715096E0
7.606624408E1,-3.855017722E-1,1.457628250E0,-2.353222132E0
7.611624424E1,-8.556694537E-2,1.431971908E0,-2.672704697E0
7.616625856E1,1.001360863E-1,4.741352797E-1,-2.956757069E0
7.621825828E1,2.559067309E-1,1.913046688E-1,-3.182166338E0
7.627025818E1,4.471075535E-1,-1.671834350E0,-3.197438002E0
7.632225818E1,5.937151909E-1,-2.287586451E0,-2.862072945E0
7.637425817E1,7.720878124E-1,-7.408756614E-1,-1.491902113E0
7.642425833E1,2.583501935E-1,-1.874030709E0,-6.232517958E-1
7.647625819E1,-5.624542013E-2,-2.186793804E0,-1.673939943E0
7.652825805E1,-2.401158661E-1,-1.452533722E0,-1.643396735E0
7.657825811E1,8.905956745E-1,4.363513947E0,1.684597135E0
7.662825824E1,1.662729383E0,-3.147073984E0,-8.627109528E-1
7.668025820E1,2.306581259E0,-3.151026368E-1,2.083492279E0
7.673225810E1,2.542375326E0,-3.715893254E-2,2.476278543E0
7.678425813E1,2.816042900E0,3.647904098E-1,2.926486015E0
7.683425822E1,2.025583267E0,8.901345134E-1,3.050492048E0
7.688625815E1,1.415328979E0,-3.471547365E-2,1.120157599E0
7.693825808E1,1.154489517E0,5.785932541E-1,-1.659890175E0
7.698825824E1,1.288467497E-1,3.081918955E0,-3.204768419E0
7.704025813E1,-3.683975637E-1,4.788065434E0,-4.153441906E0
7.709225807E1,-7.654599547E-1,5.538818836E0,-4.135726929E0
7.714225826E1,-5.125617385E-1,5.271871090E0,-3.445449114E0
7.719425812E1,-5.663178563E-1,4.496072292E0,-3.034336805E0
7.724625805E1,-3.714518845E-1,3.550452709E0,-2.251818657E0
7.729625831E1,-4.765206873E-1,2.838794708E0,-1.686768174E0
7.734825817E1,-7.966140509E-1,3.184544325E0,-1.423485279E0
7.740025800E1,-1.433135629E0,3.262735128E0,-1.314140439E0
7.745025833E1,-1.414809704E0,3.876654863E0,-1.403326631E0
7.750225819E1,-8.124966025E-1,4.697046757E0,-4.234988093E-1
7.755425802E1,-2.877633274E-1,5.695200920E0,9.582783580E-1
7.760425828E1,-2.310949087E0,1.453963161E0,2.771937370E0
7.765625821E1,-7.561946869E0,-4.070702076E0,6.788987160E0
7.770825800E1,-2.453280449E0,-3.900881529E0,9.085841179E0
7.775825823E1,3.130027533E0,1.407810402E1,1.050518990E0
7.781025823E1,4.027999401E0,-7.940533638E0,-2.719741106E0
7.786225796E1,6.199824214E-1,8.266045451E-1,-1.184636950E0
7.791225815E1,4.880355299E-1,1.493669271E0,-1.478463173E0
7.796225818E1,6.792363524E-1,-3.812306166E0,-2.905444384E0
7.801425801E1,-2.743242979E-1,-4.520909786E0,-2.337950468E0
7.806425807E1,-1.125870466E0,-5.713929653E0,-1.903625369E0
7.811425813E1,-3.159440994E0,-7.658924580E0,9.604634717E-3
7.816625799E1,-4.073906422E0,-6.153752327E0,1.673601508E0
7.821825799E1,-4.722033978E0,-6.435361385E0,3.719389200E0
7.826825812E1,-3.416615248E0,-6.860523701E0,6.328394413E0
7.832025811E1,-2.149069786E0,-8.738934517E0,6.346109867E0
7.837225804E1,-1.408701062E0,-1.437262058E0,4.977160454E0
7.842425804E1,-5.577657819E-1,-5.240185261E-1,1.825096250E0
7.847625793E1,3.579212129E-1,-5.160772800E-1,-2.726151049E-1
7.852825793E1,6.902319193E-1,-6.437481046E-1,-1.056355238E0
7.857825799E1,7.488750219E-1,-6.892392784E-2,-1.670274734E0
7.863025791E1,7.238295078E-1,8.290479779E-1,-2.022743940E0
7.868025795E1,7.012274861E-1,6.427340508E-1,-2.207225323E0
7.873225794E1,7.598705292E-1,8.858584762E-1,-2.351389647E0
7.878225796E1,7.458207011E-1,5.462173223E-1,-2.214555740E0
7.883225800E1,5.992130041E-1,1.778656244E-1,-1.814438939E0
7.888425792E1,2.681240141E-1,-1.306213289E-1,-1.315362096E0
7.893425795E1,-1.997987479E-1,2.514932305E-2,-8.291133642E-1
7.898625792E1,-6.206848621E-1,-1.691058129E-1,-1.021837071E-1
7.903625794E1,-7.489666343E-1,-3.322068453E-1,6.711716652E-1
7.908825790E1,-7.953923345E-1,-9.785022736E-1,1.410929561E0
7.913825793E1,-7.507991791E-1,-1.290043592E0,1.930775881E0
7.919025790E1,-5.663178563E-1,-1.082349420E0,2.192837000E0
7.924225789E1,-3.787822425E-1,-6.608523726E-1,2.196502209E0
7.929225792E1,-2.303420156E-1,-1.691058129E-1,1.725525141E0
7.934225795E1,-3.914118931E-2,-1.568885148E-1,1.078618765E0
7.939425787E1,1.074664667E-1,-2.472965717E-1,3.797889650E-1
7.944625784E1,2.113135457E-1,-2.662333846E-1,-1.510529369E-1
7.949625790E1,1.777159721E-1,-1.452820748E-1,-4.674811065E-1
7.954825789E1,1.062447354E-1,2.346761078E-1,-5.383414626E-1
7.960025785E1,6.837109476E-2,3.892250061E-1,-5.756042600E-1
7.965225785E1,2.072360367E-2,2.920974493E-1,-7.057185769E-1
7.970425781E1,-7.090618461E-2,3.654012680E-1,-8.217829466E-1
7.975425784E1,-1.607033759E-1,3.818946183E-1,-8.022353053E-1
7.980425790E1,-2.199573070E-1,4.533658326E-1,-6.348581910E-1
7.985625786E1,-2.828764319E-1,4.374833703E-1,-4.033402801E-1
7.990825782E1,-2.395049930E-1,2.951517701E-1,-2.750585675E-1
7.995825795E1,-2.669939399E-1,1.283855438E-1,-1.046271697E-1
8.001025784E1,-3.293021917E-1,2.157392800E-1,5.908472091E-2
8.006225781E1,-3.354108334E-1,4.014423192E-1,1.299450845E-1
8.011225807E1,-3.445738256E-1,4.399268329E-1,1.067322046E-1
8.016425786E1,-2.437810451E-1,4.985698760E-1,8.535192162E-2
8.021625783E1,-1.429882795E-1,1.375485212E-1,1.122299954E-1
8.026625792E1,-8.862127364E-2,1.858068854E-1,1.568231732E-1
8.031825785E1,-7.090618461E-2,2.126849592E-1,1.439950019E-1
8.037025778E1,-9.289733320E-2,3.379123211E-1,1.592666209E-1
8.042025794E1,-8.739954233E-2,4.399268329E-1,1.525471061E-1
8.047225790E1,-2.203696407E-2,2.688845396E-1,3.098491952E-2
8.052425773E1,-1.104138978E-2,2.236805260E-1,-1.003511101E-1
8.057425796E1,-1.531744562E-2,1.888612062E-1,-1.877048314E-1
8.062625789E1,-1.104138978E-2,2.890431285E-1,-3.550819159E-1
8.067825772E1,-1.653917693E-2,4.044966400E-1,-5.676630139E-1
8.072825798E1,7.692319900E-2,8.308805823E-1,-7.979592085E-1
8.078025791E1,1.465618461E-1,1.075226665E0,-1.025201082E0
8.083225767E1,2.595719099E-1,1.130815387E0,-1.086287618E0
8.088225783E1,2.852282524E-1,9.884838462E-1,-1.107667804E0
8.093425782E1,1.667204052E-1,1.345229149E0,-9.665580392E-1
8.098625762E1,-1.136667505E-1,1.413035154E0,-1.032531500E0
8.103625792E1,-3.012023866E-1,1.289640427E0,-1.209682345E0
8.108825794E1,1.019686833E-1,1.449687123E0,-1.152871966E0
8.114025790E1,7.476532459E-1,-4.195605814E-1,-1.325746775E0
8.119025793E1,1.084850788E0,-1.663893104E0,-1.867584229E0
8.124225796E1,1.215576053E0,-4.482712448E-1,-2.280529022E0
8.129425765E1,1.296820998E0,-1.483364105E-1,-2.629944086E0
8.134425775E1,1.189919710E0,-3.157134652E-1,-2.870014191E0
8.139425778E1,9.223607183E-1,2.572781146E-1,-2.569468498E0
8.144625764E1,6.474713683E-1,1.717569828E-1,-2.208446980E0
8.149825760E1,4.373337030E-1,5.263825879E-2,-1.540160537E0
8.154825766E1,3.090519905E-1,-1.171535611E0,-1.201130271E0
8.160025762E1,1.954310536E-1,-1.645567179E0,-7.014424801E-1
8.165025768E1,-3.720627427E-1,-2.877071619E0,-1.668442130E0
8.170225768E1,-4.716337919E-1,5.543095112E0,-1.348959684E0
8.175425764E1,7.103904486E-1,-7.585620403E0,-2.102767229E0
8.180625760E1,1.311481833E0,1.543760419E0,1.720638156E0
8.185625766E1,1.623633981E0,-1.850817919E0,3.501310349E0
8.190825762E1,1.504515290E0,-9.742261767E-1,4.616750717E0
8.196025762E1,6.425843835E-1,-1.553326368E0,3.712669611E0
8.201025768E1,1.165485144E0,-5.667791367E-1,3.526097536E-2
8.206225764E1,3.487582505E-1,2.186390638E0,-2.358720064E0
8.211425764E1,1.661095321E-1,4.631684303E0,-4.027603626E0
8.216625760E1,-2.065182626E-1,5.015918255E0,-4.207198143E0
8.221625763E1,7.814493775E-2,4.952999115E0,-4.010499477E0
8.226825759E1,3.200475872E-1,4.777070045E0,-3.265244007E0
8.232025758E1,8.303186297E-2,3.640249729E0,-2.758836746E0
8.237025774E1,-1.267545391E-3,2.772821188E0,-2.122925997E0
8.242225758E1,-5.779243112E-1,2.405080318E0,-1.584142804E0
8.247425757E1,-1.477728844E0,2.122249842E0,-1.159591436E0
8.252425760E1,-2.101422310E0,2.284739733E0,-8.205612302E-1
8.257625756E1,-1.762392044E0,3.083751678E0,-6.318038702E-1
8.262625759E1,-9.291718602E-1,3.612761021E0,-3.343124986E-1
8.267825755E1,-3.879452646E-1,5.566308022E0,3.742912114E-1
8.272825758E1,-3.591322422E0,1.661046505E0,3.955183268E0
8.278025751E1,-6.602277279E0,-2.786663294E0,8.839051247E0
8.283025767E1,-2.960298777E0,-6.156483293E-1,8.868371964E0
8.288225753E1,3.863676786E0,1.213188744E1,-2.339783192E0
8.293225756E1,3.180118561E0,-2.011475563E0,-1.827267170E0
8.298225762E1,1.488021970E0,-2.008708119E-1,-1.793669581E0
8.303425748E1,1.054918408E0,-6.834543347E-1,-1.939055562E0
8.308425758E1,1.089126945E0,-2.343786240E0,-3.433231831E0
8.313625754E1,1.035370708E0,-2.285143137E0,-2.882231474E0
8.318625757E1,1.043922901E0,-4.497696877E0,-2.260370493E0
8.323625763E1,3.102737367E-1,-5.346799850E0,-9.415125847E-1
8.328825759E1,-8.381529450E-1,-4.936298370E0,3.840650320E-1
8.334025742E1,-1.758726835E0,-5.092068672E0,1.266154408E0
8.339025768E1,-1.751396537E0,-5.674834251E0,2.742615700E0
8.344220489E1,-2.272464514E0,-5.880695820E0,3.511084318E0
8.349420482E1,-2.015290260E0,-5.238065243E0,5.124990463E0
8.354420505E1,-1.816758990E0,-5.946058750E0,5.717529297E0
8.359620491E1,-4.032168984E-1,-7.453673840E0,4.404169559E0
8.364820474E1,-9.774302244E-1,-5.967115164E-1,4.274665833E0
8.369820504E1,-1.894140542E-1,-3.561344463E-3,2.464061260E0
8.375020496E1,-1.991878748E-1,1.196177959E0,1.451246619E0
8.380220483E1,3.249345124E-1,-7.799710631E-1,-3.929555714E-1
8.385220502E1,4.220620692E-1,-1.611358643E0,-1.009318590E0
8.390420502E1,2.443002760E-1,-4.244475067E-1,-1.279931903E0
8.395620478E1,1.624443382E-1,2.713280022E-1,-1.414322257E0
8.400620494E1,6.653849781E-2,1.326616108E-1,-1.287262321E0
8.405820497E1,-6.765332539E-3,-4.783074837E-3,-1.078346372E0
8.411020473E1,1.400408521E-2,6.546643376E-2,-8.877564073E-1
8.416020486E1,-1.313818395E-1,-1.764362007E-1,-4.357161224E-1
8.421020492E1,-2.370615304E-1,1.198334321E-1,9.512577206E-2
8.426220472E1,-4.740772545E-1,8.889127970E-1,7.243169546E-1
8.431220478E1,-5.931959748E-1,1.480230331E0,8.299966455E-1
8.436220484E1,-4.129907191E-1,8.131654859E-1,6.839998960E-1
8.441420474E1,-2.364506721E-1,-1.434494853E-1,4.103322327E-1
8.446620470E1,1.056338698E-1,-1.364569068E0,5.358693376E-2
8.451620476E1,2.980564237E-1,-1.188029051E0,4.259135947E-2
8.456820472E1,1.129642576E-1,-6.761239767E-1,7.313462347E-2
8.462020472E1,9.728029370E-3,-1.978164911E-1,6.702596694E-2
8.467020474E1,1.950187236E-2,3.183646500E-1,4.381308705E-2
8.472220470E1,4.027128965E-2,4.979590178E-1,-2.399295382E-2
8.477220473E1,1.636660695E-1,3.018712699E-1,-1.198987961E-1
8.482220489E1,1.465618461E-1,-3.670261502E-1,-5.697967857E-2
8.487420482E1,2.107027024E-1,-5.820507407E-1,-7.041871548E-2
8.492620472E1,2.180330753E-1,-4.372756779E-1,-1.565507054E-1
8.497820468E1,2.235308737E-1,-3.413698077E-1,-3.294255733E-1
8.502820470E1,2.473546118E-1,-1.153496876E-1,-3.300364316E-1
8.508020467E1,2.760652900E-1,-2.753964067E-1,-4.167793095E-1
8.513020473E1,2.833956480E-1,-1.049649715E-1,-3.984533250E-1
8.518220466E1,3.023324907E-1,-6.586959958E-2,-6.171431541E-1
8.523420466E1,3.084411323E-1,2.383412868E-1,-7.869636416E-1
8.528620465E1,2.675131559E-1,7.160379291E-1,-7.093837857E-1
8.533620468E1,2.107027024E-1,2.157392800E-1,-7.234336734E-1
8.538820467E1,1.428966522E-1,2.304000407E-1,-6.128670573E-1
8.544020467E1,1.337336749E-1,-4.018454850E-1,-7.881853580E-1
8.549220463E1,1.319010705E-1,-2.411879301E-1,-8.932542205E-1
8.554220469E1,1.746616513E-1,1.351050735E-1,-1.129048228E0
8.559420465E1,1.319010705E-1,6.030278206E-1,-1.232895255E0
8.564620461E1,6.287330389E-2,7.502463460E-1,-1.212125897E0
8.569620464E1,-9.228646755E-2,1.130204558E0,-1.204184532E0
8.574620467E1,-1.417665631E-1,1.527266979E0,-1.094839692E0
8.579820459E1,-1.350470334E-1,1.888899207E0,-7.234336734E-1
8.584820469E1,1.339322049E-2,1.615231514E0,-6.495189667E-1
8.590020462E1,1.838246286E-1,1.523601770E0,-4.668702781E-1
8.595220458E1,3.921296597E-1,9.414471984E-1,-4.418247640E-1
8.600220461E1,5.741675496E-1,6.402906775E-1,-4.137249887E-1
8.605220471E1,5.772218704E-1,8.760845661E-1,-4.247205555E-1
8.610420453E1,6.737385392E-1,6.011952758E-1,-4.002859592E-1
8.615420456E1,7.036709785E-1,7.905634642E-1,-3.636340201E-1
8.620420473E1,7.439880371E-1,5.669867992E-1,-4.320509434E-1
8.625620462E1,8.014093637E-1,5.675976276E-1,-5.310111046E-1
8.630820455E1,8.197353482E-1,6.946576834E-1,-6.171431541E-1
8.635820478E1,7.745313048E-1,5.309457183E-1,-5.982062817E-1
8.641020467E1,7.720878124E-1,5.847018957E-1,-7.790223956E-1
8.646220450E1,7.891920805E-1,4.423702657E-1,-9.097475410E-1
8.651220473E1,8.887631297E-1,-3.532633558E-2,-1.069794297E0
8.656420466E1,1.043922901E0,-8.734334707E-1,-1.366674781E0
8.661620449E1,1.011547089E0,-1.131218672E0,-1.212736726E0
8.666620472E1,8.875413537E-1,-2.935714483E0,-1.237782240E0
8.671620474E1,9.614560604E-1,-2.993135691E0,-6.696774960E-1
8.676820447E1,1.068968415E0,-3.068882942E0,2.710549533E-1
8.681820464E1,-1.064173102E0,-5.825717926E0,-4.149467051E-1
8.686820480E1,-1.463678956E0,3.404455900E0,3.608521521E-1
8.692020442E1,-1.834474087E0,-4.264346123E0,2.372431278E0
8.697020449E1,-9.994212985E-1,-9.113071561E-1,3.864775181E0
8.702020478E1,-1.405646682E0,-1.880750299E0,4.037039280E0
8.707220468E1,-8.283790946E-1,-8.428902030E-1,3.045604944E0
8.712420454E1,-4.362035990E-1,-3.908499181E-1,2.264617980E-1
8.717620457E1,1.868789494E-1,1.577968717E0,-2.068558931E0
8.722820443E1,5.576741099E-1,3.000673771E0,-3.461331844E0
8.728020446E1,5.387372971E-1,3.792966127E0,-4.292108536E0
8.733020452E1,6.401410103E-1,4.372066498E0,-3.899322033E0
8.738220444E1,5.876065493E-1,4.030592918E0,-3.457666397E0
8.743420444E1,5.821087360E-1,3.398347139E0,-2.714243412E0
8.748420447E1,3.322649002E-1,2.595059395E0,-2.142473698E0
8.753420453E1,-4.891503602E-2,2.147906065E0,-1.603690386E0
8.758620446E1,-5.394397974E-1,1.791771650E0,-1.417987466E0
8.763820439E1,-1.230328321E0,2.243812084E0,-1.275044918E0
8.768820442E1,-1.027521133E0,2.742888927E0,-9.506755471E-1
8.774020438E1,-5.260007977E-1,2.883998871E0,-7.161032557E-1
8.779220434E1,-3.720627427E-1,3.849165678E0,-4.619833231E-1
8.784220440E1,-5.113400221E-1,4.496683121E0,3.669608235E-1
8.789220460E1,-3.726323843E0,1.315907598E0,5.798774242E0
8.794420452E1,-7.124567509E0,-3.037118196E0,8.853100777E0
8.799620438E1,-1.461846352E0,8.726924896E0,7.346096039E0
8.804620441E1,5.599144936E0,3.315880299E0,-4.103351116E0
8.809620444E1,3.333445787E0,-9.931954384E0,-4.920078278E0
8.814620457E1,6.169281006E-1,5.181462765E0,-1.070706248E-1
8.819820440E1,7.415446043E-1,6.946576834E-1,-1.703872442E0
8.825020439E1,4.770399332E-1,-2.357225180E0,-1.899960041E0
8.830220438E1,9.351888895E-1,-1.396945000E0,-2.287859678E0
8.835420432E1,1.598588467E0,-1.922899961E0,-2.191953659E0
8.840420434E1,1.567434430E0,-2.600960493E0,-1.797334671E0
8.845620430E1,1.485578537E0,-3.303455353E0,-7.680267692E-1
8.850620447E1,7.183317542E-1,-3.490380049E0,2.191314101E-1
8.855820436E1,-9.534078836E-2,-3.843460321E0,1.172692060E0
8.861020435E1,-1.246623248E-1,-3.853234053E0,1.960097432E0
8.866220432E1,-8.068002760E-2,-3.224042892E0,2.235597610E0
8.871220438E1,-6.174320728E-2,-3.195943117E0,2.015686274E0
8.876220440E1,1.209055036E-1,-1.431764245E0,1.169637680E0
8.881420427E1,5.187772959E-2,-9.894978404E-1,9.136852026E-1
8.886420453E1,-1.653917693E-2,-8.483880162E-1,4.201060832E-1
8.891620445E1,-1.411556900E-1,-3.645827174E-1,1.898098737E-1
8.896820425E1,-9.534078836E-2,-5.059796944E-2,3.495981684E-3
8.901820448E1,5.309946090E-2,6.119037420E-2,3.587184101E-2
8.907020430E1,1.050230116E-1,-8.786074817E-2,7.435635477E-2
8.912220430E1,9.891435504E-2,-3.523653746E-1,2.063032389E-1
8.917220467E1,3.008511383E-3,-5.075252056E-1,2.814396620E-1
8.922420439E1,-3.058907762E-2,-5.985440612E-1,4.311016500E-1
8.927620429E1,-7.273877412E-2,-2.570704222E-1,5.441116691E-1
8.932620449E1,-4.341724887E-2,-3.715893254E-2,7.902904153E-1
8.937820438E1,-5.441282317E-2,-4.763710201E-1,1.133596659E0
8.943020417E1,-2.509128861E-2,-2.308032215E-1,1.315023661E0
8.948020440E1,5.676465109E-2,-4.317778945E-1,1.575863123E0
8.953020446E1,1.917658746E-1,-4.849231541E-1,1.516609311E0
8.958220419E1,3.768580258E-1,-3.768000305E-1,1.291199923E0
8.963220439E1,5.705023408E-1,-5.704442859E-1,1.172692060E0
8.968220442E1,6.639647484E-1,-4.476603568E-1,9.851564169E-1
8.973420431E1,5.973803997E-1,-3.645827174E-1,7.408102751E-1
8.978420441E1,4.098447561E-1,-5.930463076E-1,4.445406795E-1
8.983420453E1,1.728290617E-1,-3.218221366E-1,2.154662162E-1
8.988620422E1,-4.952589795E-2,-1.272432320E-2,3.281751275E-2
8.993620426E1,-1.521512568E-1,-5.304142833E-2,-1.571615785E-1
8.998620428E1,-2.144595236E-1,-4.998710379E-2,-2.811672390E-1
9.003820424E1,-1.277166456E-1,1.906937957E-1,-3.153756857E-1
9.009020418E1,-2.875648066E-2,1.338833272E-1,-2.365740687E-1
9.014020430E1,6.470590085E-2,6.668815762E-2,-2.298545390E-1
9.019020433E1,1.031904146E-1,-1.410060227E-1,-1.547181159E-1
9.024020436E1,3.782783076E-2,-4.937623441E-2,-7.958168536E-2
9.029220409E1,-4.158465192E-2,1.038470946E-4,-5.636881292E-2
9.034220415E1,-1.387122124E-1,-2.921768464E-2,-1.877048314E-1
9.039220421E1,-1.289383918E-1,-3.166114539E-2,-1.473877430E-1
9.044420417E1,-1.118341535E-1,6.485556066E-2,-9.302072972E-2
9.049620410E1,-8.739954233E-2,-4.387845099E-2,-7.713823020E-2
9.054820410E1,-8.434522152E-2,-5.070181214E-4,-9.302072972E-2
9.059820412E1,-8.862127364E-2,-4.632190987E-2,-9.974024445E-2
9.065020412E1,-7.212791592E-2,7.096421719E-2,-1.046271697E-1
9.070220408E1,-2.142609842E-2,-1.944383979E-2,-8.874467015E-2
9.075418290E1,4.515821487E-2,8.318151534E-2,-2.277122252E-2
9.080418299E1,8.914051205E-2,-1.012997851E-1,2.304366790E-2
9.085618279E1,5.859724805E-2,-7.686517388E-2,2.609799616E-2
9.090618285E1,3.721696511E-2,-7.686517388E-2,1.937847957E-2
9.095818281E1,4.943427071E-2,5.324912444E-2,7.863240689E-2
9.100818287E1,7.936666906E-2,-1.037432477E-1,1.103973985E-1
9.106018286E1,8.914051205E-2,-3.288287669E-2,1.024561524E-1
9.111218279E1,9.769262373E-2,-5.548489094E-2,4.564568400E-2
9.116218282E1,1.306793541E-1,-3.715893254E-2,7.496721298E-2
9.121218285E1,1.172403097E-1,-1.177931428E-1,5.053260550E-2
9.126218301E1,1.239598319E-1,-1.843774617E-1,1.061213464E-1
9.131418287E1,1.019686833E-1,-1.171822846E-1,1.177277863E-1
9.136418290E1,8.669704944E-2,-1.611645818E-1,1.006235555E-1
9.141618279E1,8.242098987E-2,-1.080192998E-1,8.046500385E-2
9.146818279E1,7.875579596E-2,-7.258912176E-2,1.152843237E-1
9.151818285E1,1.202946380E-1,-3.471547365E-2,1.427732557E-1
9.157018281E1,1.514487565E-1,-4.265671968E-2,1.201712415E-1
9.162218281E1,1.343445480E-1,6.974248588E-2,6.397163868E-2
9.167218294E1,1.166294515E-1,8.501411229E-2,1.388069056E-2
9.172418286E1,8.425358683E-2,1.131139174E-1,2.243280411E-2
9.177618270E1,6.287330389E-2,2.383412868E-1,3.465010971E-2
9.182618299E1,-2.386956103E-2,3.415775001E-1,6.824769825E-2
9.187818288E1,-1.820836663E-1,5.963083506E-1,1.061213464E-1
9.193018268E1,-3.244152665E-1,2.902648449E-1,4.564568400E-2
9.198018304E1,-4.019951522E-1,4.338181615E-1,-5.270362273E-2
9.203218294E1,-3.696192801E-1,-6.615670864E-3,-5.759054050E-2
9.208418270E1,-2.786003649E-1,-2.555249445E-2,-1.626593620E-1
9.213418293E1,-1.613142341E-1,-2.320249528E-1,-1.290617883E-1
9.218618289E1,-6.418666989E-2,3.981008753E-2,-9.729678184E-2
9.223818265E1,-4.097378626E-2,5.141652748E-2,-6.431005895E-2
9.228818295E1,-7.884743810E-2,8.684670925E-2,-4.903842881E-2
9.234018291E1,-1.106124297E-1,5.691431463E-2,-4.048631713E-2
9.239218277E1,-6.663012505E-2,-2.371989749E-2,-2.521468513E-2
9.244218283E1,-1.592831127E-2,-5.120883137E-2,-1.116478443E-2
9.249218286E1,5.126686394E-2,-6.159354374E-2,4.564568400E-2
9.254418269E1,8.425358683E-2,5.752518028E-2,9.879095852E-2
9.259418275E1,3.966042772E-2,-1.516778395E-2,1.531579792E-1
9.264418284E1,-1.878410578E-3,9.877691045E-3,2.918243706E-1
9.269618271E1,-1.234406009E-1,3.158173291E-3,5.722115636E-1
9.274818267E1,-2.144595236E-1,-5.124121308E-1,1.016310573E0
9.279818270E1,-3.134196699E-1,-6.403700262E-2,1.316245317E0
9.285018266E1,-4.832402468E-1,1.650374532E-1,1.665049434E0
9.290018269E1,-6.548933983E-1,-6.651284099E-1,1.898400068E0
9.295218271E1,-8.613657951E-1,-3.804652095E-1,2.221547604E0
9.300418264E1,-6.390108466E-1,-3.853521049E-1,2.385870457E0
9.305418267E1,-8.894656301E-1,-2.900571525E-1,2.387092352E0
9.310618267E1,-8.931307793E-1,-1.265608907E0,2.664425135E0
9.315818266E1,-3.855017722E-1,-2.525824070E0,2.426187515E0
9.321018262E1,-4.036292434E-2,-3.782984734E0,1.766453147E0
9.326218258E1,5.981897563E-2,-1.630906343E0,1.051740766E0
9.331218264E1,-6.846272200E-2,-6.767348647E-1,6.693391204E-1
9.336418261E1,5.309946090E-2,-1.063412547E0,-8.324687928E-2
9.341418264E1,-2.753474936E-2,2.942537889E-2,-1.455551386E-1
9.346618256E1,-8.251262456E-2,2.334543765E-1,-3.682112321E-2
9.351618263E1,2.561052516E-2,1.057835296E-1,4.747828096E-2
9.356818259E1,4.841106944E-3,-3.532633558E-2,8.290845901E-2
9.361818261E1,-1.043052413E-2,3.553403169E-2,8.779538423E-2
9.367018261E1,-2.020436898E-2,-8.663901687E-2,1.937847957E-2
9.372018267E1,-4.219551757E-2,1.038470946E-4,4.442395270E-2
9.377218260E1,-2.203696407E-2,-1.220691949E-1,3.587184101E-2
9.382418253E1,1.786780776E-3,4.897306859E-2,1.158951893E-1
9.387418259E1,1.522581559E-2,6.057950482E-2,1.449155621E-2
9.392618255E1,-6.357580423E-2,2.169610113E-1,-5.209275335E-2
9.397618258E1,-1.470658090E-2,2.658302188E-1,-3.071247041E-2
9.402818254E1,-5.258022621E-2,4.332073033E-1,1.067322046E-1
9.408018253E1,3.110831231E-2,2.804909945E-1,-6.431005895E-2
9.413018260E1,2.988658100E-2,8.929017931E-2,-2.341306061E-1
9.418018269E1,-7.090618461E-2,2.737714946E-1,-1.809853166E-1
9.423218252E1,1.217149012E-2,4.949046969E-1,7.679980993E-2
9.428418252E1,7.020369172E-2,1.363268048E-1,1.439950019E-1
9.433418264E1,6.104071066E-2,-9.641286731E-2,5.175433680E-2
9.438618250E1,9.402743727E-2,-4.910317957E-1,2.976318821E-2
9.443818250E1,1.264032871E-1,-1.203911543E0,1.391080618E-1
9.448818260E1,1.147968546E-1,-1.244839430E0,5.786298588E-2
9.454018252E1,3.904956207E-2,-7.567581534E-1,2.915232256E-2
9.459218252E1,7.284567691E-3,-2.998310030E-1,-8.721322753E-3
9.464218261E1,6.776022911E-2,-8.480641991E-2,1.082636416E-2
9.469418250E1,-1.898263767E-2,7.502463460E-1,6.550308317E-3
9.474618247E1,-7.273877412E-2,7.319204211E-1,4.259135947E-2
9.479618270E1,-7.945829630E-2,3.293601871E-1,6.519337744E-2
9.484818249E1,-5.543602165E-3,-1.361191124E-1,1.287233531E-1
9.490018235E1,-6.154467352E-3,-1.446712166E-1,1.415515244E-1
9.495018268E1,-4.932736978E-3,-2.265271544E-1,1.388069056E-2
9.500018281E1,3.233004361E-2,-1.532233208E-1,2.365453541E-2
9.505218247E1,6.959282607E-2,8.195979148E-2,7.557807863E-2
9.510218270E1,7.570147514E-2,5.321674943E-1,1.427732557E-1
9.515418259E1,1.703855842E-1,6.057950482E-2,5.908472091E-2
9.520618256E1,2.021505684E-1,-5.181969702E-2,-1.345595717E-1
9.525618268E1,1.838246286E-1,-1.544450521E-1,-2.048090696E-1
9.530818258E1,1.319010705E-1,-1.562776417E-1,-1.528855264E-1
9.536018240E1,1.233489588E-1,-5.487402529E-2,-2.032776177E-2
9.541018254E1,1.117425263E-1,-1.672732234E-1,-9.332188405E-3
9.546018260E1,1.771050990E-1,-2.082011998E-1,-2.255784869E-1
9.551218239E1,2.620153725E-1,1.659720764E-2,-3.844034374E-1
9.556218249E1,4.752073288E-1,3.397449255E-1,-4.705354571E-1
9.561218278E1,6.480821967E-1,2.939300239E-1,-5.688847899E-1
9.566418258E1,7.262729406E-1,4.075509608E-1,-7.930723429E-1
9.571618231E1,7.739204764E-1,3.489078879E-1,-9.928252697E-1
9.576618243E1,7.781965137E-1,2.010785043E-1,-1.114387393E0
9.581818239E1,7.629248500E-1,-1.434494853E-1,-1.092396259E0
9.587018232E1,6.548017859E-1,-3.890173137E-1,-1.029477119E0
9.592218235E1,5.918826461E-1,-4.794253707E-1,-9.262409210E-1
9.597418228E1,5.527872443E-1,-6.242004633E-1,-8.413306475E-1
9.602418237E1,5.827196240E-1,-4.409408569E-1,-8.016244173E-1
9.607618237E1,6.798472404E-1,-5.961006284E-1,-9.366255999E-1
9.612618239E1,7.824725509E-1,-7.072781324E-1,-1.051468253E0
9.617818239E1,7.696443796E-1,-2.124772668E-1,-1.213347554E0
9.623018238E1,6.932862401E-1,2.071871608E-1,-1.278099298E0
9.628218238E1,6.334214211E-1,6.134125590E-1,-1.381335616E0
9.633418227E1,6.370866299E-1,7.868982553E-1,-1.488236904E0
9.638418230E1,7.678118348E-1,9.194560647E-1,-1.458915353E0
9.643418233E1,6.914536357E-1,4.490898252E-1,-1.432648182E0
9.648618233E1,6.639647484E-1,7.722374797E-1,-1.284208059E0
9.653818228E1,6.346431971E-1,4.154922068E-1,-1.108889699E0
9.658818231E1,6.627429724E-1,-5.289054513E-1,-8.150634766E-1
9.664018228E1,5.790544152E-1,-1.206354976E0,-4.558746815E-1
9.669018234E1,2.119244188E-1,-2.710305214E0,-7.142707109E-1
9.674018236E1,-7.795099020E-1,-1.726201296E0,-1.173641324E0
9.679018246E1,-1.419085860E0,-7.274366617E-1,-1.729528666E0
9.684218226E1,-9.957561493E-1,-6.559654474E-1,-6.568493843E-1
9.689418225E1,-1.422750950E0,-7.469843626E-1,8.190010786E-1
9.694418245E1,-9.053480625E-1,-1.021873713E0,8.257206082E-1
9.699618227E1,-9.957561493E-1,-1.610136986E0,5.508312583E-1
9.704618237E1,-1.143585563E0,-9.516242146E-1,6.412393451E-1
9.709818220E1,-1.686644793E0,-1.438483715E0,1.035247445E0
9.714818229E1,-2.171671867E0,-2.250934601E0,1.467129111E0
9.720018221E1,-2.260858059E0,-1.412827492E0,2.256977797E0
9.725018228E1,-2.236423492E0,-4.103975892E-1,2.248425722E0
9.730018244E1,-2.404411316E0,-3.719130754E-1,1.955821276E0
9.735218230E1,-1.728183627E0,4.063292146E-1,7.096561790E-1
9.740418219E1,-1.121594310E0,1.585910082E0,-1.322692513E0
9.745418242E1,-6.176305413E-1,2.158290863E0,-2.958589554E0
9.750618225E1,-2.419484556E-1,3.292056561E0,-3.897489548E0
9.755818218E1,-1.898263767E-2,3.694617033E0,-4.100296974E0
9.760818261E1,1.160185859E-1,4.471026421E0,-3.736220837E0
9.766018227E1,4.576907679E-2,3.891315460E0,-3.216374874E0
9.771218210E1,-2.505005598E-1,3.253571987E0,-2.717297792E0
9.776218236E1,-8.656418324E-1,2.575511694E0,-2.100934744E0
9.781218252E1,-1.230328321E0,2.097815275E0,-1.371561646E0
9.786418208E1,-1.122816205E0,2.797866583E0,-8.566023111E-1
9.791418238E1,-1.175350547E0,2.622548342E0,-6.623470783E-1
9.796618237E1,-1.013471246E0,3.481424809E0,-7.161032557E-1
9.801621260E1,-4.245971739E-1,5.301803112E0,1.378863305E-1
9.806621276E1,-4.856836796E-1,5.226666927E0,1.293643475E0
9.811621278E1,-3.668291569E0,2.756040692E-1,6.666813850E0
9.816821258E1,-5.418420315E0,-3.777486801E0,9.052853584E0
9.821821261E1,-4.324360847E0,1.100484085E1,7.645420551E0
9.826821267E1,2.018252850E0,1.694856071E1,-2.882231474E0
9.832021256E1,3.223490000E0,-8.935022354E0,-1.917675138E0
9.837221256E1,2.222892761E0,8.986866474E-1,-6.996099353E-1
9.842221259E1,1.920514584E0,8.073806018E-2,-1.574368954E0
9.847221262E1,1.246730089E0,-3.161123753E0,-2.358109236E0
9.852421255E1,4.666552544E-1,-1.564321995E0,-2.587794542E0
9.857421257E1,4.821253940E-2,-2.614399433E0,-2.678202391E0
9.862621250E1,-6.601926684E-2,-3.580177307E0,-1.928670764E0
9.867621253E1,-8.259356022E-1,-4.123236179E0,-1.231062651E0
9.872821252E1,-1.355555773E0,-4.845890045E0,-1.174553409E-1
9.877821269E1,-1.448407292E0,-4.778083801E0,1.553871989E0
9.883021252E1,-1.223608851E0,-3.778708458E0,1.464685678E0
9.888021254E1,-5.986937284E-1,-3.911877155E0,1.804937601E0
9.893221247E1,3.477350250E-2,-3.418298006E0,1.725525141E0
9.898221250E1,1.758833826E-1,-2.552701950E0,9.674413204E-1
9.903421246E1,2.669022679E-1,-1.753079295E0,1.184909463E0
9.908421249E1,2.316706441E-2,-1.388392806E0,9.228482246E-1
9.913421259E1,-3.018132448E-1,-1.045697451E0,7.401994467E-1
9.918621252E1,-4.575839043E-1,-3.810760677E-1,5.037946105E-1
9.923821248E1,-6.414543390E-1,-3.297633827E-1,3.486348689E-1
9.929021244E1,-6.964321733E-1,-8.419555426E-2,3.327523470E-1
9.934021253E1,-6.145762205E-1,-4.501038492E-1,4.866904020E-1
9.939221253E1,-4.924032092E-1,-3.163243532E-1,5.752658844E-1
9.944421252E1,-4.245971739E-1,-5.759420991E-1,9.167395234E-1
9.949621252E1,-5.681505203E-1,-7.091107368E-1,1.258824110E0
9.954821248E1,-7.129255533E-1,-1.101897120E0,1.881906629E0
9.960021237E1,-7.501883507E-1,-8.233425021E-1,2.148243904E0
9.965021243E1,-7.306406498E-1,-1.035312772E0,2.185506582E0
9.970221239E1,-7.520209551E-1,-1.554548264E0,2.322340250E0
9.975221249E1,-7.391927242E-1,-1.239952683E0,2.645488262E0
9.980221252E1,-5.962502956E-1,-2.089666367E0,2.123198509E0
9.985421238E1,-5.929974467E-2,-2.616842747E0,1.023640871E0
9.990621238E1,8.303186297E-2,-2.075616121E0,-1.357813030E-1
9.995621257E1,-3.100140952E-3,-1.269274116E0,-3.770730495E-1
1.000082124E2,-1.118341535E-1,-1.061867028E-1,-3.080452979E-1
1.000602124E2,-1.808619201E-1,6.152451634E-1,-5.942313746E-2
1.001102126E2,-1.167210788E-1,9.261755347E-1,5.939442664E-3
1.001622125E2,-2.448042482E-2,5.266696811E-1,-8.691207319E-2
1.002142123E2,6.165157259E-2,-2.625682056E-1,-1.620484889E-1
1.002642126E2,1.129642576E-1,-3.419806957E-1,-1.932026148E-1
1.003162125E2,8.303186297E-2,-1.868209243E-1,-5.392535031E-2
1.003662125E2,4.882340506E-2,-2.371989749E-2,-6.888727192E-3
1.004162126E2,4.230241757E-3,-1.037432477E-1,3.587184101E-2
1.004682125E2,2.499966137E-2,-1.990382224E-1,9.268230200E-2
1.005202123E2,2.255620062E-2,-3.505328000E-1,8.290845901E-2
1.005702125E2,4.027128965E-2,-5.838832855E-1,1.293342263E-1
1.006202126E2,5.187772959E-2,-5.747203231E-1,6.580423564E-2
1.006722123E2,1.033889409E-2,-5.270728469E-1,-1.299738046E-2
1.007222124E2,9.586003423E-2,-6.694045067E-1,-2.399295382E-2
1.007722125E2,8.119926602E-2,-5.020273924E-1,3.892616555E-2
1.008242123E2,4.515821487E-2,3.000386953E-1,1.293342263E-1
1.008742123E2,3.171917796E-2,5.260588527E-1,1.165060475E-1
1.009242125E2,3.110831231E-2,1.919155270E-1,1.488819122E-1
1.009762122E2,1.156062540E-2,3.553403169E-2,8.168672770E-2
1.010262123E2,-6.296493858E-2,3.085907996E-1,2.487626486E-2
1.010762123E2,-7.762569934E-2,5.022350550E-1,-1.544084027E-2
1.011282123E2,3.008511383E-3,7.401853800E-2,5.328577477E-3
1.011802123E2,8.547531813E-2,-2.973875105E-1,-3.743198887E-2
1.012322123E2,7.814493775E-2,-3.309850991E-1,-1.421911083E-2
1.012842123E2,6.714936346E-2,-1.746036112E-1,-9.332188405E-3
1.013342124E2,2.683225647E-2,-1.019106507E-1,3.648270294E-2
1.013862123E2,-1.837177202E-2,-5.853921548E-2,2.182194032E-2
1.014382123E2,-5.929974467E-2,-3.593720123E-2,-5.666996818E-3
1.014882123E2,5.650503444E-4,3.064711019E-2,-1.547181159E-1
1.015402122E2,6.226243824E-2,2.383412868E-1,-2.396283895E-1
1.015902122E2,5.126686394E-2,1.613722742E-1,-2.720042467E-1
1.016402123E2,4.271475226E-2,8.045095019E-3,-1.492203325E-1
1.016902123E2,1.786780776E-3,4.530787840E-2,-9.607505053E-2
1.017422122E2,2.438879572E-2,-2.082011998E-1,-1.211205274E-1
1.017942122E2,4.882340506E-2,-3.224330246E-1,-1.849516667E-2
1.018442123E2,5.004513636E-2,-2.796724141E-1,-1.605170593E-2
1.018962122E2,2.622138895E-2,-9.152594209E-2,9.604634717E-3
1.019482122E2,5.650503444E-4,7.434229832E-3,1.647644043E-1
1.019982122E2,9.117163718E-3,1.509875655E-1,1.042887494E-1
1.020482123E2,6.062837783E-3,1.876394749E-1,-5.453621596E-2
1.021002122E2,2.316706441E-2,8.501411229E-2,8.993769065E-3
1.021522122E2,-1.592831127E-2,1.430463046E-1,1.021549944E-2
1.022042122E2,-4.932736978E-3,1.418245882E-1,5.114347115E-2
1.022542122E2,-2.081523277E-2,7.279681414E-2,-1.238651481E-2
1.023042123E2,-2.692388557E-2,4.103181884E-2,2.487626486E-2
1.023562122E2,-3.058907762E-2,-5.609575659E-2,1.427732557E-1
1.024082122E2,-7.090618461E-2,-8.297382295E-2,6.641510129E-2
1.024582125E2,-6.052147225E-2,1.904067025E-2,4.014789686E-2
1.025102122E2,-3.711006371E-3,-1.440603435E-1,-5.453621596E-2
1.025622122E2,3.538436815E-2,5.324912444E-2,-4.720583186E-2
1.026122122E2,2.927571721E-2,-2.371989749E-2,-3.437766433E-2
1.026642121E2,-2.203696407E-2,3.981008753E-2,-4.659496620E-2
1.027162121E2,-4.952589795E-2,1.008966118E-1,-3.254506737E-2
1.027662123E2,-5.380195752E-2,4.591874033E-2,-1.727343537E-2
1.028182122E2,-3.730859235E-2,1.033400744E-1,-5.056131631E-3
1.028702121E2,-2.142609842E-2,1.027292088E-1,-5.666996818E-3
1.029202124E2,-5.013676360E-2,1.308290064E-1,-1.605170593E-2
