"Time (s)","Linear Acceleration x (m/s^2)","Linear Acceleration y (m/s^2)","Linear Acceleration z (m/s^2)"
5.000033300E-2,-3.315915823E0,-1.007197380E0,-9.372773170E-1
1.000006000E-1,-2.296313047E0,-8.628888130E-1,-1.768138409E0
1.500007540E-1,-1.258561373E0,-6.489570141E-1,-2.424476147E0
2.000008610E-1,-7.956957817E-2,-4.121992588E-1,-2.963716984E0
2.500009850E-1,9.769115448E-1,-1.800818443E-1,-3.295613766E0
3.000010520E-1,2.009855747E0,4.610490799E-2,-3.492193699E0
3.600010510E-1,3.012263060E0,3.052692413E-1,-3.575425625E0
4.200009820E-1,-6.162659645E0,-1.005667567E0,-4.303853035E0
4.800009470E-1,-4.939255238E0,-9.967150688E-1,-3.514475822E0
5.400009120E-1,-6.610798836E-1,2.015120983E-1,-3.239233971E0
6.000008440E-1,-4.422369003E-1,3.751804829E-1,1.227182865E0
6.500008760E-1,1.120283127E0,-9.456350803E-1,3.659487247E0
7.000009080E-1,1.626491547E-1,-6.915979385E-1,1.962676287E0
7.600009070E-1,2.812116623E0,-2.689227581E0,5.278080940E0
8.100009390E-1,2.874097824E0,2.201819420E-2,-1.717014909E0
8.700009380E-1,-1.902987957E0,-3.789879322E0,-4.906697273E-1
9.300009360E-1,2.377955437E0,2.187237263E0,-1.847411633E0
9.900009350E-1,7.111690521E0,5.901615143E0,-9.287848473E-1
1.040000967E0,1.434805107E1,2.540050030E0,6.003060341E0
1.100000966E0,1.034094048E1,1.606086016E0,4.820948601E0
1.160000930E0,4.465080261E0,-1.826285601E0,-5.256409645E-1
1.210000963E0,-1.998841286E0,-3.621882439E0,-3.410223246E0
1.270000927E0,-3.223343611E0,-4.414774895E0,-4.452188015E0
1.330000959E0,-4.329565525E0,-4.069265842E0,-5.255652905E0
1.390000924E0,-1.494692326E0,-4.065186501E0,-5.640298367E0
1.440000956E0,-1.839109659E0,-3.188126326E0,-6.091278553E0
1.490000988E0,-2.654282331E0,-1.240851164E0,-2.201058865E0
1.550000987E0,-9.655106544E0,2.659120560E0,5.919504166E0
1.610000986E0,-2.335593987E1,4.612404823E0,9.571732521E0
1.670000951E0,-3.637590408E1,1.502500343E1,-9.286487579E0
1.730000882E0,-6.702573299E0,4.744596481E-1,-1.416535187E1
1.790000847E0,1.759806824E1,-3.867452240E1,7.361840248E0
1.850000846E0,1.570572758E1,-7.694334030E0,-3.790627289E1
1.900000878E0,1.139820957E1,-6.892313957E0,-2.411663818E1
1.950000910E0,5.331059933E0,2.937686443E-1,-5.663702965E0
2.010000909E0,3.316195488E0,6.303613663E0,-1.067241478E1
2.060000941E0,6.582350731E0,-1.870148063E0,-4.882897377E0
2.120000940E0,4.007259846E0,-3.646060467E0,-1.274767160E0
2.180000904E0,6.169673920E0,-1.588490844E0,-4.541103363E0
2.240000903E0,7.172906399E0,-1.231957674E-1,-4.245496273E0
2.290000935E0,7.647719860E0,-7.166988373E0,-1.230060101E0
2.350000934E0,7.549041271E0,-1.965931129E1,6.778545380E-1
2.410000898E0,1.868014336E1,-1.774949646E1,-5.829343796E-1
2.460000931E0,1.798546982E1,-1.116382980E1,5.489620209E0
2.520000895E0,1.482572937E1,-3.048514366E0,6.572661400E0
2.580000927E0,1.119493103E1,7.851543427E-1,5.401989937E0
2.640000892E0,1.218834400E1,2.676931858E0,3.880585670E0
2.700000891E0,1.094771671E1,2.369976044E-1,2.220248461E0
2.750000956E0,7.079771042E0,-2.471761703E0,-5.234956741E-2
2.810000955E0,2.511324883E0,-5.778286934E0,-2.221610069E0
2.860000988E0,-6.315848827E-1,-6.629900932E0,-3.219017267E0
2.920000953E0,-4.301175117E0,-4.262619495E0,-5.569390297E0
2.980000918E0,-4.055745602E0,-2.808383942E0,-4.369293213E0
3.040000883E0,-5.096562386E0,-2.741632938E0,-4.365067005E0
3.100000849E0,-5.649753571E0,-4.997887611E-1,-3.117485523E0
3.160000880E0,-4.093482971E0,8.861951828E-1,-5.033042431E-1
3.220000879E0,-1.026556969E0,-2.085399628E-2,1.452191353E0
3.270000911E0,1.279225707E0,-6.788187027E-1,1.217057943E0
3.320000944E0,5.333395958E0,-1.294175148E0,2.196490049E0
3.380000943E0,9.665333748E0,2.628212452E0,6.971525192E0
3.430478048E0,9.177609444E0,1.859495163E0,1.035528946E1
3.490478047E0,9.798809052E0,-1.816399574E0,8.456624031E0
3.540478079E0,8.128193855E0,-3.588453293E0,3.755052090E0
3.600478044E0,6.316752911E0,-4.288291454E0,3.680129051E-1
3.660478008E0,5.768783092E0,-5.288702488E0,-4.265066147E0
3.710478041E0,7.145158291E0,-5.466255665E0,-4.064279079E0
3.760478072E0,4.852590561E0,-3.530576944E0,-3.183341980E0
3.820478037E0,-4.283013344E-1,-4.480954170E0,-6.439782143E0
3.880478002E0,3.207297325E-1,-1.931924820E0,-3.089078903E0
3.940478034E0,2.175712585E-2,-2.565651417E0,-6.843528748E0
3.990478099E0,-3.324353218E0,8.552173376E-1,-1.357051277E1
4.050478064E0,-3.519145012E0,2.354476213E0,-1.105183029E1
4.110478063E0,-4.464996338E0,3.543683052E0,-1.204398727E1
4.170478028E0,1.003235245E1,5.620018959E0,8.928800583E0
4.230477993E0,6.417735577E0,6.389872551E0,9.344858170E0
4.290477924E0,6.143252373E0,8.330403328E0,4.539165497E0
4.350477923E0,7.456707954E-1,7.715883255E-1,-4.352854252E0
4.400477955E0,-2.192018270E0,-6.901865005E-1,-8.779592514E-1
4.450477987E0,-6.170098305E0,-6.463886738E0,-1.728651285E0
4.510477986E0,-8.752108574E0,-1.012528419E1,-6.549402237E0
4.560478018E0,-8.292628288E0,-1.042194462E1,-1.113777733E1
4.620478017E0,-4.265990257E0,-1.053397369E1,-1.151225090E1
4.680477982E0,-1.110772610E0,-1.131387901E1,-6.881464958E0
4.740477981E0,9.591367722E0,-1.813593483E1,3.291839600E0
4.790478013E0,6.642046928E0,-1.693775558E1,-2.611126423E0
4.850478012E0,1.230859661E1,-9.124201775E0,4.486784458E0
4.910477976E0,1.570300007E1,-1.824576378E0,1.085870934E1
4.960478009E0,1.361083126E1,7.300567627E-2,1.335147762E1
5.020477973E0,4.207136154E0,-1.828053474E0,8.718738556E0
5.080478005E0,3.964800358E0,-5.371141434E-1,4.814790249E0
5.140477970E0,2.604630947E0,-5.563917160E-1,2.098401070E0
5.190478002E0,1.230279207E0,-6.520562172E0,2.156066895E-1
5.240478034E0,5.521995544E0,-3.895326614E0,1.636892319E0
5.300478033E0,6.031812668E0,-8.317680359E-1,3.232362747E0
5.350478066E0,4.898600101E0,-7.159614563E-2,8.387584686E-1
5.410478031E0,4.126329422E0,3.084746361E0,-2.470464706E-1
5.470477996E0,3.158979893E0,3.427351713E0,-2.894535303E0
5.530477927E0,3.122156382E0,2.246692657E0,-2.864853621E0
5.580477960E0,5.087671280E-1,1.413718462E0,-3.169449091E0
5.640477891E0,9.164981842E-1,-1.959542990E0,-1.665570736E0
5.690477923E0,3.148755074E0,-1.041886806E0,1.306763649E0
5.740477956E0,4.079601288E0,1.860114574E0,3.833734512E0
5.790477988E0,2.857435703E0,2.642333984E0,2.568905830E0
5.850477986E0,1.571751595E0,1.161233664E0,-1.683137894E0
5.910477951E0,-1.055908203E-2,1.000020027E0,-3.448091269E0
5.970477983E0,-1.701991558E0,1.684597254E0,-1.634946823E0
6.020478015E0,-2.013546944E0,1.330329180E0,-2.604809046E0
6.080478014E0,-4.118600368E0,7.627506256E-1,-2.168692589E0
6.130478046E0,-5.075662613E0,2.152056932E0,-1.470711708E0
6.190477978E0,-1.579276562E0,-6.526122093E-1,-3.701651573E0
6.240478010E0,9.139323235E-1,-9.825904369E-1,-3.516165018E0
6.300477975E0,-1.726408005E-1,-3.645840406E0,-4.483619213E0
6.360477974E0,9.143762589E-1,-5.467857838E0,4.870599270E0
6.420477938E0,-5.202465057E0,1.268295288E0,7.008323073E-1
6.480477970E0,-3.878677845E0,2.252402306E-1,1.808434010E0
6.540477969E0,-6.998470783E0,2.426657677E0,-2.199379206E0
6.590478001E0,-5.233993530E-1,2.907312870E0,-3.003881693E0
6.650477966E0,2.025156021E-1,-3.025569439E0,-1.613217354E0
6.710477931E0,5.704034805E0,-7.699718475E0,4.230205536E0
6.770477896E0,6.679472923E0,-5.894315720E0,5.474991798E-1
6.830477895E0,8.764763832E0,-3.741042614E0,2.068763733E0
6.890477860E0,1.251889992E1,-5.167890549E0,3.360458612E-1
6.940477892E0,1.022170544E1,-6.169552803E0,-1.206067204E-1
6.990477925E0,6.806710243E0,-7.243992805E0,-3.071400404E0
7.040477957E0,4.063929558E0,-8.565124512E0,-5.297444344E0
7.100477922E0,4.541125298E-1,-7.176328659E0,-7.692670822E0
7.160477887E0,-1.819156289E0,-5.843615532E0,-7.920761108E0
7.220477919E0,9.002703428E-1,-4.725030899E0,-7.423565865E0
7.270477951E0,-3.556072712E-2,-1.968113422E0,-5.060806274E0
7.330477950E0,-4.683118343E0,5.106311798E0,1.770200729E0
7.380477982E0,-2.254978943E1,9.690044403E0,2.876842976E0
7.440477947E0,-3.158255386E1,1.280152416E1,-1.387719631E1
7.490477979E0,-1.300740814E1,-7.466271400E0,-1.661359406E1
7.550477977E0,2.784859657E1,-2.180955696E1,-4.992088795E0
7.610477976E0,2.273721695E1,-1.161894703E1,-5.949806213E0
7.670477907E0,7.313324928E0,-2.004876709E1,-1.067247391E1
7.720477939E0,-4.088497162E-1,5.857598305E0,-1.185466576E1
7.770478005E0,6.316671371E-1,5.900515556E0,-8.386143684E0
7.830477970E0,4.313578129E0,-8.063575029E-1,-3.224153042E0
7.890477935E0,9.121532440E-1,1.256665826E0,2.406094074E-1
7.950477934E0,4.259109497E-3,-1.060720235E-1,2.472205162E0
8.010477865E0,-9.583272934E-1,1.042977571E-1,4.063621521E0
8.070477864E0,-1.515460968E0,-4.034314156E-1,2.982618570E0
8.130477863E0,-2.384463310E0,-7.460222244E-1,1.748243809E0
8.180477895E0,-8.835916519E-1,2.420213223E-1,5.019326210E-1
8.240477894E0,-1.010770798E-1,-2.667450905E-1,5.120768547E-1
8.290477926E0,4.203877449E-1,4.022805691E-1,-1.272631645E0
8.350477891E0,8.785085678E-1,-2.703896761E-1,-1.155846119E0
8.410477856E0,1.511742830E0,1.934744120E-1,-1.460999966E0
8.470477888E0,1.695955038E0,3.017196357E-1,8.181362152E-1
8.520477920E0,1.659057617E0,6.678417325E-1,1.629082680E0
8.580477919E0,2.696045876E0,-5.482220650E-1,2.278413773E0
8.630477951E0,2.905957222E0,-9.422741532E-1,1.575905800E0
8.690477916E0,7.470402122E-1,2.751583159E-1,4.978065491E-1
8.740477981E0,1.525680065E0,1.082386971E-1,5.258932114E-1
8.800477946E0,1.606574059E0,7.697850466E-3,-5.151729584E-1
8.860477911E0,2.692389965E0,-1.521622539E-1,-2.475585938E-1
8.920477842E0,1.332340002E0,9.546760321E-1,-1.004589081E0
8.980477874E0,6.311831474E-1,1.998728991E0,-1.630935669E-1
9.040477839E0,1.042971134E0,2.096631289E0,-3.786115646E-1
9.090477871E0,8.552432060E-1,2.028865099E0,-5.055561066E-1
9.150477870E0,1.354888916E0,9.171319008E-2,9.628582001E-2
9.200477902E0,5.176572800E-1,-6.854703426E-1,2.556753159E-1
9.260477867E0,7.280631065E-1,-1.428903818E0,1.942615509E-1
9.320477866E0,6.105523109E-1,-2.387168407E0,8.620471954E-1
9.380477865E0,-1.521525383E-1,-1.545863390E0,-9.416952133E-1
9.430477897E0,1.022257805E-1,-1.450475693E0,-7.397866249E-1
9.490477862E0,-1.889319420E-1,-1.215986013E0,-1.465150833E0
9.540477894E0,1.012382507E-1,-1.206652164E0,-8.180909157E-1
9.600477859E0,-3.802080154E-1,-1.063674212E0,-1.294086933E0
9.650477924E0,-9.161615372E-2,-8.241529465E-1,-8.577308655E-1
9.710477889E0,2.339329720E-1,-7.590942383E-1,-5.652470589E-1
9.760477921E0,2.231249809E-1,-6.294820309E-1,-7.875871658E-1
9.810477954E0,4.087748528E-1,-4.030613899E-1,-3.041319847E-1
9.870477986E0,4.365262985E-1,8.691525459E-2,-3.143029213E-1
9.930477984E0,3.965477943E-1,6.214523315E-2,-8.767652512E-2
9.990477982E0,-2.586126328E-2,9.745721817E-1,3.757538795E-1
1.005047795E1,4.841461182E-1,7.738094330E-1,1.332774162E0
1.011047791E1,5.628333092E-1,4.796867371E-1,7.446379662E-1
1.017047788E1,4.459762573E-1,2.734119892E-1,2.357177734E-1
1.023047791E1,5.845689774E-2,3.345716000E-1,-3.374080658E-1
1.028047794E1,-4.100131989E-2,3.967590332E-1,-7.882056236E-1
1.034047794E1,7.105894089E-1,-2.702801228E-1,-2.230844498E-1
1.040047790E1,1.259827614E-1,-7.029991150E-1,-6.773724556E-1
1.046047787E1,-4.602894783E-1,-5.444910526E-1,-6.468310356E-1
1.052047783E1,-1.355533600E-1,-8.354105949E-1,-8.726453781E-1
1.058047780E1,-8.088207245E-2,-5.184910297E-1,-2.412018776E-1
1.064047776E1,-5.662322044E-1,7.123923302E-2,-5.562715530E-1
1.069053671E1,-2.650713921E-1,1.438763142E-1,-7.432031631E-2
1.074053674E1,1.131162643E-1,5.999426842E-1,1.137058258E0
1.079053677E1,4.520802498E-1,7.646176815E-1,1.669957638E0
1.085053674E1,1.493050575E0,9.877805710E-1,2.018292904E0
1.091053670E1,1.467165947E0,1.341136813E0,1.439620972E0
1.097053673E1,1.363577366E0,1.213509202E0,8.585948944E-1
1.102053677E1,2.087847233E0,1.461711645E0,1.859583855E0
1.108053677E1,2.180450916E0,3.585723341E-1,1.005547523E0
1.113053680E1,1.806268215E0,-3.091270328E-1,9.039287567E-1
1.119053676E1,6.939878464E-1,-5.038224459E-1,-7.010164261E-1
1.124053679E1,-2.173752785E-1,-5.198622346E-1,-2.140331268E-2
1.130053679E1,-4.361574650E-1,-1.483094931E0,-8.000297546E-1
1.136053679E1,-6.216186285E-1,-1.126896620E0,-1.870762348E0
1.142053672E1,-4.093341827E-1,-7.037360668E-1,-3.612472534E0
1.148053675E1,-1.681302190E0,-3.485727310E-2,-2.392180443E0
1.154053675E1,-1.228754520E0,-2.471729994E0,-2.966001511E0
1.159053679E1,-1.750040531E0,-7.196789980E-1,-2.243540764E0
1.165053675E1,-3.870468140E-1,-1.114506721E0,-1.025927544E0
1.171053675E1,8.590059280E-1,-6.757341623E-1,-1.946401596E0
1.176053685E1,3.384785175E0,-8.382380486E0,-6.300119400E0
1.182053685E1,-1.235743523E0,2.602736950E-1,3.367026806E0
1.187053688E1,-1.246323109E0,4.725270271E-1,-3.453044891E-1
1.193053688E1,2.328243256E-1,3.669291973E0,-1.989175558E0
1.199053688E1,-2.882327080E0,-9.500498772E-1,3.851334572E0
1.205053674E1,1.311251640E0,2.308368444E0,1.421098232E0
1.211053677E1,-2.264198303E0,1.962926388E-1,-1.395792961E-1
1.217053670E1,-3.880774975E0,-8.060977459E-1,8.661890030E-1
1.223053670E1,-1.877698421E0,-6.674382687E-1,2.142314911E-1
1.228053674E1,-1.033631802E0,5.268456936E-1,2.031391144E0
1.234053674E1,-7.034796238E0,3.727402449E0,8.906667709E0
1.239053677E1,-1.589529133E1,4.160914421E0,1.305772305E1
1.245053676E1,-2.894901657E1,8.029085159E0,-4.095259666E0
1.250053680E1,-1.562633896E1,-9.484672546E-2,-9.647255898E0
1.256053676E1,1.945915222E1,-2.158365059E1,2.444824028E1
1.261053679E1,9.528274536E0,-3.664392853E1,1.144348145E0
1.267053673E1,1.562651062E1,-5.785556316E0,-1.435336304E1
1.273053676E1,-1.162824154E0,3.752933979E0,-8.693340302E0
1.279053672E1,-7.681336403E-1,1.136595249E0,-1.129003143E1
1.284053676E1,3.604736328E0,-1.351238489E0,-3.436700821E0
1.290053672E1,5.393980980E0,-4.706250191E0,-1.934199810E0
1.296053672E1,4.722935677E0,-3.275781870E0,-4.828971386E0
1.302053668E1,4.909645557E0,-1.898790598E0,-3.435982704E0
1.308053668E1,4.596040249E0,2.559938908E0,-6.724309921E-1
1.314053665E1,5.584477425E0,2.285902500E0,6.234870911E0
1.319053671E1,1.191244984E1,1.151627302E0,5.701858521E0
1.324053675E1,1.036643982E1,6.013845921E0,7.760428429E0
1.329053678E1,9.351503372E0,7.883639812E0,5.824791908E0
1.335053674E1,1.848655224E0,1.104006672E1,2.307321548E0
1.341053667E1,-3.155336380E-1,7.140586853E0,7.249307632E-2
1.347053667E1,1.062417507E0,1.509856582E0,-6.543254852E-2
1.352053670E1,2.526198387E0,-4.629267454E-1,-5.427570343E-1
1.358053670E1,1.733975887E0,-8.526321054E-1,-2.007842064E0
1.363053674E1,3.177762032E-1,-1.924406528E0,-2.032456875E0
1.369053670E1,-1.107980251E0,-5.880448818E-1,-2.803797722E0
1.374053673E1,-2.058691502E0,-4.270401001E-1,-2.011796951E0
1.380053670E1,-1.786150932E-1,-1.288476467E0,-1.542085171E0
1.386053670E1,-3.392252922E-1,-5.885384679E-1,-1.373338699E0
1.392053666E1,8.889803886E-1,1.505236626E-1,5.812034607E-1
1.398053669E1,1.330447197E-1,1.049422503E0,1.317426682E0
1.403053672E1,-2.064843178E-1,1.542443156E0,1.453708172E0
1.409053676E1,2.927627563E-1,2.426102877E0,1.654465675E0
1.415053672E1,8.174843788E-1,2.133365631E0,8.200807571E-1
1.421053669E1,7.587313652E-1,8.766844273E-1,7.334465981E-1
1.427053665E1,4.918956757E-2,-9.498924017E-3,-5.730895996E-1
1.433053662E1,-1.171889305E-1,9.192204475E-2,-8.536944389E-1
1.439053658E1,-6.184802055E-1,2.572959661E-1,5.142211914E-3
1.444053661E1,-1.561206818E0,2.284148693E0,8.368866920E0
1.449053665E1,1.350432873E0,1.965519309E0,1.789464188E1
1.454053668E1,9.949886322E0,2.342144251E0,1.833292198E1
1.460053661E1,1.501961422E1,2.403724194E0,6.333737373E-1
1.466053658E1,6.823193550E0,-2.568361044E0,-5.351730347E0
1.472053657E1,1.593733191E0,-5.648771286E0,-8.819925308E0
1.477053660E1,-1.035550594E0,-6.041410446E0,-7.879673004E0
1.483053660E1,1.293216586E0,-7.688069344E0,-3.020218134E0
1.488053664E1,-7.298815250E-2,-6.353165627E0,-4.403372765E0
1.494053664E1,-1.414981365E0,-4.803543568E0,-3.017309666E0
1.499053670E1,-2.760663748E0,-2.520764351E0,-3.157061577E0
1.505053667E1,-2.672864199E0,-1.663427353E0,-2.503508091E0
1.511053666E1,-2.825805902E0,-1.502696514E0,-2.806959629E0
1.517053663E1,2.932503223E-1,-3.262351513E0,-2.782042503E0
1.523053666E1,2.289018631E0,-5.721038818E0,-4.309453487E0
1.529053666E1,4.366498947E0,-6.485929966E0,-4.425619602E0
1.534053669E1,3.890599489E0,-3.291821957E0,-2.960421562E0
1.540053666E1,-2.836451530E-1,9.173455238E-1,-6.235003471E-1
1.546053662E1,-2.454082489E0,5.785355568E-1,1.963488102E0
1.552053659E1,1.375599027E0,-4.167070389E-1,3.718042374E-1
1.558053658E1,3.659410477E0,-1.562256098E0,2.313051224E0
1.563053662E1,1.373006105E0,-2.226603031E0,1.197929382E-1
1.568053668E1,5.968625546E0,-2.564023495E0,1.917603970E0
1.574053668E1,1.285134792E0,8.776961267E-2,4.097159863E0
1.579053671E1,3.465739727E0,-3.349750519E0,2.192379475E0
1.585053668E1,6.511735916E-1,-1.199681520E0,9.758539200E-1
1.591053664E1,1.285628796E0,-1.538677692E0,-6.158361435E-1
1.597053661E1,-3.569083214E-1,-1.471370697E0,-5.199885368E-1
1.602053664E1,1.924037933E-3,-2.017744541E0,-3.645997047E-1
1.608053664E1,2.720610619E0,-3.923204422E0,3.323488235E-1
1.613053667E1,-1.005873680E-1,-8.769416809E-1,-6.879549026E-1
1.619053664E1,-5.404372215E-1,-4.311485291E-1,-1.254789114E0
1.624053670E1,-9.342288971E-2,-5.387029648E-1,-5.659055710E-1
1.630053680E1,-3.125567436E-1,-5.059185028E-1,1.730918884E-3
1.636053680E1,8.086781502E-1,-9.660005569E-1,6.897857189E-1
1.642053673E1,7.049081326E-1,-5.326833725E-1,-1.809988022E-1
1.648053676E1,2.283270359E-1,-4.180860519E-1,-4.418826103E-2
1.654053676E1,-2.721297741E-1,9.201812744E-2,-6.549293995E-1
1.660053666E1,2.968707085E-1,-5.995073318E-1,-3.680629730E-1
1.666053662E1,-5.240392685E-1,-1.944637299E-1,-9.343292713E-1
1.672053662E1,-1.063256741E0,-5.258388519E-1,-1.615481496E0
1.678053655E1,-5.988607407E-1,-7.886219025E-1,-1.049509287E0
1.683053655E1,-6.665127277E-1,-7.030401230E-1,-1.242591858E0
1.688053658E1,-3.667063713E-1,-6.609220505E-1,-6.320266724E-1
1.693053665E1,-2.971439362E-1,-7.013502121E-1,-4.479622841E-1
1.699053665E1,-4.424638748E-1,-3.095874786E-1,-5.428364277E-1
1.704053668E1,-1.644761562E-1,-4.123954773E-1,-3.611571789E-1
1.710053665E1,-2.151122093E-1,-1.825199127E-1,-4.924883842E-1
1.716053661E1,-9.761190414E-2,-1.801013947E-1,-3.538210392E-1
1.722053658E1,3.677978516E-1,-3.134384155E-1,2.265899181E-1
1.727053661E1,8.351759911E-1,-1.269531250E-2,1.031214476E0
1.733053661E1,7.733852863E-1,1.554870605E-2,1.959938765E0
1.738053664E1,4.363152981E-1,3.129291534E-2,2.209213018E0
1.744053660E1,4.261460304E-1,-6.969881058E-1,2.303091526E0
1.749053664E1,9.468407631E-1,-9.895820618E-1,1.771288395E0
1.755053660E1,8.706898689E-1,-1.821118832E0,1.414229870E0
1.761053660E1,5.381751060E-1,-1.331036091E0,8.257627487E-2
1.767053656E1,1.224479675E-1,-1.309380531E0,-7.857642174E-1
1.772053660E1,2.884626389E-1,-9.355874062E-1,-1.472735882E0
1.777053666E1,3.440923691E-1,-7.356009483E-1,-1.378060818E0
1.783053663E1,3.628873825E-2,2.921533585E-2,-1.701631546E0
1.789053662E1,1.943397522E-2,2.511477470E-2,-2.410973072E0
1.795053662E1,-4.640572071E-1,6.526794434E-1,-2.513352871E0
1.801046858E1,-6.577830315E-1,5.024058819E-1,-1.303076267E0
1.807046858E1,-9.861049652E-1,7.296694517E-1,-8.677291870E-2
1.813046858E1,-4.219112396E-1,1.075604677E0,1.242660522E0
1.818046865E1,-5.066242218E-1,8.828104734E-1,1.466178894E0
1.824046864E1,-6.288523674E-1,1.041652679E0,7.849454880E-1
1.829046868E1,-4.928236008E-1,7.730136514E-1,1.247165680E0
1.835046868E1,-5.044889450E-1,1.124721289E0,9.721927643E-1
1.841046864E1,-1.363301277E-1,1.319977880E0,9.792261124E-1
1.847046864E1,-1.645772457E-1,1.107090116E0,1.001551628E0
1.852046867E1,-6.173713207E-1,9.221339822E-1,2.387876511E-1
1.858046867E1,3.439850807E-1,7.443779707E-1,2.143068314E-1
1.863046870E1,3.082499504E-1,4.660118222E-1,-6.090030670E-1
1.869046863E1,-4.409389496E-1,4.469314814E-1,-1.391278267E0
1.874046866E1,-4.830727577E-1,3.994255066E-1,-1.880695343E0
1.880046863E1,-5.500693321E-1,-1.959848404E-2,-1.640576839E0
1.886046863E1,-1.235857725E0,2.717444897E-1,-7.822408676E-1
1.892046856E1,-5.287432671E-1,2.954030037E-2,-1.744871140E-1
1.898046859E1,4.938864708E-1,-1.191648245E0,-2.610270023E0
1.904046859E1,3.820660591E0,-5.011119843E0,-7.758626938E0
1.909046862E1,-5.274295807E-3,-1.966301918E0,-3.245719671E0
1.915046859E1,-2.505077362E0,8.862507343E-1,-2.321320057E0
1.921046859E1,-6.702222824E-1,3.720170736E0,4.011387825E-1
1.927046852E1,-2.531253815E0,1.072502255E0,-9.907054901E-2
1.933046852E1,-4.866709709E-1,4.902619123E-2,8.966774940E-1
1.939046848E1,3.216257572E0,-5.360865593E-1,5.274268150E0
1.944046851E1,3.819030762E0,1.243805170E0,7.090242386E0
1.949046855E1,1.307717323E0,3.696492016E-1,5.906463146E0
1.954046858E1,3.513875008E-1,-3.152769208E-1,4.483383179E0
1.959046861E1,-9.587345123E-1,-6.494761705E-1,-8.427371979E-1
1.964046868E1,-1.087358713E0,-7.008062601E-1,-2.011281967E0
1.970046857E1,-1.173770428E-1,-1.298503399E0,-4.462207794E0
1.976046861E1,-1.007804036E0,-2.171079636E0,-3.896755219E0
1.982046861E1,-1.289928675E0,-1.449840784E0,-2.786911964E0
1.988046864E1,-4.193492413E0,6.024663448E-1,1.638003349E0
1.994046860E1,-1.074344444E1,5.337884903E0,5.184055328E0
1.999046867E1,-1.963109589E1,1.252272034E1,6.536840439E0
2.005046863E1,-2.637421799E1,6.402809143E0,-1.229292393E1
2.011046863E1,1.029664421E1,-1.073907852E1,1.034961128E1
2.017046856E1,2.364421082E1,-3.989965820E1,5.122668266E0
2.023046859E1,6.442991257E0,-1.854698944E1,-1.999797440E1
2.029046856E1,-5.625032425E0,1.008794403E1,-1.015923977E1
2.034046859E1,2.656918049E0,1.776459217E0,-5.039793015E0
2.040046856E1,1.330055714E0,8.664436340E-1,-7.935426235E-1
2.046046855E1,2.045449257E0,-9.843635559E-2,1.963233948E-2
2.052046852E1,5.628210068E0,-2.890627861E0,-3.144561052E0
2.058046852E1,7.943361282E0,-2.773229599E0,-3.311459541E0
2.064046848E1,6.144812584E0,-3.824007273E0,-5.377570152E0
2.069046852E1,6.072142124E0,-3.020924091E0,-3.608519077E0
2.074046855E1,5.588571548E0,-2.575381994E0,3.789556503E0
2.079046858E1,4.760088921E0,-5.316774845E0,5.809695244E0
2.085046855E1,4.219448090E0,-4.636844158E0,9.448728561E0
2.091046851E1,4.463654995E0,-1.220905781E-1,8.709568977E0
2.097046854E1,2.384873629E0,1.241335273E0,4.778493881E0
2.102046857E1,1.397185802E0,1.863626003E0,2.995712280E0
2.108046857E1,1.809546709E0,2.255246878E0,1.234995842E0
2.113046860E1,2.692881107E0,2.418749332E0,9.440164566E-1
2.119046857E1,1.679887772E0,1.468009830E0,1.851387024E-1
2.124046860E1,1.610222340E0,9.632167816E-1,-4.488887787E-1
2.130046857E1,1.645278931E0,1.319086552E-1,-7.004146576E-1
2.136046857E1,1.089629173E0,-7.166862488E-3,-7.463769913E-1
2.142046853E1,1.128880501E0,-1.172878504E0,-1.280045033E0
2.148046856E1,1.250803947E0,-1.135737658E0,-9.784188271E-1
2.154046856E1,-1.110572815E-1,-1.185316086E0,-1.332312107E0
2.159046859E1,5.675029755E-2,-1.041116238E0,-1.354353428E0
2.165046856E1,1.659011841E-2,-7.928144932E-1,-3.741574287E-1
2.171046852E1,-3.478317261E-1,-6.230015755E-1,-1.043810844E-1
2.177046849E1,-2.414779663E-1,-6.629097462E-1,-1.456785202E-1
2.183046849E1,-7.856502533E-1,-4.758930206E-1,-2.691841125E-1
2.189046845E1,-3.336896896E-1,-4.776794910E-1,-1.423993111E-1
2.194046848E1,5.815415382E-1,-6.410179138E-1,1.012253761E-1
2.199046852E1,9.388670921E-1,-4.629356861E-1,4.787154198E-1
2.204046855E1,6.940884590E-1,-3.102922440E-1,-1.227235794E-2
2.210046851E1,6.047921181E-1,1.588962078E-1,-2.882695198E-1
2.216046848E1,3.511433601E-1,4.425792694E-1,-7.001881599E-1
2.222046851E1,9.499664307E-1,1.343522072E-1,-5.808825493E-1
2.227046854E1,7.630920410E-1,1.122043133E-1,-4.973535538E-1
2.233046854E1,7.740654945E-1,-1.644093990E-1,-3.277778625E-1
2.238046857E1,5.893163681E-1,-4.636597633E-2,-6.432056427E-1
2.244046851E1,5.822162628E-1,2.001469135E-1,-1.907515526E-1
2.249046854E1,8.820867538E-2,3.258986473E-1,-4.850683212E-1
2.255046850E1,4.459857941E-1,-1.367187500E-1,4.315423965E-2
2.261046850E1,-1.973872185E-1,-3.998341560E-1,-4.961147308E-1
2.267046843E1,2.861499786E-2,-2.980089188E-1,-3.528532982E-1
2.272046846E1,-1.865863800E-2,-2.360439301E-1,-3.508563042E-1
2.277046856E1,2.630615234E-2,-2.802484035E-1,-3.396887779E-1
2.283046853E1,-2.088093758E-1,3.820633888E-2,-2.540183067E-1
2.289046853E1,-3.593301773E-2,1.129233837E-1,-4.807844162E-1
2.295046852E1,2.558803558E-1,5.733346939E-2,8.214235306E-2
2.301046849E1,4.269509315E-1,6.851601601E-2,3.354754448E-1
2.307046846E1,2.208547592E-1,2.283067703E-1,5.970931053E-1
2.312046849E1,-3.065009117E-1,4.153277874E-1,8.407778740E-1
2.317046852E1,2.648034096E-1,2.439050674E-1,8.736844063E-1
2.323046852E1,6.561131477E-1,-1.029226780E-1,6.509127617E-1
2.328046855E1,9.655532837E-1,1.530799866E-1,6.297979355E-1
2.334046852E1,6.405572891E-1,2.714041471E-1,5.681762695E-1
2.340046848E1,1.264909744E0,7.208861709E-1,1.395175934E0
2.346046845E1,1.017938614E0,6.272578239E-1,1.551547527E0
2.351046848E1,6.299753189E-1,5.671888590E-1,1.572667122E0
2.357046848E1,7.290472984E-1,5.651938915E-1,4.948368073E-1
2.362046851E1,2.146515846E-1,-6.550383568E-2,-6.078372002E-1
2.368046851E1,1.144084930E0,-1.922272444E-1,3.075523376E-1
2.374046854E1,1.284980774E0,2.361309528E-1,6.526317596E-1
2.380046850E1,-1.111269712E0,-1.426193714E-1,-2.153653622E0
2.386046850E1,-7.596588135E-2,-7.794258595E-1,3.291325569E-1
2.391046854E1,-2.367745399E0,-1.328148365E0,-7.688016891E-1
2.396046857E1,2.277708054E-1,-2.365609646E0,-1.458959579E0
2.401046863E1,7.335705757E-1,-1.313094616E0,-2.701086044E0
2.407046863E1,6.510949135E-1,-2.262958050E0,-4.757042885E0
2.413046856E1,3.376322746E0,-3.378700256E0,-6.970640182E0
2.419046853E1,-6.628257751E0,-6.982989788E0,-8.751320839E-1
2.425046849E1,-2.722030640E0,6.667143822E0,-1.333877373E1
2.431046842E1,-7.444620132E-2,1.183964968E0,7.620545864E0
2.437046842E1,-7.224523544E0,-4.032680988E-1,1.417547226E0
2.442046849E1,1.039974689E0,-1.118176222E0,-1.112017155E0
2.448046849E1,8.290691376E-1,-7.410202980E0,2.247222424E0
2.453046852E1,5.254092693E0,-6.453861594E-1,1.277516174E1
2.459046848E1,6.448468685E0,-2.108582973E0,1.147599316E1
2.464046852E1,4.648618698E0,-2.379946709E0,7.662752628E0
2.470046845E1,-8.277688026E-1,9.222880602E-1,2.026666641E0
2.476046845E1,1.466256618E0,-1.140524507E0,-4.594941139E0
2.482046845E1,-5.668611526E-1,-1.430738568E0,-4.755364418E0
2.487046848E1,1.867822409E-1,-1.942571282E0,-4.738475323E0
2.493046848E1,-1.496761084E0,-1.144703150E0,-4.084147453E0
2.499046851E1,1.613432527E0,-1.822959185E0,-3.813163757E0
2.505046847E1,2.688533068E-1,-2.286202431E0,-5.437695503E0
2.511046847E1,-2.924487591E0,7.750577927E-1,-3.854036331E-1
2.517046844E1,-1.005490303E1,7.248016834E0,3.056097031E0
2.523046847E1,-2.989886856E1,1.897833061E1,3.552086353E0
2.529040996E1,-2.757473373E1,1.017431068E1,-1.315770149E-1
2.534040999E1,-2.134441853E0,7.123022079E-1,-1.220066547E0
2.540040996E1,4.826475906E1,-8.068804169E1,4.556199646E1
2.546040992E1,1.066016197E0,-1.435399628E1,-2.101502991E1
2.552040989E1,3.057970285E0,-1.727197647E0,-8.850700378E0
2.558040989E1,4.744679451E0,2.572657585E0,-1.108353710E1
2.564040985E1,6.432175636E0,-5.054821968E-1,-1.329714417E0
2.569040988E1,2.985343933E0,1.177549362E-2,-1.274615645E0
2.574040992E1,5.193247795E0,-3.802031517E0,-2.471533418E-1
2.579040995E1,6.658737183E0,-2.979324818E0,2.003884315E0
2.585040995E1,4.082320690E0,-4.086005688E-1,-1.224045753E-1
2.591040991E1,4.464405060E0,3.774929047E-1,2.023293972E0
2.597040994E1,4.848821163E0,5.778452396E0,4.805139542E0
2.602040998E1,2.126808167E0,1.628395319E0,6.249248505E0
2.608040998E1,3.633385181E0,1.945994139E0,8.119522095E0
2.613041001E1,3.274450302E0,1.997244596E0,4.986697197E0
2.619040994E1,1.839988232E0,2.376671553E0,2.789724350E0
2.624041004E1,1.622060299E0,1.300367355E0,1.398493290E0
2.630041000E1,1.579742908E0,7.005653381E-1,-1.079163551E-1
2.636041000E1,1.297637463E0,3.088355064E-2,1.827630997E-1
2.642040993E1,3.037738800E-1,-8.261084557E-2,-2.073205948E0
2.648040997E1,1.313749313E0,-1.930630207E-1,-1.272648335E0
2.654040990E1,1.689174175E0,-6.702684164E-1,-1.303766727E0
2.659040993E1,1.056429863E0,-7.165492773E-1,-9.597554207E-1
2.665040989E1,7.507352829E-1,-9.653619528E-1,-1.088973045E0
2.671040989E1,-2.907323837E-2,-8.429636955E-1,-8.434524536E-1
2.677040986E1,1.408815384E-1,-5.321834087E-1,-5.467886925E-1
2.683040986E1,3.018631935E-1,-6.333596706E-1,-2.223587036E-1
2.689040982E1,-2.295274734E-1,-4.394370317E-1,-3.993434906E-1
2.694040985E1,-1.648378372E-1,-3.356388807E-1,7.481813431E-2
2.699040989E1,2.368273735E-1,-1.642092466E-1,5.032367706E-1
2.704040992E1,3.015832901E-1,-6.844162941E-3,3.466024399E-1
2.710040988E1,5.232110023E-1,-6.216526031E-2,3.489618301E-1
2.716040985E1,1.682229042E-1,6.579041481E-2,1.755847931E-1
2.722040988E1,6.034803391E-2,-3.539681435E-2,-8.110237122E-2
2.727040991E1,2.340574265E-1,-1.812510490E-1,-1.138958931E-1
2.733040991E1,-2.061524391E-1,-2.053276300E-1,-5.124154091E-1
2.738040994E1,1.520409584E-1,-2.553617954E-1,-1.963481903E-1
2.744040991E1,5.641975403E-1,-4.499869347E-1,-1.368837357E-1
2.749040994E1,1.738629341E-1,-4.382654428E-1,-4.252958298E-2
2.755040991E1,3.077507019E-2,-3.829991817E-1,-1.516222954E-1
2.761040990E1,-7.686185837E-2,-2.476400137E-1,1.528835297E-2
2.767040984E1,8.796930313E-2,-2.513613701E-1,4.112863541E-2
2.773040987E1,2.602849007E-1,-3.282898664E-1,-1.862964630E-1
2.779040987E1,-9.235858917E-3,-1.211340427E-1,-3.007984161E-1
2.784040990E1,-8.005046844E-2,-9.351611137E-2,-1.327590942E-1
2.790040986E1,-1.833333969E-1,4.240095615E-2,-2.220463753E-1
2.796040986E1,2.351455688E-1,3.653383255E-2,1.369862556E-1
2.802040983E1,9.410667419E-2,3.650009632E-2,-1.620335579E-1
2.808040983E1,1.793832779E-1,1.128125191E-1,-8.287429810E-3
2.814040979E1,-2.428388596E-1,2.388991714E-1,-2.889089584E-1
2.819040986E1,2.719211578E-1,2.071996927E-1,1.831030846E-1
2.824040989E1,6.936216354E-2,3.048703074E-1,3.403911591E-1
2.829040992E1,-5.989403725E-1,2.451068163E-2,7.248921394E-1
2.835040989E1,-5.197415352E-1,-2.631215453E-1,5.627226830E-1
2.841040985E1,-2.068133354E-1,-1.459484398E-1,4.509267807E-1
2.847040985E1,6.644473076E-1,-2.033130825E-1,-2.097487450E-1
2.852040988E1,1.044182777E-1,-2.251857221E-1,-6.945643425E-1
2.858040988E1,2.776002884E-2,8.496046066E-3,5.582809448E-3
2.863040991E1,-6.067037582E-2,3.461152315E-1,4.134273529E-1
2.869040988E1,6.980419159E-3,2.790253162E-1,9.240078926E-1
2.874040994E1,2.159042358E-1,7.362318635E-1,1.599035263E0
2.880040991E1,1.680402756E-1,6.295847893E-2,1.283618927E0
2.886040991E1,5.375361443E-1,3.688273430E-1,1.205570221E0
2.892040987E1,7.014904022E-1,4.545662403E-1,5.636739731E-1
2.898040990E1,6.338500977E-2,1.236968040E-1,-4.299077988E-1
2.904040987E1,-1.504421234E-3,5.876767635E-1,-1.560232162E0
2.909040990E1,4.818863869E-1,3.032655716E-1,-4.064340591E-1
2.915040986E1,5.230202675E-1,9.500010014E-1,-6.094131470E-1
2.921040983E1,-8.861995935E-1,1.171377420E0,-1.524954796E0
2.927040979E1,-2.767989635E-1,2.624537945E-1,-9.807925224E-1
2.933040979E1,1.210358143E-1,-5.732769966E-1,-3.491134644E-1
2.939040976E1,4.410188198E-1,-4.643616676E-1,-2.689428329E-1
2.944040979E1,-4.565744400E-1,-6.051998138E-1,-7.528858185E-1
2.949040982E1,-6.863319874E-1,2.714734077E-1,9.256124496E-1
2.954040986E1,-2.001461983E-1,-5.647706985E-2,2.567481995E-2
2.960040982E1,-4.890234470E-1,-7.691693306E-1,-7.481465340E-1
2.966040979E1,-5.143682957E-1,-6.356000900E-1,-9.158716202E-1
2.972040982E1,-9.199097157E-1,-8.201377392E-1,-9.784693718E-1
2.977040985E1,-1.290633202E0,-1.882525802E0,-1.079940319E0
2.983040985E1,2.890906334E0,-3.222059965E0,-3.902193069E0
2.988040988E1,9.858436584E-1,-8.762908936E0,-7.257517338E0
2.994040984E1,-5.300415993E0,1.354303932E1,-3.170641184E0
2.999040991E1,-1.789456367E0,-2.105078697E-1,-3.948880434E0
3.005040991E1,-2.670976162E0,8.780584335E-1,-1.590275288E0
3.011040991E1,-1.995172501E0,1.987177849E0,-1.832153797E0
3.017040984E1,5.686326027E-1,1.820281506E0,3.276009083E0
3.022040987E1,3.180328369E0,1.222156525E0,7.939952374E0
3.027040990E1,7.362532616E-1,1.350183964E0,9.009265900E0
3.033040987E1,-1.028135300E0,-1.095416069E0,1.361734390E0
3.039040983E1,-6.288137436E-1,-2.231037617E0,-3.230009556E0
3.045040983E1,5.308825970E-1,-3.139312744E0,-3.408799648E0
3.051040976E1,-3.248977661E-1,-4.524291515E0,-2.566000938E0
3.057040976E1,-1.258375883E0,-2.464555740E0,-9.879431725E-1
3.063040979E1,-3.873687744E0,3.655107975E0,2.530420780E0
3.068040982E1,-1.172747231E1,6.265688419E0,8.257788658E0
3.074040982E1,-2.881370544E1,1.383395672E1,4.271967888E0
3.079040986E1,-2.596517944E1,8.573259354E0,-6.722025871E-1
3.085040986E1,4.948878288E0,-7.320445061E0,3.335060120E0
3.091040982E1,2.319010162E1,-6.804603577E1,7.613334656E0
3.097040982E1,6.432152748E0,-1.061327171E1,-2.220722961E1
3.102040985E1,4.511689186E0,1.082031727E0,-1.387706566E1
3.108040985E1,5.436167240E0,5.370889664E0,-5.808114052E0
3.114040985E1,3.371632099E0,1.837703228E0,-1.134207129E0
3.120040981E1,4.036322594E0,-1.442476273E0,1.244567871E0
3.125040984E1,6.029402733E0,-4.092030525E0,-4.940087795E-1
3.131040978E1,7.764310837E0,-3.635719776E0,-6.389286518E-1
3.136040981E1,7.182036877E0,-4.540760040E0,-2.794621468E0
3.142040974E1,6.326185226E0,-2.940881491E0,-2.761479378E0
3.148040977E1,4.811631680E0,2.210752726E0,7.927904129E-1
3.154040977E1,4.407487869E0,3.116530418E0,8.310956955E0
3.159040980E1,7.844411850E0,-2.200944901E0,9.938341141E0
3.165040977E1,8.611825943E0,4.477145195E0,7.447183609E0
3.171040977E1,4.583785534E0,5.854475021E0,4.284037590E0
3.177040973E1,2.630261898E0,5.246217728E0,7.669467926E-1
3.183040973E1,2.120394707E0,4.439881802E0,-2.326021194E-1
3.188040976E1,1.984351158E0,2.482748985E0,-5.229506493E-1
3.193040980E1,7.979221344E-1,6.415793896E-1,-1.543678761E0
3.199040979E1,1.825322151E0,-4.022864103E-1,-1.422556877E0
3.204040983E1,1.874482632E0,-1.442544460E0,-1.758997917E0
3.210040979E1,8.846230507E-1,-8.927683234E-1,-2.060187340E0
3.216040972E1,6.030769348E-1,-1.135125637E0,-1.286465168E0
3.222040975E1,-8.714246750E-2,-1.025966525E0,-1.514929295E0
3.227040979E1,-1.240100861E-1,-7.347177267E-1,-3.986859322E-1
3.233040978E1,-7.940969467E-1,-6.728066504E-2,-5.480351448E-1
3.238040982E1,1.235222816E0,2.058568597E-2,-3.644270897E-1
3.244040978E1,7.628078461E-1,4.460979104E-1,2.123737335E-1
3.249040985E1,-4.867172241E-2,4.685286880E-1,6.355476379E-2
3.255040981E1,6.195011139E-1,3.723559082E-1,1.412110329E-1
3.261040981E1,2.349715233E-1,3.886297345E-1,-3.224992752E-2
3.267040246E1,4.337868690E-1,3.657701612E-1,-1.167140007E-1
3.273040249E1,5.228605270E-1,3.210142255E-1,-4.230942726E-1
3.279040246E1,3.261523247E-1,1.939362586E-1,-6.009840965E-1
3.284040249E1,1.613945961E-1,3.227097988E-1,-6.969170570E-1
3.290040245E1,9.636182785E-1,6.039661169E-2,-1.902818680E-1
3.296040245E1,2.236461639E-1,1.497274637E-2,-4.915747643E-1
3.302040242E1,2.734394073E-1,-2.300828099E-1,-2.275595665E-1
3.308040242E1,2.070107460E-1,-2.290886045E-1,-3.265810013E-2
3.314040238E1,-2.334299088E-1,-1.978654861E-1,-1.177082062E-1
3.319040245E1,7.403092384E-1,-3.970440030E-1,9.211196899E-1
3.324040248E1,-3.395037651E-1,-4.061692953E-2,2.568235397E-1
3.329040251E1,9.181981087E-1,-1.735596061E-1,1.221130371E0
3.335040248E1,1.237587929E0,1.292746782E0,3.062660694E0
3.341040244E1,2.801885605E0,1.217020154E0,2.097906590E0
3.347040244E1,2.589748859E0,8.096301556E-1,3.488701344E0
3.352040247E1,1.091782570E0,3.425803185E-1,-3.382587433E-2
3.358040247E1,-6.398186684E-1,-1.571013212E0,-2.861198902E0
3.363040250E1,-3.584074974E-1,-4.798860550E-1,-3.117866993E0
3.369040247E1,-1.163954258E0,-9.670574665E-1,-5.553493977E0
3.374040250E1,-1.214328289E0,-3.231231451E0,-3.149221897E0
3.380040250E1,2.369156837E0,-1.555645943E0,-3.285740137E0
3.386040250E1,3.429699898E0,-3.454575062E0,5.490367889E0
3.392040243E1,1.410809517E0,6.141983509E0,-1.813144684E-1
3.397040246E1,-5.006460190E0,7.765674591E-1,1.464729309E-1
3.402040256E1,-2.302338600E0,-1.381464005E-1,-6.768531799E-1
3.408040252E1,-1.580551147E0,-6.653828621E-1,-1.667372942E0
3.414040249E1,-1.152697086E0,-2.708957195E-1,-1.318366766E0
3.420040249E1,-4.608535767E-1,8.924810886E-1,3.166821957E0
3.426040242E1,8.045502663E0,1.389086723E0,1.076222801E1
3.432040238E1,4.223118305E0,1.311874866E0,6.238523483E0
3.438040238E1,3.819440365E0,-1.312985659E0,1.458374500E0
3.443040242E1,9.931650162E-1,-3.061470270E0,-1.623140812E0
3.449040242E1,-3.048555851E-1,-4.097584248E0,-3.210235596E0
3.454040245E1,-8.712680340E-1,-4.534643650E0,-4.263674736E0
3.460040241E1,-1.089735627E-1,-4.314167500E0,-5.695165634E0
3.466040238E1,7.066020370E-2,-3.966574669E0,-5.388437271E0
3.472040241E1,-3.577604294E-1,-1.286247492E0,-3.151744366E0
3.477040244E1,-3.439862490E0,1.615236759E0,3.267022133E0
3.483040244E1,-1.076516533E1,6.743160248E0,1.031007385E1
3.488040247E1,-1.988012314E1,1.023857689E1,1.124378490E1
3.494040244E1,-3.314250183E1,1.511695576E1,-7.644358635E0
3.499040247E1,-1.415976906E1,-5.027389526E-2,-1.510064507E1
3.505040243E1,2.581883812E1,-3.637114716E1,-1.183042526E0
3.511040243E1,9.862450600E0,-2.875582933E0,-8.596115112E0
3.517040240E1,7.978584766E0,-7.883159637E0,-2.071620750E1
3.523040240E1,1.927402020E0,5.001097679E0,-1.331154060E1
3.529040240E1,7.592534542E0,-2.933440924E0,-1.261940241E0
3.534040243E1,6.574677467E0,-3.385089159E0,-4.696453094E0
3.540040239E1,7.170366287E0,-4.025253296E0,-4.403253555E0
3.546040239E1,5.837423325E0,-2.329524040E0,-2.496675968E0
3.552040239E1,6.530790329E0,4.663949966E0,2.292037010E0
3.558040239E1,4.791691780E0,3.810251713E0,6.391828537E0
3.563040242E1,8.626012802E0,-2.374559402E0,1.056749439E1
3.568040245E1,8.305781364E0,3.640954971E0,8.108732224E0
3.574040242E1,4.499309063E0,4.840001583E0,7.670135021E0
3.579040245E1,3.434837818E0,5.231898785E0,5.362340450E0
3.585040242E1,3.549889088E0,6.089265347E0,1.632145405E0
3.591040235E1,2.797357559E0,3.901744366E0,-6.449131966E-1
3.597040238E1,1.633833408E0,1.063780069E0,-1.491749763E0
3.602040241E1,1.053615093E0,-3.539069295E-1,-2.456352234E0
3.608040241E1,1.584921837E0,-8.132600188E-1,-1.980309963E0
3.613040244E1,7.305440903E-1,-1.247135282E0,-1.739650726E0
3.619040241E1,-3.049807549E-1,-1.676683068E0,-1.308107853E0
3.624040244E1,-1.199437141E0,-9.366738796E-1,-1.523482323E0
3.630040240E1,-8.785881996E-1,-4.865300059E-1,-6.328678131E-2
3.636040240E1,-1.349977016E0,1.637935638E-3,4.627275467E-2
3.642040233E1,-2.368092537E-1,2.821444869E-1,1.065562248E0
3.647040237E1,6.277179718E-1,8.543953896E-1,7.109208107E-1
3.652040243E1,5.926051140E-1,9.230664968E-1,4.217491150E-1
3.658040240E1,3.316211700E-1,1.136586308E0,1.333804131E-1
3.664040240E1,8.729410172E-2,1.190268755E0,-1.604876518E-1
3.670040239E1,7.819700241E-1,7.655930519E-1,-5.448293686E-2
3.676040232E1,5.098028183E-1,2.877146304E-1,-1.005330086E-1
3.682040232E1,-4.578280449E-1,6.143772602E-2,-4.035153389E-1
3.687040236E1,-2.230567932E-1,4.337638617E-2,-4.720149040E-1
3.692040239E1,-9.534263611E-2,2.301416397E-1,-3.877243996E-1
3.698040239E1,3.952531815E-1,-3.368437290E-3,2.033472061E-2
3.703040242E1,2.915401459E-1,-2.776604891E-2,5.302906036E-2
3.709040239E1,3.444232941E-1,-2.198418975E-1,3.538913727E-1
3.715040235E1,-3.990273476E-1,-3.046197891E-1,1.452589035E-1
3.721040232E1,-9.624862671E-2,-3.202154040E-1,1.800785065E-1
3.726040235E1,6.150627136E-2,-1.348348856E-1,-1.045799255E-1
3.732040235E1,-4.099941254E-2,-7.571732998E-2,-1.931238174E-1
3.737040238E1,7.752037048E-2,-5.498117208E-2,-1.964945793E-1
3.743040238E1,-7.130813599E-2,1.940140724E-1,-1.269583702E-1
3.749040241E1,-8.436393738E-2,7.951697707E-2,1.953125000E-3
3.755040237E1,2.884969711E-1,3.108079135E-1,1.663298607E-1
3.761040237E1,3.192396164E-1,2.354601324E-1,-3.390073776E-2
3.767040230E1,1.136112213E-1,3.488366604E-1,-2.337880135E-1
3.773040234E1,-4.481697083E-2,3.630273938E-1,-1.365060806E-1
3.779040233E1,3.440637589E-1,6.468468904E-2,8.664512634E-2
3.784040237E1,2.617883682E-1,-3.528457880E-2,-1.190280914E-1
3.790040233E1,1.691398621E-1,-1.294215322E-1,-2.923488617E-3
3.796040233E1,-1.403083801E-1,-1.317418814E-1,-7.561588287E-2
3.802040230E1,1.614694595E-1,-2.086866498E-1,2.413368225E-2
3.808040229E1,8.106231689E-4,-1.022410989E-1,-3.669834137E-2
3.814040226E1,2.026090622E-1,-1.398992836E-1,1.316270828E-1
3.819040229E1,-6.163883209E-2,-1.158124208E-1,4.336690903E-2
3.824040232E1,1.073493958E-1,-1.398697197E-1,3.116378784E-1
3.829040236E1,1.830291748E-2,7.758390903E-2,1.379971504E-1
3.835040232E1,-3.384108543E-1,5.182892084E-2,-6.738185883E-3
3.841040229E1,-6.317434311E-1,-2.218709290E-1,6.156606674E-1
3.847040232E1,-3.133015633E-1,-2.809937596E-1,-4.103665352E-1
3.852040235E1,-8.405876160E-2,-1.461734176E-1,-1.492896080E-1
3.858040235E1,4.776253700E-1,-3.085856140E-1,-4.013566971E-1
3.863040238E1,-4.065480232E-1,-1.052204370E-1,-4.791665077E-1
3.869040235E1,1.974391937E-2,1.684969068E-1,-4.322681427E-1
3.874040238E1,-2.828392982E-1,8.630970716E-1,7.370486259E-1
3.880040234E1,-2.549452782E-1,2.091095686E0,1.238157749E0
3.886040234E1,7.021136284E-1,1.772827268E0,1.194769382E0
3.892040227E1,8.588809967E-1,9.306535125E-1,1.291093826E0
3.898040231E1,8.440451622E-1,1.383534968E-1,5.642561913E-1
3.904040230E1,1.811860085E0,-5.008184314E-1,-6.057071686E-2
3.909040237E1,4.166545868E-1,-4.409560561E-1,-8.942165375E-1
3.915040234E1,1.331761837E0,-5.584615469E-1,3.335494995E-1
3.920040237E1,3.860301971E-1,5.530834198E-2,2.521743774E-1
3.926040233E1,1.050345898E0,3.062043190E-1,4.052410126E-1
3.932040233E1,1.054486752E0,2.692155838E-1,6.071100235E-1
3.938040233E1,6.662960052E-1,5.070614815E-1,1.017890453E0
3.943040236E1,-6.281981468E-1,-1.480705738E-1,-4.315538406E-1
3.949040233E1,8.336925507E-2,-9.780464172E-1,-2.995710373E-1
3.954040236E1,-2.092361450E-3,-6.900730133E-1,-4.468598366E-1
3.960040232E1,-1.742267609E-2,-7.623789310E-1,-1.945199966E-1
3.966040229E1,-9.501609802E-1,-4.938673973E-1,-2.760853052E0
3.972040229E1,-1.364983559E0,-1.590754509E0,-2.318502665E0
3.977040232E1,-2.028635502E0,-2.685118437E0,-2.676612139E0
3.983040232E1,8.844614029E-2,-5.207246304E0,-2.450903177E0
3.988040235E1,4.054608345E0,-6.457058907E0,-7.534193039E0
3.994036122E1,-2.965001106E0,2.008504868E0,4.714757919E0
3.999036125E1,-5.038261414E-2,2.352653503E0,3.993338585E0
4.005036121E1,-1.237378120E0,2.341729641E0,1.535997868E0
4.011036121E1,1.743801594E0,1.852445126E0,2.139011860E0
4.017036118E1,4.827607155E0,5.489505768E0,2.206473351E-1
4.023036121E1,-3.023080826E-1,3.451018333E0,1.119780540E-1
4.029036121E1,-1.042803288E0,1.885661125E0,-1.769892216E0
4.034036124E1,-1.229684114E0,9.461264610E-1,-3.875893354E0
4.040036120E1,-3.003560543E0,-1.349423885E0,-2.827420235E0
4.046036117E1,-7.603892684E-1,-1.617427349E0,-4.054023743E0
4.052036113E1,-1.142171860E0,-1.661797047E0,-3.425495625E0
4.058036113E1,-1.486006498E0,-4.748091698E-1,-1.727537155E0
4.063036116E1,-3.247235298E0,3.723705769E0,3.220791817E0
4.068036123E1,-1.215872192E1,7.971093655E0,1.010710526E1
4.074036123E1,-2.648628426E1,1.383718491E1,7.100692272E0
4.079036126E1,-3.022419357E1,7.065747738E0,-3.888698578E0
4.085036122E1,3.362717867E0,-1.065877151E1,1.136877155E1
4.091036119E1,3.405399704E1,-4.609501648E1,1.629246521E1
4.097036115E1,4.064381599E0,-1.826374435E1,-2.471077156E1
4.102036119E1,5.940593719E0,2.078199387E-2,-1.109505463E1
4.108036118E1,7.446838379E0,2.581909657E0,-8.111919403E0
4.113036122E1,3.993057251E0,-2.802810192E0,-4.536855221E0
4.119036118E1,6.905051708E0,-4.674525738E0,-1.733642697E0
4.124036128E1,5.924027920E0,-5.074861526E0,-1.677082777E0
4.130036125E1,4.973248482E0,-3.327789545E0,7.771301270E-1
4.136036124E1,2.930650949E0,6.587578058E-1,2.539823532E0
4.142036118E1,2.639365435E0,-2.082768440E0,2.710453033E0
4.148036121E1,8.077935219E0,9.852188826E-2,7.092982292E0
4.154036114E1,4.477941513E0,1.497598290E0,7.764910698E0
4.159036121E1,3.341991425E0,4.032107592E-1,4.701165199E0
4.165036117E1,4.741847038E0,1.381542087E0,3.311098099E0
4.171036117E1,2.950825214E0,4.123491764E0,1.913522720E0
4.177036114E1,2.283686638E0,4.568552017E0,1.396070957E0
4.183036114E1,2.601841450E0,2.107239723E0,1.430609703E0
4.189036107E1,2.105325699E0,-3.316924572E-1,3.002376556E-1
4.194036110E1,2.083324432E0,-1.449627757E0,-5.150108337E-1
4.199036113E1,1.195195198E0,-1.962587953E0,-1.364098072E0
4.204036116E1,1.030868053E0,-2.306027651E0,-1.947361946E0
4.210036116E1,-7.439470291E-2,-2.665803909E0,-2.597835541E0
4.216036113E1,-2.790470123E-1,-1.452347755E0,-2.687892437E0
4.222036116E1,-2.201290131E-1,-9.353819489E-1,-2.131093025E0
4.227036119E1,6.849765778E-3,-3.424534798E-1,-1.623608112E0
4.233036119E1,4.147629738E-1,-1.238020658E-1,-5.656757355E-1
4.239036119E1,7.991824150E-1,3.182185888E-1,3.080010414E-1
4.245036115E1,4.244875908E-1,9.501936436E-1,-2.480554581E-1
4.250036118E1,5.376996994E-1,5.572258234E-1,4.983077049E-1
4.256036112E1,6.624116898E-1,9.955834150E-1,2.285003662E-1
4.261036115E1,7.012672424E-1,9.015183449E-1,2.691521645E-1
4.267036108E1,7.799501419E-1,8.259218931E-1,-1.502861977E-1
4.273036111E1,3.820528984E-1,9.855706692E-1,-3.852777481E-1
4.279036111E1,7.787294388E-1,3.823144436E-1,-3.964943886E-1
4.284036114E1,9.983115196E-1,-2.427701950E-1,-2.094473839E-1
4.290036111E1,4.892902374E-1,-1.683933735E-1,-4.944005013E-1
4.296036111E1,3.033766747E-1,-3.886544704E-1,-5.400810242E-1
4.302036107E1,-1.064529419E-1,-4.966175556E-1,-4.756493568E-1
4.308036107E1,2.114810944E-1,-6.733028889E-1,-4.779791832E-1
4.314036104E1,2.227563858E-1,-5.709841251E-1,-1.796927452E-1
4.319036110E1,-4.653081894E-1,-2.428627014E-1,-1.241374016E-1
4.324036113E1,-7.404789925E-1,-1.974561214E-1,2.402782440E-3
4.329036117E1,-1.352195740E-1,-2.431838512E-1,1.394085884E-1
4.335036116E1,5.031819344E-1,-2.140929699E-1,1.671400070E-1
4.341036113E1,1.215953827E-1,-5.732679367E-2,7.744550705E-2
4.347036113E1,8.827209473E-2,1.377155781E-1,5.559301376E-2
4.352036116E1,6.793546677E-2,1.946239471E-1,-3.014922142E-1
4.358036116E1,2.338533401E-1,1.665284634E-1,-1.596002579E-1
4.363036119E1,4.690647125E-1,-4.753828049E-3,-2.239303589E-1
4.369036112E1,2.558717728E-1,6.872606277E-2,-4.243121147E-1
4.374036115E1,1.312866211E-1,-8.366417885E-2,-3.363304138E-1
4.380036112E1,1.063680649E-1,-7.216024399E-2,-3.863234520E-1
4.386036112E1,2.317152023E-1,-8.668899536E-2,-1.003503799E-1
4.392036105E1,-5.031490326E-2,-1.199684143E-1,-4.352998734E-2
4.398036108E1,1.563777924E-1,-9.445190430E-2,2.009816170E-1
4.404036108E1,-1.599807739E-1,-1.908774376E-1,4.293823242E-2
4.409036111E1,1.347417831E-1,-1.735527515E-1,3.359141350E-1
4.415036108E1,-2.341742516E-1,-9.793376923E-2,7.742834091E-2
4.421036108E1,-1.495056152E-1,-1.016714573E-1,5.041503906E-2
4.427036104E1,-4.195213318E-2,4.680752754E-2,-3.268098831E-2
4.433036104E1,4.906940460E-2,5.743718147E-2,2.798399925E-1
4.439036100E1,-1.515812874E-1,6.843972206E-2,1.498360634E-1
4.444036104E1,-5.747795105E-3,1.769334078E-1,2.431020737E-1
4.449036107E1,-6.727504730E-2,3.027124405E-1,-1.992111206E-1
4.454036110E1,6.943058968E-1,1.799561977E-1,-3.758854866E-1
4.460036107E1,5.829892159E-1,2.686336040E-1,-6.266770363E-1
4.466036103E1,3.407917023E-1,4.766681194E-1,-5.352730751E-1
4.472036106E1,-1.629862785E-1,2.249879837E-1,-1.440634727E-1
4.477036110E1,4.073033333E-1,2.132296562E-1,6.946754456E-2
4.483036110E1,-1.608309746E-1,-1.301503181E-2,-1.679601669E-1
4.488036113E1,-4.432392120E-1,2.429673672E-1,3.324232101E-1
4.494036109E1,-1.132802486E0,9.812272787E-1,-2.333931923E-1
4.499036112E1,-2.904443741E-1,9.201412201E-1,-3.760490417E-1
4.505036109E1,3.699331284E-1,2.339408398E-1,7.064375877E-1
4.511036109E1,1.547762871E0,-1.200890541E-2,2.585066319E0
4.517036102E1,2.267371655E0,-3.149185181E-1,2.957836628E0
4.523036105E1,1.027700901E0,3.602561951E-1,1.661375046E0
4.529036105E1,1.270205975E0,3.938304186E-1,1.240372181E0
4.534036108E1,1.085406303E0,2.647536993E-1,1.286894321E0
4.540036105E1,7.813391685E-1,-3.556620479E-1,3.871808052E-1
4.546036105E1,2.639183998E-1,-1.145164371E0,-3.989844322E-1
4.552036101E1,-1.824474335E-1,-1.430481791E0,-1.119837761E0
4.558036101E1,-4.636650085E-1,-9.908073545E-1,-1.875164986E0
4.563036104E1,-8.252024651E-1,-9.653736949E-1,-1.067029476E0
4.568036111E1,-7.170243263E-1,-6.369839311E-1,-1.369394779E0
4.574036111E1,-8.626770973E-1,-1.312142611E-1,-6.029992104E-1
4.579036114E1,-1.125607967E0,4.121075869E-1,-1.036225319E0
4.585036110E1,-4.504041672E-1,5.943139791E-1,1.010284424E-1
4.591036104E1,-5.593118668E-1,8.034304380E-1,-1.235246658E-2
4.597036103E1,-3.970470428E-1,9.874273539E-1,1.041393280E0
4.602036106E1,-1.494779587E-1,1.067609429E0,4.411153793E-1
4.608036106E1,1.347682953E0,8.999249935E-1,1.003113270E0
4.613036110E1,4.633746147E-1,6.884295940E-1,2.653045654E-1
4.619036106E1,-3.548622131E-1,-4.151003361E-1,-8.265299797E-1
4.624036109E1,-7.674188614E-1,-1.692447543E0,-1.936919212E0
4.630036106E1,1.413376331E0,-4.008450031E0,-4.995461941E0
4.636036106E1,1.283218384E0,-2.399334192E0,-4.309727192E0
4.642036099E1,-1.209117317E1,-8.166752815E0,4.848093510E0
4.648036102E1,-5.235298157E0,-1.000403643E0,2.797360420E0
4.654036108E1,-1.373914719E0,3.995505571E0,-1.030861139E0
4.659036112E1,-6.518650055E-2,3.732872009E-2,1.203400135E0
4.665036108E1,2.525245667E0,-1.817398667E0,4.645709038E0
4.671036108E1,6.072120667E0,1.303930998E0,6.764656067E0
4.677036105E1,3.255874634E0,2.479193449E0,6.465519428E0
4.683036105E1,3.303178787E0,1.237463117E0,6.105136871E0
4.689036094E1,1.590882301E0,-5.306112766E-1,2.740111351E0
4.694036098E1,9.880051613E-1,1.530265808E-2,-3.099856377E-1
4.699036101E1,9.968376160E-2,-8.814988136E-1,-1.335601330E0
4.704036104E1,-9.073705673E-1,-2.674448490E0,-1.130661488E0
4.710036101E1,-1.809286475E0,-1.676924944E0,-6.278707027E0
4.716036097E1,1.138964891E0,-2.687838078E0,-5.312143803E0
4.722036100E1,-3.436056972E-1,-3.623903990E0,-5.733181000E0
4.728031663E1,4.313150644E-1,-2.153607607E0,-5.197860718E0
4.734031663E1,-6.914072037E-1,-5.537562370E-1,-3.518309593E0
4.739031666E1,-2.780997992E0,1.858605385E0,1.280104160E0
4.745031662E1,-8.373731613E0,5.125674248E0,6.189269543E0
4.750031666E1,-1.525000000E1,1.033269691E1,7.443441868E0
4.756031659E1,-3.021110535E1,1.761704254E1,1.701359749E-1
4.761031662E1,-2.244594383E1,5.082771778E0,1.422190666E-1
4.767031658E1,8.032769203E0,-2.224674416E1,1.345760345E1
4.773031662E1,2.547227478E1,-5.494260311E0,-2.436361504E1
4.779031662E1,-5.461242676E0,-1.950934792E1,-2.210096931E1
4.784031668E1,1.663152218E0,7.062973976E0,-1.149342918E1
4.790031665E1,8.874953270E0,-2.019219398E0,-4.901817322E0
4.796031661E1,4.503730774E0,-9.262568951E-1,-3.302416801E-1
4.802031658E1,4.145957947E0,-3.884038687E0,-3.155486584E0
4.808031658E1,7.066171169E0,-1.892127156E0,-1.255730629E0
4.813031661E1,5.333367348E0,1.706002951E0,-8.799505234E-1
4.818031664E1,3.549953938E0,-1.106569529E0,2.932274818E0
4.824031664E1,6.720940590E0,3.646407127E0,5.763401985E0
4.829031667E1,4.683380604E0,3.978075981E0,5.302620888E0
4.835031664E1,9.138803482E0,3.751601696E0,8.243253708E0
4.841031657E1,1.292456627E0,4.843553543E0,2.386203289E0
4.847031657E1,-2.829217911E-2,4.283112049E0,7.125391960E-1
4.852031660E1,2.769265175E-1,3.601563692E0,-3.358783722E-1
4.858031660E1,1.609410286E0,1.898389101E0,-8.210458755E-1
4.863031663E1,2.004745960E0,7.289160490E-1,-1.285544872E0
4.869031659E1,1.258961678E0,4.759120941E-2,-1.666808128E0
4.874031663E1,1.065241814E0,-3.572745323E-1,-1.935451031E0
4.880031659E1,7.975225449E-1,-5.196735263E-1,-1.843738079E0
4.886031659E1,-6.351709366E-2,-5.463017821E-1,-1.662456036E0
4.892031655E1,3.522887230E-1,-7.359095216E-1,-9.851007462E-1
4.898031659E1,-1.196670532E-1,-4.728846550E-1,-6.710667610E-1
4.904031658E1,8.923983574E-1,-3.528546095E-1,-1.503214836E-1
4.909031662E1,-2.951402664E-1,-1.709529161E-1,4.909524918E-1
4.915031658E1,1.665534973E-1,1.457830667E-1,1.092114449E-1
4.921031655E1,1.047992706E-1,4.870821834E-1,-1.084580421E-1
4.927031651E1,2.821426392E-1,5.364443064E-1,-4.700365067E-1
4.933031651E1,6.057767868E-1,2.731345296E-1,2.149672508E-1
4.939031648E1,-1.809692383E-1,6.054954529E-1,-1.880054474E-1
4.944031651E1,8.344144821E-1,7.265281081E-1,3.160362244E-1
4.949031654E1,4.273977280E-1,6.971348524E-1,3.215646744E-2
4.954031657E1,4.072408676E-1,4.884964228E-1,3.032112122E-2
4.960031654E1,2.240123749E-1,1.167817786E-1,-2.792644501E-1
4.966031650E1,2.475185394E-1,-1.422389448E-1,-3.672885895E-1
4.972031653E1,3.035030365E-1,-3.303575516E-1,-2.668085098E-1
4.977031657E1,2.203121185E-1,-5.896454453E-1,-2.415461540E-1
4.983031657E1,-2.315835953E-1,-5.471644998E-1,-4.465832710E-1
4.988031660E1,3.901576996E-2,-5.626782179E-1,-3.256483078E-1
4.994031656E1,8.683013916E-2,-3.058760762E-1,-2.050046921E-1
4.999031663E1,-4.724884033E-2,-1.544620991E-1,-1.681132317E-1
5.005031662E1,1.080112457E-1,-6.029211730E-2,-1.533780098E-1
5.011031662E1,-2.098083496E-4,1.850859374E-1,-1.868467331E-1
5.017031656E1,2.593708038E-2,2.277676463E-1,-2.013549805E-1
5.023031659E1,1.544151306E-1,3.094800711E-1,-6.184482574E-2
5.029031655E1,4.412250519E-1,7.897592783E-1,2.280383110E-1
5.035031655E1,6.843357086E-1,8.821383715E-1,1.599652290E0
5.041031652E1,1.124242783E0,1.505448222E0,1.973730564E0
5.047031652E1,8.643980026E-1,1.874418020E0,1.164597511E0
5.053031645E1,1.269973278E0,1.890549898E0,1.067887783E0
5.058031648E1,1.924238682E0,1.221402287E0,2.631962299E0
5.064031644E1,2.174487114E-1,1.332375526E0,-8.609447479E-1
5.069031648E1,-2.593698502E-1,-1.150150299E-1,-1.522454262E0
5.074031651E1,-3.401951790E-1,-1.475298166E0,-1.924720764E0
5.079031654E1,-1.092474461E0,-3.108799696E0,-2.632729053E0
5.085031654E1,-2.895827293E-1,-4.761016369E0,-3.885923147E0
5.091031651E1,3.707575798E0,-5.184071064E0,-4.939004421E0
5.097031654E1,3.327465057E0,9.078533649E-1,-6.537320614E0
5.102031657E1,-6.282900810E0,-3.655624390E-2,3.914730787E0
5.108031657E1,-5.756473541E-1,1.194433928E0,3.421263218E0
5.114031657E1,-3.652817249E0,1.122313499E0,-1.233623981E0
5.120031653E1,-9.757699966E-1,-2.032843590E0,-1.422639370E0
5.125031656E1,-1.331455231E0,-1.286905050E0,1.542553425E0
5.131031649E1,-6.726827621E-1,1.751194000E0,-2.050617218E0
5.136031653E1,-9.498291016E-1,2.553776026E0,-1.309467554E0
5.142031646E1,9.872117043E0,1.222343922E0,7.925070286E0
5.147031649E1,1.479999924E1,4.418905258E0,5.652049065E0
5.152031656E1,1.068965244E1,4.769715309E0,1.742489934E0
5.158031652E1,3.597704887E0,-9.696824551E-1,-3.511865139E-1
5.164031652E1,-6.015672684E-1,-2.746463776E0,-4.493321896E0
5.170031655E1,3.297567368E-1,-3.083109379E0,-3.913346529E0
5.176031662E1,-2.535899162E0,-3.516836166E0,-5.997382164E0
5.182031662E1,4.590618610E-2,-3.367488146E0,-6.858672142E0
5.187031665E1,-9.394018054E-1,-4.403740883E0,-7.761643887E0
5.192031668E1,6.955940723E-1,-3.406312943E0,-5.662744522E0
5.198031664E1,-1.133728027E-2,-1.213818550E0,-3.109060287E0
5.203031668E1,-4.291095257E0,3.127931595E0,2.052846909E0
5.209031654E1,-1.358509636E1,7.600872040E0,6.400209904E0
5.215031651E1,-2.323432922E1,1.117343616E1,7.562970161E0
5.221031647E1,-3.104882812E1,1.705019188E1,-1.116243172E1
5.226031651E1,-7.398547649E0,1.850487709E0,-1.690893745E1
5.232031650E1,2.756536484E1,-5.415013885E1,4.313564301E0
5.238031654E1,1.237119675E1,-2.574181557E0,-1.384395790E1
5.244031650E1,8.569341660E0,-7.060749531E0,-2.027743530E1
5.249031653E1,3.368976116E0,3.762261629E0,-8.814714432E0
5.255031650E1,1.696864128E0,1.179340839E0,-4.720408440E0
5.261031650E1,6.352161884E0,-2.376783848E0,-2.174138784E0
5.267031643E1,5.601937294E0,-2.405737638E0,-2.967702389E0
5.273031646E1,5.461727142E0,1.405334949E0,9.294319153E-2
5.278031649E1,2.482697725E0,7.112501860E-1,1.544774055E0
5.284031652E1,4.765279770E0,1.544432759E0,4.640685081E0
5.290031649E1,9.476773262E0,1.263832211E0,8.992942810E0
5.296031649E1,7.665378094E0,8.069720864E-1,7.905332565E0
5.302031645E1,3.615742683E0,2.414854527E0,4.616814613E0
5.308031642E1,2.478097439E0,3.645536661E0,2.072108746E0
5.314031638E1,1.865021229E0,3.964711666E0,7.981133461E-1
5.319031645E1,2.247737408E0,2.416396618E0,-9.598159790E-2
5.324031648E1,2.578316212E0,6.623172760E-1,-8.366651535E-1
5.329031651E1,1.458531380E0,-2.861660123E-1,-8.997774124E-1
5.335031648E1,1.616307259E0,-7.905567884E-1,-1.579512596E0
5.341031644E1,2.560653687E-1,-1.162487745E0,-2.507029533E0
5.347031644E1,7.575387955E-1,-1.272793889E0,-1.176379204E0
5.352031647E1,-2.573399544E-1,-9.866454005E-1,-1.786281109E0
5.358031647E1,3.055639267E-1,-6.545383334E-1,-1.111778259E0
5.363031650E1,-4.943609238E-1,-2.229340225E-1,-1.091538906E0
5.369031647E1,3.417968750E-2,-1.420929730E-1,-6.916594505E-1
5.374031650E1,-2.557940483E-1,-1.332320869E-1,-5.976710320E-1
5.380031647E1,-1.235434055E0,1.539532542E-1,-9.952731133E-1
5.386031647E1,-2.711381435E0,-6.685593128E-1,-1.428230286E0
5.392031643E1,-3.747855425E0,-6.588428020E-1,-2.593551159E0
5.398031646E1,-1.291413307E0,-1.961745262E0,-4.399490356E-1
5.403031649E1,1.145702362E0,-1.326663017E0,-1.458406687E0
5.409031653E1,6.210724354E0,-2.967953682E0,2.795759201E0
5.415031649E1,3.583774090E0,-1.183115959E0,1.543293238E0
5.421031646E1,3.791639090E0,-8.627147675E-1,1.243911266E0
5.427031642E1,-3.932466507E-1,-1.228433609E0,-1.625970125E0
5.432031645E1,-2.169415712E0,-1.018578529E0,-1.575923562E0
5.438031645E1,-7.667262554E-1,-6.263418198E-1,-9.352920055E-1
5.443031652E1,-8.059399128E-1,2.001008987E-1,-5.436714888E-1
5.449031652E1,-1.836685061E0,1.025762558E-1,-4.107156992E-1
5.454033570E1,-1.033246040E0,-2.241458893E-1,6.632708311E-1
5.460033560E1,-7.881431580E-1,-1.534344673E0,5.543699265E-1
5.466033556E1,-9.634836912E-1,-5.640830994E-1,1.747838259E-1
5.472033556E1,2.038223743E-1,5.592365265E-1,8.266324997E-1
5.477033559E1,9.173755646E-1,3.529767990E-1,1.479795098E0
5.483033559E1,3.198080063E-1,-9.293746948E-1,1.125848174E0
5.488033562E1,7.333924770E-1,-5.906066895E-1,1.096128821E0
5.494033559E1,-3.077762127E-1,1.514044285E0,2.551103830E-1
5.499033562E1,-3.733360767E-1,6.409177780E-1,-7.865605950E-1
5.505033559E1,1.949350834E-1,-8.645257950E-1,-7.802795768E-1
5.511033558E1,1.982810497E-1,5.262374878E-3,-1.027404785E0
5.516033562E1,2.978038788E-2,3.907012939E-1,-1.034673929E0
5.522033558E1,7.126569748E-2,-3.027915955E-1,-1.322178960E0
5.527033565E1,5.516569614E-1,-2.096185684E-1,-1.298182964E0
5.533033561E1,5.952413082E-1,-4.691648483E-1,-9.748288393E-1
5.539033561E1,-5.794887543E-1,3.531455994E-2,-1.014479637E0
5.545033558E1,-6.238799095E-1,-3.788089752E-1,-1.137977242E0
5.551033551E1,-1.135737896E-1,-1.132045746E0,8.424644470E-1
5.557033551E1,-9.277205467E-1,-3.930797577E-1,3.105391264E-1
5.563033554E1,-1.302997708E0,-2.991619110E-1,-8.159503937E-1
5.568033557E1,-5.933802128E-1,-9.076881409E-2,-2.912780643E-1
5.574033557E1,-1.657803059E-1,-1.948862076E-1,-9.196639061E-3
5.579033560E1,3.751561642E-1,1.877241135E-1,-2.221769094E-1
5.585033557E1,5.488982201E-1,3.446197510E-2,5.208231211E-1
5.591033553E1,8.338375092E-1,-1.939334869E-1,-1.490988731E-1
5.597033553E1,5.393953323E-1,-1.992330551E-1,-1.911162138E-1
5.602033556E1,1.981070042E-1,1.971931458E-1,-1.326749921E-1
5.608033556E1,-2.399594784E-1,-2.175216675E-1,1.490439773E-1
5.613033559E1,-3.649628162E-1,-3.324985504E-1,-2.598760128E-1
5.619033556E1,-4.853773117E-2,-2.422399521E-1,-4.941395223E-1
5.624033559E1,1.945114136E-1,-6.951332092E-3,-8.939772844E-2
5.630033555E1,8.406782150E-2,-2.029514313E-2,2.910519838E-1
5.636033555E1,2.771563530E-1,-1.621875763E-1,3.016394377E-2
5.641033559E1,3.744995594E-1,9.592533112E-2,2.028561234E-1
5.647033555E1,7.127730846E-1,2.111682892E-1,6.153633595E-1
5.652033562E1,5.477685928E-1,-3.037452698E-2,2.104535699E-1
5.658033558E1,3.944497108E-1,-2.201471329E-1,-2.292233706E-2
5.664033558E1,7.811129093E-1,-2.586345673E-1,-1.808294058E-1
5.670033554E1,3.063788414E-1,-2.030439377E-1,-1.258101463E-1
5.676033548E1,-1.656005383E-1,-1.648445129E-1,-4.292235970E-1
5.682033547E1,-1.059380531E0,-2.333831787E-1,-4.461601973E-1
5.688033547E1,-7.754325867E-1,-1.195554733E-1,-1.862829924E-1
5.693033550E1,-2.023696899E-1,-8.002281189E-1,1.652249098E-1
5.699033550E1,2.039690018E0,-6.142272949E-1,1.000060797E0
5.704033554E1,1.732273102E-1,-6.184673309E-2,2.528237104E-1
5.710033550E1,-9.945487976E-2,-8.070182800E-2,6.999267340E-1
5.716033547E1,-8.212909698E-1,-8.656883240E-2,-2.048547268E-1
5.722033550E1,-9.780716896E-1,-1.189708710E-1,-6.011242867E-1
5.727033553E1,-1.105250835E0,-2.053875923E-1,-8.512821198E-1
5.733033553E1,-1.108540058E0,-2.790904045E-1,-6.911753416E-1
5.738033556E1,-1.151778698E0,-1.408262253E-1,-2.230334282E-1
5.744033553E1,-1.165185928E0,-3.861246109E-1,4.964977503E-1
5.749033559E1,1.285243034E-1,-2.784156799E-1,8.084070683E-1
5.755033556E1,-4.534392357E-1,-4.718227386E-1,5.414525270E-1
5.761033556E1,1.458774328E0,-1.231622696E-1,2.711576223E-1
5.767033552E1,1.558434248E0,6.052207947E-2,2.370948792E-1
5.773033555E1,1.185284615E0,5.383491516E-3,4.587472677E-1
5.779033552E1,2.928297520E-1,1.722526550E-1,-9.455060959E-2
5.784033555E1,-1.335139513E0,-1.999702454E-1,-6.458272934E-1
5.790033551E1,1.656954288E-1,-1.905775070E-1,7.996994257E-1
5.795033558E1,9.571223259E-1,-2.883615494E-1,4.269970655E-1
5.801033551E1,1.915260315E0,2.607231140E-1,1.414034486E0
5.807033551E1,5.172829628E-1,2.995967865E-2,8.664802313E-1
5.813033551E1,9.477047920E-1,-5.330400467E-1,6.564571857E-1
5.818033554E1,1.757808685E0,-2.145662308E-1,4.696297646E-1
5.824033554E1,8.732013702E-1,-8.073124886E-1,-1.335835457E-1
5.830033547E1,2.731323242E-1,-3.498439789E-1,-8.461885452E-1
5.835033550E1,-2.367110252E-1,-3.277611732E-1,-9.906541109E-1
5.841033547E1,-1.382884979E-1,-2.921471596E-1,-9.133400917E-1
5.847033550E1,4.158983231E-1,-5.213260651E-2,-5.825698376E-1
5.852033553E1,1.234166145E0,7.446670532E-2,7.231702805E-1
5.858033553E1,2.038302898E0,3.501667976E-1,1.471642733E0
5.863033556E1,2.500153065E0,1.954727173E-1,1.518910885E0
5.869033550E1,2.139247894E0,2.931709290E-1,5.080223083E-1
5.874033553E1,2.047794342E0,8.030872345E-1,1.651387453E0
5.880033549E1,9.184226990E-1,-2.075743675E-2,3.487429619E-1
5.886033549E1,6.644878387E-1,-1.587785006E0,-4.317016602E-1
5.892033542E1,-8.850479126E-2,-3.197176456E0,-1.090416431E0
5.898033542E1,-4.878851414E0,-3.750065804E0,-1.779971123E-1
5.904033542E1,-8.573051453E0,-6.980783939E0,-5.341615677E0
5.909033545E1,-9.722387314E0,-7.806581974E0,3.930704117E0
5.915033538E1,6.963886261E0,1.102427244E0,2.258630514E0
5.920033542E1,-4.606121540E0,2.279151917E0,-4.008375168E0
5.926033541E1,2.424280167E0,2.010302067E0,1.670506597E-1
5.932033541E1,6.255811691E0,3.157709122E0,8.051763773E-1
5.938033541E1,1.413963509E1,6.156388283E0,2.175539255E0
5.943033548E1,1.130187893E1,7.183489799E0,-1.422408104E0
5.949033544E1,6.607067108E0,4.966045380E0,6.594917774E-1
5.954033547E1,4.762301445E0,1.971741915E0,2.391486168E-1
5.960033544E1,-3.086948395E-1,-4.414718151E-1,-2.996710777E0
5.966033540E1,-2.039944649E0,-3.356539249E0,-5.403880119E0
5.972033544E1,-3.220376968E0,-2.283575773E0,-6.768658161E0
5.977033547E1,-4.723828316E0,-3.953861713E0,-8.072703362E0
5.983033547E1,-1.998212457E0,-1.593564391E0,-6.406978607E0
5.988033550E1,2.754154801E-1,1.640279055E0,-6.093954086E0
5.994033546E1,-5.645218849E0,5.356780052E0,5.035343170E-1
5.999033553E1,-1.477911949E1,7.733946800E0,4.393971443E0
6.005033549E1,-2.219069672E1,9.752328873E0,4.593892097E0
6.011033549E1,-2.622537994E1,1.308182812E1,-9.695722580E0
6.017033542E1,-2.335063934E0,-3.048077106E0,-1.473305702E1
6.023033546E1,2.105751610E1,-5.150802231E1,-1.817100525E1
6.029033542E1,1.475674725E1,5.608889580E0,-1.361327171E1
6.034033545E1,1.242841721E1,-1.198473358E1,-1.617854118E1
6.040033542E1,-1.428732872E0,8.502632141E0,-6.324688435E0
6.046033542E1,-1.115525246E0,5.342986107E0,-5.987422466E0
6.052033538E1,2.202061176E0,5.754209995E0,1.844282150E-1
6.058033538E1,2.520836830E0,1.196238518E0,1.226606369E-1
6.064033535E1,3.503322363E0,-4.825592041E-2,-7.369198799E-1
6.069033538E1,2.497032166E0,4.559013367E0,-2.757259846E0
6.074033541E1,3.674463272E0,5.036921024E0,4.603414536E-1
6.079033544E1,1.995886326E0,2.489958763E0,3.758730888E0
6.085033544E1,1.232644916E0,2.998455048E0,2.519412041E0
6.091033541E1,2.053586006E0,1.871777534E0,3.253908157E0
6.097033544E1,2.649441719E0,4.337728500E0,2.301873207E0
6.102033547E1,3.667829990E0,3.707090378E0,2.683897972E0
6.108033547E1,2.356267929E0,4.013918877E0,1.827195168E0
6.113033550E1,3.273369312E0,3.028494835E0,1.094326019E0
6.119033543E1,1.509915352E0,1.739221931E0,5.756978989E-1
6.124033546E1,1.407460690E0,8.704279065E-1,-7.294692993E-1
6.130033543E1,1.264219284E0,-7.043473721E-1,-8.222208023E-1
6.136033543E1,6.419634819E-1,-1.062511086E0,-1.716869354E0
6.142033536E1,4.371299744E-1,-1.410035253E0,-1.629802227E0
6.148033539E1,4.254589081E-1,-7.556606531E-1,-1.400017262E0
6.154033539E1,-2.065386772E-1,-2.819139957E-1,-1.121309757E0
6.159033542E1,6.128211021E-1,-1.041620970E-1,-2.588462830E-1
6.165033539E1,6.279258728E-1,2.987757623E-1,-8.334269524E-1
6.171033539E1,3.229198456E-1,7.857782245E-1,-7.113718987E-1
6.177033535E1,7.676968575E-1,7.365332842E-1,-8.226432800E-1
6.183031074E1,-2.981815338E-1,7.282122374E-1,-1.423420906E0
6.189031070E1,1.185207367E-1,8.697995543E-1,-1.541402817E0
6.194031074E1,-1.442525864E0,7.616234422E-1,-2.286695480E0
6.199031077E1,-2.384805679E0,5.234777927E-1,-2.756597996E0
6.204031080E1,-3.122937679E0,-9.668264389E-1,-1.731679916E0
6.210031077E1,-3.662017584E0,-1.846182346E0,-1.371139526E0
6.216031073E1,1.050533295E0,-5.063235283E0,2.090778351E-1
6.222031076E1,6.594491005E-1,-4.925848961E0,-3.383390903E-1
6.227031080E1,2.812170982E0,-4.363787651E0,2.557642460E-1
6.233031079E1,3.675325394E0,-9.352359772E-1,-6.275498867E-2
6.238031083E1,2.878447533E0,-2.495584488E-1,2.111312151E-1
6.244031079E1,1.343526363E0,-1.698017120E-2,-3.383094668E-1
6.249031082E1,7.578401566E-1,3.507089615E-1,-1.976900101E-1
6.255031079E1,5.133607388E-1,5.308599472E-1,-5.275213122E-1
6.261031079E1,4.940104485E-1,-3.250732422E-1,-2.849876881E-2
6.267031072E1,1.447846889E-1,-2.729530334E-1,-4.010581970E-1
6.273031075E1,-6.731765270E-1,-5.183143616E-1,-3.531296849E-1
6.279031075E1,-8.991813660E-1,-4.974689484E-1,-6.549208164E-1
6.284031078E1,-1.176874876E0,-4.449920654E-1,-5.010220408E-1
6.290031075E1,-1.271460533E0,-3.429384232E-1,-3.366734982E-1
6.296031074E1,-1.102073193E0,-4.337997437E-1,-5.363427401E-1
6.302031071E1,-5.712139606E-1,-3.571348190E-1,-3.029543161E-1
6.308031071E1,-6.111979485E-1,-4.138526917E-1,-3.547786474E-1
6.313031074E1,-4.846591949E-1,-3.580608368E-1,-2.100911140E-1
6.318031077E1,-6.955568790E-1,-2.064266205E-1,-4.413136840E-1
6.324031077E1,-2.316164970E-1,-3.574085236E-1,-2.598286867E-1
6.329031081E1,-4.381227493E-1,-1.255521774E-1,-4.454066753E-1
6.335031080E1,-2.916083336E-1,-4.253368378E-1,-2.713417411E-1
6.341031073E1,1.003403664E-1,-6.208515167E-2,-4.920184612E-2
6.347031077E1,3.284072876E-2,-5.543327332E-2,1.396888494E-2
6.352031080E1,5.076878071E-1,-1.013946533E-1,2.853218913E-1
6.358031080E1,2.217352390E-1,-1.851940155E-2,3.060758114E-1
6.363031083E1,5.895209312E-1,-1.504011154E-1,5.211409926E-1
6.369031076E1,1.668763161E-1,1.411914825E-2,5.243712664E-2
6.374031079E1,4.199810028E-1,-8.085918427E-2,2.830489278E-1
6.380031079E1,6.220617294E-1,2.268590927E-1,2.071819901E-1
6.386031079E1,3.420236111E0,2.160978317E-1,1.077498674E0
6.392031072E1,4.074776649E0,6.063365936E-2,8.912200928E-1
6.397031075E1,4.384904385E0,-8.680171967E-1,2.257989407E0
6.402031085E1,3.260369301E0,-1.342543602E0,1.202228904E0
6.408031082E1,9.192814827E-1,-2.016172886E0,-5.026776791E-1
6.414031078E1,1.294202805E-1,-2.108992577E0,-7.839527130E-1
6.420031078E1,1.561717987E-1,-2.045864582E0,-1.243635178E0
6.426031071E1,7.673025131E-2,-1.697984695E0,-1.106897116E0
6.432031068E1,3.883686066E-1,-1.419279575E0,2.573161125E-1
6.437031071E1,1.262369156E-1,-8.830559254E-1,-4.787447453E-1
6.442031074E1,-5.239105225E-1,-2.303682566E-1,-1.303720474E-2
6.448031074E1,-1.103725433E-1,6.122472286E-1,1.046072960E0
6.453031077E1,-1.052055359E0,7.809876800E-1,-2.469539642E-1
6.459031074E1,-7.815427780E-1,4.115233421E-1,-5.729980469E-1
6.465031070E1,-1.852888584E0,1.460182071E-1,-1.278403997E0
6.471031067E1,-2.119882107E0,3.204661608E-1,-6.880259514E-1
6.476031070E1,-2.269167900E0,-6.710588932E-2,-1.359590888E0
6.482031070E1,-3.002596378E0,-6.510447860E-1,-9.593719244E-1
6.487031073E1,-4.896908283E0,-2.750535488E0,-1.192012548E0
6.493031073E1,-3.702140331E0,-5.334453583E0,-2.689945936E0
6.499031076E1,-9.370155334E-1,-3.357882977E0,6.477611065E-1
6.505031076E1,-8.670043945E-2,-3.679341316E0,3.919084311E0
6.511031076E1,2.705564499E0,2.266161442E0,-2.506588936E0
6.517031069E1,3.400959969E0,1.773098946E0,1.122207880E0
6.523031072E1,3.347561836E0,4.633376598E0,-4.770373344E0
6.529031072E1,5.094100475E0,2.596963167E0,8.926582336E-1
6.535031072E1,1.188270569E1,2.994977474E0,1.514904141E0
6.541031068E1,1.378598785E1,3.095325232E0,7.567079067E-1
6.547031068E1,1.109585857E1,3.124363422E0,-1.260637045E0
6.553031062E1,7.164954185E0,-1.365748405E0,9.160771370E-1
6.558031065E1,2.354526520E0,-2.175060272E0,6.939756870E-2
6.563031068E1,-2.428798676E0,-3.057594061E0,-4.488846779E0
6.568031071E1,-4.474253178E0,-4.593859673E0,-6.286721706E0
6.574031071E1,-2.774825096E0,-4.432839394E0,-8.037450790E0
6.579031074E1,-3.534936666E0,-3.905844927E0,-8.885591507E0
6.585031071E1,-4.987715721E0,3.470051289E0,3.614749908E-1
6.591031064E1,-8.302455902E0,9.620208740E0,7.530364990E0
6.597031067E1,-1.638724136E1,1.177914047E1,8.028249741E0
6.602031070E1,-2.452381897E1,1.474193954E1,2.569459915E0
6.608031070E1,-1.888718224E1,2.299017668E0,-7.166028976E0
6.613031074E1,8.531989098E0,-1.104906559E1,8.214982033E0
6.619031070E1,4.487133026E1,-2.198094749E1,-1.477483749E1
6.624031073E1,-1.305258751E0,-1.528304195E1,-2.510452080E1
6.630031070E1,1.226752090E1,6.689172745E0,-9.730034828E0
6.636031070E1,3.354398251E0,5.522144794E0,-8.174907684E0
6.642031066E1,4.668452740E0,1.207139730E0,-3.055979967E0
6.648031069E1,5.454139233E0,-2.254458666E-1,-4.715542793E0
6.654031069E1,7.575514793E0,-3.787307024E0,-5.303908825E0
6.659031072E1,7.796165943E0,-3.556325674E0,-1.934787750E0
6.665031069E1,3.381333351E0,-1.030077744E1,-1.705382824E0
6.671031065E1,5.232546806E0,-1.380198479E1,3.146221161E0
6.677031062E1,6.042428970E0,-1.400139427E1,-2.584285736E-1
6.683031062E1,1.355413151E1,-1.087194157E1,1.195480585E0
6.688031065E1,1.351462650E1,-7.352325439E0,-4.433958530E-1
6.693031068E1,1.066946220E1,-5.152762413E0,-1.561672449E0
6.699031068E1,1.263587189E1,-1.109325409E0,-7.210369110E-1
6.704031071E1,1.120003510E1,2.329970360E0,-9.983012676E-1
6.710031068E1,8.383776665E0,2.743034363E-1,-2.341011524E0
6.716031061E1,5.842470169E0,-7.488927841E-1,-2.630567789E0
6.722031064E1,3.364764452E0,-2.238307953E0,-2.452187300E0
6.727031067E1,1.456879377E0,-1.684368134E0,-2.731109142E0
6.733031067E1,-5.453019142E-1,-2.550898552E0,-3.286227703E0
6.738031070E1,-1.735633135E0,-2.706780434E0,-2.952936888E0
6.744031067E1,-2.580289364E0,-1.400603771E0,-3.076820135E0
6.749031070E1,-3.023222685E0,-1.216187000E0,-2.051888704E0
6.755031063E1,-2.905052662E0,4.937648773E-3,-1.571173549E0
6.761031063E1,-2.308379173E0,3.171348572E-2,-1.319237471E0
6.767031060E1,-1.025773287E0,-4.946517944E-2,-3.376551867E-1
6.773031063E1,7.942709923E-1,-7.946147919E-1,-1.513408422E-1
6.778031073E1,1.879663229E0,-6.244802475E-1,1.404422522E-1
6.783031076E1,2.703565121E0,-9.157609940E-1,2.493410110E-1
6.789031076E1,3.632539272E0,-2.456045151E-1,4.373133183E-2
6.795031076E1,2.856146812E0,1.938018799E-1,-2.138322592E-1
6.801031069E1,2.727213383E0,4.807558060E-1,-1.886471510E-1
6.807031059E1,1.997815132E0,4.414319992E-1,-2.400934696E-1
6.813031062E1,1.768725157E0,1.469449997E-1,-5.780841112E-1
6.818031065E1,1.090839863E0,-3.051652908E-1,-5.830328465E-1
6.824031065E1,8.062555790E-1,-4.290494919E-1,-3.688947558E-1
6.829031068E1,2.910869122E-1,-1.236963272E-1,-3.840119839E-1
6.835031065E1,-6.739008427E-1,-4.283399582E-1,-5.354550481E-1
6.841031061E1,-1.147244930E0,-4.577016830E-1,-9.407080412E-1
6.847031061E1,-1.190063477E0,-3.991737366E-1,-9.339607358E-1
6.852031064E1,-9.482955933E-1,-3.324985504E-1,-5.570167899E-1
6.858031064E1,-1.253498077E0,-2.311639786E-1,-3.941459060E-1
6.863031067E1,-1.051413536E0,-3.542909622E-1,-4.705708623E-1
6.869031064E1,-7.994432449E-1,-2.840032578E-1,-4.282271862E-2
6.874031067E1,-3.439579010E-1,-1.647014618E-1,6.622159481E-2
6.880031063E1,1.601634026E-1,-1.649045944E-1,3.099441528E-3
6.886031063E1,4.691493511E-1,3.363800049E-2,1.577501297E-1
6.892031060E1,9.480493069E-1,-1.022462845E-1,-1.934982538E-1
6.898031063E1,1.175123930E0,1.350860596E-1,3.644961119E-2
6.903031066E1,1.498787880E0,8.141899109E-2,2.311118245E-1
6.909024501E1,1.142566442E0,1.192312241E-1,3.563648462E-2
6.915024497E1,7.065846920E-1,-2.956390381E-3,9.863358736E-2
6.920024500E1,4.337747097E-1,-1.607770920E-1,2.665808201E-1
6.926024494E1,1.860890388E-1,-7.433700562E-2,-1.408275366E-1
6.932024490E1,-6.893825531E-2,-1.333723068E-1,-1.004145741E-1
6.937024493E1,-1.624736786E-1,-1.350650787E-1,-7.107734680E-3
6.942024497E1,-3.957176208E-1,-3.237209320E-1,-1.785879135E-1
6.948024493E1,-4.871907234E-1,-8.737087250E-2,-1.571410894E-1
6.953024496E1,-6.534607410E-1,-1.114692688E-1,-2.621780038E-1
6.959024493E1,-4.872519970E-1,-2.036609650E-1,-1.759848595E-1
6.965024489E1,1.392366886E-1,-1.776266098E-1,5.914807320E-3
6.971024486E1,4.410526752E-1,-2.634143829E-2,5.147880316E-2
6.976024489E1,4.057548046E-1,-1.481466293E-1,9.409224987E-2
6.982024489E1,6.057417393E-1,5.908012390E-2,6.135821342E-3
6.987024492E1,-6.181788445E-2,1.231193542E-2,-2.829437852E-1
6.993024492E1,5.105164051E-1,-2.213001251E-2,-3.620696068E-2
6.999024495E1,-3.948354721E-2,-5.458545685E-2,-1.843255758E-1
7.005024495E1,-2.597160339E-1,-1.235141754E-1,-1.827659607E-1
7.011024495E1,3.211321831E-1,-1.290407181E-1,3.049316406E-1
7.017024488E1,1.338546276E-1,-1.065254211E-1,2.882226706E-1
7.023024491E1,7.215189934E-2,-1.657047272E-1,1.027834415E-2
7.029024491E1,-1.868910789E-1,-1.464090347E-1,-1.601635814E-1
7.035024491E1,-4.366571903E-1,-1.390724182E-1,-3.761032820E-1
7.041024487E1,-2.742958069E-1,-6.529331207E-2,1.204896569E-1
7.047024487E1,-2.492225170E-1,7.787036896E-2,-7.022273540E-2
7.053024480E1,1.859244823E0,3.306474686E-1,1.306149244E0
7.058024484E1,2.481145144E0,2.641677856E-2,2.083092213E0
7.064024480E1,5.991315842E0,-4.910278320E-2,5.243214607E0
7.069024483E1,6.355691910E0,-6.781187057E-1,3.979873657E0
7.074024487E1,4.331665516E0,-3.678963661E0,2.004542112E0
7.079024490E1,2.300200462E0,-4.390205383E0,-7.809925079E-2
7.085024486E1,-1.350882053E0,-4.441031456E0,-2.811150074E0
7.091024483E1,-3.154295444E0,-2.157783031E0,-3.559001923E0
7.097024486E1,-3.097499371E0,-5.704102516E-1,-2.943426609E0
7.102024489E1,-1.130696774E0,2.662904263E-1,-1.016635180E0
7.108024489E1,-1.156277657E0,6.454539299E-2,-1.281078339E0
7.113024492E1,-6.471652985E-1,2.602527142E-1,-5.772786140E-1
7.119024489E1,-7.083182335E-1,8.636615276E-1,-3.180303574E-1
7.124024492E1,-1.061805725E0,1.267041445E0,4.671750069E-1
7.130024489E1,4.967479706E-1,1.695448875E0,1.564560652E0
7.136024488E1,4.560613632E-1,2.263188362E0,1.189424038E0
7.142024485E1,-1.124406815E0,4.217477143E-1,2.531528473E-3
7.148024488E1,-2.534302711E0,-2.133738756E0,-8.841471672E-1
7.154024488E1,-2.387314320E0,-6.399931908E0,-3.088824511E0
7.159024491E1,-2.706855392E1,-2.410611725E1,5.579887390E0
7.165024488E1,3.453665733E0,6.899721146E0,-2.909457684E-1
7.171024484E1,-3.376325130E0,5.200914860E0,-4.259638190E-1
7.177024481E1,-1.358855247E0,2.099440575E0,2.659810305E0
7.183024481E1,-1.094959259E0,2.622364044E0,-1.897652149E-1
7.189024477E1,8.238370895E0,2.239737034E0,-2.439642191E0
7.194024484E1,1.036151409E1,1.858694196E0,3.386797428E0
7.199024487E1,1.164420795E1,3.192626715E0,3.032936335E0
7.204024490E1,1.093394756E1,2.301491261E0,2.531558037E0
7.210024487E1,5.899227142E0,-4.721508026E-1,1.469872713E0
7.216024483E1,2.686421394E0,-2.270303011E0,-7.855513096E-1
7.222024483E1,-7.670331001E-1,-3.721169949E0,-2.811692476E0
7.227024486E1,-3.033769608E0,-3.787734509E0,-5.714436531E0
7.233024486E1,-2.870056391E0,-4.226480484E0,-5.464931965E0
7.238024489E1,-4.552659512E0,-5.079289913E0,-5.309663773E0
7.244024486E1,-2.240026474E0,-2.545251131E0,-4.938904285E0
7.249024492E1,-2.599511623E0,7.439355850E-1,-3.083646774E0
7.255024489E1,-8.122529984E0,4.933352947E0,4.731252670E0
7.261024489E1,-1.556023693E1,8.308776855E0,5.559314728E0
7.267024485E1,-2.852224350E1,1.232734489E1,4.690067768E0
7.273024488E1,-2.584031677E1,7.411287308E0,-9.555025101E0
7.279024485E1,1.045186806E1,-1.610404587E1,1.120632935E1
7.284024488E1,3.324038315E1,-4.599050140E1,1.515978622E1
7.290024484E1,7.874546051E0,-1.814831352E1,-1.801436234E1
7.296024481E1,1.872421741E0,5.528339386E0,-9.269476891E0
7.302024477E1,-1.992247105E0,3.015208244E0,-8.755863190E0
7.308024477E1,-4.579219818E-1,7.021448612E-1,-2.678581953E0
7.314024474E1,8.663048744E-1,3.629622459E-1,-5.177953243E-1
7.319024477E1,2.483789444E0,-9.187217951E-1,-3.290629864E0
7.324024480E1,5.691187859E0,-7.650001645E-1,-3.678721905E0
7.329024484E1,4.169991970E0,-1.636435509E0,-5.061963081E0
7.335024480E1,1.935744286E0,-7.262474895E-1,-7.773236275E0
7.341024476E1,1.804691434E0,1.050316572E0,-6.358376980E0
7.347024480E1,4.218930244E0,-7.751592159E0,-1.579210281E0
7.352024483E1,7.287939548E0,-8.437591553E0,-1.362437248E0
7.358024483E1,1.102621841E1,-8.449704170E0,3.364377975E0
7.363024486E1,6.401460648E0,-9.338624001E0,-2.161407471E-1
7.369024483E1,1.364280701E1,-7.042504311E0,3.588883877E0
7.374024486E1,1.121801090E1,-1.631928444E0,1.760504246E-1
7.380024482E1,8.082487106E0,1.250618935E0,-1.706611872E0
7.386024482E1,5.859683037E0,2.000305653E0,-2.619791508E0
7.392024479E1,4.214145660E0,1.320697784E0,-1.663083076E0
7.398024482E1,3.374304533E0,3.969192505E-1,-1.222628832E0
7.403024485E1,1.749274015E0,-3.324995041E-1,-1.160632849E0
7.409024488E1,6.660284996E-1,-8.835906982E-1,-1.570359349E0
7.415024485E1,-4.935450554E-1,-1.386787415E0,-1.292448997E0
7.421024481E1,-1.172611237E0,-1.110254288E0,-1.353435636E0
7.427024478E1,-1.659150362E0,-1.340805054E0,-1.055273294E0
7.433024474E1,-1.688328028E0,-1.262723923E0,-4.785571694E-1
7.439024471E1,-2.569500685E0,-1.046096802E0,-1.320578337E0
7.444024477E1,-2.153097630E0,-7.579517365E-2,-5.884512067E-1
7.449024480E1,-1.432754040E0,8.005046844E-2,6.715052128E-1
7.454024484E1,-1.170950174E0,8.923339844E-2,3.231860399E-1
7.460024484E1,4.484033585E-2,-5.090351105E-1,7.149049044E-1
7.466024480E1,2.979209423E-1,-5.929098129E-1,6.767781973E-1
7.472024480E1,8.713998795E-1,5.545616150E-3,9.017521143E-2
7.477024483E1,8.036944866E-1,2.519779205E-1,1.800885797E-1
7.483024483E1,7.957069874E-1,4.225425720E-1,4.968351126E-2
7.489024483E1,1.714072943E0,9.119224548E-2,3.852512836E-1
7.495024479E1,1.585057259E0,4.284305573E-1,3.654184937E-1
7.500024486E1,1.360899448E0,2.394189835E-1,5.527704358E-1
7.506024479E1,8.874387741E-1,5.358982086E-2,-2.279238105E-1
7.511024482E1,4.486637115E-1,-1.832151413E-1,3.385674953E-2
7.517024475E1,7.217614651E-1,1.245632172E-1,4.075025916E-1
7.523024479E1,1.441509724E-1,-3.000574112E-1,-1.605224013E-1
7.529024475E1,-1.990549564E-1,-2.819824219E-1,5.249661207E-2
7.534024485E1,-4.842936993E-1,2.878341675E-1,3.173922300E-1
7.540024481E1,-4.176192284E-1,-3.336868286E-1,1.793090105E-1
7.546024481E1,-5.198435783E-1,-2.585296631E-1,1.033599377E-1
7.552024478E1,-3.639860153E-1,-1.552276611E-1,-1.047021151E-1
7.558024478E1,-8.683586121E-2,1.191473007E-1,-1.157920361E-1
7.564024467E1,5.631890297E-1,-1.970481873E-1,2.975852489E-1
7.569024471E1,8.849973679E-1,-3.354501724E-1,-1.687629819E-1
7.574024474E1,1.424702644E0,-3.557004929E-1,2.516925931E-1
7.579024477E1,1.219298363E0,1.580276489E-1,2.841651440E-1
7.585024477E1,7.237548828E-1,3.400897980E-1,4.785565138E-1
7.591024473E1,1.761078835E-1,1.424980164E-1,-5.897578001E-1
7.597024477E1,8.929634094E-1,-9.573078156E-2,-1.430401802E-1
7.602024480E1,5.833859444E-1,-3.164720535E-2,-4.403734803E-1
7.608024480E1,1.375108719E0,6.029033661E-2,-3.098304868E-1
7.613024483E1,2.133782387E0,4.244546890E-1,6.625603437E-1
7.619024476E1,3.088105202E0,5.052127838E-1,9.200944901E-1
7.624024479E1,3.582531452E0,2.627911568E-1,1.001720428E-1
7.630024476E1,3.461162567E0,1.744570732E-1,2.451207638E-1
7.636024476E1,4.136701584E0,-9.694709778E-1,4.367682934E-1
7.641025846E1,3.478864670E0,-9.789206982E-1,4.486954212E-1
7.647025842E1,3.304475784E0,-2.124229431E0,-6.443428993E-1
7.652025849E1,-1.251010895E-1,-1.866334081E0,-1.320189476E0
7.658025845E1,-4.165689945E0,-4.673100471E0,-2.124601603E-1
7.664025845E1,-7.329256535E0,-4.800526619E0,-2.282272339E0
7.670025845E1,-9.971904755E-2,-6.231710434E0,-1.113687038E0
7.676025842E1,-2.649333954E0,-3.416480780E0,-6.703196764E-1
7.682025841E1,-1.897190475E1,-1.303750038E1,8.364323616E0
7.688025841E1,-1.128168106E0,4.268640995E0,5.606753349E0
7.693025844E1,-4.361340046E0,4.157662690E-1,-4.059427261E0
7.699025844E1,-3.569631100E0,-4.706728458E-1,-3.053227901E0
7.704025848E1,2.817092896E0,4.590598106E0,-5.133977413E0
7.710025844E1,7.537276268E0,7.155584335E0,-6.411295891E0
7.716025841E1,1.560324860E1,7.395017624E0,-1.941178083E0
7.722025844E1,1.285292339E1,6.059095383E0,-1.126637101E0
7.727025847E1,8.465746880E0,3.497617483E0,-1.841283321E0
7.733025847E1,1.682395935E-1,9.337794781E-1,-6.285522938E0
7.738025850E1,-7.633132935E-1,-1.557394505E0,-5.813271046E0
7.744025847E1,-2.207975626E0,-2.889101744E0,-7.854866505E0
7.749025850E1,-2.683665276E0,-1.287073731E0,-7.117820263E0
7.755025846E1,-1.226789236E0,-2.416148663E0,-8.052014351E0
7.761025846E1,-5.672072172E-1,-2.574763298E-1,-8.294303894E0
7.767025843E1,-4.022173882E0,6.433560371E0,4.667854309E-1
7.773025846E1,-1.756268311E1,9.381683350E0,8.393719673E0
7.779025846E1,-3.113931847E1,1.263390732E1,6.673478127E0
7.784025849E1,-2.657842636E1,1.636490250E1,-1.731930542E1
7.790025845E1,9.337043762E-1,-5.733283043E0,7.797708511E-1
7.796025842E1,4.824014282E1,-8.088447571E1,-1.269410133E1
7.802025838E1,2.042938232E0,-1.480354691E1,-3.756940460E1
7.808025838E1,1.372683430E1,8.738858700E-1,-9.442426682E0
7.814025835E1,7.167261124E0,1.491914749E0,-9.911695480E0
7.819025838E1,5.145033836E0,1.247081757E0,-2.342127323E0
7.824025841E1,5.001264095E0,1.697227001E0,-3.937236786E0
7.829025844E1,6.175534248E0,-6.903657913E-1,-4.017183304E0
7.835025841E1,7.210195541E0,-1.203052044E0,-3.820833206E0
7.841025838E1,5.363030434E0,-1.042751980E1,-5.884766579E-1
7.847025837E1,8.128373146E0,-1.824711609E1,4.287824631E0
7.852025841E1,1.318578339E1,-2.044922638E1,1.193737030E0
7.858025841E1,2.416390800E1,-1.293420887E1,6.739942074E0
7.863025844E1,1.980778503E1,-3.196665764E0,4.487100601E0
7.869025840E1,1.601328278E1,7.554864883E-1,4.322439194E0
7.874025843E1,1.216914177E1,-3.940267563E-1,1.574463129E0
7.880025843E1,9.351212502E0,3.284673691E-1,-2.177276611E-1
7.886025843E1,6.133067131E0,-1.586868286E0,-1.994848490E0
7.892025836E1,3.263407707E0,-2.524955750E0,-2.252385855E0
7.898025840E1,1.434118629E0,-2.501728058E0,-2.914312840E0
7.904025839E1,-4.202952385E-1,-1.776909828E0,-3.381046534E0
7.909025843E1,-1.429894924E0,-1.272597790E0,-3.586183548E0
7.915025839E1,-1.121819258E0,1.562614441E-1,-3.108882427E0
7.921025839E1,-1.328889847E0,5.708451271E-1,-2.364478111E0
7.927025836E1,-1.334250689E0,1.195016384E0,-1.438506126E0
7.933025835E1,1.269710064E-1,4.229679108E-1,-4.118306637E-1
7.938025839E1,1.088190079E0,-1.199588776E-1,5.218124390E-1
7.943025842E1,2.639584064E0,-6.453971863E-1,9.520568848E-1
7.949025842E1,3.791613102E0,-6.956167221E-1,1.033965826E0
7.954025845E1,4.557054996E0,-4.209051132E-1,7.197649479E-1
7.960025845E1,4.606668472E0,-6.864547729E-3,2.549548149E-1
7.966025838E1,3.984751225E0,3.359613419E-1,5.508303642E-3
7.972025841E1,2.964569569E0,8.424892426E-1,-4.182801247E-1
7.977025844E1,2.184982300E0,5.507450104E-1,-4.002153873E-1
7.983025844E1,1.219137430E0,7.054805756E-2,-8.305890560E-1
7.989025844E1,6.622047424E-1,-3.108301163E-1,-1.000237465E0
7.995025841E1,-1.754913330E-1,-5.160837173E-1,-1.064555407E0
8.000025844E1,-5.683970451E-1,-4.945974350E-1,-8.219859600E-1
8.006025837E1,-9.420812130E-1,-2.737941742E-1,-8.163991570E-1
8.011025840E1,-1.085333824E0,-2.742967606E-1,-3.712177277E-1
8.017025833E1,-9.252810478E-1,8.809661865E-2,-5.772382021E-1
8.023025837E1,-1.408472061E-1,-7.238292694E-2,-4.333273172E-1
8.029025836E1,2.477259636E-1,-3.602046967E-1,1.864266396E-1
8.034025840E1,4.276657104E-1,-1.971149445E-1,2.919284105E-1
8.040025836E1,2.987544537E-1,-1.650943756E-1,8.143817186E-1
8.046025836E1,2.191321850E-1,4.712486267E-2,4.259097576E-1
8.052025832E1,5.003466606E-1,7.055377960E-2,5.926699638E-1
8.058025832E1,5.754358768E-1,-8.390426636E-3,3.741695881E-1
8.064025829E1,5.280334949E-1,2.187385559E-1,1.945674419E-1
8.069025832E1,6.322467327E-1,8.823776245E-2,2.150666714E-2
8.074025835E1,7.128093243E-1,1.101808548E-1,-1.487077475E-1
8.079025839E1,6.077485085E-1,1.780395508E-1,-3.151584864E-1
8.085025835E1,8.505961895E-1,1.269941330E-1,-2.580951452E-1
8.091025832E1,1.325780630E0,3.262948990E-1,-4.161500931E-2
8.097025835E1,1.997356415E0,-1.220674515E-1,8.207017183E-1
8.102025838E1,1.208547592E0,-3.257093430E-1,3.216284513E-1
8.108025838E1,4.334473610E-1,-3.959836960E-1,5.584335327E-2
8.113025841E1,-5.938291550E-2,-3.972096443E-1,-2.096292973E-1
8.119025838E1,7.324028015E-2,-2.530574799E-1,-3.171060085E-1
8.124025841E1,5.086579323E-1,-4.079756737E-1,-1.103217602E0
8.130025837E1,3.557877541E-1,-1.156185627E0,-2.124950886E-1
8.135025857E1,-4.561319351E-1,-6.309041977E-1,4.062519073E-1
8.141025867E1,1.290397167E0,2.424244881E-1,2.545285702E0
8.146025870E1,4.141532421E0,-2.933807373E-1,4.443703651E0
8.151025873E1,3.070658207E0,4.071516991E-1,3.612313747E0
8.157025873E1,2.666019440E0,-4.259552956E-1,1.947334290E0
8.163025866E1,1.402720451E0,-1.445696354E-1,-4.469447136E-1
8.169025846E1,1.503362656E-1,-7.096632719E-1,-2.210046291E0
8.175025833E1,-2.563252449E0,-6.473161578E-1,-3.702757597E0
8.181025829E1,-4.927568436E0,-2.065216064E0,-2.988596916E0
8.187025829E1,-1.790042877E0,-5.382552147E0,-5.489131927E0
8.192025832E1,3.044027328E0,-8.109518051E0,-4.792145729E0
8.198025832E1,-8.985738754E-1,6.969133854E0,-1.001235104E1
8.203025835E1,-5.655288696E-4,-7.068889141E-1,4.874603748E0
8.209025832E1,-6.463354111E0,1.055184364E0,2.495170236E-1
8.214025835E1,-2.627038956E-1,1.719510078E0,2.823201418E-1
8.220025828E1,9.051523209E0,4.242803097E0,-2.856983662E0
8.226025832E1,2.186976433E1,8.379530907E0,-1.696697831E0
8.232025831E1,1.560797215E1,7.387617588E0,2.420353651E0
8.237025835E1,7.916200638E0,2.404104710E0,-2.522126675E0
8.243025834E1,1.057757378E0,1.561596394E-1,-3.952233076E0
8.249025838E1,-1.741021156E0,-2.975643396E0,-5.794293404E0
8.255025834E1,-3.926094770E0,-3.724242926E0,-7.544795513E0
8.261025834E1,-2.877727985E0,-3.995182753E0,-8.315283775E0
8.267025827E1,-1.652708650E0,-3.470029354E0,-9.993281364E0
8.273025830E1,-2.250737667E0,-1.505301952E0,-5.842152596E0
8.279025830E1,-7.280841827E0,6.478787899E0,3.503244400E0
8.284025837E1,-1.516856384E1,9.317143440E0,9.962852478E0
8.290025833E1,-2.389000320E1,1.452488041E1,8.918480873E0
8.296025833E1,-3.006275177E1,8.262371063E0,-1.242085552E1
8.302025830E1,2.514876604E0,-5.820144653E0,8.521125793E0
8.308025830E1,3.890559387E1,-7.776777649E1,7.632999420E-1
8.314025823E1,6.798015118E0,-2.180825424E1,-2.663870239E1
8.319025826E1,1.024812412E1,2.716048717E0,-1.059896660E1
8.324025829E1,7.570529938E0,1.795512438E0,-1.036946869E1
8.329025832E1,7.305743217E0,2.997408867E0,-1.439464927E0
8.335025832E1,5.305116653E0,7.470855117E-1,-1.146048427E0
8.341025829E1,2.794342995E0,2.810089350E0,4.166562557E-1
8.347025832E1,2.108560085E0,4.204210281E0,8.594436646E-1
8.352025835E1,2.101738453E0,3.149431229E0,1.878021240E0
8.358025835E1,4.302997589E0,1.321704984E0,3.704533577E0
8.363025838E1,3.960512638E0,-4.612402916E0,2.622115135E0
8.369020400E1,4.186746597E0,-2.392212391E0,3.538640976E0
8.374020403E1,1.376996279E0,-2.554419041E0,4.142628670E0
8.380020399E1,5.699532032E0,-3.774832249E0,-1.650028229E0
8.386020399E1,1.588762856E1,-4.670372963E0,9.042959213E-1
8.392020392E1,7.256107330E0,-3.200464249E0,1.262694597E0
8.398020396E1,7.802028656E0,-5.139436722E-1,-2.679764271E0
8.403020399E1,5.552834511E0,-3.609571457E-1,-2.828537941E0
8.409020402E1,4.935601234E0,5.686206818E-1,-1.936260223E0
8.415020398E1,2.553687096E0,1.991434097E-1,-1.773819804E0
8.420020402E1,1.034639120E0,-8.352270126E-1,-2.321007013E0
8.426020398E1,-5.742449760E-1,-6.819858551E-1,-2.061863899E0
8.432020395E1,-8.998444080E-1,-1.284538269E0,-1.178325176E0
8.438020395E1,-2.006970644E0,-3.618240356E-1,-1.498908877E0
8.443020398E1,-1.661454439E0,-2.332687378E-1,-8.014911413E-1
8.449020394E1,-6.657903194E-1,5.533227921E-1,-2.222062349E-1
8.454020398E1,9.103124142E-1,-1.892662048E-2,-1.990611553E-1
8.460020394E1,1.171288729E0,-3.067941666E-1,-5.852744579E-1
8.466020390E1,1.066482067E0,-2.265748978E-1,-8.525136113E-1
8.472020394E1,9.971356392E-1,-1.579437256E-1,1.328506827E0
8.477020397E1,1.195879936E0,3.381042480E-1,-7.870447636E-2
8.483020397E1,1.110362530E0,4.846591949E-1,-4.191461802E-1
8.488020400E1,1.497720003E0,1.964883804E-1,-1.047569513E-1
8.494020397E1,6.969459057E-1,-2.078657150E-1,-1.213501692E-1
8.499020403E1,2.805957794E-1,-1.747512817E-1,-1.090182066E-1
8.505020400E1,-2.077388763E-1,-3.702545166E-2,-6.206917167E-1
8.511020399E1,4.412007332E-2,7.707691193E-2,-5.247546434E-1
8.517020396E1,8.215610981E-1,9.272193909E-2,4.752826691E-1
8.523020399E1,1.248397112E0,-1.460590363E-1,1.723945141E-1
8.528020402E1,3.569753170E-1,1.622772217E-2,3.051615953E-1
8.534020402E1,8.893079758E-1,2.003326416E-1,9.807205200E-2
8.540020398E1,1.425586224E0,1.712131500E-2,1.194195747E-1
8.546020395E1,1.502133846E0,6.495189667E-2,1.204884052E-1
8.552020392E1,1.230425835E-1,3.059864044E-2,-8.772336245E-1
8.558020388E1,-2.159523964E-1,-3.586454391E-1,-1.402599573E0
8.564020385E1,-7.341766357E-2,-8.118534088E-2,-1.482568383E0
8.569020388E1,8.586344719E-1,-5.459880829E-2,-5.517032146E-1
8.574020391E1,1.348316193E0,-2.992725372E-2,2.118570805E-1
8.579020394E1,1.547597885E0,-1.400127411E-1,2.166841030E-1
8.585020391E1,7.465581894E-1,-2.227697372E-1,-1.718103886E-1
8.591020387E1,2.616424561E-1,-2.683043480E-1,-5.665760040E-1
8.597020390E1,-1.576762199E-1,-2.932434082E-1,-2.467358112E-1
8.602020394E1,-1.056900501E0,-2.875552177E-1,4.594659805E-1
8.608020394E1,-1.304152012E0,3.031673431E-1,1.924951077E0
8.613020397E1,-3.110070229E-1,2.150602341E-1,1.637455463E0
8.619020393E1,5.654382706E-2,7.055640221E-1,9.062342644E-1
8.624020400E1,9.021282196E-2,5.996196270E-1,1.536240101E0
8.630020396E1,-9.689140320E-2,6.753604412E-1,1.089463711E0
8.636020396E1,1.649980545E-1,4.267714024E-1,5.432724953E-1
8.642020389E1,2.935295105E-1,1.949253082E-1,5.466818810E-1
8.648020393E1,7.471942902E-1,3.212336302E-1,1.109448910E0
8.654020389E1,6.740908623E-1,1.000603199E0,5.783796310E-1
8.659020392E1,3.230462074E-1,1.052542329E0,1.076326370E-1
8.665020389E1,1.420796394E0,6.428543329E-1,1.647647858E0
8.671020389E1,1.014137745E0,1.025995970E0,3.356542587E-1
8.677020385E1,1.466440678E0,5.394061804E-1,2.254209518E-1
8.683020385E1,5.742359161E-1,3.827812672E-1,-2.059745789E-1
8.689020382E1,-1.092348576E0,6.769657135E-3,-2.396881580E0
8.694020385E1,-2.621925592E0,-2.113761902E0,-2.976126432E0
8.699020388E1,-5.726345539E0,-5.335528374E0,-4.149517059E0
8.704020391E1,-6.201029301E0,-1.012608433E1,-1.028745556E1
8.710020388E1,-1.875779629E0,-2.396331596E1,6.950185299E-1
8.716020384E1,-6.123603344E0,5.547833920E0,-4.356225967E0
8.722020387E1,-1.835717678E0,5.767942905E0,1.051592588E0
8.727020391E1,2.367375374E0,-9.410988092E-1,3.553810120E0
8.733020390E1,1.330971336E1,-3.025166750E0,2.482021809E0
8.738020394E1,1.676671219E1,1.968677521E0,6.520976067E0
8.744020390E1,1.027771854E1,2.880441904E0,6.623196602E0
8.749020393E1,6.797179222E0,6.287457943E-1,2.211650133E0
8.755020390E1,2.450082779E0,-3.104502201E0,-1.485388279E0
8.761020390E1,-1.509003639E-1,-3.789627075E0,-4.125370979E0
8.767020383E1,-3.634555817E0,-5.211802959E0,-5.206724644E0
8.773020386E1,-2.607863903E0,-5.341394424E0,-6.714201927E0
8.779020386E1,-1.040042043E0,-3.776902676E0,-8.147151947E0
8.784020389E1,6.321874857E-1,-1.830835819E0,-7.652470589E0
8.790020386E1,-3.731546164E0,1.239795685E0,-3.245058060E-1
8.796020386E1,-1.088901997E1,6.149661541E0,6.094289780E0
8.802020382E1,-1.657291794E1,8.077869415E0,7.605063438E0
8.808020382E1,-2.943692970E1,1.204371643E1,1.845036507E0
8.814020379E1,-2.161028290E1,6.817359924E0,-1.316292095E1
8.819020385E1,1.074890804E1,-1.612707329E1,7.731884003E0
8.824020388E1,3.956893539E1,-5.526596832E1,1.608250618E1
8.829020392E1,6.293126583E0,-6.523951054E0,-2.902786255E1
8.835020391E1,3.873845339E0,-6.544346809E-1,-7.726179123E0
8.841020388E1,-5.901589394E-1,6.040924072E0,-1.065056229E1
8.847020388E1,2.682046890E-1,2.041898966E0,-2.788102150E0
8.852020391E1,4.885750771E0,-2.963759899E-1,5.795607567E-1
8.858020391E1,3.564895630E0,-3.636182308E0,-5.232448578E-1
8.863020394E1,3.712887287E0,-2.452020645E-1,-8.730540276E-1
8.869020387E1,1.866942883E0,3.486231565E-1,-1.590138435E0
8.874020404E1,8.141045570E-1,1.840906858E0,-2.685267925E0
8.880020400E1,-7.653250694E-1,5.474444389E0,3.433914185E-1
8.886020400E1,5.383443832E-1,4.541481972E0,4.976459503E0
8.892020396E1,3.040607572E-1,4.418958664E0,4.431672096E0
8.898020400E1,2.316172600E0,2.522331715E0,5.660243988E0
8.904020386E1,-1.387402773E0,2.141884089E0,1.793704987E0
8.909020389E1,2.259850502E-1,1.827901602E0,7.606058121E-1
8.915020386E1,1.035842896E0,1.143360615E0,-2.653617859E-1
8.921020382E1,1.504290581E0,4.234278202E-1,-2.045545578E-1
8.927020379E1,7.124104500E-1,9.391045570E-2,-5.470042229E-1
8.933020379E1,2.640237808E-1,-1.173729897E-1,-9.025111198E-1
8.939020375E1,4.523224831E-1,-3.768234253E-1,-1.616884232E0
8.944020378E1,8.422598839E-1,-7.708115578E-1,-1.408524513E0
8.949020382E1,1.117650986E0,-8.654578924E-1,-1.232934475E0
8.954020385E1,5.400433540E-1,-8.504233360E-1,-8.316273689E-1
8.960020381E1,-5.372934341E-1,-5.054138899E-1,-1.782302856E0
8.966020378E1,1.248181343E0,-5.316611528E-1,-6.135544777E-1
8.972020381E1,4.303507805E-1,-2.083461285E-1,-3.438997269E-1
8.977020384E1,1.447372437E0,-1.821818948E-1,-4.394912720E-2
8.983020384E1,1.331088066E0,1.706611812E-1,1.428298950E-1
8.988020387E1,1.164363861E0,8.716905117E-1,4.253005981E-2
8.994020384E1,6.581134796E-1,1.177305102E0,-2.248024940E-1
8.999020390E1,6.257286072E-1,1.228595257E0,-5.369086266E-1
9.005020394E1,6.215257645E-1,1.031383395E0,-3.824477196E-1
9.011020393E1,7.393493652E-1,7.257965803E-1,9.335327148E-2
9.017020390E1,4.356999397E-1,2.125398368E-1,6.466341019E-2
9.023020393E1,1.457219124E-1,1.004316062E-1,3.683290482E-1
9.029020390E1,1.637458801E-1,-1.801809222E-1,4.121260643E-1
9.035020386E1,4.243135452E-2,-4.584621787E-1,3.155150414E-1
9.041020383E1,-3.646802902E-1,-4.506017864E-1,-4.936251640E-1
9.047020379E1,2.962875366E-1,-4.736472964E-1,-7.453150749E-1
9.053020372E1,3.926820755E-1,-4.311554134E-1,-4.320487976E-1
9.058020376E1,3.232612610E-1,-2.037678957E-1,-4.713640213E-1
9.063020379E1,2.193288803E-1,-1.197391748E-1,-1.994204521E-1
9.068020385E1,-2.055344582E-1,-8.336457610E-2,-2.302832603E-1
9.074020385E1,2.332134247E-1,-1.668779403E-1,-5.504179001E-2
9.079020388E1,5.375003815E-2,-1.488813907E-1,8.466243744E-3
9.085020385E1,2.411918640E-1,-9.964731336E-2,-4.667043686E-2
9.091020378E1,-1.892757416E-2,-8.756822348E-2,-9.010648727E-2
9.097018387E1,2.540969849E-2,-1.909384578E-1,-9.026527405E-3
9.102018390E1,-1.230387688E-1,-2.100421041E-1,-1.425061226E-1
9.108018390E1,2.782220840E-1,-2.263291329E-1,-6.323385239E-2
9.113018393E1,4.920578003E-2,-1.363618076E-1,-2.619009018E-1
9.119018390E1,-4.104804993E-2,-4.880487919E-2,1.818656921E-3
9.124018396E1,-2.975530624E-1,1.364829540E-1,-2.063055038E-1
9.130018393E1,2.551298141E-1,2.379770279E-1,4.158306122E-2
9.136018393E1,-7.333755493E-3,3.120716512E-1,-1.555290222E-1
9.142018389E1,8.323955536E-2,1.770503223E-1,-2.541642189E-1
9.148018392E1,-2.348375320E-1,1.061659157E-1,-2.141404152E-1
9.153018396E1,1.560258865E-1,2.520164847E-2,-1.627616882E-1
9.159018395E1,3.227939606E-1,-6.573337317E-2,1.037836075E-2
9.165018392E1,1.803302765E-1,-8.660998940E-2,3.152399063E-1
9.171018388E1,-9.442043304E-2,6.798511744E-2,4.647073746E-1
9.177018385E1,2.625274658E-2,1.583585441E-1,3.894939423E-1
9.183018381E1,3.056192398E-1,1.930594742E-1,3.109431267E-1
9.189018378E1,2.122964859E-1,1.378108859E-1,3.825044632E-2
9.194018381E1,3.114986420E-2,8.387234807E-2,-1.597008705E-1
9.199018384E1,6.888294220E-2,-3.315538168E-3,-1.705346107E-1
9.204018388E1,6.312274933E-2,-6.932282448E-2,-3.281402588E-1
9.210018388E1,1.472787857E-1,1.887464523E-2,-4.430608749E-1
9.216018384E1,-7.743835449E-3,4.957470298E-2,-7.828869820E-1
9.222018387E1,5.245075226E-1,1.068191826E-1,-2.336440086E-1
9.227018390E1,-2.115030289E-1,8.919242024E-2,-1.620020866E-1
9.233018390E1,2.419471741E-3,3.734152392E-2,4.384975433E-1
9.239018390E1,-1.986179352E-1,-6.238843501E-2,8.743796349E-1
9.245018387E1,-2.808923721E-1,-2.859953046E-1,5.012955666E-1
9.250018393E1,-6.536960602E-2,-2.398902029E-1,1.322250366E-1
9.256018386E1,4.699611664E-2,-1.497566998E-1,-2.861270905E-1
9.261018390E1,2.723693848E-3,-8.446947485E-2,-2.483129501E-1
9.267018386E1,5.766439438E-2,5.305849016E-3,-1.168684959E-1
9.273018389E1,-2.559385300E-1,5.779244006E-3,9.324741364E-2
9.278018392E1,-8.780813217E-2,2.001599967E-2,1.270217896E-1
9.284018392E1,-4.022021294E-1,-1.393804252E-1,4.224252701E-2
9.290018389E1,-1.158928871E0,-1.585474014E-1,-8.338499069E-2
9.296018385E1,-2.054402351E0,-2.868841887E-1,-5.842900276E-1
9.302018382E1,-7.243757248E-1,-6.384243965E-1,-8.092198372E-1
9.308018378E1,-1.118010521E0,-4.514644146E-1,-7.945065498E-1
9.313018382E1,-1.522312164E0,-2.287657261E-1,-1.638520241E0
9.318018385E1,-6.950783730E-1,3.037834167E-1,-8.944640160E-1
9.324018385E1,6.152849197E-1,-8.664603233E-1,5.608320236E-1
9.329018388E1,-7.702207565E-2,-1.466364861E-1,-1.228980303E0
9.335018384E1,-1.632056236E-1,-2.401599884E0,2.860069275E-2
9.341018381E1,1.690387726E0,-2.108765125E0,-1.232951522E0
9.347018381E1,4.384656429E0,-1.261478424E0,1.903269291E-1
9.352018384E1,1.707845211E0,-6.230640411E-1,3.761180639E-1
9.358018384E1,1.387424946E0,-5.106763840E-1,-5.779163837E-1
9.363018387E1,1.164050579E0,-2.148990631E-1,-3.922712803E-2
9.369018383E1,-3.656253815E-1,-2.335739136E-2,-3.465616703E-2
9.374018390E1,-5.506906509E-1,-4.384326935E-1,6.889772415E-1
9.380018386E1,-5.138182640E-1,-3.516521454E-1,-2.121908665E-1
9.386018386E1,-6.829929352E-2,-3.523788452E-1,-2.394573689E-1
9.392018379E1,-2.729415894E-1,1.207323074E-1,-3.762245178E-2
9.398018383E1,-2.967405319E-2,-1.157741547E-1,3.085132837E-1
9.404018379E1,2.509593964E-2,-3.531522751E-1,2.197149992E-1
9.409018382E1,5.138545036E-1,-5.755147934E-1,-2.098393440E-1
9.415018379E1,-3.015065193E-1,3.293848038E-1,-1.976903677E-1
9.421018379E1,-3.779518604E-1,-7.791519165E-2,1.425117254E-1
9.427018375E1,-2.091860771E-1,-5.253639221E-1,4.465186596E-2
9.433018375E1,7.447004318E-2,-2.122220993E-1,-4.131323695E-1
9.438018378E1,-7.895803452E-2,-6.271810532E-1,-4.020957947E-1
9.443018382E1,-8.231430054E-1,-1.696796417E-1,2.746914625E-1
9.449018382E1,-8.148725033E-1,-1.861810684E-1,-3.391541243E-1
9.454018385E1,-5.141658783E-1,-1.888303757E-1,-6.427522302E-1
9.460018381E1,-8.517544270E-1,-2.792291641E-1,-6.011475325E-1
9.466018374E1,-8.547291756E-1,-4.940128326E-1,-2.848466635E-1
9.472018378E1,5.821471214E-1,2.054376602E-1,3.156925440E-1
9.477018381E1,6.260180473E-1,4.437808990E-1,1.540719271E-1
9.483018381E1,9.031004906E-1,-2.095804214E-1,-1.966539025E-1
9.488018384E1,7.642512321E-1,-5.599508286E-1,1.351885796E-1
9.494018380E1,2.321057320E-1,4.688549042E-2,6.531388760E-1
9.499018384E1,-3.404383659E-1,1.535501480E-1,-8.577668667E-2
9.505018380E1,-4.908399582E-1,-2.542943954E-1,-2.839159966E-2
9.511018380E1,-1.832003593E-1,-3.604116440E-1,-2.717089653E-1
9.517018376E1,1.058459282E-2,-2.964286804E-1,4.748678207E-2
9.523018380E1,4.330921173E-2,-3.178167343E-1,2.260150909E-1
9.528018383E1,2.544748783E-1,2.585220337E-2,5.818490982E-1
9.534018386E1,7.560811043E-1,6.487560272E-2,5.614149570E-1
9.540018382E1,7.052755356E-2,-1.748037338E-1,-5.377960205E-2
9.546018379E1,5.317020416E-2,-2.724828720E-1,-3.192003965E-1
9.552018375E1,-2.937488556E-1,-1.555643082E-1,-4.187772274E-1
9.558018372E1,-4.152326584E-1,-2.344617844E-1,-3.268157244E-1
9.563018375E1,-6.644678116E-2,-2.177438736E-1,1.076323986E-1
9.568018379E1,6.561093330E-1,-2.056217194E-2,7.194505930E-1
9.574018378E1,1.193298817E0,8.360004425E-2,1.757399082E0
9.579018382E1,1.678015232E0,-3.053665161E-1,1.971191645E0
9.585018381E1,7.714581490E-1,-4.849386215E-1,1.111294031E0
9.591018375E1,8.716807365E-1,-8.100528717E-1,3.829123974E-1
9.597018378E1,8.065414429E-2,-9.750857353E-1,-1.051588535E0
9.602018381E1,-5.610480309E-1,-1.023087502E0,-1.217391253E0
9.608018381E1,-7.211847305E-1,-2.548856735E-1,-1.252261400E0
9.613018384E1,-5.401287079E-1,-2.648711205E-1,-5.770318508E-1
9.619018377E1,-1.809496880E-1,1.969451904E-1,4.200825691E-1
9.624018384E1,2.029714584E-1,1.705107689E-1,8.005628586E-1
9.630018380E1,4.884338379E-1,8.939313889E-2,6.362891197E-1
9.636018380E1,9.678368568E-1,2.131938934E-1,1.394499063E0
9.642018377E1,1.332817078E0,2.720422745E-1,1.203353882E0
9.648018380E1,1.424039841E0,4.645781517E-1,7.186110020E-1
9.654018376E1,1.731912613E0,7.697628736E-1,9.131875038E-1
9.659018380E1,1.366888046E0,5.381040573E-1,7.384314537E-1
9.665018376E1,2.710428238E-1,3.875114620E-1,-3.617916107E-1
9.671018376E1,5.576114655E-1,-1.833428442E-2,-6.021237373E-1
9.677018372E1,-1.571993351E0,-6.648317575E-1,-2.537757635E0
9.683018372E1,-3.253723145E0,-4.198787212E-1,-3.086628437E0
9.689018369E1,-2.510632992E0,-1.822780371E0,-3.849622488E0
9.694018372E1,-8.569326401E-1,-4.273358345E0,-4.827634335E0
9.700018369E1,2.532157898E-1,-2.133712769E0,-5.518929005E0
9.705018372E1,2.020515442E0,2.489716530E0,-1.719628572E-1
9.711018375E1,-6.597747803E0,1.979283333E0,-7.341398001E-1
9.717018371E1,-9.959096909E-1,3.536651850E0,3.814582109E0
9.723018371E1,1.146697998E0,2.206635237E0,2.002450705E0
9.728018374E1,5.154857635E-1,1.103026390E0,1.109358072E0
9.734018374E1,-1.166294098E0,-1.641229391E-1,-1.674748659E0
9.739018378E1,-3.091769218E0,-1.026038408E0,-2.166083336E0
9.745018377E1,2.880506516E-1,-1.830796242E0,1.096460819E-1
9.750018381E1,1.565182686E0,-8.552997112E-1,1.893887043E0
9.756018374E1,5.426328659E0,-1.196616173E0,3.598743200E0
9.761018377E1,1.025463200E1,3.267240524E-1,3.081305027E0
9.767018373E1,9.619101524E0,-8.489913940E-1,3.173525572E0
9.773018377E1,6.683059692E0,-3.092000723E0,1.271498084E0
9.779018373E1,3.189494133E0,-5.547471523E0,-1.278588295E0
9.784018376E1,4.450454712E-1,-6.575541496E0,-3.129761696E0
9.790018373E1,-2.623426437E0,-5.485484123E0,-5.729552269E0
9.796018369E1,-2.932137489E0,-5.887690067E0,-8.913915634E0
9.802018366E1,-3.280942917E0,-4.789554596E0,-6.930893898E0
9.808018366E1,-1.072639108E0,-2.091966152E0,-2.105743408E0
9.814018362E1,-4.192430496E0,3.959291458E0,2.391692162E0
9.819018365E1,-9.776752472E0,7.479488850E0,8.165225983E0
9.824021256E1,-1.893523598E1,8.539375305E0,1.133839893E1
9.829021260E1,-2.534694099E1,1.062312126E1,4.196626186E0
9.835021259E1,-2.750433540E1,-4.735107422E-1,-7.765034676E0
9.841021256E1,1.152682304E1,-1.833149719E1,1.206503296E1
9.847021259E1,6.364717102E1,-2.460214615E1,4.142916679E0
9.852021262E1,-2.513039207E1,-2.556054878E1,-2.293296432E1
9.858021262E1,1.719895172E1,2.848091125E-1,-4.863557816E0
9.864021262E1,4.158084869E0,2.707034588E0,-8.938494682E0
9.870021258E1,3.526099682E0,-7.697625160E-1,-3.503446579E0
9.875021262E1,4.750661373E0,2.988010645E0,1.635797381E0
9.881021255E1,3.063978195E0,3.284723759E-1,1.325153589E0
9.886021258E1,1.996441841E0,-1.709694147E0,1.649223328E0
9.892021251E1,1.308765411E-1,1.000487089E0,-2.272262573E-1
9.898021254E1,1.241099358E0,8.359430432E-1,3.239913464E0
9.904021254E1,3.574064016E0,-2.660242796E0,6.338674545E0
9.909021258E1,1.306738496E0,-2.376140118E0,5.916215897E0
9.915021254E1,3.181143284E0,-1.505119443E0,5.581932068E0
9.921021254E1,3.018960953E0,7.511352301E-1,2.912973404E0
9.927021250E1,5.142655373E-1,1.573439837E-1,1.498928070E-1
9.933021250E1,1.675338268E0,3.328205347E-1,-3.238372803E-1
9.939021247E1,1.775313377E0,-4.121434689E-1,-1.234569550E-1
9.944021253E1,1.621490002E0,-7.430901527E-1,-1.005359650E0
9.949021257E1,1.123741627E0,-1.181362152E0,-6.666545868E-1
9.954021260E1,3.605041504E-1,-8.640820980E-1,-1.565293312E0
9.960021260E1,9.391584396E-1,-1.313684464E0,-9.550757408E-1
9.966021256E1,-4.535655975E-1,-7.429945469E-1,-1.681191444E0
9.972021256E1,-5.251893997E-1,-6.347198486E-1,-2.188778877E0
9.977021259E1,-2.092288971E0,-5.035939217E-1,-2.108514309E0
9.983021259E1,6.977701187E-2,-1.869309902E0,-1.100087166E0
9.989021259E1,2.927823067E-1,-1.426274300E0,-1.429141045E0
9.995021259E1,1.114767551E0,-1.584496021E0,-1.139269352E0
1.000002126E2,1.288515091E0,-1.697857857E0,-1.443470955E0
1.000602126E2,1.982129335E0,-2.306271553E0,-5.158729553E-1
1.001102126E2,2.790541649E0,-1.128755569E0,-5.517871380E-1
1.001702125E2,7.499201298E-1,-4.714403152E-1,-4.697558880E-1
1.002302126E2,5.400676727E-1,7.738399506E-2,6.763648987E-2
1.002902125E2,-2.437460423E-1,5.648136139E-2,1.275423765E-1
1.003402125E2,-6.418752670E-1,-4.874706268E-1,3.115273714E-1
1.004002125E2,-1.137278557E0,-6.056432724E-1,-2.848705053E-1
1.004602125E2,-1.215284586E0,-4.308500290E-1,-6.854516268E-1
1.005202124E2,-1.009310246E0,-3.077535629E-1,-5.354754925E-1
1.005702125E2,-8.296682835E-1,-5.039949417E-1,-4.164870977E-1
1.006302125E2,-9.686527252E-1,-3.387145996E-1,-8.595829010E-1
1.006802125E2,-8.327901363E-1,-4.535684586E-1,-6.609719992E-1
1.007402125E2,-3.534214497E-1,-2.280273438E-1,-7.095664144E-1
1.007902125E2,-4.048001766E-1,-1.174011230E-1,-5.652972460E-1
1.008502125E2,-1.691253185E-1,-1.505947113E-1,-1.156949997E-1
1.009102125E2,3.585720062E-1,-2.631330490E-1,1.664654016E-1
1.009702125E2,-8.615493774E-3,-8.014202118E-2,6.743896008E-1
1.010202125E2,4.914617538E-1,-2.008838654E-1,8.041051626E-1
1.010802125E2,3.436481953E-1,-3.039064407E-1,-1.006189585E-1
1.011302126E2,-1.800236702E-1,-1.406869888E-1,-4.574935436E-1
1.011902125E2,3.868055344E-2,-1.430597305E-1,-4.360930324E-1
1.012402126E2,1.924705505E-1,-1.944828033E-2,-2.304220200E-1
1.013002125E2,7.305622101E-2,1.601028442E-2,-7.969939709E-2
1.013602125E2,-5.825667381E-1,5.825996399E-2,-2.181615829E-1
1.014202124E2,-1.515998840E-1,-1.545715332E-1,3.186336756E-1
1.014802125E2,-2.250742912E-2,-1.900434494E-1,1.325278282E-1
1.015402125E2,8.185267448E-2,8.269309998E-3,-1.380753517E-1
1.015902125E2,1.406691074E-1,3.408813477E-1,-2.137955427E-1
1.016502125E2,3.223290443E-1,1.735916138E-1,-1.232807636E-1
1.017102125E2,6.759276390E-1,-3.346672058E-1,4.445561171E-1
1.017702124E2,1.017529964E-1,-2.148857117E-1,4.689576626E-1
1.018302124E2,-5.356626511E-1,-1.538267136E-1,-4.323490858E-1
1.018902124E2,-4.497733116E-1,-8.817958832E-2,-3.850194216E-1
1.019402124E2,-4.482388496E-1,-3.304567337E-1,3.056895733E-2
1.019902125E2,-8.354837894E-1,-2.013330460E-1,-1.239553690E-1
1.020402125E2,-3.007054329E-1,-4.449834824E-1,2.975344658E-1
1.021002125E2,4.567527771E-2,-4.032421112E-2,2.269767523E-1
1.021602124E2,-1.137826443E-1,1.494979858E-2,-1.662286520E-1
1.022202125E2,5.915200710E-1,-8.705615997E-2,1.386021376E-1
1.022702125E2,2.637600899E-1,-6.662178040E-2,2.467632294E-4
1.023302125E2,-1.253795624E-1,-2.104110718E-1,9.025037289E-2
1.023802125E2,-1.032538414E-1,-2.779598236E-1,-1.022484303E-1
1.024402125E2,-1.296823025E-1,-2.232666016E-1,-3.138780594E-3
1.024902126E2,-1.379141808E-1,5.055332184E-2,-9.581780434E-2
1.025502125E2,-3.302221298E-1,1.517829895E-1,-3.781652451E-1
1.026102125E2,1.449623108E-1,5.681514740E-2,-3.652174473E-1
1.026702125E2,3.292863369E-1,-2.525806427E-2,-4.862308502E-2
1.027302125E2,2.283613682E-1,-7.341289520E-2,3.684715033E-1
1.027902124E2,1.053726673E-1,-1.917486191E-1,5.784155130E-1
1.028402125E2,-1.772794724E-1,-1.384553909E-1,-6.425297260E-2
1.029002124E2,6.509780884E-3,-3.670501709E-2,-2.861660719E-1
1.029602124E2,-1.505353451E-1,-1.044960022E-1,-1.277675629E-1
1.030202124E2,-2.075839043E-2,-1.580114365E-1,3.694657087E-1
1.030802124E2,-3.299736977E-2,2.627277374E-2,3.183165789E-1
1.031402124E2,1.897025108E-1,2.521705627E-1,5.294227600E-2
1.031902124E2,2.949438095E-1,7.036352158E-1,-9.965550900E-2
1.032402125E2,5.140476227E-1,9.628391266E-2,-3.956711292E-2
1.032902125E2,5.965070724E-1,-1.378965378E-1,-1.072132587E-2
1.033502125E2,4.599843025E-1,-4.666604996E-1,3.055475950E-1
1.034102124E2,7.920465469E-1,-2.126598358E-1,6.577070951E-1
1.034702124E2,5.398054123E-1,-4.887580872E-2,2.718567848E-1
1.035202125E2,4.693841934E-1,-8.323669434E-3,1.853338480E-1
1.035802125E2,-9.468626976E-2,-2.959537506E-2,-5.894424319E-1
1.036302125E2,-3.090784550E-1,-1.422615051E-1,-8.394238353E-1
1.036902125E2,-4.292831421E-1,-5.157623291E-1,-9.896510243E-1
1.037402125E2,-1.136517525E0,-4.736452103E-1,-9.464543462E-1
1.037902127E2,-6.384751797E-1,-3.375215530E-1,-8.806930780E-1
1.038502127E2,-1.012730598E0,-7.603263855E-2,-6.464923024E-1
1.039102127E2,-1.038329601E0,-9.713649750E-2,-2.151833773E-1
1.039702126E2,-7.548186779E-1,2.401657104E-1,2.631119490E-1
1.040202127E2,-6.086349487E-2,-2.222757339E-1,7.796998024E-1
1.040802125E2,2.824406624E-1,-5.822324753E-1,6.143156290E-1
1.041402124E2,3.404507637E-1,-4.777717590E-1,1.300801039E-1
1.042002124E2,-1.474475861E-2,6.477947235E-1,-4.182817936E-1
1.042602124E2,-2.356505394E-2,6.017398834E-2,-4.133272171E-1
1.043202124E2,-5.048630238E-1,-5.937767029E-2,-1.188185334E0
1.043702124E2,-5.411124229E-2,-3.630313873E-1,-4.032707810E-1
1.044202124E2,-6.498575211E-3,-4.027471542E-1,4.476737976E-1
1.044802124E2,-6.349821091E-1,3.221216202E-1,-1.070001125E-1
1.045302125E2,4.540586472E-1,-3.375434875E-2,7.964503765E-1
1.045902124E2,1.273814678E0,-5.880041122E-1,1.228855968E0
1.046502124E2,1.321916342E0,5.089092255E-1,-1.903361678E-1
1.047102124E2,7.861230373E-1,3.967561722E-1,-4.696208835E-1
1.047602124E2,9.577326775E-1,-1.302747726E-1,1.970314980E-1
1.048202124E2,8.450527191E-1,1.297559738E-1,9.737737179E-1
1.048702124E2,8.305613995E-1,2.771282196E-1,6.472932100E-1
1.049302124E2,4.325654507E-1,2.200269699E-1,-2.666330338E-1
1.049802125E2,4.136033058E-1,4.927082062E-1,-4.116632938E-1
1.050402125E2,2.092003822E-2,-2.416830063E-1,-3.651728630E-1
1.051002125E2,-5.857591629E-1,2.197532654E-1,-8.524643779E-1
1.051602124E2,-3.335912228E-1,-4.809474945E-1,-2.254271507E-2
1.052202124E2,-5.156993866E-1,-1.383686066E-2,-2.084807158E-1
1.052702124E2,-5.120186806E-1,-2.010374069E-1,1.309366226E-1
1.053302124E2,-3.676240444E-1,-4.082717896E-1,6.319224834E-2
1.053902124E2,1.370573044E-2,-1.556053162E-1,3.758573532E-1
1.054502124E2,3.090076447E-1,-3.398723602E-1,3.675662279E-1
1.055102124E2,3.702878952E-3,-3.249235153E-1,-1.685795784E-1
1.055701520E2,-1.071040630E-1,3.868494034E-1,-5.255852342E-1
1.056201521E2,4.965560436E-1,-1.564569473E-1,1.322484016E-2
1.056801520E2,4.816718102E-1,2.676010132E-2,-1.325818300E-1
1.057401520E2,6.214299202E-1,2.854156494E-2,-6.033074856E-2
1.057901521E2,4.307458401E-1,-7.591247559E-3,5.360627174E-2
1.058501520E2,4.756629467E-1,1.776790619E-2,4.314363003E-2
1.059101520E2,3.068780899E-2,-1.000490189E-1,-4.658212662E-1
1.059701520E2,1.089520454E-1,-1.730051041E-1,4.888796806E-2
1.060201520E2,-8.750438690E-2,-6.465530396E-2,-1.290540695E-1
1.060801520E2,-2.546954155E-2,1.133537292E-2,-8.388519287E-3
1.061301521E2,-3.706514835E-1,-1.517124176E-1,-7.361853123E-2
1.061901520E2,3.561615944E-2,-9.231185913E-2,5.684182644E-1
1.062401521E2,1.595671177E-1,-1.764640808E-1,6.390058994E-1
1.063001521E2,2.569112778E-1,-1.050224304E-1,9.390163422E-2
1.063601521E2,5.560994148E-2,8.558750153E-2,-4.324326515E-1
1.064201520E2,1.803631783E-1,1.008939743E-1,-4.046503305E-1
1.064801520E2,5.569913387E-1,1.028537750E-2,2.972803116E-1
1.065301521E2,6.390669346E-1,1.003494263E-1,2.126066685E-1
1.065901521E2,4.214994907E-1,9.915637970E-2,1.488951445E-1
1.066501520E2,9.450299740E-1,3.383083344E-1,1.055257201E0
1.067101520E2,1.044716835E-1,-1.978359222E-1,-3.560209274E-2
1.067701520E2,9.192931652E-1,-3.077583313E-1,7.475938797E-1
1.068301520E2,2.405843735E-1,-1.860389709E-1,5.046033859E-2
1.068801520E2,-2.022109032E-1,-2.554903030E-1,-6.914371252E-1
1.069301520E2,-1.005332708E0,-8.854389191E-2,-1.481040478E0
1.069901520E2,-6.006872654E-1,2.523021698E-1,-1.020159364E0
1.070401520E2,-5.544624329E-1,1.398000717E-1,-3.318910599E-1
1.071001520E2,2.158894539E-1,-4.036226273E-1,5.597209930E-1
1.071601520E2,-1.100859642E-1,-2.203636169E-1,3.536491394E-1
1.072201520E2,-2.861218452E-1,-2.892208099E-2,3.772799969E-1
1.072701520E2,-1.515479088E-1,1.587438583E-1,2.197872400E-1
1.073301520E2,4.064950943E-1,2.153425217E-1,8.124008179E-1
1.073801520E2,1.030045986E0,1.902465820E-1,8.258430958E-1
1.074401520E2,7.268633842E-1,-6.795787811E-2,4.413690567E-1
1.074901520E2,1.093854427E0,1.853876114E-1,1.660584211E-1
1.075501520E2,8.819766045E-1,1.592736244E-1,-1.531437635E-1
1.076101520E2,9.845476151E-1,-6.239843369E-2,9.497596025E-1
1.076701520E2,1.433658600E0,2.126073837E-2,1.264424920E0
1.077301520E2,1.791009903E0,1.300497055E-1,1.096260548E0
1.077901520E2,1.412652016E0,1.706600189E-3,3.725945950E-1
1.078401521E2,1.872600079E0,-2.293705940E-1,7.223052979E-1
1.079001520E2,2.670293808E0,-5.595364571E-1,1.278323412E0
1.079601520E2,2.701809883E0,-6.986999512E-1,4.263613224E-1
1.080201520E2,2.447842598E0,-8.661918640E-1,6.958844662E-1
1.080801520E2,2.832317352E0,-2.189209700E0,-7.182891369E-1
1.081401519E2,1.422605515E0,-2.557788610E0,-1.535243869E0
1.081901519E2,-5.390318871E0,-6.345893860E0,-3.506832123E0
1.082401520E2,-2.234284401E0,-1.030407715E1,-7.223641396E0
1.082901520E2,-2.545030594E1,-3.783198547E1,2.777597618E1
1.083501519E2,-5.329557896E0,1.922480202E1,2.545150757E0
1.084101519E2,-4.492876530E0,5.543669701E0,4.891508579E0
1.084701519E2,-3.966387749E0,2.371904135E0,1.291093826E0
1.085201520E2,-1.729597092E0,1.069869041E0,7.718467712E-1
1.085801520E2,1.169589996E0,7.990721464E-1,-3.697357178E-1
1.086301520E2,2.214203835E0,-6.659018993E-1,-1.465876102E-1
1.086901520E2,2.662769318E0,-2.272137642E0,4.463880539E0
1.087401520E2,2.054813385E0,-4.340744019E-1,1.785775781E0
1.088001520E2,3.244135857E0,-1.777552605E0,-1.454189539E0
1.088601520E2,9.116639137E0,-1.491969585E0,9.377216101E-1
1.089201519E2,1.188764668E1,-1.333750725E0,2.124332428E0
1.089801520E2,8.876230240E0,-3.582412004E0,1.220105410E0
1.090401520E2,6.170402527E0,-6.565394878E0,-9.970770478E-1
1.090901520E2,1.354428291E0,-6.893242836E0,-3.714938402E0
1.091501520E2,-1.293888569E0,-6.840641975E0,-5.346504211E0
1.092101519E2,-2.699364901E0,-5.840651989E0,-7.298522472E0
1.092701519E2,-2.636856556E0,-6.531983376E0,-8.186044693E0
1.093301519E2,-2.761660099E0,-6.698169708E0,-8.316737175E0
1.093801519E2,-2.832377672E0,-3.179942608E0,-4.530898094E0
1.094301520E2,-4.181086540E0,7.907381058E-1,9.714183807E-1
1.094901520E2,-6.153167725E0,6.158166409E0,5.508446693E0
1.095401520E2,-1.076235485E1,7.132151127E0,8.396004677E0
1.096001520E2,-1.803777504E1,8.643033981E0,7.753084183E0
1.096601519E2,-3.305819321E1,1.585391426E1,-7.844946861E0
1.097201519E2,-5.587152958E0,-3.431668758E0,-7.839020729E0
1.097701519E2,3.482572937E1,-4.009463120E1,-1.468374825E1
1.098301519E2,2.381600380E1,1.363285446E1,-2.413983917E1
1.098801520E2,1.561646938E0,-2.309543419E1,-1.646319962E1
1.099401519E2,-1.542862415E0,1.124834442E1,-8.571565628E0
1.099901520E2,2.510064602E0,4.962743759E0,-6.681105614E0
1.100501520E2,6.079621315E-1,3.903727531E0,-1.505456924E0
1.101101520E2,7.174386978E-1,2.000779152E0,4.500866413E0
1.101701519E2,-1.789806366E0,2.534132957E0,2.753437042E0
1.102201520E2,-1.071325302E0,-1.063482761E-1,3.741564274E0
1.102701520E2,-1.402326584E0,6.291695833E-1,1.108258724E0
1.103301520E2,3.442301750E-1,-5.262020826E-1,1.385153294E0
1.103901520E2,-4.238986969E-1,-5.968981385E-1,-5.978341103E-1
1.104501520E2,6.558094025E-1,-4.341493249E-1,-3.168711662E-1
1.105101519E2,4.724783897E-1,-2.910517156E-1,-1.540439606E0
1.105701519E2,5.648970604E-1,1.474846900E-1,-1.514915943E0
1.106301519E2,7.100205421E-1,5.652486086E-1,-2.375288963E0
1.106801519E2,3.840088844E-1,5.352481604E-1,-1.264262199E0
1.107401519E2,7.180018425E-1,-3.706119657E-1,2.035846710E-1
1.107901519E2,-5.394496918E-1,6.901729107E-2,-2.505888939E-1
1.108501519E2,9.861891270E-1,-4.058702588E-1,-1.513729095E-1
1.109101518E2,1.561053038E0,-6.482171416E-1,-7.039604187E-1
1.109701519E2,2.009952307E0,-5.181837082E-2,-6.872110367E-1
1.110201519E2,2.356429100E0,-5.849997997E-1,-9.134960175E-1
1.110801519E2,1.299016118E0,9.251655340E-1,-7.849264145E-1
1.111301519E2,-1.868476868E-1,-8.907297850E-1,-2.141282082E0
1.111901519E2,1.444885850E0,-7.724463940E-1,-2.327554703E0
1.112401520E2,4.470872879E-2,-1.572887182E0,-6.651964188E-1
1.113001519E2,8.470730782E-1,-1.895884037E0,7.345619202E-1
1.113601519E2,1.199930429E0,-3.627499104E0,7.784757614E-1
1.114201519E2,1.616140127E0,-3.119098186E0,1.815985680E0
1.114801519E2,1.396909952E0,-2.029149055E0,1.023245811E0
1.115401519E2,2.609998703E0,-1.548247337E0,1.692866087E0
1.115901519E2,2.546162605E0,-5.313930511E-1,9.476017952E-1
1.116501519E2,1.563923120E0,-1.838169098E-1,2.741618156E-1
1.117101519E2,8.901886940E-1,-1.191473007E-1,1.181507111E-2
1.117701518E2,2.347228527E-1,1.218194962E-1,-6.992535591E-1
1.118301518E2,4.766473770E-1,-3.081579208E-1,-7.356710434E-1
1.118901518E2,-7.522749901E-2,-4.516525269E-1,-1.144075871E0
1.119401518E2,-6.437628269E-1,-3.964481354E-1,-1.351918697E0
1.119901518E2,-4.405016899E-1,-3.479413986E-1,-7.324202061E-1
1.120401519E2,-9.624104500E-1,-3.125705719E-1,-6.257266998E-1
1.121001518E2,-9.903936386E-1,-5.032825470E-1,-3.143100739E-1
1.121601518E2,-7.225339413E-1,-6.479587555E-1,3.046631813E-1
1.122101518E2,-4.784462452E-1,-4.583396912E-1,1.289072037E-1
1.122601519E2,-2.658009529E-2,-4.574871063E-2,-6.009554863E-2
1.123201519E2,5.834069252E-1,-7.588481903E-2,5.316963196E-1
1.123701519E2,3.738198280E-1,-3.711338043E-1,6.595039368E-2
1.124301519E2,4.563012123E-1,-1.923894882E-1,3.678946495E-1
1.124901519E2,8.051731586E-1,-2.874755859E-1,5.325059891E-1
1.125501519E2,6.599550247E-1,-7.705936432E-1,1.276359558E-1
1.126101519E2,3.231103420E-1,-3.723497391E-1,-1.277422905E-1
1.126701518E2,7.210388184E-1,-4.320545197E-1,1.081824303E-1
1.127301519E2,4.832806587E-1,-4.093837738E-1,1.281065941E-1
1.127801519E2,2.205953598E-1,-4.281916618E-1,3.059244156E-2
1.128401370E2,5.295085907E-2,-5.201416016E-1,-4.511241913E-1
1.129001369E2,1.169276237E-1,-3.715052605E-1,-2.873005867E-1
1.129601369E2,3.307681084E-1,-3.460545540E-1,-2.614350319E-1
1.130201369E2,3.977456093E-1,-4.867963791E-1,8.498983383E-1
1.130801369E2,9.484910965E-2,8.878302574E-2,4.626398087E-1
1.131401368E2,4.794692993E-2,1.927626133E-1,2.157926559E-1
1.131901369E2,2.851614952E-1,1.660075188E-1,1.325818539E0
1.132401369E2,3.078889847E-2,9.177744389E-2,3.812170029E-2
1.132901369E2,4.230003357E-1,1.956378222E-1,4.262213707E-1
1.133501369E2,3.307347298E-1,-1.631255150E-1,-2.868747711E-1
1.134101369E2,-5.159697533E-1,-7.439597696E-2,-1.117354870E0
1.134701369E2,-1.718153954E-1,-1.171952486E-2,-8.291287422E-1
1.135301369E2,-1.768589020E-1,3.155267239E-2,-1.223256111E0
1.135901369E2,3.505792618E-1,7.699930668E-1,-4.558572769E-1
1.136401370E2,7.989168167E-1,1.161730170E0,3.294043541E-1
1.137001369E2,1.314568520E0,7.152282000E-1,3.807415962E-1
1.137501369E2,3.059835434E-1,4.079978466E-1,1.200494766E-1
1.138101369E2,3.137664795E-1,3.797457218E-1,-1.165411949E0
1.138601369E2,1.401626110E0,-1.495972633E0,-1.770737648E0
1.139201368E2,-1.558354855E0,-3.189765930E0,-4.555333138E0
1.139801369E2,-3.498059750E0,-6.232428551E0,-7.806041718E0
1.140401369E2,-1.443472862E1,-7.646785259E0,5.814828396E0
1.140901369E2,4.745407104E-1,8.219125748E0,1.470589638E-2
1.141501369E2,-2.203060627E0,2.937365055E0,1.451601028E0
1.142101369E2,-2.717027664E-1,1.985571384E0,8.231246471E-1
1.142701368E2,-1.541469097E0,8.125610352E-1,-1.625028491E0
1.143301368E2,-4.008855820E-1,-5.350999832E-1,-1.088090777E0
1.143901368E2,5.031986237E-1,-3.180622339E0,4.181361198E0
1.144401368E2,9.236531258E0,1.283103108E0,1.996660471E0
1.144901369E2,7.207359314E0,9.672495127E-1,5.095590115E0
1.145401369E2,1.069010258E1,1.199610710E0,6.673001766E0
1.146001369E2,3.632773399E0,-1.735956907E0,2.105059624E0
1.146601368E2,5.273056030E-2,-5.009412766E0,-5.481779575E-1
1.147201369E2,-6.063599586E-1,-3.786539078E0,-3.290532112E0
1.147701369E2,-3.965850830E0,-4.215026855E0,-6.034286022E0
1.148301369E2,-1.251692295E0,-3.176255226E0,-1.250782013E0
1.148801369E2,-1.102511883E0,-2.600255013E0,-5.630765438E0
1.149401369E2,-1.864151597E0,-2.512878895E0,-5.079354286E0
1.149901369E2,-2.031448603E0,9.346752167E-1,-1.474929810E0
1.150501369E2,-6.322264194E0,5.215599060E0,4.611665726E0
