"Time (s)","Acceleration x (m/s^2)","Acceleration y (m/s^2)","Acceleration z (m/s^2)"
5.199134000E-2,6.016812801E0,1.290514112E0,8.377567291E0
1.039844710E-1,7.594639778E0,1.271359921E0,9.024022102E0
1.559779310E-1,1.072635078E1,-1.357553840E0,8.339259148E0
2.079718180E-1,1.166730118E1,-5.265010357E0,6.931425571E0
2.599655740E-1,1.410467243E1,-1.221080112E1,6.917059898E0
3.119589000E-1,1.260825157E1,-1.108309841E1,4.585036278E0
3.639521930E-1,1.031453609E1,-1.105915546E1,3.320859194E0
4.159455190E-1,7.853221416E0,-9.081484795E0,2.499622822E0
4.679390450E-1,5.233884811E0,-6.744672298E0,1.862745762E0
5.199323380E-1,3.847599506E0,-5.679219723E0,2.020767927E0
5.719255640E-1,5.166844845E0,-5.698374271E0,5.300924301E0
6.239192860E-1,5.468523502E0,-6.833260536E0,7.618582249E0
6.759133080E-1,7.807730198E0,-6.612987041E0,8.913885117E0
7.279066340E-1,8.901913643E0,-2.209915638E0,1.207672215E1
7.798998600E-1,7.529994488E0,-2.700742006E0,1.143984509E1
8.318941520E-1,3.826051235E0,-3.000026226E0,9.328094482E0
8.838902730E-1,8.332076073E-1,-1.834014535E0,6.833260536E0
9.358839660E-1,-2.197944164E0,-2.490045726E-1,4.800520897E0
9.878773930E-1,-3.658451796E0,-1.747820675E-1,4.388705730E0
1.039870685E0,-1.266571403E0,6.273000240E-1,6.110189438E0
1.091863844E0,-2.439765930E0,-3.328042030E-1,7.223526955E0
1.143857470E0,-3.442967176E0,-1.173194647E-1,6.759037971E0
1.195850596E0,-3.648874760E0,-7.446194887E-1,7.644919395E0
1.247844353E0,-4.036747456E0,-8.044763207E-1,8.741497040E0
1.299838274E0,-4.762212753E0,-7.134938836E-1,1.120281219E1
1.351831566E0,-6.624958515E0,7.494080067E-1,1.013975334E1
1.403824958E0,-7.309720993E0,2.640885115E0,8.169265747E0
1.455818317E0,-7.762238979E0,3.124528646E0,8.882759094E0
1.507811577E0,-5.636122704E0,1.505998850E0,8.758256912E0
1.559804936E0,-2.461314440E0,5.578660369E-1,1.098732662E1
1.611798229E0,-3.057488918E0,-6.680026650E-1,1.076226521E1
1.663792681E0,8.164477348E-1,1.992036581E0,1.047255802E1
1.715785905E0,-4.836435318E0,2.267378330E0,8.087860107E0
1.767779298E0,-1.604164124E0,5.016005516E0,7.350423813E0
1.819772658E0,-3.830839634E0,3.244242430E0,7.312115192E0
1.871766913E0,-3.902667999E0,3.617749214E0,6.663266659E0
1.923765734E0,-4.247443676E0,4.053507328E0,6.909877300E0
1.975762861E0,-4.613767624E0,3.883513689E0,5.846818924E0
2.027756988E0,-5.044736862E0,3.553103924E0,6.864386082E0
2.079750381E0,-5.109382629E0,3.926610708E0,6.205960274E0
2.131743640E0,-4.982485771E0,3.708731651E0,6.603409767E0
2.183736900E0,-5.102199554E0,3.634509087E0,6.158074856E0
2.235730393E0,-4.992063046E0,3.787742853E0,6.967339516E0
2.287723949E0,-4.678412914E0,3.948159218E0,7.520417213E0
2.339718136E0,-4.826858044E0,3.926610708E0,7.850827217E0
2.391711596E0,-4.829252243E0,3.548315287E0,7.620976925E0
2.443704789E0,-4.913052082E0,3.033546209E0,7.781393051E0
2.495698080E0,-4.788549423E0,2.796513081E0,7.877163887E0
2.547691306E0,-4.989668846E0,2.602576733E0,8.102226257E0
2.599684666E0,-4.793338299E0,3.493247032E0,7.510839939E0
2.651678025E0,-4.901080608E0,3.620143414E0,7.618582249E0
2.703671746E0,-5.205153465E0,3.912245035E0,6.984099388E0
2.755665701E0,-5.159662247E0,3.730280161E0,6.933819771E0
2.807659127E0,-5.262616158E0,4.218712330E0,6.435810566E0
2.859652286E0,-5.401484013E0,4.170826912E0,6.675238132E0
2.911645812E0,-5.466129303E0,3.933793545E0,6.517216206E0
2.963640068E0,-5.351204395E0,3.871542454E0,6.811711788E0
3.015638523E0,-5.377541065E0,4.082238674E0,6.481301785E0
3.067635412E0,-5.435003757E0,4.271386147E0,6.574678421E0
3.119629006E0,-5.281770229E0,4.036747456E0,6.969734192E0
3.171122645E0,-5.123748302E0,3.665634632E0,6.272999763E0
3.223116335E0,-5.104593754E0,4.115758419E0,6.296942711E0
3.275109594E0,-5.253038883E0,4.122941017E0,7.048745155E0
3.327102954E0,-5.394300938E0,4.326454639E0,7.549148560E0
3.379097145E0,-5.365570068E0,4.448562622E0,7.850827217E0
3.431093333E0,-5.502043724E0,4.254626274E0,7.618582249E0
3.483087027E0,-5.135719299E0,4.130124092E0,7.429434776E0
3.535080386E0,-5.039948463E0,3.811685562E0,7.522811413E0
3.587073679E0,-4.968120098E0,3.620143414E0,7.276201248E0
3.639067005E0,-4.939388752E0,3.787742853E0,7.091842175E0
3.691060298E0,-4.913052082E0,4.156461239E0,6.342433929E0
3.743053658E0,-5.798933506E0,3.459727049E0,6.610592842E0
3.795047644E0,-5.684008598E0,3.258608103E0,6.414262295E0
3.847041367E0,-5.245856285E0,3.442967176E0,6.694392204E0
3.899034660E0,-4.400677204E0,3.754222870E0,6.900300026E0
3.951027919E0,-5.480494976E0,2.597788095E0,6.996070862E0
4.003021345E0,-4.968120098E0,2.279349566E0,7.355212212E0
4.055014737E0,-6.246663094E0,2.061470509E0,7.496474266E0
4.107007963E0,-7.067899227E0,2.748627424E0,7.977723598E0
4.159001422E0,-6.533976078E0,1.855562925E0,7.391126156E0
4.210995573E0,-7.199584484E0,2.873129845E-1,6.416656494E0
4.262988998E0,-3.426207304E0,6.727912426E-1,6.797346115E0
4.314982391E0,-4.110970020E0,-9.026415944E-1,6.318490982E0
4.366975683E0,-3.126922846E0,6.129343510E-1,7.089447498E0
4.418969972E0,-3.167625666E0,2.166818619E0,7.427040577E0
4.470968660E0,-3.272973776E0,1.120520592E0,8.600234985E0
4.522965350E0,-1.733454943E0,1.374313712E0,9.596253395E0
4.574959110E0,-8.715160489E-1,-2.418217510E-1,1.057072353E1
4.626952436E0,-1.678386688E0,-6.225114316E-2,1.053241444E1
4.678945762E0,-1.573038578E0,3.016786277E-1,1.029059315E1
4.730939055E0,-6.608198285E-1,3.591412306E-1,1.148294163E1
4.782932347E0,-7.757450342E-1,1.101366401E0,1.144223976E1
4.834925773E0,-1.197137386E-1,9.912297726E-1,1.152125072E1
4.886919198E0,3.615354896E-1,1.187560320E0,1.188518047E1
4.938913349E0,1.527547359E0,6.919454336E-1,1.188039207E1
4.990906741E0,8.595446348E-1,9.146129489E-1,1.008468533E1
5.042900033E0,7.278595567E-1,1.019961119E0,9.349642754E0
5.094893326E0,7.182824612E-1,1.292908430E0,8.854028702E0
5.146886819E0,-2.202732861E-1,2.090201855E0,8.334470749E0
5.198880044E0,2.777358890E-1,2.973689318E0,8.516435623E0
5.250873403E0,-1.122914910E0,3.028757572E0,8.597841263E0
5.302867291E0,-1.367130876E0,3.107768774E0,8.614601135E0
5.354861046E0,-2.882706881E0,1.644866824E0,8.123774529E0
5.406854406E0,-2.279349566E0,-3.830839694E-2,8.839662552E0
5.458847798E0,-1.570644259E0,-1.247417212E0,9.411893845E0
5.510841588E0,-1.848380208E0,-1.527547359E0,1.055156898E1
5.562837843E0,-2.015979290E0,-2.657645047E-1,1.070001411E1
5.614831803E0,-1.987248063E0,2.490045726E-1,1.042946148E1
5.666825095E0,-2.066259146E0,-6.943397224E-2,1.065212822E1
5.718818420E0,-2.382303476E0,3.423812985E-1,9.569916725E0
5.770811780E0,-2.343995094E0,1.173194647E-1,9.040781975E0
5.822805173E0,-2.291321039E0,5.937801600E-1,8.684034348E0
5.874798399E0,-2.243435383E0,-2.130904645E-1,8.674457550E0
5.926792353E0,-2.765387297E0,-1.316851079E-1,8.171659470E0
5.978786141E0,-2.324840784E0,-2.394274771E-1,8.499675751E0
6.030779433E0,-2.786935806E0,-5.506832153E-2,8.784594536E0
6.082772893E0,-3.069460392E0,3.471698463E-1,9.038387299E0
6.134766119E0,-2.966506481E0,2.274561077E-1,9.409500122E0
6.186759412E0,-3.177202702E0,2.250618339E-1,9.256266594E0
6.238752838E0,-3.095797300E0,1.268965602E-1,9.158101082E0
6.290746064E0,-3.282550812E0,4.549122155E-1,8.753468513E0
6.342739919E0,-3.055094719E0,9.385557175E-1,8.657697678E0
6.394733874E0,-2.767781734E0,1.127703428E0,8.947404861E0
6.446727067E0,-3.553103924E0,1.491633177E0,8.794171333E0
6.498720526E0,-3.629720688E0,1.467690468E0,9.332882881E0
6.550714083E0,-3.682394743E0,1.455719113E0,9.524425507E0
6.602712370E0,-3.462121487E0,1.024749637E0,8.940221786E0
6.654710030E0,-3.107768774E0,9.768640995E-1,8.458972931E0
6.706704890E0,-2.868341208E0,1.240234375E0,8.547560692E0
6.758698183E0,-2.897072554E0,1.072635174E0,8.549955368E0
6.810691508E0,-2.722290516E0,1.297696948E0,8.693612099E0
6.862684868E0,-2.909043789E0,1.343188167E0,8.775016785E0
6.914678226E0,-3.170019865E0,1.867534399E0,8.736708641E0
6.966671451E0,-2.849187136E0,2.188367128E0,8.731920242E0
7.018665737E0,-2.846792698E0,2.097384691E0,8.406298637E0
7.070659161E0,-2.889889717E0,2.609759569E0,8.839662552E0
7.122652453E0,-3.486064196E0,2.600182533E0,8.696005821E0
7.174645846E0,-3.263396502E0,2.660039425E0,9.047964096E0
7.226639272E0,-3.589017868E0,2.569056988E0,8.734314919E0
7.278632598E0,-3.146077156E0,2.391880512E0,8.837267876E0
7.330625858E0,-3.445361376E0,2.135693073E0,8.341653824E0
7.382619183E0,-3.419024467E0,2.023162127E0,8.107014656E0
7.434613368E0,-2.882706881E0,2.068653345E0,8.863605499E0
7.486606760E0,-2.774964571E0,2.411034822E0,8.858817101E0
7.538600185E0,-2.727078915E0,2.748627424E0,8.976136208E0
7.590593510E0,-2.806090117E0,2.533142805E0,8.660092354E0
7.642587100E0,-2.439765930E0,2.279349566E0,8.511647224E0
7.694585454E0,-2.145270348E0,1.757397652E0,8.193208694E0
7.746582843E0,-1.802888989E0,1.352765322E0,8.320104599E0
7.798576902E0,-1.800494671E0,9.672870040E-1,9.543579102E0
7.850570328E0,-1.003201127E0,2.035133541E-1,1.119323444E1
7.902563521E0,-3.806896806E-1,-5.051919818E-1,1.093944168E1
7.954556880E0,-3.423812985E-1,1.292908341E-1,9.893143654E0
8.006550439E0,-3.759011328E-1,8.116591573E-1,8.619389534E0
8.058543599E0,4.549122229E-2,8.068706393E-1,8.597841263E0
8.110537089E0,5.818088055E-1,1.474873304E0,8.255459785E0
8.162531375E0,3.591412306E-1,2.013585091E0,8.605023384E0
8.214524567E0,-8.643332124E-1,1.843591571E0,9.663292885E0
8.266517860E0,-1.573038578E0,1.450930476E0,8.772623062E0
8.318511586E0,-2.027950764E0,1.587404251E0,9.074301720E0
8.370504712E0,-2.535537004E0,9.385557175E-1,1.143266201E1
8.422497938E0,-1.719089270E0,0.000000000E0,1.178462029E1
8.474491231E0,-2.030344963E0,-9.050358534E-1,1.138238239E1
8.526484953E0,-2.260195494E0,-6.249057055E-1,1.002004051E1
8.578478940E0,-2.475680113E0,6.464541703E-2,8.952193260E0
8.630472398E0,-2.566662550E0,1.795706153E-1,9.155706406E0
8.682465824E0,-1.455719113E0,-2.202732861E-1,9.929058075E0
8.734459215E0,-1.094183564E0,-4.094209969E-1,9.780612946E0
8.786455238E0,-5.075862408E-1,-6.799740195E-1,9.897932053E0
8.838449633E0,-3.232271075E-1,-7.063110471E-1,9.246688843E0
8.890442925E0,-4.908263385E-1,-2.083019018E-1,9.189227104E0
8.942436252E0,-4.046324492E-1,8.164477348E-1,9.821314812E0
8.994429611E0,-5.099805593E-1,1.091789365E0,1.009905148E1
9.046422871E0,-1.055875182E0,1.067846537E0,9.907508850E0
9.098416397E0,-3.256213665E-1,6.919454336E-1,1.075747681E1
9.150410052E0,-6.225114465E-1,6.464541703E-2,1.036721039E1
9.202403972E0,-1.522758722E0,8.379961550E-2,9.356825829E0
9.254397298E0,-2.008796453E0,2.035133541E-1,8.763046265E0
9.306390590E0,-2.015979290E0,5.291347504E-1,8.901913643E0
9.358384050E0,-2.106961727E0,5.171633363E-1,9.196409225E0
9.410377309E0,-2.401457548E0,8.403904438E-1,9.464568138E0
9.462370634E0,-2.528354168E0,1.388679385E0,9.268238068E0
9.514363960E0,-2.753416061E0,1.795706153E0,9.438231468E0
9.566357881E0,-2.676799297E0,1.546701550E0,9.287391663E0
9.618351636E0,-2.897072554E0,1.489238977E0,8.933039665E0
9.670345161E0,-2.284138203E0,2.818061352E0,9.419076920E0
9.722338255E0,-3.399870157E0,4.036747456E0,9.548367500E0
9.774331847E0,-3.464515686E0,3.816473961E0,9.806949615E0
9.826329067E0,-3.802108288E0,2.707924843E0,9.443019867E0
9.878327188E0,-4.513207912E0,1.913025618E0,7.817307472E0
9.928331921E0,-4.606584549E0,1.340793848E0,5.856396198E0
9.980325114E0,-5.827664852E0,4.764606953E-1,5.217124939E0
1.003231861E1,-5.571477413E0,5.291347504E-1,5.894704342E0
1.008431190E1,-6.682421207E0,1.556278616E-1,5.954561234E0
1.013630516E1,-7.273807049E0,-9.577099234E-3,5.810904980E0
1.018829848E1,-7.017619610E0,3.615354896E-1,5.619362831E0
1.024029188E1,-5.121353626E0,8.834874034E-1,6.330462456E0
1.029228583E1,-6.438204765E0,1.297696948E0,5.724710941E0
1.034427955E1,-5.810904980E0,1.924996972E0,7.218738556E0
1.039627285E1,-6.435810566E0,1.879505754E0,7.814912796E0
1.044826617E1,-6.380742550E0,1.585009933E0,8.420664787E0
1.050025953E1,-6.227508545E0,9.457385540E-1,9.126976013E0
1.055225286E1,-5.988081455E0,2.825244367E-1,8.743891716E0
1.060424628E1,-5.492466450E0,4.070267081E-2,8.315316200E0
1.065623948E1,-5.669642925E0,-2.992843390E-1,7.941809654E0
1.070823373E1,-5.621757030E0,1.122914910E0,7.225921154E0
1.076022725E1,-6.249057293E0,7.781392932E-1,7.970541000E0
1.081222054E1,-7.149304390E0,9.050358534E-1,7.482108593E0
1.086421397E1,-6.969734192E0,1.271359921E0,6.308914185E0
1.091620953E1,-6.852414608E0,2.332023621E0,5.214730740E0
1.096820458E1,-6.249057293E0,2.674404860E0,4.968120098E0
1.102019804E1,-6.852414608E0,3.143682718E0,4.343214512E0
1.107219124E1,-7.223526955E0,3.359167576E0,4.338426113E0
1.112418453E1,-6.866780281E0,3.244242430E0,5.037554264E0
1.117617799E1,-7.043956280E0,2.971295118E0,5.521197796E0
1.122817128E1,-7.115784645E0,2.552296877E0,5.887521744E0
1.128016454E1,-6.648900986E0,2.480468750E0,6.174834728E0
1.133215879E1,-6.993676662E0,2.492439985E0,5.916253090E0
1.138415222E1,-7.264229774E0,2.425400496E0,5.856396198E0
1.143614564E1,-7.206767082E0,2.399063349E0,5.916253090E0
1.148813897E1,-7.417463303E0,2.324840784E0,5.796539307E0
1.154013240E1,-7.075081825E0,2.054287672E0,6.107795238E0
1.159212559E1,-7.326480865E0,2.238646984E0,5.798933506E0
1.164411891E1,-6.929031372E0,2.051893473E0,5.399089813E0
1.169611241E1,-7.637736797E0,2.377514839E0,5.006428719E0
1.174810652E1,-7.702382088E0,1.987248063E0,5.427821159E0
1.180009995E1,-7.503657341E0,1.915419817E0,6.301731110E0
1.185208844E1,-5.243461609E0,1.505998850E0,5.940196037E0
1.190408164E1,-4.668835640E0,9.960182905E-1,5.731894016E0
1.195607507E1,-6.062304020E0,1.771763414E-1,5.123748302E0
1.200806899E1,-4.743058205E0,-5.602602959E-1,7.302538395E0
1.206006264E1,-8.068706393E-1,-1.987248063E0,9.261054993E0
1.211205614E1,2.178790122E-1,-2.892283916E0,8.492492676E0
1.216404960E1,-1.956122518E0,-5.535563469E0,9.783006668E0
1.221604265E1,-2.257801056E0,-6.684815407E0,1.092986488E1
1.226803611E1,-4.438985348E0,-7.314509392E0,9.948211670E0
1.232002947E1,-3.177202702E0,-6.028783798E0,8.085466385E0
1.237202300E1,-5.818088055E-1,-6.557918549E0,8.514040947E0
1.242401688E1,-1.743032098E0,-6.277788639E0,7.716747761E0
1.247601044E1,-1.599375606E0,-6.608198643E0,7.623371124E0
1.252800403E1,-9.840469360E-1,-6.471724987E0,7.831672668E0
1.257999716E1,-1.623318315E0,-6.308914185E0,7.122967720E0
1.263199082E1,-1.343188167E0,-6.196382999E0,7.635342598E0
1.268398700E1,-9.768640995E-1,-6.553130150E0,7.757450581E0
1.273598120E1,-6.871568561E-1,-6.397502422E0,7.819701672E0
1.278797449E1,-7.446194887E-1,-5.815693378E0,7.817307472E0
1.283996778E1,-3.064671755E-1,-5.865973473E0,7.719141960E0
1.289196108E1,-3.304099143E-1,-5.399089813E0,7.575485706E0
1.294395460E1,-3.328042030E-1,-5.604997158E0,7.965752125E0
1.299594786E1,-2.059076279E-1,-5.633728504E0,7.664073467E0
1.304794181E1,-5.458946824E-1,-5.619362831E0,7.812518597E0
1.309993547E1,-1.197137386E-1,-5.700768471E0,7.922655106E0
1.315192883E1,-1.110943556E0,-5.578660488E0,8.013637543E0
1.320392212E1,7.589851022E-1,-5.760625362E0,8.573898315E0
1.325591548E1,1.936968327E0,-5.669642925E0,8.729525566E0
1.330790877E1,5.794144869E-1,-5.327261448E0,8.248276711E0
1.335990210E1,1.268965602E0,-4.977697372E0,8.181237221E0
1.341189592E1,7.063110471E-1,-5.104593754E0,8.549955368E0
1.346388984E1,3.399870098E-1,-4.546727657E0,8.008849144E0
1.351588310E1,8.379961848E-1,-4.585036278E0,8.183630943E0
1.356787656E1,7.709565163E-1,-4.285751820E0,8.097437859E0
1.361986978E1,1.142069101E0,-4.197163582E0,7.850827217E0
1.367186334E1,6.751855016E-1,-4.403071404E0,8.178842545E0
1.372386136E1,1.328822494E0,-4.455745220E0,8.468549728E0
1.377585912E1,6.751855016E-1,-4.726298332E0,8.269824982E0
1.382785308E1,7.901107073E-1,-4.477293968E0,8.679245949E0
1.387984670E1,8.595446348E-1,-4.486870766E0,8.506858826E0
1.393183996E1,7.805336118E-1,-4.316877365E0,8.772623062E0
1.398383315E1,1.336005330E0,-4.498842239E0,8.820508003E0
1.403582658E1,7.805336118E-1,-4.429408550E0,8.923461914E0
1.408781987E1,1.611346960E0,-4.527573586E0,9.306546211E0
1.413981366E1,6.823683381E-1,-4.393494129E0,8.825297356E0
1.419180768E1,8.715160489E-1,-3.680000305E0,8.863605499E0
1.424380084E1,6.512427330E-1,-3.885908127E0,8.909096718E0
1.429579413E1,2.513988614E-1,-4.568276405E0,8.887548447E0
1.434778763E1,-5.267404318E-1,-5.078257084E0,9.007262230E0
1.439978085E1,-1.795706153E-1,-4.692778587E0,9.069513321E0
1.445177418E1,-2.537931204E-1,-4.077449799E0,9.016839027E0
1.450376770E1,4.788549617E-2,-3.651269197E0,8.791776657E0
1.455576116E1,-6.249057055E-1,-3.536343813E0,8.636149406E0
1.460775518E1,-2.059076279E-1,-2.849187136E0,8.447001457E0
1.465974857E1,2.466102988E-1,-2.774964571E0,8.260248184E0
1.471227864E1,3.639297783E-1,-2.372726440E0,8.018425941E0
1.476427216E1,-2.873129845E-1,-2.983266354E0,7.999272346E0
1.481626838E1,-9.241901040E-1,-3.079037428E0,8.662486076E0
1.486826268E1,-1.321639657E0,-3.871542454E0,1.075029373E1
1.492025597E1,-1.822043180E0,-3.560286522E0,1.010623360E1
1.497224936E1,-2.751021862E0,-3.160442829E0,1.105197239E1
1.502424276E1,-2.432583094E0,-2.921015263E0,1.024749660E1
1.507623605E1,-1.807677507E0,-2.027950764E0,9.857229233E0
1.512822944E1,-1.719089270E0,-1.010383964E0,9.244295120E0
1.518022306E1,-1.659232497E0,3.687183261E-1,8.154899597E0
1.523221705E1,-1.721483588E0,6.488484740E-1,8.293767929E0
1.528421044E1,-1.295302629E0,-2.561874092E-1,7.704776287E0
1.533620370E1,-1.084606528E0,-6.249057055E-1,6.641718388E0
1.538819703E1,5.267404318E-1,2.394274808E-2,6.806923389E0
1.544019069E1,1.515576005E0,8.619388938E-2,7.096630573E0
1.549218395E1,1.984853864E0,1.793311834E0,8.255459785E0
1.554417714E1,8.930644989E-1,1.118126392E0,9.732727051E0
1.559617093E1,1.704723716E0,2.418217510E-1,1.249093151E1
1.564816471E1,2.221887112E0,-3.351984620E-1,1.347737312E1
1.570015804E1,2.868341208E0,-8.140534163E-1,1.387961102E1
1.575215153E1,1.410227895E0,-1.007989645E0,1.192588329E1
1.580414479E1,3.114951611E0,-1.383890867E0,1.260825157E1
1.585614201E1,8.739103079E-1,1.383890867E0,1.080536175E1
1.590814010E1,7.398309112E-1,1.541913033E0,9.316123009E0
1.596013479E1,2.274561077E-1,1.755003452E0,8.949799538E0
1.601212805E1,1.367130876E0,1.683175206E0,8.037580490E0
1.606412141E1,8.451790214E-1,1.340793848E0,7.527599812E0
1.611611480E1,5.099805593E-1,1.558672905E0,8.451789856E0
1.616810806E1,3.280156553E-1,2.008796453E0,8.523618698E0
1.622010142E1,4.740664065E-1,2.700742006E0,1.074550533E1
1.627209488E1,2.585816681E-1,5.942590237E0,1.064973450E1
1.632408874E1,2.229069948E0,7.182824612E0,1.133449650E1
1.637608239E1,1.793311834E0,8.243488312E0,9.656110764E0
1.642807582E1,2.327235222E0,8.157294273E0,7.790970325E0
1.648006911E1,1.379102230E0,7.424646378E0,5.181210518E0
1.653206247E1,2.849186957E-1,6.459753513E0,3.543526649E0
1.658405576E1,-1.326428294E0,5.257827282E0,-1.915419847E-1
1.663604912E1,-4.381522834E-1,4.381523132E0,-1.776551962E0
1.668804245E1,3.244242430E0,4.333637357E-1,-1.089395046E0
1.674003663E1,4.709538460E0,6.368771195E-1,-2.092596292E0
1.679203016E1,7.939415455E0,-2.758204460E0,-2.063864946E0
1.684402342E1,4.508419514E0,2.434977531E0,3.372814941E1
1.689601688E1,4.549122155E-1,-1.209108829E0,1.569207668E1
1.694801243E1,-3.749434233E0,8.458972931E0,2.097863579E1
1.700000749E1,-8.078283310E0,1.211503029E1,1.937926102E1
1.705200095E1,-1.013975334E1,1.113337803E1,1.449015141E1
1.710399418E1,-1.204080772E1,9.174860954E0,7.125361919E0
1.715598754E1,-1.342469883E1,8.382355690E0,1.604164124E0
1.720798086E1,-8.983319283E0,4.259414673E0,5.916253090E0
1.725997412E1,-3.387898922E0,-6.890722752E0,1.564179707E1
1.731196745E1,1.906800461E1,-2.015500450E1,1.707117844E1
1.736396170E1,5.865973234E-1,-2.973689318E0,1.920208454E0
1.741595519E1,-4.977697372E0,2.260195494E0,-5.889915824E-1
1.746794848E1,-4.929811954E0,4.642498970E0,1.216291547E0
1.751994194E1,-5.140508175E0,9.122186899E-1,2.523565531E0
1.757193513E1,-3.306493521E0,-4.213923812E-1,4.149278164E0
1.762392856E1,-4.163643837E0,7.829278708E-1,3.895485163E0
1.767592202E1,-2.157241583E0,1.917814136E0,4.446168423E0
1.772791531E1,3.543526828E-1,1.721483588E0,8.810931206E0
1.777990946E1,1.563461423E0,4.913052082E0,1.087000751E1
1.783190289E1,4.309694767E0,5.882733345E0,1.810790062E1
1.788389625E1,8.557138443E0,4.608979225E0,2.110074425E1
1.793588944E1,1.191630554E1,4.110970020E0,1.776551819E1
1.798788573E1,1.030016994E1,2.686376333E0,1.311104870E1
1.803988422E1,8.145322800E0,1.944151163E0,9.873989105E0
1.809188048E1,6.500456333E0,2.952140808E0,8.937828064E0
1.814387391E1,4.501236439E0,5.154873848E0,7.352818012E0
1.819586727E1,1.683175206E0,4.115758419E0,6.387925148E0
1.824786049E1,9.816526771E-1,6.476513386E0,5.214730740E0
1.829985408E1,1.642472506E0,7.273807049E0,3.747040033E0
1.835184721E1,-1.929785490E0,8.305739403E0,1.599375606E0
1.840384097E1,-2.394274771E-1,7.872375488E0,2.030344963E0
1.845583492E1,9.672870040E-1,6.067092419E0,1.098972082E0
1.850782825E1,1.917814136E0,1.280937076E0,6.225114465E-1
1.855982160E1,2.581028223E0,-2.573845387E0,-1.096577883E0
1.861181490E1,1.418847275E1,-1.324752235E1,1.781101036E1
1.866380819E1,-2.152452946E0,-2.923409462E0,1.356596088E1
1.871580158E1,-7.386337757E0,2.741444588E0,6.282577038E0
1.876779487E1,-6.519610405E0,6.701575279E0,1.090113354E1
1.881978889E1,-8.921068192E0,1.402326775E1,1.107352066E1
1.887178258E1,-1.288119888E1,1.374553204E1,1.171279240E1
1.892377584E1,-1.442071724E1,1.352286434E1,1.006074238E1
1.897576930E1,-1.535208988E1,1.352525806E1,6.794951916E0
1.902776256E1,-1.482056141E1,1.216530991E1,5.344021320E0
1.907975875E1,-4.348002911E0,-1.218685865E0,1.509829712E1
1.913175734E1,1.332892799E1,-2.096187592E1,3.550709486E0
1.918375273E1,1.118844604E1,-6.227508545E0,3.213116884E0
1.923574602E1,1.189954638E0,-1.819648892E-1,2.683982134E0
1.928773935E1,4.788549617E-2,3.672817469E0,6.081457734E-1
1.933973258E1,-1.412622094E0,5.626545906E0,3.895485163E0
1.939172594E1,-4.309694767E-1,6.608198643E0,3.680000305E0
1.944371940E1,-1.039115310E0,6.294548512E0,5.030371189E0
1.949571259E1,2.705530524E-1,7.932232380E0,6.428627968E0
1.954770664E1,-5.004034638E-1,8.087860107E0,7.632947922E0
1.959970030E1,1.295302629E0,7.944203854E0,7.321692467E0
1.965169356E1,8.667274714E-1,8.317710876E0,1.004637718E1
1.970368688E1,1.553884387E0,1.120041752E1,1.033847904E1
1.975568044E1,2.798907280E0,1.122436047E1,1.444466019E1
1.980767363E1,3.984073162E0,8.186025620E0,1.428184891E1
1.985966686E1,2.470891714E0,6.110189438E0,1.001046276E1
1.991166065E1,4.166038036E-1,6.074275017E0,7.623371124E0
1.996365490E1,3.926610649E-1,5.736682415E0,8.391933441E0
2.001564796E1,-1.685569525E0,6.431022167E0,8.367990494E0
2.006764132E1,-1.041509509E0,7.209161282E0,8.650514603E0
2.011963478E1,-1.221080184E0,1.037918091E1,1.015172482E1
2.017162957E1,-8.667274714E-1,1.209348202E1,1.183250618E1
2.022362539E1,-2.142875910E0,7.099024773E0,7.939415455E0
2.027561868E1,-7.781392932E-1,2.990449190E0,5.353598595E0
2.032761194E1,-1.771763325E0,-3.205934048E0,7.518022656E-1
2.037960580E1,2.638490915E0,-3.984073162E0,-3.256213665E0
2.043159876E1,2.515425110E1,-4.343214512E0,2.284138203E0
2.048359205E1,-1.755482292E1,3.335224867E0,-8.243488312E0
2.053558538E1,2.865947008E0,6.684815407E0,-4.992063046E0
2.058757950E1,-2.401457548E0,3.706337452E0,3.110162973E0
2.063957312E1,-4.290540695E0,8.138139725E0,3.603383541E0
2.069156635E1,-4.371945858E0,8.281796455E0,1.093944168E1
2.074355961E1,-7.429434776E0,9.091061592E0,1.495942879E1
2.079555303E1,-8.104619980E0,1.048692322E1,1.875674820E1
2.084754642E1,-1.160505009E1,1.068564892E1,1.729863548E1
2.089953969E1,-1.775354767E1,1.417410660E1,1.656359291E1
2.095153314E1,-1.937926102E1,4.467716694E0,1.366173172E1
2.100352736E1,2.274561077E-1,-1.458113384E1,1.182771778E1
2.105552089E1,9.562733650E0,-2.016218758E1,-2.930592299E0
2.110751408E1,1.101366401E0,-3.529160976E0,1.824437380E0
2.115950751E1,2.466103077E0,-3.414235830E0,2.300898075E0
2.121150246E1,1.570644259E0,-6.416656375E-1,1.130097747E0
2.126350142E1,-9.361614585E-1,4.857983589E0,5.224307537E0
2.131549774E1,-7.063110471E-1,5.403878212E0,6.919454098E0
2.136749070E1,-3.043123245E0,7.980117798E0,5.231490612E0
2.141948413E1,-2.360754967E0,9.019232750E0,6.773403645E0
2.147147748E1,1.422199249E0,7.735901833E0,1.367609787E1
2.152347071E1,2.420611858E0,9.246688843E0,1.273514748E1
2.157546394E1,6.016812801E0,7.814912796E0,1.424593544E1
2.162745733E1,5.695979595E0,5.588237286E0,1.352525806E1
2.167945135E1,5.820482254E0,4.427014351E0,9.876383781E0
2.173144504E1,6.373559475E0,4.644893169E0,9.490905762E0
2.178343837E1,6.706363678E0,3.426207304E0,9.605830193E0
2.183543189E1,6.057515144E0,2.525959969E0,9.000079155E0
2.188742532E1,4.862771988E0,4.266597748E0,8.286584854E0
2.193941831E1,5.176422119E0,6.299336910E0,7.925049782E0
2.199141194E1,4.096604347E0,6.792557716E0,6.598621368E0
2.204337714E1,2.978477955E0,9.313729286E0,7.546754360E0
2.209537116E1,2.770175934E0,9.548367500E0,6.459753513E0
2.214736485E1,-1.297696948E0,8.971347809E0,3.265790939E0
2.219935804E1,-4.125335693E0,5.032765865E0,3.555498123E0
2.225135147E1,-4.822069645E0,2.695953369E0,2.736656189E0
2.230334579E1,-3.359167576E0,-9.217957854E-1,1.206714511E0
2.235534191E1,-1.695146561E0,-3.569863796E0,-5.190787792E0
2.240733581E1,3.095318413E1,-3.098431015E1,1.965699577E1
2.245932906E1,-6.421444893E0,1.888603973E1,8.332076073E-1
2.251132229E1,2.650462151E0,8.844450951E0,-1.364736676E0
2.256331552E1,5.435003638E-1,9.787795067E0,4.120546818E0
2.261530884E1,2.154847383E0,8.025609016E0,1.163856983E1
2.266730214E1,1.865140080E0,8.186025620E0,1.882618332E1
2.271929592E1,1.505998850E0,7.829278469E0,1.836887550E1
2.277128988E1,7.637736797E-1,6.569890022E0,1.323555088E1
2.282328320E1,-4.383917332E0,6.507638931E0,1.547419834E1
2.287527643E1,-5.633728504E0,5.681613922E0,1.734891510E1
2.292726992E1,-1.071198559E1,9.931451797E0,1.299133492E1
2.297926331E1,-1.008468533E1,-5.099805593E-1,1.007510853E1
2.303125654E1,8.363202095E0,-2.341600657E0,-1.922602654E0
2.308324987E1,1.944869423E1,-2.553973007E1,6.634535313E0
2.313524389E1,3.713520288E0,-5.612180233E0,2.600182533E0
2.318723754E1,-1.867534369E-1,-1.012778282E0,-4.070267081E-2
2.323923090E1,7.877163887E-1,2.485257149E0,2.719896078E0
2.329122416E1,-6.775797606E-1,5.138113976E0,4.774183750E0
2.334321862E1,1.474873304E0,6.349617004E0,7.544359684E0
2.339521734E1,3.160442829E0,5.973715782E0,8.008849144E0
2.344721396E1,6.459753513E0,6.560312748E0,1.005595398E1
2.349920752E1,7.774210453E0,9.241900444E0,1.064973450E1
2.355120088E1,6.512427330E0,8.447001457E0,1.073592854E1
2.360319421E1,5.195576191E0,8.858817101E0,9.766246796E0
2.365518760E1,6.086246490E0,8.633754730E0,1.011581135E1
2.370718089E1,6.507638931E0,6.383136749E0,1.046298122E1
2.375917428E1,4.977697372E0,6.143709183E0,9.009655952E0
2.381116754E1,5.027976990E0,5.545140266E0,9.821314812E0
2.386316170E1,5.741470814E0,4.788549423E0,8.190814018E0
2.391515526E1,4.046324253E0,6.356799603E0,6.143709183E0
2.396714855E1,4.029564381E0,7.948992252E0,3.265790939E0
2.401914191E1,3.256213665E-1,5.286558628E0,1.223474383E0
2.407113527E1,1.474873304E0,2.346389294E-1,2.372726440E0
2.412312849E1,2.308080912E0,-2.518777132E0,-3.459727049E0
2.417512198E1,1.250529766E1,-8.123774529E0,-4.860377908E-1
2.422711564E1,-8.068706393E-1,1.256994247E0,3.314873505E1
2.427910953E1,-1.083169937E1,2.966506481E0,8.746285439E0
2.433110302E1,-4.333637357E-1,3.344801903E0,1.733933830E1
2.438309625E1,1.915419847E-2,9.232323647E0,1.516054821E1
2.443509017E1,-1.498816013E0,6.457359314E0,1.758834267E1
2.448708653E1,-1.133210278E1,7.024802208E0,1.234966946E1
2.453908035E1,-1.691794586E1,1.073114014E1,7.814912796E0
2.459107361E1,-1.689400291E1,6.651295185E0,1.249811411E0
2.464306697E1,-5.092622280E0,-6.986494064E0,1.703287125E1
2.469506026E1,1.128661156E1,-2.252054977E1,3.821262598E0
2.474705362E1,9.131764412E0,-8.693612099E0,5.399089813E0
2.479904695E1,1.091789365E0,-3.658451796E0,1.319245458E0
2.485104064E1,2.473285913E0,1.505998850E0,2.229069948E0
2.490303466E1,-4.980091453E-1,6.059909344E0,4.264203548E0
2.495502802E1,-6.081457734E-1,1.039115238E1,6.263422966E0
2.500702128E1,-3.392687321E0,8.597841263E0,7.781393051E0
2.505901460E1,-1.984853864E0,5.435003757E0,1.004398251E1
2.511100800E1,-5.004034638E-1,3.725491524E0,9.586676598E0
2.516300136E1,-1.525153041E0,3.507612705E0,1.076465988E1
2.521499462E1,1.508393139E-1,3.711125851E0,1.361863518E1
2.526698844E1,1.077423692E0,5.966532707E0,1.436325455E1
2.531898239E1,4.110970020E0,5.688796997E0,1.428184891E1
2.537097565E1,4.958543301E0,4.881926537E0,1.217009926E1
2.542296894E1,5.923435688E0,3.476486921E0,1.047974110E1
2.547496277E1,5.913858891E0,4.204346657E0,1.059227180E1
2.552696119E1,4.110970020E0,4.975303173E0,9.194015503E0
2.557895861E1,3.064671755E0,5.025582790E0,8.435029984E0
2.563095331E1,1.972882390E0,7.829278469E0,8.238699913E0
2.568294663E1,1.410227895E0,1.514378834E1,1.338878441E1
2.573493999E1,7.996878028E-1,1.086521912E1,8.727131844E0
2.578693342E1,7.534782887E0,1.941756845E0,5.126142502E0
2.583892668E1,7.546754360E0,-8.614601135E0,-1.544307232E0
2.589091994E1,-1.369046307E1,-2.100736809E1,2.358360672E1
2.594291426E1,-1.283331299E1,7.506051540E0,-1.658035278E1
2.599490775E1,-7.613793612E-1,-1.470084786E0,1.666415215E0
2.604690104E1,-1.170082092E1,1.321639657E0,-5.027976990E0
2.609889440E1,-2.195549965E0,4.010410309E0,-2.770175934E0
2.615088766E1,-3.708731651E0,4.039141655E0,3.129317284E0
2.620288105E1,-1.382214832E1,7.209161282E0,1.051086617E1
2.625487444E1,-2.027232552E1,9.459779739E0,1.550053501E1
2.630686774E1,-3.135542297E1,1.360426903E1,7.592245579E0
2.635886176E1,-2.423245621E1,-2.250618339E-1,5.935407162E0
2.641085548E1,9.258660316E0,-1.232812119E1,9.378374100E0
2.646284871E1,3.045517540E1,-2.497946930E1,-8.327287674E0
2.651484226E1,-3.320859194E0,-7.278595448E0,-3.280156553E-1
2.656683572E1,2.851581335E0,-8.667274714E-1,6.943396926E-1
2.661883414E1,-1.019961119E0,7.901107073E-1,5.078257084E0
2.667083163E1,-1.994430900E0,1.127703428E0,4.616161823E0
2.672282542E1,-3.663240433E0,-3.136500120E-1,9.553156853E0
2.677481872E1,-3.181991339E0,5.004034638E-1,7.884346962E0
2.682681201E1,4.213923812E-1,2.312869549E0,1.113337803E1
2.687880530E1,5.487678051E0,1.474873304E0,1.279979324E1
2.693079876E1,5.877944469E0,4.233078003E0,1.193306541E1
2.698279196E1,6.715940952E0,7.417463303E0,1.381017685E1
2.703478575E1,1.004637718E1,7.769421577E0,1.512702847E1
2.708677970E1,8.854028702E0,6.170046329E0,1.356117249E1
2.713877296E1,7.948992252E0,3.687183142E0,1.211503029E1
2.719076655E1,1.034326744E1,2.873129845E0,1.030974770E1
2.724275978E1,1.004398251E1,2.724684715E0,8.367990494E0
2.729475300E1,8.272219658E0,3.356773376E0,9.409500122E0
2.734674646E1,6.019207001E0,4.762212753E0,8.061523438E0
2.739873989E1,3.023969173E0,6.569890022E0,5.542746067E0
2.745073325E1,2.794118643E0,7.008042336E0,2.293715239E0
2.750272760E1,1.058269501E0,6.967339516E0,6.201171875E-1
2.755472072E1,1.596981287E0,5.348809719E0,-5.482889414E-1
2.760671415E1,2.944957972E0,2.264983892E0,-5.291347504E-1
2.765870767E1,3.438178539E0,-4.934600353E0,-4.343214512E0
2.771070379E1,1.497379494E1,-8.980924606E0,-5.746259689E-1
2.776269802E1,-6.416656494E0,6.660872459E0,1.466972160E1
2.781469141E1,-1.548377514E1,1.824437380E0,1.176307201E1
2.786668484E1,-8.578686714E0,5.825270653E0,2.052851295E1
2.791867810E1,-9.948211670E0,9.095849991E0,1.911110115E1
2.797067139E1,-1.162659836E1,6.610592842E0,1.366412640E1
2.802266482E1,-2.084216309E1,9.694418907E0,6.466936111E0
2.807465824E1,-2.266420555E1,4.326454639E0,-1.996825218E0
2.812665243E1,4.826858044E0,-1.229699516E1,1.549095821E1
2.817864585E1,4.170826912E0,-2.417978096E1,-8.870788574E0
2.823063908E1,4.731087208E0,6.536370516E-1,3.378321648E0
2.828263254E1,1.587404251E0,-5.739076614E0,1.441353440E0
2.833462586E1,4.166038036E-1,-3.500429869E0,3.610566378E0
2.838661932E1,-5.458946824E-1,4.381522834E-1,3.009603500E0
2.843861248E1,-2.753416061E0,5.449369431E0,6.454965115E0
2.849060610E1,-3.023969173E0,4.632921696E0,6.775797844E0
2.854260016E1,-2.633702382E-2,5.643305779E0,9.411893845E0
2.859459348E1,4.496448040E0,3.347196102E0,1.202644253E1
2.864658681E1,6.457359314E0,1.685569525E0,1.308950043E1
2.869858026E1,8.051946640E0,1.972882390E0,1.171279240E1
2.875057785E1,9.313729286E0,3.909850836E0,1.199531651E1
2.880257588E1,1.046537495E1,4.711932659E0,1.189475727E1
2.885457137E1,9.107821465E0,3.335224867E0,1.049889469E1
2.890656446E1,9.653716087E0,1.448536277E0,9.464568138E0
2.895855792E1,9.500482559E0,1.647261024E0,7.865192890E0
2.901055142E1,8.719948769E0,2.059076309E0,7.618582249E0
2.906254454E1,7.367183685E0,2.391880512E0,6.368771076E0
2.911453784E1,5.988081455E0,3.040729046E0,7.508445740E0
2.916653199E1,4.400677204E0,3.849993944E0,7.762238979E0
2.921852544E1,4.661653042E0,6.198777676E0,9.684841156E0
2.927045837E1,3.263396502E0,8.672063828E0,9.653716087E0
2.932245163E1,3.533949614E0,9.067118645E0,9.332882881E0
2.937444498E1,2.288926601E0,8.664880753E0,8.770228386E0
2.942643841E1,6.320885420E-1,4.383917332E0,4.793338299E0
2.947843167E1,-2.681587934E-1,-9.864411950E-1,5.961744189E-1
2.953042500E1,1.434410000E1,-8.102226257E0,-4.288146019E0
2.958241912E1,5.980898380E0,-5.966532707E0,-1.282134151E1
2.963441264E1,-2.318855095E1,-1.541913033E0,2.248224020E0
2.968640603E1,-1.224192715E1,-2.655250788E0,5.889915943E0
2.973839936E1,-1.473436737E1,5.549929142E0,7.209161282E0
2.979039275E1,-1.992036629E1,5.018400192E0,9.763853073E0
2.984239010E1,-1.778706741E1,8.128562927E0,9.610619545E0
2.989438819E1,-1.944630051E1,1.013496494E1,4.561093330E0
2.994638278E1,-2.812554550E1,3.993650436E0,9.816526622E-2
2.999837598E1,-5.794144869E-1,-6.653689861E0,7.776604652E0
3.005036940E1,9.426259995E0,-2.775682831E1,1.192109394E1
3.010236273E1,1.924757576E1,-1.432494640E1,-1.989642382E0
3.015435599E1,3.186779737E0,-1.398256540E0,3.620143414E0
3.020634941E1,4.122941017E0,-4.302511692E0,3.814079762E0
3.025834307E1,-2.863552570E0,2.454131603E0,3.727885962E0
3.031033699E1,-3.263396502E0,1.872322917E0,5.959350109E0
3.036233038E1,-4.060689926E0,1.963305324E-1,5.245856285E0
3.041432374E1,-2.669616461E0,1.007989645E0,8.130957603E0
3.046631707E1,-1.268965602E0,1.494027495E0,1.008468533E1
3.051831046E1,2.695953369E0,8.164477348E-1,1.072874546E1
3.057030388E1,8.595446587E0,3.184385598E-1,9.457385063E0
3.062229708E1,1.225868702E1,6.440598965E-1,7.963357925E0
3.067429093E1,1.302964306E1,2.695953369E0,8.253065109E0
3.072628475E1,1.251966286E1,4.599401951E0,7.597033978E0
3.077827801E1,1.116929245E1,5.006428719E0,9.026415825E0
3.083027137E1,1.047255802E1,2.363149166E0,9.747093201E0
3.088226483E1,8.844450951E0,1.120520592E0,7.836461544E0
3.093426052E1,1.018524456E1,8.332076073E-1,7.300143719E0
3.098625535E1,1.095380688E1,2.104567528E0,6.883540154E0
3.103824874E1,9.385557175E0,2.480468750E0,7.072687626E0
3.109024210E1,8.822902679E0,4.608979225E0,8.882759094E0
3.114223539E1,9.052753448E0,7.218738556E0,1.036481571E1
3.119422875E1,8.990502357E0,9.191620827E0,9.040781975E0
3.124622204E1,5.796539307E0,1.161941528E1,7.743084908E0
3.129821563E1,4.903474808E0,8.011243820E0,9.213169098E0
3.135020985E1,7.134938836E-1,4.692778587E0,5.681613922E0
3.140220311E1,5.746259689E-1,-3.526766777E0,-3.988861799E0
3.145419640E1,1.443747711E1,-1.755242920E1,-8.777411461E0
3.150618983E1,1.281176472E1,-3.471459198E1,3.595003510E1
3.155818316E1,-1.992515564E1,8.652909279E0,-1.839281845E1
3.161017648E1,-8.092648983E-1,-1.453324795E0,6.744672298E0
3.166216994E1,7.063110471E-1,4.419831276E0,1.774157715E1
3.171416383E1,-1.260346222E1,8.583475113E0,1.255318260E1
3.176615745E1,-8.315316200E0,1.071198559E1,1.854126358E1
3.181815084E1,-1.091549873E1,8.260248184E0,1.659950638E1
3.187014417E1,-1.433212948E1,4.738269806E0,1.250050831E1
3.192213743E1,-2.053330040E1,7.292961121E0,4.393494129E0
3.197413392E1,-2.471609879E1,3.842811108E0,-1.834014535E0
3.202613250E1,-4.407859802E0,-1.074550533E1,1.200249958E1
3.207812736E1,1.260585690E1,-1.901054192E1,9.007262230E0
3.213012086E1,3.653663397E0,-2.207042503E1,-1.532335877E0
3.218211415E1,6.675238132E0,5.449369431E0,5.521197796E0
3.223410741E1,5.458946824E-1,-9.217958450E0,4.948966026E0
3.228610090E1,-2.609759569E0,4.692778587E-1,5.669642925E0
3.233809416E1,-5.791750908E0,3.502824068E0,6.718335152E0
3.239008745E1,-6.557918549E0,8.978530765E-1,9.445414543E0
3.244208134E1,-3.826051235E0,4.070267081E-1,9.246688843E0
3.249407510E1,4.285751879E-1,1.017566800E0,9.780612946E0
3.254606852E1,5.399089813E0,1.139674783E0,8.162082672E0
3.259806188E1,1.054438591E1,5.243461728E-1,8.873182297E0
3.265005514E1,1.237600613E1,3.996044636E0,7.855615616E0
3.270204853E1,1.371201229E1,6.830865860E0,1.328583050E1
3.275404186E1,1.117647457E1,7.644919395E0,1.343667030E1
3.280603525E1,1.147815323E1,4.625739098E0,1.136083412E1
3.285802947E1,9.464568138E0,3.225088120E0,7.709564686E0
3.291002289E1,1.077184200E1,3.170019865E0,6.861991405E0
3.296201635E1,7.793364525E0,4.884320736E0,6.522004604E0
3.301400948E1,6.160469055E0,4.587430477E0,6.471724987E0
3.306600477E1,1.434170604E0,4.891503334E0,2.020767927E0
3.311800019E1,-3.261002302E0,1.005595446E0,-1.446141958E0
3.316999345E1,1.441353440E0,-1.642472506E0,-2.758204460E0
3.322198701E1,4.039141655E0,-6.404685020E0,-2.561874092E-1
3.327398024E1,1.546940994E1,-1.092507553E1,-1.861309242E1
3.332597363E1,-1.247417212E0,2.416062737E1,1.302246094E1
3.337796706E1,4.510813713E0,-7.422251999E-2,1.429860878E1
3.342996028E1,1.706878471E1,1.348694992E1,2.181184387E1
3.348195424E1,2.059076309E0,1.062339687E1,1.986050987E1
3.353394793E1,1.668809533E0,8.791776657E0,1.405199909E1
3.358594118E1,-3.871542454E0,7.039167881E0,1.712864113E1
3.363793468E1,-1.576629925E1,1.237600613E1,1.421241570E1
3.368992797E1,-2.188846016E1,-5.339232683E-1,3.033546209E0
3.374192140E1,3.634509087E0,-1.108309841E1,2.229788208E1
3.379391462E1,1.355638409E1,-1.944869423E1,-7.568302631E0
3.384590811E1,1.043424988E1,-3.296916485E0,2.099778891E0
3.389790223E1,-6.273000240E-1,-7.515628815E0,1.905842781E0
3.394989556E1,6.225114465E-1,-3.665634632E0,1.230657220E0
3.400188905E1,-3.871542454E0,4.309694469E-2,4.273780346E0
3.405388221E1,-4.264203548E0,6.222720146E0,6.759037971E0
3.410587770E1,-5.051919937E0,5.729499817E0,7.937020779E0
3.415787675E1,-5.554717779E-1,7.295355320E0,9.402317047E0
3.420987221E1,4.611373425E0,6.229903221E0,8.377567291E0
3.426186557E1,1.167208958E1,6.598621368E0,8.245882034E0
3.431385893E1,1.269923401E1,8.399115562E0,8.379961967E0
3.436585249E1,1.325470543E1,1.278303337E1,9.265843391E0
3.441784568E1,1.280697632E1,8.937828064E0,8.595446587E0
3.446983894E1,9.816526413E0,6.361588001E0,6.431022167E0
3.452183236E1,1.089395046E1,8.650514603E0,8.147717476E0
3.457382589E1,1.450691128E1,1.151167297E1,1.011820507E1
3.462582007E1,8.573898315E0,6.469330311E0,2.930592299E0
3.467781340E1,1.479661822E0,2.504411459E0,-3.579440832E0
3.472980656E1,-1.297696948E0,8.619388938E-2,-5.051919818E-1
3.478179992E1,5.966532707E0,-1.130097747E0,3.292127848E0
3.483379335E1,1.312302017E1,1.388679445E-1,-5.755836487E0
3.488578670E1,-9.840469360E-1,-2.587732124E1,3.285902786E1
3.493778013E1,-2.717262459E1,5.027976990E0,-8.121379852E0
3.498977392E1,-2.736656189E0,4.206740856E0,1.535927296E1
3.504176774E1,-1.064733982E1,6.699181080E0,1.092747021E1
3.509376117E1,-9.402317047E0,4.103786945E0,1.240952587E1
3.514575452E1,-9.634561539E0,2.710319042E0,1.134886265E1
3.519774885E1,-1.603685188E1,6.548341751E0,1.190912247E1
3.524974480E1,-2.601379585E1,1.015651417E1,1.336005330E0
3.530173833E1,-1.330737972E1,-3.280156374E0,1.786128998E0
3.535373185E1,1.446620846E1,-1.838324165E1,8.820508003E0
3.540572485E1,2.311672401E1,-1.409988403E1,-3.328042030E-1
3.545771778E1,1.431776285E0,-5.636122704E0,2.394274712E0
3.550971160E1,2.346389294E-1,-2.897072554E0,1.225868702E0
3.556170502E1,-1.726272106E0,1.039115310E0,5.296135902E0
3.561369861E1,-4.031958580E0,4.707144260E0,7.242681503E0
3.566569243E1,-7.585062504E0,5.533169270E0,6.591438770E0
3.571768503E1,-5.183605194E0,6.682421207E0,8.794171333E0
3.576967849E1,-1.324033976E0,5.695979595E0,1.119562912E1
3.582167181E1,1.843591571E0,4.427014351E0,1.282373619E1
3.587366504E1,1.149251938E0,6.179623127E0,1.454043102E1
3.592565833E1,1.834014535E0,6.838048935E0,1.548377514E1
3.597765172E1,3.100585938E0,5.854001999E0,1.225868702E1
3.602964585E1,3.852388144E0,5.439792156E0,1.208390522E1
3.608164045E1,3.818868399E0,6.050332546E0,1.197376823E1
3.613363367E1,4.453351021E0,6.071880817E0,8.356019020E0
3.618562697E1,1.268965602E0,6.299336910E0,4.218712330E0
3.623762139E1,7.230709791E-1,3.711125851E0,1.477267504E0
3.628962075E1,-1.747820675E-1,2.178790122E-1,1.197137386E-1
3.634161768E1,2.408640385E0,-5.016005516E0,-4.673624516E0
3.639361147E1,7.743563843E1,-2.282701683E1,-3.494923019E1
3.644560486E1,-1.695146561E0,1.538321590E1,1.939362645E0
3.649759809E1,-1.064015770E1,1.281655312E1,1.625473213E1
3.654957854E1,-1.354680729E1,8.140534401E0,1.267529106E1
3.660157170E1,-1.397777653E1,6.814105988E0,8.990502357E0
3.665356473E1,-1.896744537E1,9.282603264E0,7.738296032E0
3.670555825E1,-2.512312508E1,4.872349262E0,5.178816319E0
3.675755171E1,-5.020794392E0,-8.925856590E0,1.906800461E1
3.680954504E1,2.112229156E1,-3.109205246E1,1.561067224E0
3.686153869E1,4.264203548E0,-6.071880817E0,-2.035133541E-1
3.691353285E1,4.324060440E0,-4.268991947E0,4.762212753E0
3.696552610E1,-1.142069101E0,-1.814860344E0,4.843617916E0
3.701751933E1,-3.976890564E0,3.062277555E0,4.192375183E0
3.706951282E1,-4.546727657E0,4.331243038E0,6.754249096E0
3.712150701E1,-5.214730740E0,3.579440832E0,7.046350956E0
3.717350050E1,-4.168432236E0,4.185192585E0,9.004867554E0
3.722549372E1,-3.799714088E0,5.461340904E0,9.613013268E0
3.727748715E1,-1.168406129E0,3.917033672E0,1.213179016E1
3.732948157E1,-3.064671755E-1,7.027196407E0,1.349892139E1
3.738148043E1,3.926610649E-1,6.996070862E0,1.557954597E1
3.743347682E1,2.624125242E0,7.453377247E0,1.260585690E1
3.748547038E1,2.942563772E0,4.898686409E0,1.093944168E1
3.753746374E1,2.715107679E0,5.193181992E0,1.034566116E1
3.758945706E1,2.025556564E0,5.154873848E0,8.454184532E0
3.764145046E1,8.619388938E-2,5.624151707E0,3.993650436E0
3.769344312E1,-6.751855016E-1,3.861965179E0,3.220299721E0
3.774543608E1,-7.039167881E-1,2.693559170E0,2.710319042E0
3.779742960E1,-3.351984620E-1,7.613793612E-1,-4.261809289E-1
3.784942372E1,1.246220016E1,-4.781366825E0,-3.790137053E0
3.790141711E1,4.040817642E1,-3.823417282E1,-1.030735302E1
3.795341037E1,-3.474092722E0,1.868252563E1,-8.497281075E0
3.800540429E1,-4.371945858E0,1.269683933E1,1.714061356E1
3.805739815E1,-1.132013130E1,7.029590607E0,9.955394745E0
3.810939138E1,-1.274711895E1,6.541158676E0,9.237112045E0
3.816138490E1,-1.896744537E1,1.154040432E1,9.785401344E0
3.821337849E1,-2.504890251E1,7.846038342E0,2.980872154E0
3.826537244E1,-9.639349937E0,-9.179649353E0,1.027622795E1
3.831736604E1,1.756439972E1,-2.820455742E1,7.419857502E0
3.836935910E1,1.087240219E1,-1.272796535E1,-1.941756845E0
3.842135309E1,-7.781392932E-1,-2.997632027E0,4.424619675E0
3.847334941E1,1.494027495E0,-2.882706881E0,2.851581335E0
3.852534307E1,-3.351984918E-2,-2.779752970E0,6.742278099E0
3.857733646E1,-2.116539001E0,1.769369125E0,7.534782887E0
3.862932989E1,-6.428627968E0,2.983266354E0,5.185999393E0
3.868132311E1,-4.745452881E0,3.371139050E0,7.084659100E0
3.873331654E1,1.431776285E0,4.271386147E0,6.138920784E0
3.878530983E1,1.064015770E1,5.461340904E0,8.382355690E0
3.883730352E1,1.705681419E1,8.090254784E0,9.677659035E0
3.888929747E1,1.551011181E1,1.205038548E1,7.439012051E0
3.894129090E1,1.116929245E1,1.092986488E1,8.329682350E0
3.899328423E1,1.008468533E1,7.520417213E0,5.432609558E0
3.904527755E1,8.087860107E0,5.585843086E0,5.121353626E0
3.909727088E1,1.126745701E1,7.771816254E0,8.463761330E0
3.914926414E1,7.699987888E0,8.614601135E0,7.563514233E0
3.920125743E1,6.684815407E0,7.218738556E0,4.743058205E0
3.925325138E1,1.939362645E0,6.797346115E0,2.875524044E0
3.930524520E1,1.331216812E0,5.202759266E0,4.867560863E0
3.935723846E1,1.350371003E0,5.593026161E0,2.193155766E0
3.940923189E1,2.279349566E0,1.426987767E0,1.903448462E0
3.946122575E1,3.196356773E0,-5.020794392E0,-6.943397224E-2
3.951322430E1,5.583448887E0,-2.231464148E0,-2.772570133E0
3.956522146E1,-7.319298267E0,-1.673358727E1,2.428273582E1
3.961721515E1,-1.972882462E1,1.199771118E1,-1.011581135E1
3.966920848E1,-5.849213123E0,2.315263748E0,8.061523438E0
3.972120190E1,-9.208380699E0,7.551542759E0,8.020820618E0
3.977319520E1,-9.246688843E0,9.383162498E0,1.184687138E1
3.982518852E1,-1.310865498E1,1.163378143E1,1.582376194E1
3.987718185E1,-1.569447136E1,1.269444466E1,1.373116589E1
3.992917517E1,-2.326516914E1,1.703047752E1,7.328875065E0
3.998116923E1,-1.372398281E1,1.106154919E0,1.168406105E1
4.003316288E1,5.403878212E0,-7.496474266E0,1.703526497E1
4.008515621E1,9.483722687E0,-2.678475189E1,7.374366522E-1
4.013714954E1,1.136562252E1,-2.645673752E0,-5.937801600E-1
4.018914286E1,2.102173328E0,3.016786277E-1,3.330436230E0
4.024113625E1,-1.891477108E-1,-2.099778891E0,9.337671995E-1
4.029312951E1,-2.578634024E0,6.332856655E0,4.553910732E0
4.034512304E1,-8.691217303E-1,1.568249941E0,5.667248249E0
4.039711729E1,-1.599375606E0,2.083019018E-1,6.885934353E0
4.044911052E1,-2.674404860E0,1.817254543E0,6.136526108E0
4.050110388E1,-9.984126091E-1,5.889915824E-1,6.419050694E0
4.055309760E1,3.555498123E0,1.596981287E0,7.415069103E0
4.060509379E1,8.061523438E0,1.596981287E0,7.036773682E0
4.065708792E1,1.722920227E1,2.090201855E0,1.029777622E1
4.070908124E1,1.560588360E1,4.448562622E0,1.044861507E1
4.076107457E1,1.465056801E1,5.786962032E0,1.095620155E1
4.081306789E1,1.368806934E1,6.699181080E0,1.209108734E1
4.086506122E1,1.262022209E1,5.420638084E0,9.888355255E0
4.091705461E1,1.223235035E1,3.926610708E0,8.145322800E0
4.096904791E1,1.261303997E1,5.332049847E0,5.466129303E0
4.102104209E1,1.064973450E1,5.612180233E0,4.874743462E0
4.107303578E1,7.020013809E0,6.622564316E0,2.458920240E0
4.112502908E1,5.909070015E0,7.908289909E0,3.265790939E0
4.117702240E1,4.132518291E0,7.369577885E0,3.514795303E0
4.122901576E1,5.777385235E0,6.634535313E0,3.955342054E0
4.128100908E1,8.777411461E0,7.649707794E0,4.314483166E0
4.133300238E1,6.478907585E0,6.502850533E0,-1.101366401E0
4.138499597E1,6.909877300E0,3.907456398E0,-5.020794392E0
4.143698989E1,9.385557175E-1,-5.794144869E-1,-6.399896622E0
4.148898335E1,4.467716694E0,-4.005621910E0,-1.119323444E1
4.154097664E1,8.320104599E0,-1.177025509E1,-7.510839939E0
4.159297023E1,8.250671387E0,-3.130514336E1,3.009124565E1
4.164496812E1,3.617749214E0,-2.887495518E0,1.118126297E1
4.169696594E1,1.057311726E1,-3.323253393E0,1.433931160E1
4.174896107E1,1.497140026E1,-4.031958580E0,1.559151745E1
4.180095430E1,3.094600105E1,2.027950764E0,1.394665051E1
4.185294766E1,1.885491371E1,1.604164094E-1,1.085324764E1
4.190494098E1,1.637923431E1,4.249837875E0,1.290035248E1
4.195693444E1,1.113577175E1,4.398283005E0,1.198573971E1
4.200892767E1,2.030344963E0,3.739857197E0,1.160983849E1
4.206092169E1,-6.021601200E0,4.848406315E0,1.861788177E1
4.211291541E1,-1.654922676E1,1.209348202E1,1.417410731E0
4.216490867E1,-6.993676662E0,-2.913832426E0,-1.304879785E0
4.221690193E1,1.591235065E1,-1.726511574E1,9.694418907E0
4.226889542E1,1.918532372E1,-1.033129597E1,4.039141655E0
4.232088875E1,4.740664065E-1,-5.916253090E0,-3.419024467E0
4.237288197E1,2.473285913E0,-5.157268047E0,-1.956122518E0
4.242487533E1,4.118152559E-1,-2.904255390E0,1.819648862E0
4.247686958E1,-2.037527800E0,1.822043180E0,4.568276405E0
4.252886308E1,1.963305324E-1,2.830032825E0,5.154873848E0
4.258085670E1,6.634535313E0,1.242628574E0,7.831672668E0
4.263284970E1,1.788044357E1,2.394274808E-3,8.514040947E0
4.268484319E1,2.212070465E1,9.577099234E-2,9.854835510E0
4.273684090E1,1.514378834E1,2.437371731E0,8.645726204E0
4.278883873E1,1.432734013E1,3.694365978E0,1.230417824E1
4.284083315E1,1.024031353E1,3.536343813E0,8.028003693E0
4.289282641E1,1.129618835E1,2.253012657E0,7.439012051E0
4.294481977E1,1.095380688E1,1.678386688E0,7.697593689E0
4.299681310E1,1.317569447E1,6.416656375E-1,7.826884270E0
4.304880636E1,9.732727051E0,-3.902668059E-1,7.520417213E0
4.310079972E1,9.809344292E0,-8.379961550E-2,6.900300026E0
4.315279331E1,8.341653824E0,-7.661679387E-2,7.000859737E0
4.320478763E1,6.617775440E0,9.672870040E-1,5.425426483E0
4.325678092E1,6.514821529E0,2.004008055E0,8.248276711E0
4.330877405E1,6.107795238E0,4.580247879E0,8.734314919E0
4.336076734E1,7.640130997E0,5.559505939E0,9.818921089E0
4.341276083E1,4.790944099E0,7.604216576E0,8.736708641E0
4.346475409E1,4.108575344E0,8.238699913E0,1.075029373E1
4.351674738E1,-1.558672905E0,6.826077461E0,7.996877670E0
4.356874108E1,-1.901054144E0,4.503631115E0,5.353598595E0
4.362073506E1,-7.374366522E-1,1.532335877E-1,2.662433624E0
4.367272845E1,-6.464541703E-2,-2.530748367E0,1.355159521E0
4.372472178E1,-1.252205729E0,-5.712739468E0,-4.374340057E0
4.377671520E1,4.065478802E0,-6.964945316E0,-6.737489223E0
4.382862963E1,3.447755575E-1,-4.331243038E0,7.573091030E0
4.388062425E1,-7.661679387E-1,1.332653332E1,-1.086521912E1
4.393261765E1,1.157392406E1,1.571123123E1,5.197970390E0
4.398461094E1,1.197137404E-2,1.850295639E1,7.781392932E-1
4.403660430E1,6.273000240E-1,1.799776459E1,3.057488918E0
4.408859762E1,2.269772530E0,1.675753021E1,4.245049000E0
4.414059088E1,1.690358043E0,1.834972191E1,-4.477293789E-1
4.419258438E1,-7.063110471E-1,1.358750916E1,2.174001455E0
4.424457859E1,-4.405465722E-1,1.568489456E1,3.462121487E0
4.429657199E1,-4.958543301E0,2.066977501E1,5.384724140E0
4.434856541E1,-1.487802410E1,1.974319077E1,7.343240738E0
4.440055864E1,-1.373595428E1,1.837366486E1,3.565075159E0
4.445255196E1,3.926610708E0,-6.205960274E0,1.297457504E1
4.450454552E1,2.000895500E1,-2.302334595E1,4.503631115E0
4.455653865E1,-4.348002911E0,-1.456437397E1,-3.864359617E0
4.460853221E1,7.431828976E0,4.597007632E-1,4.130124092E0
4.466052639E1,5.645699978E0,-9.613013268E0,3.651269197E0
4.471251992E1,-8.016032219E0,-2.047105074E0,6.344828010E-1
4.476451331E1,-2.669616461E0,4.453351200E-1,3.153259993E0
4.481650644E1,-5.707951069E0,3.141288519E0,4.822069645E0
4.486850316E1,-5.588237286E0,2.573845387E0,8.806142807E0
4.492050148E1,-2.729473412E-1,3.210722446E0,1.215812778E1
4.497249734E1,6.399896622E0,2.011190891E0,8.741497040E0
4.502449080E1,1.703287125E1,1.034326673E0,4.841223717E0
4.507648403E1,1.908955383E1,3.972101927E0,4.240260601E0
4.512847739E1,1.539039803E1,4.968120098E0,5.588237286E0
4.518047071E1,1.346779537E1,4.264203548E0,5.265010357E0
4.523246397E1,1.126266861E1,2.492439985E0,5.614574432E0
4.528445796E1,1.030016994E1,1.161223292E0,4.687990189E0
4.533645178E1,1.199531651E1,3.950553536E-1,4.944177628E0
4.538844504E1,1.028819847E1,6.727912426E-1,4.096604347E0
4.544043840E1,1.077184200E1,1.340793848E0,4.963331699E0
4.549243169E1,9.787795067E0,2.631308079E0,5.485283375E0
4.554442508E1,8.274613380E0,3.452544212E0,5.731894016E0
4.559641848E1,8.396721840E0,4.312088966E0,6.392713547E0
4.564841177E1,8.696005821E0,6.363982677E0,5.315289974E0
4.570040595E1,8.535589218E0,7.319298267E0,5.300924301E0
4.575239941E1,5.648094177E0,6.519610405E0,4.733481407E0
4.580439274E1,2.102173328E0,6.885934353E0,5.274587631E0
4.585638610E1,8.379961550E-2,5.253038883E0,4.309694767E0
4.590837942E1,-6.105400920E-1,2.748627424E0,3.363956213E0
4.596037608E1,-3.040729046E0,-1.245022863E-1,2.166818619E0
4.601237453E1,-3.428601503E0,-3.423812866E0,1.278542757E0
4.606436939E1,3.445361376E0,-8.274613380E0,-3.773377180E0
4.611636275E1,1.120281219E1,-1.182771778E1,-5.181210518E0
4.616835608E1,2.189564323E1,-2.694038010E1,1.915419769E1
4.622034934E1,1.039115238E1,1.686766624E1,2.257801056E0
4.627234283E1,2.171367836E1,7.925049663E-1,1.075508213E1
4.632433606E1,1.739680099E1,7.462954521E0,2.669616461E0
4.637632938E1,2.034894180E1,6.802134514E0,3.464515686E0
4.642832380E1,1.500731468E1,7.316903591E0,1.278542757E0
4.648031712E1,1.225150394E1,8.174054146E0,4.683201313E0
4.653231045E1,5.736682415E0,7.072687626E0,4.869955063E0
4.658430381E1,4.733481407E0,7.309720993E0,4.616161823E0
4.663629710E1,1.719089270E0,1.043903828E1,5.549929142E0
4.668829046E1,-2.193155766E0,1.187081432E1,9.531607628E0
4.674028382E1,-1.447099686E1,1.620205688E1,1.335765934E1
4.679227724E1,-1.876153755E1,1.219643593E1,2.636096478E0
4.684427143E1,-8.552350044E0,7.829278708E-1,8.490098000E0
4.689626479E1,1.278303337E1,-1.763383484E1,4.999245644E0
4.694825815E1,1.444466019E1,-1.307992363E1,6.957762718E0
4.700025140E1,-7.862798691E0,-6.213143349E0,2.772570133E0
4.705224676E1,-1.879505754E0,-6.110189438E0,-3.785348415E0
4.710424215E1,-6.438204765E0,1.522758722E0,2.810878515E0
4.715623538E1,-4.063084126E0,-1.604164094E-1,3.205934048E0
4.720822887E1,-3.371139050E0,-8.308133483E-1,5.449369431E0
4.726022216E1,-2.827638626E0,6.847625971E-1,8.717555046E0
4.731221546E1,1.364736676E0,2.037527800E0,7.640130997E0
4.736420888E1,9.028810501E0,-4.189980924E-1,8.978530884E0
4.741620228E1,1.605840111E1,1.407833576E0,6.249057293E0
4.746819643E1,1.793551254E1,3.818868399E0,9.079090118E0
4.752018985E1,1.465056801E1,4.886714935E0,8.367990494E0
4.757218311E1,1.277585030E1,5.621757030E0,9.153312683E0
4.762417650E1,1.037678719E1,4.197163582E0,8.578686714E0
4.767616990E1,8.731920242E0,2.152452946E0,6.026389599E0
4.772816332E1,1.151885605E1,5.913859010E-1,6.419050694E0
4.778015648E1,1.140153694E1,1.221080124E-1,5.401484013E0
4.783215021E1,8.391933441E0,-1.915419847E-2,5.837242126E0
4.788414426E1,8.679245949E0,9.912297726E-1,6.878751755E0
4.793613749E1,7.616188049E0,1.776551962E0,7.968146324E0
4.798813084E1,8.310527802E0,3.237059593E0,9.088666916E0
4.804012420E1,7.654496670E0,4.039141655E0,6.838048935E0
4.809211982E1,6.976916790E0,5.870761871E0,8.980924606E0
4.814411868E1,5.226701736E0,5.842030525E0,1.090352726E1
4.819611440E1,5.145296574E0,6.929031372E0,1.111422348E1
4.824810746E1,3.593806505E0,5.267404556E0,9.189227104E0
4.830010086E1,3.495641232E0,3.050306082E0,5.758230686E0
4.835209428E1,2.650462151E0,3.782954216E0,1.987248063E0
4.840408751E1,4.381522834E-1,3.256213665E-1,1.142069101E0
4.845608090E1,-2.396669149E0,1.142069101E0,8.954587579E-1
4.850807446E1,-3.957736254E0,-7.422251999E-2,-1.331216812E0
4.856006828E1,-9.720755816E-1,-6.459753513E0,-3.816473961E0
4.861206207E1,1.048452950E1,-9.325700760E0,-2.309517479E1
4.866405513E1,1.242628574E0,1.094423008E1,-1.242868042E1
4.871604859E1,1.143505669E1,2.382303429E1,-1.101366431E-1
4.876804191E1,1.189715195E1,2.550142097E1,3.466909885E0
4.882003527E1,1.984853864E0,2.111511040E1,-2.930592299E0
4.887202856E1,-1.237840056E0,1.495224571E1,7.412674904E0
4.892402196E1,-5.794144869E-1,1.755242920E1,-9.984126091E-1
4.897601601E1,-3.282550812E0,1.448775673E1,-3.026363373E0
4.902800983E1,-3.167625666E0,9.634561539E0,-3.368744612E0
4.908000282E1,-4.185192585E0,8.703188896E0,-6.438204765E0
4.913199625E1,-3.900273561E0,3.445361376E0,2.130904645E-1
4.918399097E1,5.027977228E-1,-6.246663094E0,1.196179676E1
4.923598683E1,1.763622856E1,-2.485257339E1,2.774725151E1
4.928798032E1,8.909096718E0,-5.114171028E0,-1.007032013E1
4.933997352E1,1.805283189E0,-5.763019562E0,3.543526828E-1
4.939196681E1,5.985686928E-2,-9.744698524E0,8.274613380E0
4.944396044E1,-1.467690468E0,-1.970488191E0,7.051139355E0
4.949595356E1,-6.900300026E0,-8.372778893E0,4.312088966E0
4.954794705E1,-2.638490915E0,-5.858790398E0,4.601796150E0
4.959994087E1,9.792584181E-1,-4.970514297E0,7.716747761E0
4.965193473E1,-5.554717779E-1,-3.809291124E0,6.423839092E0
4.970392819E1,1.268965602E0,-2.581028223E0,8.719948769E0
4.975592131E1,2.195549965E0,-1.994430900E0,7.453377247E0
4.980791461E1,5.664854050E0,-1.508393168E0,8.595446587E0
4.985990813E1,5.875550270E0,-2.195549965E0,5.753442287E0
4.991190119E1,8.763046265E0,-5.985686779E-1,6.900300026E0
4.996389462E1,8.420664787E0,-1.675992459E-2,5.851607800E0
5.001588860E1,9.809344292E0,7.565908432E-1,6.545947552E0
5.006788230E1,9.926663399E0,7.877163887E-1,6.409473896E0
5.011987576E1,1.021637058E1,9.194015265E-1,6.356799603E0
5.017186888E1,1.092747021E1,1.055875182E0,6.478907585E0
5.022386384E1,1.094423008E1,7.733507752E-1,6.177228928E0
5.027586256E1,9.862017632E0,1.268965602E-1,4.881926537E0
5.032785948E1,1.022355366E1,-5.363175869E-1,4.654470444E0
5.037985331E1,9.615407944E0,-6.057515144E-1,3.737462997E0
5.043184660E1,9.366402626E0,-2.585816681E-1,3.826051235E0
5.048384006E1,9.296969414E0,3.112557232E-1,4.831646442E0
5.053583339E1,8.437424660E0,3.782954216E-1,4.755029678E0
5.058782681E1,7.853221416E0,4.357580245E-1,5.114171028E0
5.063982037E1,8.892336845E0,9.074301720E-1,6.399896622E0
5.069181442E1,8.195602417E0,1.024749637E0,6.658478260E0
5.074380768E1,7.496474266E0,1.618529797E0,7.197190285E0
5.079580097E1,7.731113434E0,1.874717116E0,7.491685867E0
5.084779437E1,6.818894863E0,1.731060743E0,7.767027378E0
5.089978769E1,7.412674904E0,2.482862949E0,8.945011139E0
5.095178108E1,6.033572674E0,3.459727049E0,8.997684479E0
5.100377444E1,5.925830364E0,4.561093330E0,8.703188896E0
5.105576800E1,5.688796997E0,4.597007751E0,8.612206459E0
5.110578410E1,3.715914488E0,4.951360226E0,8.892336845E0
5.115777742E1,3.680000305E0,5.403878212E0,7.944203854E0
5.120977071E1,3.086220264E0,5.334444046E0,4.829252243E0
5.126176400E1,1.422199249E0,7.745479107E0,2.396669149E0
5.131375849E1,7.087053657E-1,7.541965485E0,2.497228622E0
5.136575735E1,-5.506832153E-2,7.103813171E0,2.873129845E0
5.141775381E1,-2.078230619E0,4.874743462E0,1.776551962E0
5.146974743E1,-1.144463301E0,3.677606106E0,1.127703428E0
5.152174072E1,-3.782954216E-1,-8.810931444E-1,-6.838048935E0
5.157373402E1,8.451789856E0,-9.225140572E0,-8.731920242E0
5.162572758E1,1.716934395E1,-1.410467243E1,-1.431776333E1
5.167772070E1,-4.939388752E0,-1.436564922E0,2.284377670E1
5.172971400E1,2.104567528E1,-4.237866402E-1,1.906321526E1
5.178170808E1,1.617811394E1,4.992063046E0,2.696192932E1
5.183370174E1,7.647313595E0,8.758256912E0,2.276715851E1
5.188569506E1,3.261002302E0,1.108309841E1,1.819169998E1
5.193768832E1,1.750214934E0,1.078381348E1,1.368088627E1
5.198968192E1,-8.640937805E0,1.076465988E1,1.337681293E1
5.204167508E1,-1.722201920E1,1.541434097E1,1.960911036E0
5.209366830E1,-9.457385063E0,-8.743891716E0,1.909913063E1
5.214566173E1,1.241431522E1,-3.620383072E1,-2.133298874E0
5.219765585E1,2.405527878E1,-1.527547359E0,-1.015172482E0
5.224964937E1,-2.894678354E0,-1.151646137E1,-3.864359617E0
5.230164293E1,-3.241847992E0,-2.944957972E0,-2.044710636E0
5.235363615E1,-2.810878515E0,2.944957912E-1,3.390293121E0
5.240563008E1,-3.189173937E0,8.834874034E-1,5.727105141E0
5.245762637E1,-6.167652130E0,2.571451187E0,8.018425941E0
5.250962003E1,-1.095380688E1,3.589017868E0,5.798933506E0
5.256161342E1,-5.494860649E0,2.308080912E0,9.136552811E0
5.261360681E1,4.719115734E0,1.228263021E0,1.083409309E1
5.266560011E1,1.221319580E1,3.581835032E0,9.464568138E0
5.271759350E1,1.215812778E1,5.320078850E0,9.816526413E0
5.276958679E1,9.119792938E0,8.332076073E0,9.668081284E0
5.282158075E1,7.412674904E0,6.605803967E0,9.174860954E0
5.287357443E1,8.068706512E0,4.252232075E0,9.663292885E0
5.292556776E1,8.341653824E0,2.559479713E0,9.249083519E0
5.297756119E1,6.596227169E0,1.405439258E0,8.449396133E0
5.302955444E1,6.256239891E0,1.400650740E0,8.087860107E0
5.308154784E1,5.583448887E0,1.946545362E0,6.919454098E0
5.313354123E1,6.134131908E0,1.371919513E0,6.543552876E0
5.318553439E1,4.285751820E0,1.790917516E0,5.583448887E0
5.323752864E1,4.513207912E0,2.715107679E0,6.577073097E0
5.328952217E1,4.661653042E0,1.704723716E0,6.897905827E0
5.334151546E1,5.662459850E0,1.735849261E0,5.525986195E0
5.339350882E1,6.352011204E0,3.981678963E0,5.315289974E0
5.344550267E1,8.336864471E0,7.295355320E0,3.272973776E0
5.349750119E1,9.754275322E0,9.862017632E0,5.458946824E-1
5.354949838E1,6.584255695E0,6.306519985E0,2.628913641E0
5.360149214E1,9.313729286E0,2.928198099E0,4.819674969E0
5.365348550E1,1.498337173E1,1.047016335E1,1.026904488E1
5.370547883E1,1.251247978E1,9.593858719E0,3.545921087E0
5.375747216E1,2.124200630E1,3.972101927E0,-8.379961848E-1
5.380946548E1,1.708554459E1,-6.747066498E0,-1.176786041E1
5.386145894E1,1.749975395E1,-1.634092522E1,2.891565704E1
5.391345253E1,-1.490436077E1,1.314456820E0,-5.600208759E0
5.396544652E1,6.177229285E-1,-4.118152618E0,6.040755272E0
5.401743981E1,3.996044636E0,3.038334846E0,1.434649467E1
5.406943324E1,-4.597007751E0,1.723877907E0,1.227305222E1
5.412142653E1,-5.236279011E0,2.966506481E0,9.366402626E0
5.417341985E1,-8.229122162E0,4.738269806E0,5.657671452E0
5.422541325E1,-1.043903828E1,4.163643837E0,7.345634937E0
5.427740654E1,-1.663781548E1,2.504411459E0,7.652102470E0
5.432940013E1,-2.069850540E1,3.936187744E0,-1.549095750E0
5.438139425E1,-2.221647644E1,4.472505569E0,-5.344021320E0
5.443338751E1,-5.140508175E0,-5.185999393E0,1.903927422E1
5.448538087E1,2.899466753E0,-2.248224068E1,-1.203362560E1
5.453737459E1,3.538738251E0,7.307326794E0,6.119766235E0
5.458937075E1,1.788523316E0,-9.265843391E0,8.020820618E-1
5.464136487E1,-7.182824612E-1,-1.850774407E0,3.785348415E0
5.469335820E1,1.027143836E0,2.406246185E0,4.855589390E0
5.474535153E1,-2.497228622E0,2.044710636E0,4.683201313E0
5.479734485E1,-1.003201127E0,6.368771195E-1,6.938608170E0
5.484933825E1,2.992843628E0,4.297723293E0,6.344828129E0
5.490133160E1,8.492492676E0,1.426987767E0,7.577879906E0
5.495332516E1,1.546462059E1,1.824437380E0,6.749460697E0
5.500531931E1,1.707836151E1,3.282550812E0,9.021627426E0
5.505731261E1,1.013017654E1,2.528354168E0,8.669669151E0
5.510930597E1,9.375980377E0,1.788523316E0,1.013735962E1
5.516129926E1,8.159688950E0,1.051086664E0,9.229928970E0
5.521329262E1,8.356019020E0,-2.944957912E-1,8.612206459E0
5.526528578E1,8.724737167E0,-9.313728809E-1,7.996877670E0
5.531727937E1,9.337671280E0,-2.181184292E0,7.704776287E0
5.536927293E1,6.967339516E0,-1.884294271E0,5.952167034E0
5.542126708E1,5.013611317E0,-1.161223292E0,5.837242126E0
5.547326027E1,5.846818924E0,-1.728666425E0,6.316096783E0
5.552525367E1,6.057515144E0,-1.245022893E0,6.308914185E0
5.557724739E1,5.765413761E0,-1.132491946E0,7.723930359E0
5.562924511E1,6.134131908E0,2.873129770E-2,7.175641537E0
5.568124284E1,6.205960274E0,5.602602959E-1,8.509252548E0
5.573323800E1,8.102226257E0,2.157241583E0,8.197997093E0
5.578523139E1,1.010623360E1,2.736656189E0,8.590658188E0
5.583722472E1,9.852440834E0,3.471698523E0,9.131764412E0
5.588921801E1,9.869200706E0,2.786935806E0,5.983292580E0
5.594121120E1,4.762212753E0,-1.029538140E-1,-1.781340480E0
5.599320473E1,1.697780228E1,8.372778893E0,-1.707117915E0
5.604519884E1,1.188757420E1,6.620169640E0,-7.063110471E-1
5.609719227E1,2.523326302E1,-1.439198589E1,9.675264359E0
5.614918560E1,-5.147690773E-1,-2.020767927E0,1.923320961E1
5.620117889E1,-1.003440571E1,1.901054144E0,-2.363149166E0
5.625317235E1,5.291347504E-1,-2.154847383E0,1.185884285E1
5.630516574E1,2.561874092E-1,4.563488007E0,1.070719719E1
5.635715900E1,-1.685569525E0,4.443774223E0,8.006455421E0
5.640915233E1,-7.848433018E0,5.336838722E0,5.887521744E0
5.646114651E1,-9.806949615E0,1.038636398E1,-9.648927450E-1
5.651314017E1,-2.623646355E1,1.282612991E1,-1.261782765E0
5.656513336E1,-2.497467995E1,5.320078850E0,-2.482862949E0
5.661712692E1,2.317657948E0,-1.653246689E1,1.820845985E1
5.666912034E1,2.761556625E1,-2.609041214E1,7.271412373E0
5.672111790E1,5.887521744E0,-3.062277555E0,-3.600989342E0
5.677311569E1,-5.952167034E0,6.344828010E-1,-1.685569525E0
5.682511001E1,-1.455719113E0,3.926610708E0,3.883513689E0
5.687710334E1,-1.814860344E0,5.506832004E-1,4.304905891E0
5.692909683E1,-3.220299721E0,-3.902668059E-1,6.074275017E0
5.698109012E1,-2.832427025E0,-2.126116037E0,6.368771076E0
5.703308328E1,-8.427847624E-1,-1.774157643E0,8.605023384E0
5.708507671E1,1.539518714E0,-1.036720991E0,1.134167957E1
5.713707020E1,4.893897533E0,-2.760598898E0,1.389637089E1
5.718906438E1,7.199584484E0,-2.073441982E0,1.386045647E1
5.724105771E1,8.336864471E0,-9.577099085E-1,1.362581825E1
5.729305104E1,7.632947922E0,4.022381604E-1,1.369046307E1
5.734504430E1,7.589851379E0,9.241901040E-1,1.332413960E1
5.739703776E1,8.399115562E0,-8.188419938E-1,1.197376823E1
5.744903105E1,6.806923389E0,-1.058269501E0,9.545973778E0
5.750102438E1,7.491685867E0,-4.668835998E-1,8.305739403E0
5.755301800E1,7.532388687E0,8.044763207E-1,8.372778893E0
5.760501235E1,6.799740314E0,2.233858347E0,9.330489159E0
5.765700561E1,6.577073097E0,4.297723293E0,9.593858719E0
5.770899870E1,4.527573586E0,3.399870157E0,9.787795067E0
5.776099213E1,4.644893169E0,3.268185139E0,1.000327969E1
5.781298802E1,2.985660791E0,4.647287369E0,6.033572674E0
5.786498274E1,4.034353256E0,6.325674057E0,8.389538765E0
5.791697614E1,1.549095750E0,7.182824612E0,6.696786404E0
5.796896936E1,3.912245035E0,4.276175022E0,5.169239521E0
5.802096272E1,3.962524891E0,-4.788549617E-3,4.599401951E0
5.807295635E1,-5.147690773E-1,-5.379935265E0,-6.466936111E0
5.812494934E1,1.937686539E1,-3.153978157E1,3.334745789E1
5.817694313E1,-1.334329319E1,1.516054821E1,-2.196986580E1
5.822893702E1,4.460534096E0,9.608224869E0,3.735068738E-1
5.828093034E1,-2.001613855E0,1.130815983E1,1.189954638E0
5.833292374E1,-6.691998005E0,1.629064560E1,4.649681568E0
5.838487827E1,-1.357553864E1,1.998261833E1,9.548367500E0
5.843687159E1,-1.568010616E1,1.971685219E1,8.564320564E0
5.848886492E1,-2.098821259E1,2.416302109E1,4.539545059E0
5.854085821E1,-9.069513321E0,6.505244732E0,1.581897354E1
5.859285203E1,4.977697372E0,-8.229122162E0,1.644388008E1
5.864484599E1,2.520932007E1,-4.814886475E1,8.018425941E0
5.869683925E1,1.295302629E0,-4.522785187E0,-1.218685865E0
5.874883264E1,4.307300568E0,-4.805309772E0,2.269772530E0
5.880082596E1,-4.721509933E0,-1.721483588E0,1.106154919E0
5.885282278E1,-1.778946161E0,3.019180536E0,5.159662247E0
5.890482117E1,-5.667248249E0,2.552296877E0,6.098217964E0
5.895681603E1,-5.590631485E0,3.268185139E0,7.235498428E0
5.900880936E1,-1.029538155E0,4.362368584E0,1.074071693E1
5.906080262E1,6.399896622E0,2.932986736E0,7.166064739E0
5.911279598E1,1.636726189E1,3.962524891E0,5.315289974E0
5.916478934E1,1.653246689E1,4.932206154E0,4.544333458E0
5.921678260E1,1.128661156E1,6.495667458E0,4.690384388E0
5.926877606E1,1.163617516E1,6.294548512E0,5.988081455E0
5.932076994E1,1.207432747E1,4.185192585E0,6.524398804E0
5.937276373E1,1.145660496E1,3.146077156E0,6.129343510E0
5.942475699E1,1.145899963E1,3.184385538E0,5.454157829E0
5.947675032E1,1.052523232E1,3.936187744E0,5.777385235E0
5.952874364E1,1.283091831E1,5.901887417E0,7.398309231E0
5.958073704E1,1.278542709E1,8.631361008E0,5.008822918E0
5.963273030E1,1.182771778E1,1.316851139E1,3.519583941E0
5.968472379E1,9.510059357E0,1.074790001E1,2.873129845E-1
5.973671797E1,5.830059052E0,8.401510239E0,6.057515144E-1
5.978871136E1,6.019207001E0,1.345582485E0,2.978477955E0
5.984070469E1,2.377514839E0,1.709512234E0,-2.700742006E0
5.989269802E1,1.053480864E0,4.453351200E-1,-2.394274712E0
5.994469347E1,3.258608103E0,-5.123748183E-1,-6.016812801E0
5.999668873E1,3.277762175E0,-6.490879059E0,-1.104239559E1
6.004868199E1,1.026425648E1,-1.052044392E1,-3.181991339E0
6.010067535E1,1.426748371E1,-7.273807049E0,1.874477768E1
6.015266868E1,4.637710094E0,-2.897072434E-1,6.000052452E0
6.020466200E1,1.457634544E1,2.185972929E0,1.250050831E1
6.025665546E1,1.206714535E1,-1.666415215E0,3.380716085E0
6.030864882E1,2.922930717E1,-6.821289062E0,-2.083019018E-1
6.036064304E1,2.380148506E1,-3.517189741E0,2.846792698E0
6.041263663E1,2.104088783E1,-2.343995094E0,-2.830032825E0
6.046462972E1,1.887885666E1,1.573038578E0,1.015172482E0
6.051662311E1,1.247896004E1,3.972101927E0,4.216318130E0
6.056861651E1,6.830865860E0,5.071074009E0,5.842030525E0
6.062060980E1,2.715107679E0,5.262616158E0,9.663292885E0
6.067260316E1,-5.825270653E0,6.864386082E0,1.798818588E1
6.072459672E1,-2.080385399E1,1.087240219E1,-4.192375183E0
6.077659070E1,-9.122186661E0,-7.178035736E0,1.356835556E1
6.082858413E1,2.604252625E1,-3.567469406E1,-1.335526466E1
6.088057739E1,1.234009266E1,-4.838829517E0,8.356019258E-1
6.093257081E1,-1.467690468E0,-9.208380699E0,-7.613793612E-1
6.098456653E1,-2.777358770E0,-4.051113129E0,-2.154847383E0
6.103656512E1,-5.968926907E0,1.788523316E0,1.570644259E0
6.108856158E1,-4.735875607E0,1.328822494E0,3.203539610E0
6.114055508E1,-3.897879362E0,3.957736254E0,4.218712330E0
6.119254844E1,-9.122186899E-1,5.851607800E0,5.418243885E0
6.124454186E1,8.846845627E0,1.283331275E0,6.071880817E0
6.129653509E1,2.823807716E1,-1.376708031E0,6.356799603E0
6.134852848E1,2.017176437E1,5.219519138E0,6.653689861E0
6.140052217E1,1.273035908E1,6.174834728E0,7.166064739E0
6.145251602E1,1.072874546E1,4.446168423E0,6.519610405E0
6.150450945E1,1.081972790E1,2.815667152E0,7.072687626E0
6.155650274E1,1.075747681E1,1.015172482E0,6.244268894E0
6.160849610E1,1.179898643E1,-4.022381604E-1,5.767807961E0
6.166048969E1,1.096098995E1,-1.587404251E0,4.798126698E0
6.171248279E1,9.581888199E0,-1.395862222E0,3.735068798E0
6.176447611E1,8.418270111E0,-7.206767201E-1,2.693559170E0
6.181647007E1,8.430241585E0,1.987248063E-1,3.122134447E0
6.186846396E1,9.079090118E0,3.912245035E0,4.556304932E0
6.192045715E1,6.601015568E0,5.808510780E0,8.451789856E0
6.197245044E1,8.885153770E0,7.020013809E0,1.470802975E1
6.202444387E1,8.779806137E0,8.643332481E0,1.131773663E1
6.207643942E1,6.730306625E0,5.073468208E0,7.932232380E0
6.212843834E1,2.449343204E0,3.751828671E0,6.385530949E0
6.218043383E1,1.561067224E0,2.784541607E0,3.435784340E0
6.223242709E1,-5.027977228E-1,-4.549122155E-1,1.795706153E0
6.228442055E1,-9.744698405E-1,-4.597007751E0,2.178790092E0
6.233641394E1,-2.176395893E0,-9.256266594E0,-8.595446348E-1
6.238840714E1,6.155680656E0,-1.439198589E1,-1.251726913E1
6.244040053E1,1.126985168E1,1.206714511E0,-3.684310150E1
6.249239389E1,1.747341728E1,1.211981869E1,-7.817307472E0
6.254438807E1,1.979586411E1,1.750454330E1,1.678386688E0
6.259638150E1,1.825873947E1,1.392749691E1,4.807703972E0
6.264837482E1,1.698977470E1,1.621642303E1,6.579467297E0
6.270036808E1,5.904281616E0,1.520843315E1,9.747093201E0
6.275236151E1,7.553936958E0,1.501449776E1,1.235445857E0
6.280435480E1,6.744672298E0,1.182053471E1,6.703969479E0
6.285634816E1,3.153259993E0,1.542152405E1,1.081493950E1
6.290834168E1,-4.726298332E0,1.925954628E1,1.278303337E1
6.296033560E1,-6.684815407E0,1.008468533E1,3.677606106E0
6.301232926E1,7.733507752E-1,-1.350610447E1,1.101605797E1
6.306432252E1,2.381106377E1,-4.586712265E1,-9.344854355E0
6.311631595E1,7.204372883E0,-8.356019020E0,1.383890867E0
6.316831050E1,-3.189173937E0,-6.153286457E0,1.951334000E0
6.322030649E1,-1.204320192E0,-9.323306084E0,-1.237840056E0
6.327229989E1,-5.698374271E0,5.482889414E-1,3.081431627E0
6.332429321E1,-6.296942711E0,-2.130904645E-1,5.341627121E0
6.337628647E1,-8.478127480E0,7.182824425E-3,4.788549423E0
6.342827983E1,-6.876357079E0,3.337619066E0,8.403904915E0
6.348027352E1,1.204320192E0,8.332076073E-1,1.155477047E1
6.353226665E1,1.215812778E1,-1.295302629E0,9.636956215E0
6.358426083E1,1.944390488E1,3.526766777E0,9.766246796E0
6.363625433E1,1.400890160E1,5.672037125E0,7.201978683E0
6.368824779E1,8.530800819E0,5.480494976E0,7.132544518E0
6.374024084E1,9.179649353E0,4.187586784E0,6.768614769E0
6.379223424E1,1.089873886E1,2.288926601E0,7.151699066E0
6.384422753E1,1.024749660E1,1.237840056E0,6.390319347E0
6.389622086E1,9.862017632E0,3.519583941E-1,6.071880817E0
6.394821438E1,8.420664787E0,1.628106833E-1,4.589824677E0
6.400020853E1,8.114197731E0,1.628106833E-1,4.008016109E0
6.405220186E1,7.788576126E0,7.805336118E-1,4.690384388E0
6.410419532E1,7.020013809E0,1.814860344E0,5.042342663E0
6.415618854E1,7.453377247E0,3.478881359E0,5.944984436E0
6.420818343E1,6.474119186E0,3.378321648E0,6.936213970E0
6.426018229E1,8.542772293E0,2.681587696E0,7.597033978E0
6.431217841E1,6.711152077E0,1.766974807E0,5.475706577E0
6.436417197E1,6.790163517E0,1.520364523E0,5.808510780E0
6.441616523E1,6.342433929E0,2.712713242E0,4.340820312E0
6.446815852E1,6.725517750E0,2.712713242E0,5.217124939E0
6.452015202E1,7.750267506E0,4.302511692E0,4.369551659E0
6.457214534E1,8.858817101E0,4.750241280E0,3.890696526E0
6.462413864E1,7.522811413E0,4.769395351E0,2.621730804E0
6.467613223E1,6.419050694E0,5.514014721E0,2.099778891E0
6.472812621E1,5.609786034E0,3.014391899E0,2.916226625E0
6.478011957E1,7.843644142E0,8.116591573E-1,3.280156374E0
6.483211290E1,2.187648964E1,5.281770229E0,-8.054340363E0
6.488410632E1,-7.470137477E-1,-1.136083412E1,-5.123748302E0
6.493609958E1,6.952973938E1,-4.344172287E1,4.382241058E1
6.498809291E1,5.899493217E0,4.369551659E0,5.997658253E0
6.504008633E1,9.675264359E0,-3.950553417E0,1.114056110E1
6.509208009E1,1.652528381E1,2.921015322E-1,1.022115898E1
6.514407398E1,6.524398804E0,-4.405465722E-1,7.419857502E0
6.519606737E1,5.444581032E0,-8.571503758E-1,6.742278099E0
6.524806056E1,4.120546818E0,1.058269501E0,5.856396198E0
6.530005479E1,7.087053657E-1,2.909043789E0,6.986494064E0
6.535205111E1,-3.258608103E0,4.702355862E0,1.075268841E1
6.540404497E1,-1.389876556E1,8.968953133E0,1.529223347E1
6.545603812E1,-2.575281906E1,6.141314983E0,-6.208354473E0
6.550803132E1,-1.384130287E1,-9.926663399E0,1.255078888E1
6.556002471E1,1.840957832E1,-3.187737465E1,-5.502043724E0
6.561201803E1,1.415495300E1,5.698373914E-1,6.490879059E0
6.566399426E1,1.795706153E0,-5.439792156E0,7.925049663E-1
6.571598825E1,-2.166818619E0,-3.770982742E0,-1.285725594E0
6.576798201E1,-2.439765930E0,2.015979290E0,3.529160976E0
6.581997533E1,-2.959323645E0,1.130097747E0,5.162056446E0
6.587196866E1,-3.632114887E0,4.678412914E0,4.010410309E0
6.592396195E1,-2.367937803E0,6.646506786E0,6.598621368E0
6.597595531E1,3.292127848E0,6.361588001E0,8.487704277E0
6.602794870E1,1.255318260E1,4.563488007E0,7.362394810E0
6.607994196E1,1.718849945E1,5.358386993E0,7.841249943E0
6.613193588E1,1.544307232E1,6.996070862E0,7.453377247E0
6.618392967E1,1.163617516E1,7.012830734E0,6.141314983E0
6.623592300E1,1.038157558E1,4.484476566E0,6.943397045E0
6.628791636E1,9.763853073E0,2.935380936E0,6.122160912E0
6.633991041E1,9.866806030E0,1.245022893E0,6.050332546E0
6.639190910E1,9.543579102E0,5.722316504E-1,5.825270653E0
6.644390636E1,7.858009815E0,4.668835998E-1,4.302511692E0
6.649590066E1,7.958569527E0,3.830839694E-2,4.189980984E0
6.654789402E1,6.998465061E0,2.921015322E-1,3.905062199E0
6.659988737E1,6.838048935E0,5.602602959E-1,4.034353256E0
6.665188070E1,6.536370277E0,7.446194887E-1,4.654470444E0
6.670387409E1,6.653689861E0,1.072635174E0,5.667248249E0
6.675586772E1,7.479714394E0,1.422199249E0,5.535563469E0
6.680786167E1,9.419076920E0,3.028757572E0,5.255433083E0
6.685985493E1,9.984126091E0,4.446168423E0,3.869148016E0
6.691184849E1,9.842864037E0,7.963357925E0,3.586623669E0
6.696384171E1,9.534002304E0,8.478127480E0,2.525959969E0
6.701583494E1,1.161462688E1,9.873989105E0,2.102173328E0
6.706782843E1,1.262979984E1,5.480494976E0,1.865140080E0
6.711982169E1,1.735849190E1,9.318517685E0,4.350397110E0
6.717181518E1,2.200338554E1,1.237361240E1,6.182017326E0
6.722380943E1,1.476070404E1,5.640911579E0,1.185166001E0
6.727580272E1,1.319245434E1,4.331243038E0,-1.711906433E0
6.732779602E1,-1.149251908E-1,-3.849993944E0,-9.783006668E0
6.737978951E1,1.702329445E1,-1.770566177E1,-1.441114044E1
6.743178343E1,2.260195494E0,-1.175349522E1,-6.158074856E0
6.748378199E1,5.928224564E0,-1.514857674E1,2.396908569E1
6.753577924E1,3.519583941E-1,-5.432609558E0,1.217249298E1
6.758777267E1,-5.411061049E-1,-6.646506786E0,1.453085423E1
6.763976600E1,-4.348002911E0,-5.150084972E0,1.744229126E1
6.769175949E1,-3.498035431E0,-8.619389534E-1,1.659471893E1
6.774375271E1,1.101366431E-1,2.751021862E0,1.474873257E1
6.779574604E1,6.538764477E0,4.908263206E0,1.539758110E1
6.784773943E1,-3.759011328E-1,6.328068256E0,9.873989105E0
6.789973338E1,1.580221355E-1,3.232270956E0,9.352037430E0
6.795172711E1,-3.651269197E0,2.722290516E0,5.995264053E0
6.800372037E1,-8.241093636E0,4.082238674E0,3.306493521E0
6.805571373E1,-1.584291649E1,6.301731110E0,-2.281744003E0
6.810770702E1,-7.113390446E0,5.145296574E0,3.205934048E0
6.815970051E1,-2.942563772E0,-7.180429935E0,2.054527283E1
6.821169384E1,1.449493980E1,-5.537239456E1,2.439287186E1
6.826368713E1,2.851581335E0,8.691217422E0,2.063864946E0
6.831568095E1,1.105676079E1,-1.342230415E1,3.984073162E0
6.836767477E1,-3.088614464E0,-5.171633720E0,2.765387297E0
6.841966823E1,-1.874717116E0,5.889915824E-1,3.660846233E0
6.847166162E1,1.434170604E0,-3.471698523E0,9.237112045E0
6.852365521E1,3.088614464E0,-4.635315895E0,1.010862827E1
6.857565137E1,5.267404556E0,-6.244268894E0,1.063297462E1
6.862764563E1,5.794145107E0,-6.179623127E0,9.196409225E0
6.867963876E1,7.101418972E0,-6.656084061E0,7.925049782E0
6.873163225E1,8.909096718E0,-5.779779434E0,8.408693314E0
6.878362548E1,8.528407097E0,-4.616161823E0,7.597033978E0
6.883561883E1,7.750267506E0,-5.061496735E0,7.309720993E0
6.888761213E1,7.434223175E0,-5.166844845E0,6.395108223E0
6.893960595E1,7.175641537E0,-6.031178474E0,5.085439682E0
6.899159977E1,7.841249943E0,-5.276981831E0,4.417437077E0
6.904359316E1,8.317710876E0,-5.109382629E0,4.616161823E0
6.909558645E1,7.922655106E0,-4.867560863E0,4.355185986E0
6.914757981E1,7.388731956E0,-4.532361984E0,5.430215359E0
6.919957314E1,6.397502422E0,-3.730280161E0,5.545140266E0
6.925156640E1,6.584255695E0,-3.201145411E0,6.311308384E0
6.930355986E1,7.470137596E0,-2.217098475E0,8.439818382E0
6.935555385E1,7.020013809E0,-2.109356165E0,8.334470749E0
6.940754750E1,6.134131908E0,-2.286532402E0,7.101418972E0
6.945954090E1,5.394300938E0,-2.475680113E0,6.646506786E0
6.951153439E1,5.399089813E0,-2.114144564E0,5.497254848E0
6.956352774E1,6.294548512E0,-2.023162127E0,5.152479172E0
6.961552583E1,6.442993641E0,-3.423812866E0,5.645699978E0
6.966752349E1,7.139727592E0,-2.877918243E0,4.714327335E0
6.971951772E1,5.882733345E0,-1.482056141E0,3.419024467E0
6.977151087E1,5.071074009E0,-2.861158371E0,3.158048391E0
6.982350420E1,8.245882034E0,-4.685595989E0,4.601796150E0
6.987549749E1,1.011820507E1,-7.453377247E0,7.731113434E0
6.992749079E1,8.296162605E0,-5.291347504E0,8.212362289E0
6.997948421E1,1.171518707E1,2.291321039E0,1.428663731E1
7.003147754E1,9.584281921E0,-2.094990492E0,1.045100975E1
7.008347166E1,4.271386147E0,-3.878725290E0,8.047157288E0
7.013546521E1,3.960130453E0,-7.280989647E0,5.099805593E-1
7.018745844E1,-4.340820312E0,-1.367370319E1,-1.528026199E1
7.023945196E1,1.560827732E1,-6.474119186E0,-1.331695652E1
7.029144539E1,1.302964306E1,9.438231468E0,2.274561119E1
7.034343872E1,2.419414711E1,1.208629894E1,-1.755003452E0
7.039543184E1,9.545973778E0,1.099690437E1,2.813272953E0
7.044742544E1,1.208390522E1,9.998491287E0,7.063110828E0
7.049941952E1,6.081458092E0,9.955394745E0,-2.432583094E0
7.055141295E1,1.891477108E0,1.023552513E1,3.205934048E0
7.060340614E1,3.447755814E0,1.292908382E1,1.956122518E0
7.065539983E1,5.219519138E-1,1.562264347E1,8.186025620E0
7.070739595E1,-1.139195919E1,2.519256020E1,1.270641613E1
7.075939021E1,-1.449733353E1,2.303292274E0,8.025609016E0
7.081138354E1,3.562680960E0,-1.658514214E1,2.322925377E1
7.086337693E1,1.741834831E1,-5.885127640E1,8.581081390E0
7.091537032E1,-4.168432236E0,4.513207912E0,1.678386688E0
7.096736375E1,7.252258301E0,-1.218446445E1,1.094183564E0
7.101935691E1,-1.007271385E1,-2.842004299E0,-2.360754967E0
7.107135030E1,-3.768588543E0,7.182824612E-1,-1.022355318E0
7.112334455E1,-3.011997700E0,-2.743839025E0,1.905842781E0
7.117533794E1,-2.894678354E0,-1.515576005E0,5.006428719E0
7.122733127E1,-1.345582485E0,-2.731867552E0,1.199292278E1
7.127932456E1,1.221080184E0,-3.785348415E0,9.751881599E0
7.133131789E1,9.035993576E0,-6.457359314E0,1.346540165E1
7.138331132E1,1.638641739E1,-5.140508175E0,1.169603252E1
7.143530461E1,2.029387283E1,5.722316504E-1,1.422438622E1
7.148729826E1,1.354920101E1,2.612153769E0,9.708784103E0
7.153929225E1,8.633754730E0,2.298503876E0,6.222720146E0
7.159128564E1,1.010862827E1,-7.206767201E-1,5.317684174E0
7.164327897E1,1.075987053E1,-2.159635782E0,5.423032284E0
7.169527236E1,1.248374844E1,-3.952947617E0,5.456552505E0
7.174726958E1,9.907508850E0,-3.426207304E0,4.005621910E0
7.179926774E1,8.523618698E0,-3.052700281E0,5.200365067E0
7.185126326E1,7.913078308E0,-2.597788095E0,4.000833035E0
7.190325666E1,7.362394810E0,-2.717501879E0,4.479688168E0
7.195524995E1,6.584255695E0,-1.587404251E0,3.198751211E0
7.200724331E1,6.897905827E0,-1.137280583E0,4.640104771E0
7.205923663E1,6.974522591E0,1.513181686E0,5.633728504E0
7.211122996E1,7.175641537E0,3.500429869E0,8.518829346E0
7.216322401E1,9.249083519E0,3.699154615E0,1.109985828E1
7.221521760E1,1.105915546E1,4.570670605E0,9.119792938E0
7.226721103E1,9.897932053E0,4.687990189E0,9.167677879E0
7.231920442E1,9.596253395E0,5.291347504E0,8.006455421E0
7.237119765E1,8.224333763E0,6.150891781E0,5.971321583E0
7.242319094E1,5.664854050E0,7.178035736E0,4.697566986E0
7.247518436E1,5.138113976E0,7.247469902E0,4.300117493E0
7.252717776E1,1.692752242E0,5.365570068E0,1.841197371E0
7.257917188E1,1.137280583E0,2.712713242E0,3.138894320E0
7.263116537E1,-6.320885420E-1,5.506832153E-2,6.296942830E-1
7.268315873E1,4.800520897E0,-6.500456333E0,8.595446348E-1
7.273515202E1,9.488511086E0,-1.127703476E1,-4.517996788E0
7.278714538E1,-7.846038342E0,-1.824916267E1,4.274259567E1
7.283914257E1,-1.095141315E1,2.334657288E1,6.284971237E0
7.289114086E1,-1.033129597E1,1.551250648E1,1.452367115E1
7.294313528E1,-1.201925945E1,1.347737312E1,1.245022869E1
7.299509478E1,-1.069043732E1,1.460986519E1,1.400650787E1
7.304708801E1,-1.457634544E1,1.584291649E1,1.171518707E1
7.309908144E1,-2.567141533E1,1.719089317E1,6.177228928E0
7.315107493E1,-1.260346222E1,2.442160368E0,1.160744381E1
7.320306802E1,1.503604531E0,-1.332174492E1,2.049978065E1
7.325506151E1,1.039115238E1,-2.462990570E1,-1.745426297E0
7.330705573E1,9.122186661E0,2.492439985E0,1.307274103E0
7.335904902E1,6.512427330E-1,-4.242654800E0,4.788549542E-1
7.341104242E1,-4.297723293E0,-1.407833576E0,-3.203539610E0
7.346303574E1,-1.053480864E0,3.306493521E0,1.063058019E0
7.351502907E1,-1.793311834E0,-2.851581335E0,1.881899953E0
7.356702246E1,-1.144463301E0,-3.421418667E0,2.315263748E0
7.361901572E1,1.180377483E0,-4.453351021E0,5.056708336E0
7.367100938E1,7.594639778E0,-5.609786034E0,1.029777622E1
7.372300350E1,2.163945580E1,-1.283810139E1,1.154998207E1
7.377499682E1,1.995627975E1,-6.912271500E0,1.173912907E1
7.382699008E1,1.384369659E1,-3.955342054E0,1.042946148E1
7.387898351E1,1.166969585E1,-1.527547359E0,9.744698524E0
7.393097899E1,1.142787361E1,-1.611346960E0,8.710371971E0
7.398297412E1,1.054199219E1,-3.186779737E0,6.766220570E0
7.403496748E1,1.015890789E1,-4.333637238E0,4.745452881E0
7.408696080E1,9.335277557E0,-6.026389599E0,5.990475655E0
7.413895410E1,1.051804924E1,-6.488484859E0,5.171633720E0
7.419094749E1,8.241093636E0,-5.499649048E0,5.032765865E0
7.424294085E1,9.292180061E0,-4.575459003E0,5.849213123E0
7.429493450E1,8.526012421E0,-2.183578730E0,5.202759266E0
7.434692852E1,9.016839027E0,3.447755575E-1,6.126949310E0
7.439892198E1,8.202785492E0,2.621730804E0,5.961744308E0
7.445091528E1,1.073832226E1,3.646480560E0,5.413455486E0
7.450290850E1,1.061382008E1,8.734314919E0,4.122941017E0
7.455490183E1,8.645726204E0,7.419857502E0,8.427847624E-1
7.460689509E1,8.384750366E0,7.920260906E0,-7.182824612E-2
7.465888861E1,5.669642925E0,9.545973778E0,-1.759791970E0
7.471088214E1,7.592245579E0,7.388731956E0,-6.735095024E0
7.476287612E1,4.812492371E0,-1.266571403E0,-4.865166187E0
7.481486952E1,1.948939681E0,-7.747873306E0,-9.883566856E0
7.486686291E1,5.648094177E0,-1.165532970E1,-1.178940868E1
7.491885617E1,4.846012115E0,-1.593868732E1,-1.787804985E1
7.497085222E1,-2.511594296E0,-2.548705482E1,1.456437397E1
7.502285091E1,2.434019852E1,-1.211024189E1,1.408312416E1
7.507484617E1,1.614459419E1,-1.314935684E1,2.916226625E0
7.512683949E1,2.348783493E1,-1.362102985E1,2.399063349E0
7.517883289E1,2.232900620E1,-6.869174480E0,-1.628106833E-1
7.523082615E1,1.353722954E1,-1.117886925E1,-3.591412306E-1
7.528281947E1,1.812226677E1,-9.095849991E0,8.260248303E-1
7.533481290E1,1.478704166E1,-3.397475958E0,-5.715134144E0
7.538680616E1,1.162659836E1,5.985686928E-2,-2.279349566E0
7.543880021E1,6.466936111E0,4.094210148E0,-7.996878028E-1
7.549079387E1,6.749460697E0,4.125335693E0,1.757397652E0
7.554278712E1,-1.795706153E-1,-1.948939681E0,4.676018715E0
7.559478052E1,-5.631334305E0,6.577073097E0,1.213418484E1
7.564677391E1,-2.301376915E1,2.281025696E1,6.464542150E-1
7.569876717E1,-1.647021675E1,5.997658253E0,-8.978530765E-1
7.575076056E1,5.650488377E0,-1.137998772E1,2.322207069E1
7.580275389E1,9.696812630E0,-3.525090790E1,1.145421028E1
7.585474788E1,6.057515144E0,7.182824612E0,3.095797300E0
7.590674160E1,4.472505569E0,-1.186363125E1,2.803695917E0
7.595873492E1,-2.054287672E0,-1.788523316E0,-6.703969836E-2
7.601072822E1,-9.457385540E-1,1.122914910E0,1.237840056E0
7.606272307E1,-1.199531674E0,-2.513988614E-1,4.860377908E-1
7.611471890E1,1.857957244E0,9.648927450E-1,3.557892323E0
7.616671222E1,8.533195496E0,2.566662550E0,2.614548206E0
7.621870562E1,1.954685974E1,-3.591412306E-2,5.310501575E0
7.627069908E1,1.962586975E1,2.343995094E0,6.861991405E0
7.632269230E1,1.700653458E1,2.219492674E0,8.456578255E0
7.637468553E1,1.785889626E1,3.744645834E0,8.121379852E0
7.642667895E1,1.405918121E1,4.240260601E0,8.231516838E0
7.647867287E1,1.077902508E1,2.296109438E0,6.814105988E0
7.653066660E1,1.001046276E1,5.051919818E-1,5.684008598E0
7.658265996E1,1.021397591E1,-7.829278708E-1,5.341627121E0
7.663465322E1,9.735121727E0,-8.188419938E-1,4.767001152E0
7.668664654E1,8.279402733E0,-6.153286099E-1,5.789356709E0
7.673863997E1,7.944203854E0,-2.011190802E-1,6.426233768E0
7.679063326E1,9.574705124E0,-8.020820618E-1,9.399923325E0
7.684262678E1,9.177255630E0,-7.901106775E-2,9.141341209E0
7.689462094E1,8.286584854E0,6.009629965E-1,1.007271385E1
7.694661426E1,9.000079155E0,6.799740195E-1,1.029059315E1
7.699860775E1,7.446194649E0,1.407833576E0,7.762238979E0
7.705060095E1,7.142121792E0,2.815667152E0,8.875576973E0
7.710259617E1,5.523591995E0,4.941783428E0,6.601015568E0
7.715459486E1,4.745452881E0,7.659285069E0,5.535563469E0
7.720659162E1,4.139701366E0,6.859597206E0,4.362368584E0
7.725858534E1,5.195576549E-1,6.392713547E0,3.091008663E0
7.731057860E1,2.394274808E-3,3.043123245E0,3.038334846E0
7.736257196E1,-1.992036581E0,-7.182824612E-1,-2.243435383E0
7.741456535E1,-1.082212210E0,-5.542746067E0,-1.874717116E0
7.746655868E1,5.772596359E0,-1.346779537E1,-8.753468513E0
7.751855250E1,1.919490051E1,-8.631361008E0,-2.692840958E1
7.757054632E1,3.488458395E0,3.062277412E1,2.311193466E1
7.762253968E1,1.849577332E1,1.939123154E1,2.130904675E0
7.767453304E1,4.568276405E0,2.610238457E1,3.129317284E0
7.772652637E1,2.253012657E0,2.381824493E1,5.205153465E0
7.777851966E1,-2.205127001E0,1.943911743E1,3.672817469E0
7.783051309E1,-6.823683262E0,1.219164753E1,2.478074312E0
7.788250651E1,-4.017592907E0,1.289556408E1,2.592999697E0
7.793450050E1,-5.150084972E0,4.726298332E0,5.499649048E0
7.798649406E1,8.715160489E-1,-8.116591454E0,1.597460175E1
7.803848735E1,2.739050293E1,-6.491596985E1,-5.837242126E0
7.809048071E1,-4.498842239E0,6.205960274E0,3.222693920E0
7.814247403E1,1.043424988E1,-1.128661156E1,4.556304932E0
7.819446912E1,-5.746259689E-1,-6.763826370E0,8.193208694E0
7.824646788E1,-1.047734642E1,-6.143709183E0,1.529941559E0
7.829846397E1,-3.694365978E0,-5.243461609E0,3.514795303E0
7.835045740E1,-9.194015265E-1,-5.700768471E0,2.664827824E0
7.840245072E1,-1.556278616E-1,-6.213143349E0,3.059883118E0
7.845444395E1,-1.664021015E0,-7.498868465E0,3.160442829E0
7.850643734E1,-1.264177084E0,-1.028341007E1,5.873156071E0
7.855843060E1,1.149251938E0,-1.289556408E1,6.445387840E0
7.861042409E1,8.930644989E0,-1.638641739E1,5.150084972E0
7.866241795E1,1.865858269E1,-1.356596088E1,3.445361376E0
7.871441170E1,1.614459419E1,-6.529187202E0,5.631334305E0
7.876640499E1,8.358413696E0,-4.369551659E0,1.711906433E0
7.881839839E1,9.359220505E0,-3.682394743E0,1.860351562E0
7.887039171E1,1.051804924E1,-3.593806505E0,1.721483588E0
7.892238507E1,1.044861507E1,-4.491659641E0,1.563461423E0
7.897437836E1,1.157631874E1,-5.478100777E0,2.320052385E0
7.902637202E1,1.057790565E1,-7.058321953E0,2.741444588E0
7.907836608E1,9.658504486E0,-6.684815407E0,1.678386688E0
7.913035940E1,9.522030830E0,-7.132544518E0,2.298503876E0
7.918235276E1,8.672063828E0,-6.627352715E0,1.103760719E0
7.923434599E1,8.626572609E0,-5.916253090E0,2.006402254E0
7.928634038E1,8.549955368E0,-4.427014351E0,2.770175934E0
7.933833650E1,8.358413696E0,-3.387898922E0,2.468497276E0
7.939033003E1,1.040312386E1,-2.075836182E0,3.818868399E0
7.944232342E1,8.724737167E0,-5.123748183E-1,4.644893169E0
7.949431678E1,8.791776657E0,9.577099234E-2,3.656057596E0
7.954631024E1,8.834874153E0,-3.184385598E-1,3.545921087E0
7.959830346E1,7.510839939E0,-7.182824425E-3,2.736656189E0
7.965029669E1,6.555524349E0,9.337671846E-2,1.642472506E0
7.970229091E1,6.809317589E0,9.098244309E-1,1.711906433E0
7.975428453E1,7.405491829E0,1.982459545E0,1.517970204E0
7.980627776E1,7.886741161E0,2.456526041E0,3.203539610E0
7.985827108E1,9.301757812E0,2.995237827E0,4.920234680E0
7.991026451E1,1.278542709E1,4.683201313E0,7.513234138E0
7.996225790E1,1.409749031E1,8.324893951E0,1.073114014E1
8.001425119E1,1.496421719E1,1.510548019E1,1.328583050E1
8.006624442E1,2.133777618E1,1.556996918E1,3.557892323E0
8.011823874E1,9.462174416E0,8.858817101E0,-5.360781193E0
8.017023206E1,2.818061352E0,-9.500482559E0,-5.899493217E0
8.022222552E1,1.326428294E0,-1.681259727E1,-1.179659176E1
8.027222921E1,1.007271385E1,-1.282612991E1,-3.435784340E0
8.032422330E1,2.700981331E1,-4.541939259E0,1.609192085E1
8.037622218E1,-2.660039425E0,-7.491685867E0,2.478074312E0
8.042821891E1,-9.253871918E0,-5.794144869E-1,8.286584854E0
8.048021254E1,-5.844424725E0,-2.183578730E0,1.323555088E1
8.053220583E1,-7.723930359E0,9.936240315E-1,1.334568787E1
8.058419932E1,-2.789330244E0,1.994430900E0,1.579024220E1
8.063619248E1,4.285751879E-1,2.492439985E0,1.583812809E1
8.068818604E1,-4.620950520E-1,5.339232683E-1,1.597460175E1
8.074017920E1,-1.149251908E-1,2.636096478E0,1.480380154E1
8.079217279E1,-4.417437077E0,3.909850836E0,1.231614971E1
8.084416687E1,-1.777270126E1,8.770228386E0,8.025609016E0
8.089616020E1,-3.214792633E1,0.000000000E0,-1.922842026E1
8.094815356E1,1.417410731E0,-1.406875896E1,9.177255630E0
8.100014688E1,1.271599388E1,-3.596918869E1,-2.813272953E0
8.105214028E1,1.621402931E1,5.968926907E0,5.083045483E0
8.110413360E1,-4.381522834E-1,-1.848619652E1,2.097384691E0
8.115612686E1,-2.904255390E0,-4.470110893E0,1.963305354E0
8.120812055E1,-5.027976990E0,-2.770175934E0,1.149251938E0
8.126011454E1,-8.035185814E0,-1.522758722E0,5.370358467E0
8.131210780E1,-5.298530102E0,5.530774593E-1,6.538764477E0
8.136410132E1,1.202165413E1,-4.462928295E0,1.204559612E1
8.141609498E1,2.067935181E1,-3.387898922E0,6.888328552E0
8.146809127E1,2.101454926E1,2.102173328E0,5.449369431E0
8.152008526E1,1.550771809E1,5.487678051E0,6.826077461E0
8.157207856E1,1.174391747E1,5.197970390E0,7.482108593E0
8.162407198E1,9.428654671E0,3.234665155E0,5.133325100E0
8.167606534E1,1.113337803E1,5.267404765E-2,6.000052452E0
8.172805860E1,1.321400261E1,-2.310475111E0,5.798933506E0
8.178005190E1,1.160265541E1,-3.459727049E0,5.106987953E0
8.183204558E1,8.358413696E0,-3.150865555E0,3.316070557E0
8.188403960E1,6.749460697E0,-2.004008055E0,1.824437380E0
8.193603293E1,8.186025620E0,-1.604164124E0,1.261782765E0
8.198802626E1,7.968146324E0,-1.422199249E0,1.252205729E0
8.204001968E1,8.583475113E0,-1.034326673E0,2.394274771E-1
8.209201291E1,8.315316200E0,-1.551490068E0,9.457385540E-1
8.214400633E1,9.720755577E0,-1.106154919E0,1.891477108E0
8.219599959E1,9.529213905E0,-1.314456820E0,2.540325642E0
8.224799331E1,1.238079548E1,-2.109356165E0,3.780560017E0
8.229998737E1,1.072635078E1,-1.867534399E0,3.196356773E0
8.235198073E1,1.005356026E1,-1.594586968E0,2.473285913E0
8.240397395E1,1.238318920E1,9.098244309E-1,1.644866824E0
8.245596758E1,1.407594204E1,5.291347504E0,2.906649590E0
8.250796590E1,1.495464039E1,5.930618763E0,3.708731651E0
8.255996319E1,1.612544060E1,3.356773376E0,6.172440529E0
8.261195731E1,1.505519962E1,4.774183750E0,8.202785492E0
8.266395067E1,1.351807594E1,4.489265442E0,2.691164970E0
8.271594393E1,5.461340904E0,6.802134514E0,-5.336838722E0
8.276793739E1,-6.912271500E0,-6.974522591E0,-9.644139290E0
8.281993065E1,-4.213923454E0,-1.123393726E1,-1.060424328E1
8.287192404E1,1.343906403E1,-1.081254482E1,-3.289733648E0
8.292391734E1,5.145775604E1,-4.437548828E1,6.123357773E1
8.297591139E1,1.142308521E1,3.036898232E1,1.454761410E1
8.302790501E1,1.857478333E1,6.579467297E0,2.146467400E1
8.307989830E1,1.292908430E0,2.130904675E0,1.542152405E1
8.313189170E1,1.426987767E0,2.899466753E0,1.157871342E1
8.318388499E1,4.872349262E0,4.240260601E0,8.839662552E0
8.323587845E1,4.896292210E0,3.059883118E0,4.381523132E0
8.328787174E1,1.156434774E0,5.166844845E0,1.059945488E1
8.333986500E1,-6.632141471E-1,7.709564686E0,7.676044941E0
8.339185905E1,-6.541158676E0,9.126976013E0,9.268238068E0
8.344385278E1,-1.385327435E1,1.094901848E1,8.166871071E0
8.349584600E1,-3.904822922E1,2.020767927E0,-3.895485163E0
8.354783959E1,-3.543526649E0,1.867534369E-1,1.211024189E1
8.359983568E1,2.611196136E1,-3.127641106E1,2.595393944E1
8.365182998E1,1.219164753E1,-8.138139725E0,2.947352171E0
8.370382334E1,9.098244458E-2,-1.136562252E1,-3.047911882E0
8.375581670E1,-9.129369736E0,3.402264595E0,-6.232297421E0
8.380781005E1,-5.961744308E0,-6.344828010E-1,-8.116591573E-1
8.385980335E1,-5.602602959E0,-5.315289974E0,2.437371731E0
8.391179667E1,-4.599401951E0,-3.979284763E0,3.876330853E0
8.396379003E1,-4.683201313E0,-2.250618219E0,4.977697372E0
8.401578415E1,-2.810878515E0,-1.024749637E0,9.392740250E0
8.406777784E1,1.589798450E0,-3.091008663E0,1.117886925E1
8.411977134E1,1.103521252E1,-4.386311531E0,9.864412308E0
8.417176453E1,1.961629295E1,-3.507612705E0,7.314509392E0
8.422375782E1,1.682696342E1,2.209915638E0,4.364762783E0
8.427575128E1,1.604164124E1,6.079063892E0,5.006428719E0
8.432774437E1,1.453564262E1,2.928198099E0,5.358386993E0
8.437973806E1,1.015651417E1,9.146129489E-1,3.967313290E0
8.443173211E1,9.945817947E0,-1.115732074E0,5.102199554E0
8.448372537E1,1.207193375E1,-2.490045786E0,4.213923454E0
8.453571886E1,1.124830341E1,-2.691164970E0,4.697566986E0
8.458771219E1,1.083648777E1,-2.602576733E0,4.415042877E0
8.463970951E1,9.488511086E0,-2.837215662E0,2.645673752E0
8.469170760E1,8.001666069E0,-3.196356773E0,4.091815472E0
8.474370303E1,7.472531796E0,-2.564268351E0,2.693559170E0
8.479569645E1,6.876357079E0,-1.324033976E0,2.904255390E0
8.484768998E1,6.383136749E0,3.687183261E-1,4.110970020E0
8.489968277E1,5.569083214E0,9.744698405E-1,6.294548512E0
8.495167640E1,6.864386082E0,4.601796150E0,8.566715240E0
8.500366982E1,1.064494610E1,9.670475960E0,7.774210453E0
8.505566368E1,1.149730778E1,1.149491310E1,6.143709183E0
8.510765717E1,4.161249638E0,6.442993641E0,8.906702399E-1
8.515964990E1,-4.565882206E0,2.238646984E0,-1.891477108E-1
8.521164312E1,-7.841249943E0,-2.619336605E0,-2.657644987E0
8.526363648E1,-6.112583637E0,-1.893871307E1,-3.122134447E0
8.531562994E1,8.851634026E0,-2.871693230E1,-1.405199909E1
8.536762330E1,2.535537004E0,-7.453137970E1,7.648750305E1
8.541961643E1,3.627326202E1,8.322499275E0,-1.238079548E1
8.547161102E1,1.432973480E1,1.125548553E1,-6.249057293E0
8.552360522E1,2.313827133E1,2.612153769E0,2.080624819E0
8.557559864E1,3.196596336E1,-1.434170604E0,-5.224307537E0
8.562759204E1,2.388768005E1,-8.068706512E0,-4.946571827E0
8.567958516E1,2.334896851E1,-6.016812801E0,-5.166844845E0
8.573158228E1,1.764580536E1,-4.118152618E0,-3.830839634E0
8.578358057E1,9.783006668E0,-7.166064739E0,-4.453351200E-1
8.583557523E1,1.118605232E1,-6.727912426E-1,1.228263021E0
8.588756862E1,3.526766777E0,3.634509087E0,1.005595401E-1
8.593956188E1,-2.384697676E0,5.147690773E0,4.999245644E0
8.599155521E1,-2.313108826E1,1.140153694E1,-1.766974807E0
8.604354893E1,-1.921644974E1,8.686429024E0,-9.866806030E0
8.609554176E1,3.545921087E0,-7.874769688E0,2.330587006E1
8.614753422E1,2.792442703E1,-4.353749466E1,3.969707727E0
8.619952817E1,-8.818114281E0,-3.131711483E0,-1.194743156E0
8.625152180E1,3.802108288E0,-5.413455486E0,-3.766194344E0
8.630351552E1,-2.336812258E0,1.908236980E0,4.192375183E0
8.635550848E1,-6.656084061E0,3.208328247E0,-1.101366401E0
8.640750181E1,-5.324867249E0,-3.591412306E0,1.369525194E0
8.645949613E1,-1.699935079E0,-3.929004908E0,2.401457548E0
8.651148952E1,1.805283189E0,-6.972128391E0,4.522785187E0
8.656348281E1,4.649681568E0,-6.517216206E0,8.705583572E0
8.661547710E1,6.950579643E0,-5.583448887E0,9.332882881E0
8.666747062E1,1.470563602E1,-6.780586243E0,8.530800819E0
8.671946394E1,1.879745102E1,-4.082238674E0,5.985687256E0
8.677145730E1,1.925236320E1,1.532335877E-1,5.023188591E0
8.682345306E1,1.627627945E1,2.243435383E0,4.182797909E0
8.687544808E1,1.681738663E1,4.309694767E0,5.925830364E0
8.692744141E1,1.380060005E1,6.237085819E0,5.432609558E0
8.697943457E1,1.166730118E1,2.947352171E0,5.114171028E0
8.703142800E1,1.205038548E1,-3.759011328E-1,4.632921696E0
8.708342105E1,1.141111374E1,-2.123721838E0,5.166844845E0
8.713541392E1,1.145181656E1,-2.063864946E0,3.921822071E0
8.718740681E1,1.039354706E1,-2.727078915E0,4.719115734E0
8.723940126E1,1.015890789E1,-1.213897347E0,2.856369734E0
8.729139485E1,8.114197731E0,-1.793311834E0,3.416630268E0
8.734338808E1,9.555550575E0,3.830839694E-2,3.754222870E0
8.739538174E1,1.047734642E1,3.979284763E0,6.926637173E0
8.744737562E1,1.296260357E1,6.979310989E0,9.354432106E0
8.749936888E1,1.319724274E1,6.416656494E0,7.010436535E0
8.755130837E1,1.107831001E1,3.668029070E0,2.808484316E0
8.760330195E1,6.727912426E0,2.403851986E0,1.695146561E0
8.765529594E1,2.581028223E0,1.860351562E0,-8.164477348E-1
8.770728937E1,-1.340793967E-1,2.399063349E0,-1.465296149E0
8.775928263E1,-3.639297783E-1,2.889889717E0,-3.263396502E0
8.781127592E1,9.002473354E-1,1.558672905E0,-5.636122704E0
8.786327231E1,5.099805355E0,-4.233078003E0,-5.715134144E0
8.791527093E1,1.592671585E1,-1.242628670E1,-8.667274475E0
8.796726599E1,2.012388039E1,-9.790189743E0,1.668091202E1
8.801925928E1,8.736708641E0,1.844070435E1,1.348216152E1
8.807125264E1,1.822282600E1,1.054438591E1,2.176635170E1
8.812324593E1,1.619008636E1,9.964971542E0,1.798339844E1
8.817523936E1,8.126168251E0,3.014391899E0,1.184687138E1
8.822723265E1,3.100585938E0,4.558699131E0,1.534011841E1
8.827922594E1,-5.674431324E-1,6.612987041E0,1.267529106E1
8.833121960E1,-5.470917702E0,1.571123123E1,1.384369659E1
8.838321368E1,-2.226675606E1,1.296978664E1,-1.460507661E-1
8.843520694E1,-8.255459785E0,-3.579440832E0,1.619487572E1
8.848720034E1,1.339357281E1,-2.387092018E1,5.473312378E0
8.853919370E1,1.260585690E1,-1.067607117E1,8.154899597E0
8.859118709E1,-3.809291124E0,-5.150084972E0,-2.842004299E0
8.864318041E1,3.605777979E0,-6.129343510E0,-9.816526771E-1
8.869517364E1,-1.798100352E0,-1.498816013E0,4.091815472E0
8.874716739E1,-3.957736254E0,1.886688590E0,5.808510780E0
8.879916135E1,-5.705556870E0,5.382329941E0,3.656057596E0
8.885115474E1,-4.043930054E0,6.603409767E0,6.296942711E0
8.890314803E1,4.268991947E0,5.269798756E0,5.164450645E0
8.895514309E1,1.972164154E1,7.518022656E-1,6.071880817E0
8.900713868E1,2.154129028E1,5.933012962E0,3.823656797E0
8.905913204E1,1.414776993E1,7.125361919E0,5.102199554E0
8.911112530E1,1.258909702E1,5.880339146E0,5.236279011E0
8.916311869E1,1.078860188E1,4.101392746E0,3.792531252E0
8.921511202E1,9.921875000E0,2.801301479E0,4.166038036E0
8.926710528E1,1.007989693E1,1.750214934E0,3.869148016E0
8.931909874E1,1.040073013E1,9.289786220E-1,3.205934048E0
8.937109269E1,1.040312386E1,-1.436564922E-1,2.913832426E0
8.942308635E1,9.330489159E0,-2.370332032E-1,3.160442829E0
8.947507984E1,8.583475113E0,3.447755575E-1,3.126922846E0
8.952707303E1,8.073494911E0,7.087053657E-1,4.881926537E0
8.957906639E1,8.640937805E0,2.121327400E0,6.756643295E0
8.963105978E1,1.003919411E1,2.786935806E0,7.879558563E0
8.968305318E1,7.027196407E0,2.949746609E0,6.967339516E0
8.973504664E1,1.044622135E1,4.187586784E0,8.782199860E0
8.978704055E1,9.605830193E0,5.475706577E0,5.348809719E0
8.983903408E1,9.756669998E0,5.772596359E0,6.165257454E0
8.989102737E1,9.294574738E0,6.962551117E0,6.294548512E0
8.994302070E1,7.982511997E0,6.668055534E0,2.873129845E0
8.999501608E1,4.666441441E0,6.301731110E0,-1.379102230E0
9.004701474E1,-8.379961848E-1,4.553910732E0,-3.026363373E0
9.009901137E1,-9.624984860E-1,-1.319245458E0,-2.631308079E0
9.015100510E1,6.174834728E0,-9.182044029E0,-7.879558563E0
9.020299835E1,1.648458290E1,-1.498097706E1,-1.141111374E1
9.025499198E1,1.502167988E1,-3.312000275E1,2.259955978E1
9.030698507E1,-2.968900800E-1,2.163227272E1,7.410280704E0
9.035897836E1,2.469694519E1,-2.011190802E-1,2.140960503E1
9.041097205E1,1.577108860E1,3.442967176E0,1.739919472E1
9.046296607E1,1.192588329E1,2.296109438E0,1.793072319E1
9.051495957E1,5.753442287E0,2.023162127E0,1.490675449E1
9.056695279E1,7.891529560E0,3.380716085E0,1.105436707E1
9.061894608E1,4.977697372E0,6.064698219E0,1.043664360E1
9.067093948E1,8.834874034E-1,8.628966331E0,1.103281784E1
9.072293287E1,-9.584281921E0,1.388679409E1,1.176307201E1
9.077492610E1,-2.557803726E1,4.750241280E0,-1.675992310E-1
9.082691972E1,-3.256213665E-1,-1.317808819E1,2.127791977E1
9.087891384E1,2.663151932E1,-4.553192520E1,1.145181656E1
9.093090710E1,9.268238068E0,-2.513988614E-1,-7.568302631E0
9.098290043E1,-3.047911882E0,-9.411893845E0,-6.680026650E-1
9.103489378E1,-2.140481710E0,-2.942563772E0,-4.884320498E-1
9.108688904E1,-3.521978140E0,1.582615614E0,2.425400496E0
9.113888783E1,-5.758230686E0,1.635289669E0,3.112557173E0
9.119088382E1,-3.028757572E0,3.924216509E0,8.078283310E0
9.124287714E1,4.956148863E-1,3.847599506E0,1.228981304E1
9.129487040E1,8.585869789E0,1.704723716E0,1.136083412E1
9.134686380E1,1.698259163E1,3.287339211E0,1.235445786E1
9.139885716E1,1.349892139E1,5.600208759E0,1.056354046E1
9.145085048E1,9.864412308E0,7.254652500E0,1.151646137E1
9.150284384E1,6.854808807E0,4.134912491E0,8.107014656E0
9.155483753E1,9.007262230E0,3.483669758E0,6.347222328E0
9.160683152E1,9.100638390E0,1.563461423E0,6.608198643E0
9.165882488E1,1.157871342E1,-1.046298146E0,8.511647224E0
9.171081817E1,8.985713005E0,-1.795706153E0,6.395108223E0
9.176281176E1,6.766220570E0,-1.685569525E0,5.399089813E0
9.181480495E1,7.091842175E0,-1.913025618E0,5.150084972E0
9.186679811E1,6.380742550E0,-1.249811411E0,3.917033672E0
9.191879151E1,6.241874218E0,4.716721475E-1,2.980872154E0
9.197078559E1,7.271412373E0,3.854782581E-1,4.709538460E0
9.202277918E1,7.269018173E0,1.079817891E0,4.206740856E0
9.207477251E1,9.232323647E0,2.585816681E-1,5.293741703E0
9.212676587E1,1.305358601E1,2.406246185E0,6.895511627E0
9.217876023E1,1.258191395E1,5.305713177E0,5.818087578E0
9.223075641E1,1.299612331E1,3.768588543E0,7.058321953E0
9.228274991E1,9.122186661E0,2.502017260E0,4.783761024E0
9.233474330E1,7.470137596E0,3.129317284E0,5.832453251E0
9.238673652E1,9.950606346E0,4.551516533E0,4.874743462E0
9.243872985E1,5.140508175E0,4.388705730E0,-6.847625971E-1
9.249072328E1,6.143709183E0,1.702329397E0,-1.218685865E0
9.254271657E1,1.261782765E0,-1.884294271E0,2.126116037E0
9.259471036E1,7.778998852E0,-7.292961121E0,-5.798933506E0
9.264670428E1,1.286204433E1,-4.142095566E0,-9.184437752E0
9.269869760E1,-1.565855742E0,1.311104870E1,4.185192585E0
9.275069090E1,2.930592299E0,1.157871342E1,3.962524891E0
9.280268419E1,1.302006626E1,1.007510853E1,1.078141975E1
9.285467752E1,-7.060716629E0,-5.121353626E0,8.583475113E0
9.290667104E1,1.448536277E0,1.481098366E1,-1.508871937E1
9.295866440E1,1.845267677E1,-6.249057055E-1,-3.113036156E1
9.301065826E1,1.738004112E1,-2.011430359E1,-9.794978142E0
9.306265185E1,2.681827164E1,-1.163617516E1,9.505270720E-1
9.311464531E1,1.898181152E1,7.134938836E-1,8.427847624E-1
9.316663853E1,2.149340439E1,2.808484316E0,5.195576549E-1
9.321863289E1,-8.107014656E0,-1.432973480E1,5.554717779E-1
9.327063184E1,8.595446587E0,5.255433083E0,6.610592842E0
9.332262847E1,4.051113129E0,9.241900444E0,1.154998207E1
9.337462202E1,-2.355966330E0,1.125788021E1,1.774875832E1
9.342661528E1,-1.575193405E1,9.150918007E0,4.896292210E0
9.347860864E1,-3.909850836E0,-1.380299473E1,5.090228081E0
9.353060197E1,2.438089943E1,-3.867950821E1,5.075862408E-1
9.358259523E1,1.473915577E1,-2.157241583E0,-5.035160065E0
9.363458859E1,5.202759266E0,-1.464338493E1,1.587404251E0
9.368658188E1,-2.583422422E0,-7.539571285E0,-4.094209969E-1
9.373857623E1,-3.648874760E0,2.466102988E-1,2.078230619E0
9.379056959E1,-4.613767624E0,-5.339232683E-1,4.029564381E0
9.384256292E1,-3.208328247E0,-2.011190802E-1,7.187613010E0
9.389455634E1,1.189954638E0,1.075029373E0,1.040073013E1
9.394654964E1,1.011820507E1,-1.812466025E0,8.514040947E0
9.399854296E1,1.646782303E1,-9.313728809E-1,1.017327404E1
9.405053639E1,1.524913597E1,7.206767201E-1,8.772623062E0
9.410252981E1,1.442311192E1,2.341600657E0,7.257047176E0
9.415452390E1,1.232093811E1,4.029564381E0,6.399896622E0
9.420651736E1,1.139435387E1,3.581835032E0,5.980898380E0
9.425851065E1,1.144702816E1,1.848380208E0,5.763019562E0
9.431050444E1,9.627379417E0,8.212362528E-1,4.561093330E0
9.436250079E1,8.581081390E0,4.070267081E-2,4.283357620E0
9.441449485E1,1.067367744E1,-8.068706393E-1,4.726298332E0
9.446648808E1,9.162889481E0,-1.608952641E0,5.588237286E0
9.451848130E1,8.104619980E0,-1.082212210E0,5.020794392E0
9.457047460E1,8.595446587E0,-2.226675600E-1,5.145296574E0
9.462246815E1,6.816500187E0,4.070267081E-1,5.303318501E0
9.467446165E1,7.549148560E0,3.423812985E-1,5.626545906E0
9.472645504E1,6.885934353E0,-2.705530524E-1,5.786962032E0
9.477844906E1,7.934626579E0,-4.549122155E-1,5.367964268E0
9.483040370E1,7.170853138E0,-3.399870098E-1,5.300924301E0
9.488239696E1,8.336864471E0,-3.375927508E-1,5.724710941E0
9.493439025E1,7.953781128E0,4.429408312E-1,5.035160065E0
9.498638358E1,9.924268723E0,2.099778891E0,6.323279858E0
9.503837687E1,9.119792938E0,3.828445435E0,6.038361073E0
9.509037033E1,8.918673515E0,4.534756660E0,4.960937500E0
9.514236405E1,1.072156239E1,3.675211906E0,5.937801361E0
9.519435797E1,1.416213512E1,2.746233225E0,3.842811108E0
9.524635126E1,1.016130257E1,3.124528646E0,2.832427025E0
9.529834452E1,1.053480911E1,4.252232075E0,1.711906433E0
9.535033848E1,7.053533554E0,4.496448040E0,-3.711125851E-1
9.540233697E1,7.929838181E0,1.108549237E0,-1.987248063E-1
9.545433429E1,4.352791786E0,-2.758204460E0,-4.063084126E0
9.550632895E1,1.172476387E1,-7.640130997E0,-8.763046265E0
9.555832221E1,1.423156929E1,-5.315289974E0,-1.041270161E1
9.561031561E1,9.929058075E0,5.921041489E0,1.037678719E1
9.566230900E1,8.861210823E0,-1.632895470E0,9.634561539E0
9.571430223E1,6.431022167E0,7.292961121E0,1.389876556E1
9.576629575E1,3.940976381E0,4.925023079E0,1.015890789E1
9.581828957E1,-1.012778282E0,8.418270111E0,1.060903168E1
9.587028333E1,-4.721509933E0,1.244783497E1,1.791635895E1
9.592227665E1,-1.808635139E1,1.600812149E1,1.296739197E1
9.597426998E1,-1.557954597E1,6.296942830E-1,8.190814018E0
9.602626334E1,2.150058746E0,-1.579263687E1,2.748627472E1
9.607825666E1,7.520417213E0,-2.705051613E1,5.219519138E0
9.613025009E1,8.181237221E0,2.942563772E0,-4.601796150E0
9.618224348E1,3.256213665E-1,-4.980091572E0,-1.675992310E-1
9.623423760E1,-1.236882401E1,9.902720451E0,-3.387898922E0
9.628623106E1,-1.678386688E0,4.517996788E0,6.656084061E-1
9.633822438E1,-1.819648862E0,-6.943397224E-2,2.614548206E0
9.639021761E1,-1.515576005E0,9.577099234E-2,3.495641232E0
9.644221140E1,-4.525179267E-1,-3.735068738E-1,5.377541065E0
9.649420979E1,2.159635782E0,6.009629965E-1,8.475732803E0
9.654620701E1,2.492439985E0,-5.698373914E-1,8.039975166E0
9.659820117E1,7.721536160E0,-1.860351562E0,8.700794220E0
9.665019430E1,1.023791885E1,-5.178816319E0,8.916279793E0
9.670218766E1,1.036721039E1,-7.027196407E0,1.011341667E1
9.675418115E1,1.108549213E1,-7.405491829E0,8.650514603E0
9.680617434E1,1.450451660E1,-7.053533554E0,7.721536160E0
9.685816773E1,1.569447136E1,-5.145296574E0,7.029590607E0
9.691016106E1,1.266331959E1,-2.786935806E0,4.606584549E0
9.696215524E1,9.541185379E0,-2.731867552E0,3.747040033E0
9.701414874E1,1.031453609E1,-3.340013266E0,3.052700281E0
9.706614210E1,1.092028713E1,-4.482082367E0,3.047911882E0
9.711813536E1,9.265843391E0,-5.887521744E0,2.399063349E0
9.717012871E1,9.268238068E0,-7.434223175E0,2.427794695E0
9.722212207E1,7.407886028E0,-7.197190285E0,2.600182533E0
9.727411557E1,8.142929077E0,-7.010436535E0,1.656838179E0
9.732610882E1,6.816500187E0,-6.665660858E0,3.811685562E0
9.737810308E1,9.502876282E0,-3.804502726E0,4.242654800E0
9.743009640E1,1.110943508E1,-1.290514112E0,6.296942711E0
9.748208973E1,1.638162804E1,1.005595401E-1,9.081484795E0
9.753408335E1,1.131773663E1,3.160442710E-1,5.087833881E0
9.758607947E1,1.152843285E1,-1.484450400E-1,6.325674057E0
9.763807370E1,7.386337757E0,1.558672905E0,4.534756660E0
9.769006713E1,6.239480019E0,3.196356773E0,3.555498123E0
9.774206042E1,4.597007751E0,2.406246185E0,2.724684715E0
9.779405371E1,3.320859194E0,1.604164094E-1,1.570644259E0
9.784604710E1,-4.367157459E0,-8.741497040E0,-4.060689926E0
9.789804043E1,3.972101927E0,-1.775115395E1,-7.087053299E0
9.795003419E1,1.266810799E1,-6.306519985E0,-1.404002762E1
9.800202807E1,1.201925945E1,1.698977470E1,-2.422048378E1
9.805402147E1,2.642561150E1,2.002332115E1,-1.927391171E0
9.810601493E1,1.572080803E1,2.301616287E1,3.842811108E0
9.815800805E1,6.459753513E0,2.095469284E1,1.996825218E0
9.821000148E1,4.905869007E0,1.657795906E1,3.555498123E0
9.826199477E1,2.130904675E0,1.694907188E1,1.697540879E0
9.831398803E1,-3.119740009E0,1.832099152E1,4.972908974E0
9.836598175E1,-1.002961731E1,2.439766121E1,5.451763630E0
9.841797570E1,-4.489265442E0,4.458139896E0,1.675034714E1
9.846996903E1,5.032765865E0,-4.992063046E0,1.311344337E1
9.852196252E1,1.761707497E1,-3.376645660E1,-1.546701550E0
9.857395585E1,3.210722446E0,-2.430188894E0,1.388679445E-1
9.862595350E1,2.162030220E0,-3.035940409E0,1.903448462E0
9.867795149E1,1.556278586E0,-4.618556023E0,-1.841197371E0
9.872994585E1,-8.341653824E0,2.087807655E0,-5.770202279E-1
9.878193908E1,-8.499675393E-1,-6.608198285E-1,1.489238977E0
9.883393240E1,9.696813226E-1,-1.690358043E0,3.091008663E0
9.888592580E1,3.328042030E0,-2.322446555E-1,5.988081455E0
9.893791915E1,1.174152374E1,-6.316096783E0,6.945791245E0
9.898991245E1,2.339924812E1,-8.166871071E0,7.688016415E0
9.904190584E1,2.007120514E1,-6.014418125E0,8.463761330E0
9.909389992E1,1.957080269E1,-1.355159521E0,1.788283920E1
9.914589348E1,1.487084103E1,-2.348783493E0,5.631334305E0
9.919788677E1,9.081484795E0,-1.221080124E-1,4.424619675E0
9.924988010E1,9.811738014E0,-3.423812866E0,3.093403101E0
9.930187349E1,1.137519932E1,-3.732674360E0,1.604164124E0
9.935386685E1,1.145660496E1,-4.793338299E0,1.446141958E0
9.940586011E1,8.961771011E0,-4.529967785E0,5.842030644E-1
9.945785354E1,8.348835945E0,-2.815667152E0,1.003201127E0
9.950984749E1,8.286584854E0,-9.960182905E-1,2.564268351E0
9.956184121E1,1.056832886E1,-1.489238977E0,3.933793545E0
9.961383457E1,1.040551853E1,-1.211503029E0,5.889915943E0
9.966582806E1,9.411893845E0,-1.484450400E-1,4.676018715E0
9.971782378E1,1.083409309E1,2.873129845E0,6.888328552E0
9.976981858E1,1.609192085E1,7.465348721E0,8.537983894E0
9.982181187E1,1.661626625E1,7.685622215E0,7.915472507E0
9.987380519E1,1.182053471E1,4.920234680E0,4.242654800E0
9.992579859E1,9.926663399E0,3.773377180E0,8.643332124E-1
9.997779191E1,5.188393593E0,2.564268351E0,-1.915419817E0
1.000297852E2,-1.960911036E0,1.831620216E0,-4.031958580E0
1.000817785E2,-2.176395893E0,9.194015265E-1,-4.553910732E0
1.001337724E2,5.889915824E-1,-1.376708031E0,-5.315289974E0
1.001857662E2,3.110162973E0,-7.395915031E0,-4.755029678E0
1.002377596E2,1.435846615E1,-1.117408085E1,-8.655303001E0
1.002897529E2,1.249093151E1,-3.405616379E1,1.207911682E1
1.003417462E2,1.945348358E1,1.041270161E1,1.166969585E1
1.003937395E2,1.848859024E1,-3.186779737E0,7.731113434E0
1.004457330E2,2.258040619E1,-2.729473412E-1,7.752661705E0
1.004977264E2,2.336572838E1,4.853195190E0,5.444581032E0
1.005497206E2,1.879026794E1,6.023995399E0,6.129343510E0
1.006017139E2,1.444705391E1,4.915446281E0,4.592218876E0
1.006537072E2,3.399870157E0,4.565882206E0,2.846792698E0
1.007057006E2,-1.953728199E0,6.189200401E0,-1.039115310E0
1.007576974E2,-1.320921421E1,1.035044956E1,7.948992252E-1
1.008096956E2,-1.737525177E1,4.788549617E-2,-2.729473352E0
1.008616917E2,6.584255695E-1,-1.034805584E1,2.247026825E1
1.009136849E2,3.014391899E1,-4.084154129E1,-2.944957912E-1
1.009656782E2,-4.417437077E0,-2.997632027E0,-2.250618219E0
1.010176716E2,1.917814136E0,-9.993702888E0,-1.029538140E-1
1.010696649E2,-1.489238977E0,-6.220325947E0,3.608172178E0
1.011216583E2,-2.442160368E0,-3.759011328E-1,5.736682415E0
1.011736518E2,-5.267404556E0,-1.747820616E0,3.929004908E0
1.012256459E2,-3.371139050E0,-2.487651587E0,5.063891411E0
1.012776393E2,2.004008055E0,-4.817280769E0,8.078283310E0
1.013296326E2,8.114197731E0,-8.533195496E0,8.008849144E0
1.013816259E2,1.465296173E1,-8.186025620E0,6.385530949E0
1.014336192E2,1.744468689E1,-3.677606106E0,4.635315895E0
1.014856127E2,1.558194065E1,-3.735068738E-1,4.857983589E0
1.015376060E2,1.333371639E1,-5.746259689E-1,4.075055599E0
1.015895998E2,1.102802944E1,-1.374313712E0,2.782147408E0
1.016415936E2,1.019721603E1,-2.353572130E0,2.758204460E0
1.016935870E2,9.466962814E0,-2.918621063E0,2.442160368E0
1.017455803E2,1.062100315E1,-3.641691923E0,2.025556564E0
1.017975736E2,1.023552513E1,-3.878725290E0,2.588211060E0
1.018495701E2,1.041270161E1,-4.204346657E0,3.232270956E0
1.019015687E2,9.907508850E0,-4.211529255E0,2.978477955E0
1.019535636E2,8.075888634E0,-3.670423269E0,3.081431627E0
1.020055569E2,7.903501034E0,-3.289733648E0,2.662433624E0
1.020575503E2,7.747873306E0,-3.799714088E0,3.191568375E0
1.021075662E2,6.897905827E0,-3.062277555E0,2.762993097E0
1.021595597E2,9.304151535E0,-1.968093872E0,3.759011507E0
1.022115530E2,1.041988373E1,-1.359948039E0,5.444581032E0
1.022635462E2,1.057790565E1,-1.386285067E0,4.517996788E0
1.023155404E2,8.286584854E0,-1.501210332E0,3.301704884E0
1.023675340E2,1.066409969E1,-2.530748367E0,3.270579338E0
1.024195272E2,8.746285439E0,-8.954587579E-1,4.278569221E0
1.024715207E2,1.541194725E1,2.885101080E0,7.280989647E0
1.025235139E2,1.019003391E1,4.242654800E0,4.838829517E0
1.025755074E2,1.243586349E1,3.852388144E0,4.393494129E0
1.026275008E2,1.267289639E1,6.713546753E0,2.882706881E0
1.026794940E2,1.170800400E1,9.890748978E0,3.490852594E0
1.027314882E2,7.252258301E0,9.510059357E0,3.747040033E0
1.027834817E2,3.071854591E0,7.458166122E0,4.486870766E0
1.028354750E2,-2.396669149E0,3.648874760E0,3.100585938E0
1.028874684E2,-7.446194887E-1,-1.005595401E-1,9.744698405E-1
1.029394633E2,-3.064671755E-1,-4.098998547E0,-6.366376877E0
1.029914589E2,1.329540825E1,-1.332413960E1,-1.208151054E1
1.030434523E2,7.886741161E0,-1.351568127E1,-1.387482262E1
1.030954456E2,3.167625666E0,4.225894928E0,2.717501831E1
1.031474390E2,1.650852394E1,-5.693585396E0,1.131294823E1
1.031994324E2,2.570493507E1,-6.337645531E0,2.280786133E1
1.032514257E2,2.252533722E1,-5.379935265E0,1.677189445E1
1.033034190E2,2.149101067E1,-1.173194647E0,1.028101635E1
1.033554129E2,1.930024910E1,3.000026226E0,5.825270653E0
1.034074066E2,7.822095871E0,4.470110893E0,-1.848380208E0
1.034594000E2,1.680780888E0,5.547534943E0,2.343995094E0
1.035113933E2,-4.905869007E0,6.929031372E0,2.343995094E0
1.035633867E2,-1.379102325E1,1.077184200E1,-4.477293789E-1
1.036153801E2,-1.865858269E1,7.031985283E0,-6.452570438E0
1.036673733E2,-2.221887112E0,-3.878725290E0,5.384724140E0
1.037193667E2,2.811836243E1,-3.782714844E1,1.052762604E1
1.037713608E2,-1.155955887E1,-9.672870636E0,1.793311834E0
1.038233544E2,7.043956280E0,-7.099024773E0,-9.505270720E-1
1.038753477E2,-2.365543604E0,-8.492492676E0,3.624932051E0
1.039273410E2,-6.198777676E0,1.869928598E0,2.044710636E0
1.039793364E2,-5.935407162E0,-2.487651587E0,2.013585091E0
1.040313352E2,8.643332124E-1,-6.773403645E0,3.423812866E0
1.040833310E2,7.685622215E0,-1.057311726E1,5.305713177E0
1.041353244E2,6.727912426E0,-1.528744507E1,2.394274712E0
1.041873177E2,1.072874546E1,-1.778706741E1,1.022355318E0
1.042393111E2,1.436804295E1,-1.701371765E1,2.367937803E0
1.042913044E2,1.242149734E1,-1.260585690E1,5.475706577E0
1.043432977E2,8.971347809E0,-9.615407944E0,3.732674360E0
1.043952911E2,7.122967720E0,-8.660092354E0,1.743032098E0
1.044472845E2,6.162863255E0,-8.396721840E0,1.611346960E0
1.044992786E2,5.901887417E0,-9.622590065E0,5.722316504E-1
1.045512721E2,6.332856655E0,-8.731920242E0,5.435003638E-1
1.046032653E2,4.829252243E0,-8.985713005E0,9.361614585E-1
1.046552587E2,4.752635479E0,-1.029538155E1,1.592192769E0
1.047072521E2,4.170826912E0,-1.166730118E1,1.089395046E0
1.047592454E2,3.153259993E0,-1.218206978E1,1.290514112E0
1.048112388E2,3.105374336E0,-1.105676079E1,1.407833576E0
1.048632324E2,3.095797300E0,-1.042946148E1,2.150058746E0
1.049152266E2,3.605777979E0,-9.454991341E0,2.250618219E0
1.049672197E2,3.933793545E0,-7.472531796E0,3.976890564E0
1.050192131E2,5.559505939E0,-6.502850533E0,5.741470814E0
1.050712076E2,5.207547665E0,-6.043149471E0,4.810098171E0
1.051232037E2,7.055927753E0,-6.289760113E0,3.828445435E0
1.051751971E2,9.457385063E0,-6.131737709E0,4.704750061E0
1.052271905E2,1.044861507E1,-4.697566986E0,5.425426483E0
1.052791837E2,1.140153694E1,-2.511594296E0,6.251451492E0
1.053311772E2,1.147815323E1,-1.242628574E0,3.342407703E0
1.053831705E2,1.235685253E1,2.633702159E-1,5.243461609E0
1.054351638E2,1.480858994E1,-1.173194647E-1,6.689603806E0
1.054871575E2,1.314696312E1,5.315290093E-1,4.597007751E0
1.055391516E2,1.334329319E1,2.657645047E-1,4.417437077E0
1.055911450E2,1.198334503E1,2.592999697E0,-4.333637357E-1
1.056431382E2,7.515628815E0,3.019180536E0,-3.656057596E0
1.056951314E2,3.174808502E0,3.196356773E0,-4.774183750E0
1.057471247E2,1.022355318E0,4.259414673E0,-5.212336063E0
1.057991181E2,6.074275017E0,7.206767201E-1,-6.962551117E0
1.058511115E2,2.198423195E1,-7.862798691E0,-1.383651447E1
1.059031052E2,5.652882767E1,-2.274321556E1,-2.958366013E1
1.059550993E2,-1.529941559E1,1.620205688E1,9.909903526E0
1.060070925E2,6.299336910E0,3.119740009E0,1.714300728E1
1.060590859E2,1.416452980E1,-2.413429022E0,1.104239559E1
1.061110803E2,1.044143200E1,-3.936187744E0,2.839609861E0
1.061630791E2,1.561306572E1,-7.070293427E0,6.174834728E0
1.062150761E2,1.401847935E1,-1.361863518E1,5.633728504E0
1.062670702E2,2.394993019E1,-1.064973450E1,1.640078187E0
1.063190635E2,1.600093842E1,-7.810124397E0,-6.687209606E0
1.063710567E2,2.157241631E1,-3.414235830E0,-3.421418667E0
1.064230502E2,1.691555214E1,2.494834423E0,-8.288979530E0
1.064750436E2,1.170560932E1,1.750214934E0,-6.225114316E-2
1.065270370E2,9.703995705E0,6.972128391E0,3.598595142E0
1.065790312E2,2.262589693E0,6.912271500E0,6.782980442E0
1.066310246E2,-8.442213058E0,9.134158134E0,8.329682350E0
1.066830179E2,-2.495792007E1,1.724596214E1,-2.877918243E0
1.067350112E2,-2.672010612E1,3.098191500E0,3.028757572E0
1.067870045E2,1.963305324E-1,-1.187560320E0,2.064822578E1
1.068389979E2,1.503843975E1,-5.702683640E1,3.366350412E0
1.068909911E2,1.996585846E1,9.289786339E0,-6.569890022E0
1.069429846E2,-5.090228081E0,-1.478225231E1,-1.642472506E0
1.069949789E2,-2.439765930E0,3.696760416E0,3.986467600E0
1.070469721E2,-7.805336118E-1,-2.470891714E0,3.605777979E0
1.070989656E2,-4.561093330E0,-5.006428719E0,3.933793545E0
1.071509588E2,-2.774964571E0,-4.252232075E0,7.719141960E0
1.072029532E2,1.764580488E0,-6.569890022E0,7.671256542E0
1.072549522E2,6.553130150E0,-6.845231533E0,1.088916206E1
1.073069488E2,1.334089947E1,-7.592245579E0,6.773403645E0
1.073589422E2,1.570883656E1,-4.498842239E0,5.590631485E0
1.074109356E2,1.646542740E1,-2.777358770E0,4.697566986E0
1.074629288E2,1.306555748E1,4.788549542E-1,4.496448040E0
1.075149223E2,1.450691128E1,1.343188167E0,5.904281616E0
1.075669156E2,1.345103550E1,9.313728809E-1,5.717528343E0
1.076189088E2,1.331216812E1,-1.939362586E-1,6.799740314E0
1.076709026E2,1.164335823E1,-1.158828974E0,5.729499817E0
1.077228966E2,9.371191978E0,-2.853975534E0,5.674431324E0
1.077748899E2,1.066649437E1,-4.915446281E0,7.503657341E0
1.078268834E2,1.002961731E1,-5.396695614E0,5.303318501E0
1.078788767E2,8.193208694E0,-4.671230316E0,6.541158676E0
1.079308699E2,8.528407097E0,-3.543526649E0,7.084659100E0
1.079828632E2,6.057515144E0,-2.609759569E0,6.948185444E0
1.080348565E2,5.700768471E0,-1.173194647E-1,7.012830734E0
1.080868503E2,8.954587936E0,2.921015263E0,9.380768776E0
1.081388442E2,6.323279858E0,3.560286522E0,8.533195496E0
1.081908380E2,8.573898315E0,4.968120098E0,9.945817947E0
1.082428311E2,8.315316200E0,7.611399651E0,9.007262230E0
1.082948248E2,8.406298637E0,1.076226521E1,7.304932594E0
1.083468212E2,6.445387840E0,9.416683197E0,5.384724140E0
1.083988150E2,1.087000728E0,6.105400562E0,1.867534399E0
1.084508082E2,1.860351562E0,4.300117493E0,2.683982134E0
1.085028016E2,2.705530524E-1,2.614548206E0,3.900273561E0
1.085547950E2,-3.950553536E-1,4.166038036E0,3.567469358E0
1.086067883E2,2.078230619E0,3.098191500E0,9.577099234E-3
1.086587816E2,2.169213057E0,-2.032739401E0,-8.159688950E0
1.087107752E2,7.666468143E0,-9.555550575E0,-7.609005451E0
1.087627692E2,2.844398499E1,-2.439526558E1,2.788372421E1
1.088147626E2,-9.929058075E0,9.325700760E0,4.254626274E0
1.088667559E2,-8.528407097E0,9.284997940E0,2.687573433E1
1.089187493E2,-1.276387882E1,8.961771011E0,2.117257118E1
1.089707426E2,-9.620196342E0,7.582668304E0,1.467211628E1
