"Time (s)","Gyroscope x (rad/s)","Gyroscope y (rad/s)","Gyroscope z (rad/s)"
5.199392000E-2,-2.020436898E-2,-2.356614351E0,1.488509417E0
1.039870540E-1,-4.891503602E-2,-1.203300714E0,9.039113522E-1
1.559803460E-1,-3.329673707E-1,-3.224330246E-1,2.350139171E-1
2.079736720E-1,-3.183066249E-1,4.637505710E-1,-6.550167203E-1
2.599669650E-1,-2.631301992E-2,7.850656509E-1,-1.391720176E0
3.119605230E-1,2.436894178E-1,7.844548225E-1,-2.337950468E0
3.639547750E-1,-1.509295404E-1,-9.152594209E-2,-2.738067150E0
4.159480010E-1,-4.740772545E-1,7.618528008E-1,-2.832140446E0
4.679412940E-1,-6.891018152E-1,1.649440050E0,-2.910942078E0
5.199346870E-1,-4.337601364E-1,7.893417478E-1,-2.763112783E0
5.719281460E-1,-4.007734060E-1,8.559260368E-1,-2.828475237E0
6.239214390E-1,-4.551404119E-1,9.988685250E-1,-2.563970804E0
6.759146320E-1,-4.832402468E-1,6.451775432E-1,-1.956770658E0
7.279080240E-1,-1.710880846E-1,1.167467237E0,-1.777176142E0
7.799022760E-1,1.086882055E-1,2.304287672E0,-1.728917837E0
8.318957020E-1,-5.441282317E-2,1.476565242E0,-2.210279703E0
8.838890610E-1,1.282358915E-1,2.996397972E0,-3.089314699E0
9.358824860E-1,4.776508212E-1,3.251128674E0,-3.670858383E0
9.878783410E-1,7.268838286E-1,3.085584164E0,-3.733777523E0
1.039873035E0,8.753240705E-1,3.383075714E0,-3.714840889E0
1.091866360E0,8.747131824E-1,2.734947443E0,-3.242031097E0
1.143859820E0,8.368396163E-1,1.518714786E0,-2.706912994E0
1.195853079E0,6.163172126E-1,1.712970018E0,-3.005015373E0
1.247846304E0,8.747131824E-1,1.273757935E0,-2.945150614E0
1.299839797E0,1.039036036E0,4.881851673E-1,-2.537703276E0
1.351833123E0,1.216186881E0,-2.051468790E-1,-2.476006031E0
1.403827242E0,1.627299190E0,-4.262800813E-1,-2.230438232E0
1.455820667E0,2.418980360E0,-3.346503079E-1,-2.046567678E0
1.507814059E0,2.737241507E0,-9.748371243E-1,-1.484571815E0
1.559807385E0,2.119045734E0,-5.625030398E-1,-4.399921894E-1
1.611800744E0,1.641349077E0,-1.361514807E0,5.050163865E-1
1.663794004E0,9.797820449E-1,-1.386560321E0,6.076416969E-1
1.715787363E0,5.766109824E-1,-5.295162797E-1,2.172988057E-1
1.767781319E0,1.049420595E0,-6.413046718E-1,2.814396620E-1
1.819775240E0,9.327453971E-1,6.671686769E-1,-5.786585808E-1
1.871768399E0,6.340323091E-1,1.011696696E0,5.074598193E-1
1.923761625E0,3.084411323E-1,9.139582515E-1,-3.996750712E-1
1.975755151E0,2.125352919E-1,7.728483677E-1,-2.762803137E-1
2.027752138E0,5.554292351E-2,1.041018248E0,-1.999221444E-1
2.079750364E0,-1.045037657E-1,9.121256471E-1,-1.235639900E-1
2.131746089E0,-2.578309774E-1,5.181175470E-1,-6.247746199E-2
2.183739482E0,-2.755460441E-1,5.138415098E-1,4.686741158E-2
2.235732741E0,-2.798220813E-1,1.955807209E-1,1.055104733E-1
2.287726101E0,-1.894140542E-1,-1.150259282E-2,2.716658413E-1
2.339719327E0,-2.114052027E-1,-3.401480913E-1,2.771635950E-1
2.391712753E0,-3.347999454E-1,-3.065505028E-1,2.582267821E-1
2.443707006E0,-4.068820775E-1,-4.937623441E-2,1.134517267E-1
2.495700530E0,-4.343709946E-1,2.175718695E-1,5.114347115E-2
2.547693890E0,-4.325384200E-1,3.024821579E-1,8.290845901E-2
2.599687182E0,-2.584418058E-1,1.002857462E-1,9.146057814E-2
2.651680440E0,-1.104138978E-2,1.277746856E-1,1.452167183E-1
2.703673767E0,2.669022679E-1,6.363382936E-2,1.055104733E-1
2.755667093E0,3.970166147E-1,3.492316604E-2,4.014789686E-2
2.807660518E0,4.355010986E-1,1.509875655E-1,1.815674827E-2
2.859654736E0,3.524234295E-1,5.691431463E-2,-6.614265591E-2
2.911648228E0,3.188258410E-1,1.320507377E-1,-3.254506737E-2
2.963641487E0,1.844354868E-1,5.263825879E-2,-9.057725966E-2
3.015634813E0,9.952522069E-2,1.051726714E-1,-4.476236925E-2
3.067628373E0,9.952522069E-2,2.148413099E-2,-1.055391878E-2
3.119625060E0,1.221272349E-1,4.286441579E-2,6.274991482E-2
3.171623314E0,4.027128965E-2,-1.700037904E-2,1.116191298E-1
3.223618174E0,-1.100015566E-1,-9.152594209E-2,9.084970504E-2
3.275611500E0,-1.918575019E-1,1.790873557E-1,1.152843237E-1
3.326177267E0,-1.857488602E-1,2.707171738E-1,9.756922722E-2
3.378170627E0,-8.556694537E-2,4.594745040E-1,1.024561524E-1
3.430163986E0,-2.631301992E-2,1.674809307E-1,1.983619928E-1
3.482157279E0,-4.341724887E-2,-6.159354374E-2,2.673897743E-1
3.534150671E0,-1.655903012E-1,-3.028853238E-1,1.812577695E-1
3.586144756E0,-2.028530687E-1,2.453845553E-2,2.435660213E-1
3.638138314E0,-2.193464339E-1,2.780475318E-1,2.056923807E-1
3.690131573E0,-2.101834565E-1,1.638157368E-1,2.032489181E-1
3.742124966E0,-2.731025815E-1,9.478796273E-2,1.042887494E-1
3.794118325E0,-4.410905242E-1,2.847670615E-1,2.731972747E-2
3.846111617E0,-3.464064002E-1,2.261239886E-1,-7.499592844E-3
3.898104978E0,-1.698663533E-1,2.676628232E-1,1.632415131E-2
3.950098403E0,-4.581489338E-5,-1.455691922E-2,7.008029521E-2
4.002092588E0,6.959282607E-2,-1.489472687E-1,1.024561524E-1
4.054086014E0,-9.961685538E-2,-3.945150971E-1,6.885856390E-2
4.106079307E0,-2.517222762E-1,-3.199895322E-1,-5.666996818E-3
4.158072633E0,-3.745062053E-1,4.469700903E-2,5.939442664E-3
4.210067888E0,-2.773786187E-1,2.615541816E-1,6.458250433E-2
4.262063280E0,-2.077400088E-1,1.259420812E-1,2.185205519E-1
4.314056739E0,-2.578309774E-1,4.530787840E-2,3.235893548E-1
4.366050132E0,-3.115870953E-1,1.442680508E-1,2.435660213E-1
4.418043358E0,-3.366325796E-1,4.478680789E-1,1.782034487E-1
4.470036651E0,-2.523331642E-1,4.405376911E-1,1.391080618E-1
4.522030044E0,-2.254550904E-1,4.497006536E-1,1.977511346E-1
4.574023436E0,-1.429882795E-1,-7.136738300E-2,4.329342246E-1
4.626017654E0,-1.289383918E-1,-1.593319923E-1,5.251749158E-1
4.678011046E0,-2.700482607E-1,-1.440603435E-1,3.034308255E-1
4.730004339E0,-4.698011875E-1,1.729787141E-1,-8.263601363E-2
4.781997631E0,-4.979009926E-1,-1.394605357E-2,-2.887987718E-2
4.833991057E0,-5.791460276E-1,-2.350792736E-1,-1.910603233E-2
4.885984416E0,-5.993046165E-1,-3.532633558E-2,-7.164043933E-2
4.937977675E0,-5.632635355E-1,-2.210293710E-1,-8.874467015E-2
4.989971365E0,-4.575839043E-1,1.415374782E-2,-1.486094594E-1
5.041965418E0,-2.175138444E-1,-1.283324003E0,5.541953072E-2
5.093958677E0,-2.395049930E-1,-9.589545727E-1,1.006235555E-1
5.145952070E0,-1.185536757E-1,-8.349488974E-1,3.272545338E-1
5.197945429E0,-2.834872603E-1,-1.150155425E0,4.537036717E-1
5.249941017E0,-6.579477191E-1,-6.828435063E-1,5.239531994E-1
5.301939872E0,-7.226994038E-1,-1.228346229E0,8.764224052E-1
5.353935364E0,-8.387637734E-1,-1.393890619E0,8.806985021E-1
5.405928855E0,-8.338769078E-1,-6.718478799E-1,8.611507416E-1
5.457922115E0,-6.952104568E-1,-3.432024121E-1,8.629834056E-1
5.509915441E0,-7.526317835E-1,-6.626849174E-1,7.811274529E-1
5.561908734E0,-6.854366660E-1,-1.037432477E-1,8.904722929E-1
5.613902093E0,-5.760917068E-1,-2.149207145E-1,8.660377264E-1
5.665895419E0,-4.276514947E-1,1.781893894E-2,9.149069190E-1
5.717889208E0,-1.258840561E-1,-1.330647767E-1,8.806985021E-1
5.769883028E0,2.412459552E-1,2.145175487E-1,6.149721146E-1
5.821876420E0,4.330576360E-1,4.399268329E-1,5.117358565E-1
5.873869746E0,6.548017859E-1,1.406028569E-1,4.769165218E-1
5.925863005E0,6.786254644E-1,2.261239886E-1,4.182734787E-1
5.977856498E0,7.653683424E-1,-1.691058129E-1,3.938388526E-1
6.029849723E0,4.843703210E-1,-5.792835355E-2,4.023909867E-1
6.081843049E0,2.748435438E-1,-5.453988314E-1,3.290871680E-1
6.133837234E0,-1.442100108E-1,-6.648045778E-2,2.099684328E-1
6.185830725E0,-4.533078372E-1,-9.458027035E-2,3.926171660E-1
6.237824085E0,-5.143943429E-1,-1.300104558E-1,4.530928135E-1
6.289817544E0,-5.589874983E-1,1.222768947E-1,3.541326225E-1
6.341812066E0,-5.192812681E-1,2.420064807E-1,3.724585772E-1
6.393808156E0,-3.757279217E-1,6.066930294E-1,3.785672188E-1
6.445801482E0,-2.755460441E-1,4.643614292E-1,2.875483036E-1
6.497794774E0,-3.119994141E-2,4.515332580E-1,1.934750676E-1
6.549788166E0,1.111316606E-1,4.643614292E-1,3.159578145E-2
6.601781459E0,6.714936346E-2,5.248370767E-1,-3.132333606E-2
6.653774819E0,-2.875648066E-2,3.263058662E-1,-1.101249531E-1
6.705768111E0,-9.167559445E-2,6.683904529E-1,-8.813380450E-2
6.757762296E0,-4.769330099E-2,2.304000407E-1,-1.418899596E-1
6.809755820E0,-8.312349021E-2,6.292950511E-1,-1.266183108E-1
6.861749145E0,7.895433344E-3,3.030930161E-1,-1.571615785E-1
6.913742539E0,9.891435504E-2,2.694954276E-1,-1.987004131E-1
6.965735865E0,1.807702929E-1,3.476861715E-1,-2.549000382E-1
7.017729124E0,2.833956480E-1,2.279565930E-1,-2.072525322E-1
7.069722517E0,4.080121815E-1,4.286441579E-2,-1.486094594E-1
7.121715843E0,4.306142032E-1,-2.738508955E-2,-3.987545148E-2
7.173709863E0,3.524234295E-1,-1.770470738E-1,-1.064597592E-1
7.225703487E0,2.662914395E-1,1.961915940E-1,-1.345595717E-1
7.277696812E0,2.235308737E-1,-1.150259282E-2,-8.752293885E-2
7.329690205E0,2.333047092E-1,-1.761124469E-2,-7.800749154E-4
7.381684893E0,2.791196108E-1,-2.860681899E-2,6.458250433E-2
7.433683648E0,3.499799669E-1,-6.220440567E-2,6.458250433E-2
7.485680642E0,2.443002760E-1,3.492316604E-2,-7.347303629E-2
7.537674536E0,1.978745311E-1,5.691431463E-2,-1.046271697E-1
7.589667862E0,2.302503884E-1,-8.419555426E-2,-1.113466844E-1
7.641661254E0,3.059976697E-1,-7.319997996E-2,-8.691207319E-2
7.693654546E0,3.640298843E-1,-1.507798582E-1,-7.530563325E-2
7.745647872E0,3.799123466E-1,-3.260982037E-1,-1.421911083E-2
7.797641362E0,3.139389455E-1,-1.263452619E-1,-3.437766433E-2
7.849635614E0,2.711783350E-1,-2.350792736E-1,-4.231891409E-2
7.901628873E0,1.349553913E-1,2.591107190E-1,-8.263601363E-2
7.953622132E0,6.898195297E-2,-1.116844937E-1,-5.942313746E-2
8.005615525E0,8.181012422E-2,5.080566555E-2,2.243280411E-2
8.057609018E0,8.975137025E-2,-2.668442726E-1,1.067322046E-1
8.109602277E0,7.264714688E-2,-9.396939725E-2,1.720947921E-1
8.161595537E0,2.866485156E-2,-2.332466692E-1,1.397189349E-1
8.213589194E0,-6.418666989E-2,-1.306213289E-1,1.922533363E-1
8.265583113E0,-7.884743810E-2,-1.086301655E-1,1.598774940E-1
8.317576506E0,-8.251262456E-2,-1.232909337E-1,7.985413820E-2
8.369569897E0,-1.020603105E-1,-6.342613697E-2,-4.292977601E-2
8.421563189E0,-1.515403837E-1,-2.020925432E-1,-1.315052360E-1
8.473558010E0,-2.437810451E-1,-9.213680029E-2,-1.938134879E-1
8.525556865E0,-3.201391995E-1,-1.733818799E-1,-2.494022399E-1
8.577553122E0,-5.015661716E-1,-1.098518968E-1,-2.139720470E-1
8.629546615E0,-6.585585475E-1,-2.339613857E-3,-5.820140988E-2
8.681540007E0,-4.630816579E-1,-1.397842914E-1,2.447877526E-1
8.733533267E0,7.284567691E-3,-3.114374280E-1,4.121648371E-1
8.785526692E0,1.679421216E-1,-2.249816619E-2,4.781382680E-1
8.837520085E0,-3.425426781E-2,-8.175209910E-2,5.007402897E-1
8.889513378E0,-1.497077942E-1,-2.668442726E-1,5.838180184E-1
8.941507099E0,-1.765858829E-1,-2.246945649E-1,5.777093172E-1
8.993501054E0,-3.726736009E-1,-1.587211192E-1,3.303088844E-1
9.045494246E0,-6.805496812E-1,1.277746856E-1,2.099684328E-1
9.097487539E0,-9.193980098E-1,-8.691574335E-1,-8.721322753E-3
9.149481265E0,-1.116707563E0,-3.315959871E-1,-1.559398472E-1
9.201474191E0,-8.534245491E-1,-8.025730848E-1,-9.912937880E-2
9.253467617E0,-4.105472863E-1,-3.700805008E-1,-2.109177262E-1
9.305460977E0,7.264714688E-2,-2.130881250E-1,-7.041871548E-2
9.357454896E0,2.858391106E-1,-1.269561201E-1,3.831529990E-2
9.409448785E0,6.042984501E-2,2.087326534E-2,-7.530563325E-2
9.461442043E0,-1.057255045E-1,-9.669996798E-3,-1.046271697E-1
9.513435470E0,-2.325869352E-2,4.042095318E-2,-1.602158993E-1
9.565429296E0,1.312902123E-1,1.473223716E-1,-2.652847171E-1
9.617425617E0,3.218801618E-1,8.806844056E-2,-3.953990042E-1
9.669419312E0,2.931694984E-1,2.444499582E-1,-4.931374490E-1
9.721412604E0,1.716073155E-1,-6.342613697E-2,-5.798802972E-1
9.773405931E0,-4.932736978E-3,4.374833703E-1,-8.627109528E-1
9.825399290E0,4.943427071E-2,7.368072867E-1,-9.903817773E-1
9.877392550E0,1.728290617E-1,4.374833703E-1,-8.877564073E-1
9.929386009E0,3.090519905E-1,4.148813486E-1,-8.266698718E-1
9.981380129E0,5.191896558E-1,4.344290495E-1,-8.346111178E-1
1.003337358E1,5.643936992E-1,3.452427089E-1,-7.906288505E-1
1.008536698E1,4.269489944E-1,4.081618488E-1,-5.988171101E-1
1.013736034E1,2.546849847E-1,3.403557837E-1,-3.190408647E-1
1.018935373E1,2.705674767E-1,2.426173538E-1,-7.164043933E-2
1.024134705E1,3.273779750E-1,2.163501382E-1,3.037405200E-2
1.029334028E1,2.253634632E-1,3.055364788E-1,7.130202651E-2
1.034533364E1,1.361771375E-1,5.737062693E-1,4.625654966E-2
1.039732786E1,1.844354868E-1,6.115799546E-1,1.647644043E-1
1.044932135E1,4.098447561E-1,3.736662492E-2,2.441768944E-1
1.050131481E1,5.228548646E-1,3.104234040E-1,-3.559939563E-2
1.055330800E1,5.582850575E-1,8.650890589E-1,-4.583181441E-1
1.060530212E1,6.089867949E-1,1.220001698E0,-7.026642561E-1
1.065730061E1,7.849160433E-1,1.190069318E0,-6.574602127E-1
1.070730774E1,6.095977426E-1,1.004977226E0,-8.175069094E-1
1.075930157E1,2.950021029E-1,9.726012945E-1,-9.073040485E-1
1.081129486E1,1.612226069E-1,6.237972379E-1,-7.655833960E-1
1.086328829E1,7.997753471E-2,6.677795649E-1,-7.448139787E-1
1.091528158E1,2.583501935E-1,3.858835623E-2,-5.719391108E-1
1.096727484E1,3.829666972E-1,-2.662333846E-1,-1.895374358E-1
1.101926816E1,5.173570514E-1,-1.414659977E0,3.403924406E-2
1.107126166E1,2.522415221E-1,-2.656225264E-1,-8.080342412E-2
1.112325577E1,-1.106124297E-1,-6.223678589E-1,-1.620484889E-1
1.117524923E1,-4.789641798E-1,5.263825879E-2,-1.425008029E-1
1.122724259E1,-5.754808784E-1,2.576018684E-2,-1.284509152E-1
1.127923585E1,-6.109110713E-1,4.997916222E-1,-2.643641457E-2
1.133122928E1,-2.847090065E-1,1.296072900E-1,4.259135947E-2
1.138322254E1,-9.656251967E-2,2.768258154E-1,1.427732557E-1
1.143521596E1,1.343445480E-1,3.635686636E-1,1.256690323E-1
1.148720942E1,5.332395434E-1,1.406028569E-1,7.069116086E-2
1.153920360E1,4.868137836E-1,4.796330631E-1,-1.779309958E-1
1.159119696E1,6.987839937E-1,5.071219802E-1,-2.487913668E-1
1.164319019E1,1.051864147E0,3.269167542E-1,-1.302835047E-1
1.169518398E1,1.230236769E0,2.927083075E-1,2.854145691E-2
1.174718014E1,1.117226720E0,6.180123612E-2,7.863240689E-2
1.179917433E1,8.056854010E-1,1.216660291E-1,-3.437766433E-2
1.185116769E1,4.086230397E-1,2.444499582E-1,-8.446861058E-2
1.190316098E1,4.841106944E-3,-1.159605458E-1,-5.514708161E-2
1.195515421E1,-2.492788434E-1,1.021183431E-1,-7.102958113E-2
1.200714770E1,-3.818365932E-1,1.143356487E-1,-3.254506737E-2
1.205914093E1,-3.085327744E-1,-6.586959958E-2,-8.080342412E-2
1.211113442E1,-2.450027764E-1,2.102414817E-1,-1.119575500E-1
1.216312867E1,-1.704772115E-1,-6.831305474E-2,-1.235639900E-1
1.221512190E1,-1.295492351E-1,7.157508284E-2,-1.082923561E-1
1.226711532E1,-8.923213929E-2,2.820364758E-2,-7.835996151E-2
1.231910885E1,-6.724099070E-2,5.813604221E-2,-5.270362273E-2
1.237110208E1,-1.226312015E-2,5.263825879E-2,-7.652736455E-2
1.242309527E1,-6.765332539E-3,1.192225739E-1,-1.116478443E-2
1.247508866E1,-1.222188622E-1,3.482970297E-1,-2.154949307E-2
1.252708235E1,-2.272876948E-1,8.684670925E-2,-3.071247041E-2
1.257907630E1,-1.686446220E-1,-2.332466692E-1,5.419779569E-2
1.263106918E1,-8.699179292E-1,-7.625430822E-2,7.860143185E-1
1.268306251E1,-8.894656301E-1,-2.344684154E-1,5.282292366E-1
1.273505584E1,-1.190622211E0,-2.344684154E-1,3.907845318E-1
1.278704907E1,-1.521100163E0,-6.920064688E-1,5.911483765E-1
1.283904239E1,-2.035448790E0,-8.770986199E-1,7.463080883E-1
1.289103582E1,-2.547964811E0,-1.140381575E0,1.082894921E0
1.294303010E1,-2.611494541E0,-1.558824182E0,1.162307382E0
1.299502339E1,-2.532693148E0,-1.237509131E0,2.405117005E-1
1.304701685E1,-2.856451750E0,-5.362358689E-1,-8.547697067E-1
1.309901028E1,-2.390361547E0,2.026239969E-2,-1.227397442E0
1.315100340E1,-1.226663232E0,-1.367299706E-1,-1.189523816E0
1.320299673E1,-2.254550904E-1,-6.125940084E-1,-5.206264257E-1
1.325499032E1,2.204765379E-1,-1.475135684E0,-4.687028527E-1
1.330698391E1,2.693457603E-1,-2.784507275E-1,-2.017547488E-1
1.335897773E1,3.273779750E-1,-3.138808906E-1,-3.349233568E-1
1.341097146E1,2.326938510E-1,-4.510018229E-2,-2.158046365E-1
1.346296462E1,3.072193861E-1,1.949698627E-1,3.883410990E-1
1.351495778E1,2.131461501E-1,1.344942003E-1,-3.254506737E-2
1.356695277E1,1.520596296E-1,-3.340394199E-1,-1.583832949E-1
1.361894859E1,2.180330753E-1,-2.821159065E-1,-1.211205274E-1
1.367094185E1,2.131461501E-1,-1.709384173E-1,-5.666996818E-3
1.372293511E1,2.235308737E-1,-1.788796633E-1,2.793059126E-2
1.377492847E1,1.789377034E-1,-1.006889194E-1,-1.177564915E-2
1.382692183E1,7.692319900E-2,-1.923187077E-1,-1.272291839E-1
1.387891522E1,-3.181080893E-2,1.842980459E-2,-1.467768699E-1
1.393090881E1,-1.715004072E-2,-2.057577372E-1,-3.196517229E-1
1.398290276E1,-3.608686477E-2,-1.391734332E-1,-2.848324180E-1
1.403489612E1,-2.203696407E-2,-1.031323746E-1,-1.290617883E-1
1.408688961E1,1.838246286E-1,-1.233844042E0,-6.736438721E-2
1.413888281E1,2.424676865E-1,-4.934752882E-1,5.328577477E-3
1.419087610E1,2.522415221E-1,3.623469174E-1,-1.351704299E-1
1.424286956E1,3.261562288E-1,-1.012997851E-1,-2.823889554E-1
1.429486288E1,2.595719099E-1,2.108523548E-1,-4.070054591E-1
1.434685697E1,3.518125713E-1,1.442680508E-1,-3.691318035E-1
1.439885046E1,3.316540122E-1,-4.082412273E-2,-2.420718521E-1
1.445084388E1,3.224910200E-1,4.836220294E-2,-1.400573552E-1
1.450283721E1,2.107027024E-1,-1.037432477E-1,-1.443334073E-1
1.455483050E1,2.377793007E-2,1.076161265E-1,-1.437225491E-1
1.460682586E1,-3.791946173E-2,-1.275669932E-1,-1.119575500E-1
1.465882471E1,-1.008385792E-1,1.253312230E-1,-6.492093205E-2
1.471082064E1,-4.158465192E-2,-1.135170907E-1,8.382904343E-3
1.476281396E1,-3.730859235E-2,2.547307871E-3,5.603039265E-2
1.481480728E1,-1.093906909E-1,9.051190317E-2,6.580423564E-2
1.486680065E1,-1.759750098E-1,8.195979148E-2,5.419779569E-2
1.491879387E1,-2.016313523E-1,3.397449255E-1,1.082636416E-2
1.497078720E1,-1.472643465E-1,3.055364788E-1,-3.621025756E-2
1.502278066E1,5.650503444E-4,6.622818112E-1,-2.225241512E-1
1.507477474E1,1.538922340E-1,4.570310414E-1,-3.917338252E-1
1.512676833E1,1.465618461E-1,6.457883716E-1,-5.548348427E-1
1.517876156E1,1.917658746E-1,7.416942716E-1,-7.191575766E-1
1.523075485E1,3.597538173E-1,8.785280585E-1,-9.647253752E-1
1.528274824E1,7.531510592E-1,7.850656509E-1,-9.237974882E-1
1.533474160E1,9.577909112E-1,6.494536400E-1,-1.154093623E0
1.538673496E1,1.023153424E0,7.752918601E-1,-1.493123889E0
1.543872822E1,9.919993281E-1,1.104548216E0,-1.920118690E0
1.549072231E1,9.559583068E-1,1.191290975E0,-2.128423929E0
1.554271596E1,6.401410103E-1,9.750447869E-1,-2.202338457E0
1.559470919E1,2.443002760E-1,1.114322066E0,-2.198673248E0
1.564523589E1,-2.248442173E-1,8.962431550E-1,-2.127201796E0
1.569723051E1,-3.909995854E-1,9.726012945E-1,-2.048400402E0
1.574922647E1,-1.912466437E-1,5.694302320E-1,-1.751519918E0
1.580121989E1,3.481473625E-1,2.530020475E-1,-1.471743584E0
1.585321335E1,6.511365175E-1,4.881851673E-1,-1.219456315E0
1.590520658E1,1.122113705E0,6.823364645E-3,-9.103583694E-1
1.595719997E1,1.343857646E0,6.485556066E-2,-7.130489349E-1
1.600919343E1,1.456256986E0,5.385999009E-2,-5.774368644E-1
1.606118662E1,1.419605017E0,-7.991950214E-2,-4.320509434E-1
1.611318071E1,9.193063974E-1,4.775133356E-2,-3.227060437E-1
1.616517437E1,6.725168228E-1,-1.251235306E-1,-2.151937783E-1
1.621716766E1,6.499148011E-1,-5.783855319E-1,1.265896019E-2
1.626916099E1,5.723348856E-1,-1.473303080E0,5.453334451E-1
1.632115434E1,3.817449510E-1,-1.574706793E0,1.117714286E0
1.637314787E1,1.807702929E-1,-1.247893810E0,1.579528332E0
1.642514103E1,-2.737134397E-1,-3.157134652E-1,1.869078517E0
1.647713442E1,-5.211138725E-1,-2.607356310E-1,2.084713936E0
1.652912860E1,-2.773786187E-1,-8.343380690E-1,2.048672915E0
1.658112193E1,-4.463897645E-2,-4.806470871E-1,1.501948476E0
1.663311546E1,4.452749491E-1,9.906401485E-2,1.056627631E0
1.668510875E1,9.626777768E-1,-2.228619754E-1,8.642051220E-1
1.673710307E1,1.620579720E0,3.043147326E-1,3.425261974E-1
1.678910189E1,1.510013103E0,1.282920957E0,-1.241748556E-1
1.684109848E1,1.103176713E0,1.314685941E0,-5.114634037E-1
1.689309201E1,8.857088089E-1,1.039185643E0,-4.803093076E-1
1.694508540E1,6.865667105E-1,1.071561575E0,-5.255132914E-1
1.699707869E1,5.228548646E-1,-4.082412273E-2,-4.577072859E-1
1.704907199E1,3.463147879E-1,7.154270411E-1,-3.251495063E-1
1.710106548E1,5.112484097E-1,-1.386560321E0,-4.412139356E-1
1.715305880E1,8.930391669E-1,-1.533778787E0,-4.552638233E-1
1.720505220E1,1.130665779E0,-2.191069841E0,-7.759680748E-1
1.725704642E1,1.231458545E0,-3.010526896E-1,-1.028255343E0
1.730903971E1,1.346301198E0,-3.285416663E-1,-1.322692513E0
1.736103303E1,1.235123634E0,-1.385625601E-1,-1.436313391E0
1.741302643E1,7.287164330E-1,9.768773913E-1,-1.346516252E0
1.746501969E1,2.253634632E-1,8.266045451E-1,-1.014816403E0
1.751701311E1,-4.380362034E-1,-1.038977861E0,-5.804911852E-1
1.756900637E1,-1.083109856E0,-1.219183207E0,-1.247857213E-1
1.762100013E1,-1.456348538E0,-2.749400616E0,-5.560565591E-1
1.767299401E1,-2.464886904E0,-2.687703133E0,-1.099115849E0
1.772498744E1,-3.397678137E0,-7.237715125E-1,-2.898724794E0
1.777698083E1,1.349553913E-1,7.545223832E-1,-1.226786613E0
1.782897462E1,-1.435991526E-1,9.835968614E-1,-1.262216806E0
1.788097101E1,-2.936734632E-2,2.027565479E0,6.519337744E-2
1.793296481E1,1.166294515E-1,2.582231283E0,6.284111142E-1
1.798495820E1,1.575574130E-1,2.450284481E0,1.861446798E-1
1.803695143E1,-8.015010357E-1,2.681191444E0,6.058091521E-1
1.808894485E1,-2.917538404E0,2.828409910E0,2.348607779E0
1.814093808E1,-3.737319231E0,1.989081025E0,4.033373833E0
1.819293150E1,-2.987589240E-1,-4.218531609E0,2.556301832E0
1.824492503E1,2.809323549E0,1.418532968E0,-1.070706248E-1
1.829691915E1,2.814821243E0,1.577968717E0,-1.712424397E0
1.834891247E1,8.863196373E-1,7.728483677E-1,-1.483349919E0
1.840090577E1,-7.245320082E-1,1.400207043E0,-1.152261138E0
1.845289916E1,-8.729722500E-1,-1.239017919E-1,-7.490900159E-1
1.850489245E1,-5.760917068E-1,-1.827605009E0,-6.507407427E-1
1.855688598E1,-6.872692108E-1,-2.618064642E0,2.466203421E-1
1.860887917E1,-1.160078883E0,-4.136065006E0,9.821020961E-1
1.866087289E1,-1.175961375E0,-3.764047861E0,1.795774698E0
1.871286681E1,-1.514380693E0,-2.846528053E0,2.040120840E0
1.876486014E1,-9.804845452E-1,-2.834310770E0,1.082284093E0
1.881685340E1,3.786906302E-1,-2.338899136E0,-4.772549868E-1
1.886884725E1,1.147159100E0,-5.887702703E-1,-1.838262677E0
1.892084571E1,1.471528530E0,1.433193684E0,-2.205392838E0
1.897284327E1,1.668227196E0,1.125317574E0,-2.589627028E0
1.902483790E1,1.621801376E0,1.892564297E0,-2.438132286E0
1.907683112E1,1.554606199E0,1.475343347E0,-2.379489183E0
1.912882448E1,1.469695926E0,9.982576370E-1,-1.799167395E0
1.918081791E1,1.348133802E0,6.476210356E-1,-1.340407610E0
1.923281124E1,8.649393916E-1,1.494891167E0,-8.468284011E-1
1.928480449E1,6.376975179E-1,-1.407940507E0,-6.275278330E-1
1.933679865E1,5.094158053E-1,-1.205744147E0,-3.984533250E-1
1.938879220E1,5.503437519E-1,-2.823315382E0,-7.509226203E-1
1.944078553E1,-2.309528738E-1,-2.641277552E0,-1.180360794E0
1.949277885E1,-1.699472904E0,-2.303468943E0,-2.698971987E0
1.954477218E1,-2.779895067E-1,-5.924354196E-1,-5.160758972E0
1.959676544E1,1.007881880E0,1.413645983E0,-2.518155813E0
1.964875883E1,7.146664858E-1,-7.915775180E-1,-1.187080264E0
1.970075236E1,1.551139504E-1,1.485441029E-1,-2.399295382E-2
1.975274644E1,-3.433520794E-1,-1.176422596E0,1.281124949E-1
1.980473987E1,-1.040349364E0,3.049255908E-1,7.481406927E-1
1.985673319E1,-1.473452806E0,1.180906415E0,7.902904153E-1
1.990872652E1,-2.045222759E0,1.886455655E0,1.928943276E0
1.996072041E1,-3.384239197E0,1.155860782E0,4.302765846E0
2.001271866E1,-1.766668081E0,-2.606458187E0,5.711421013E0
2.006471608E1,9.724516869E-1,-1.955275774E0,1.919169426E0
2.011670998E1,2.214340925E0,2.963735163E-1,-1.577423215E0
2.016870334E1,1.716485500E0,3.492316604E-2,-2.221885920E0
2.022069657E1,2.681240141E-1,4.103181884E-2,-2.060006857E0
2.027268996E1,-4.465883076E-1,7.343639135E-1,-1.375226974E0
2.032468329E1,-1.103879213E0,5.541586280E-1,-6.507407427E-1
2.037667658E1,-1.039738417E0,-2.411879301E-1,3.892616555E-2
2.042867010E1,-6.732193232E-1,-1.322419405E0,5.312835574E-1
2.048066419E1,-1.607033759E-1,-1.517896295E0,1.076786280E0
2.053265755E1,-1.014494449E-1,-1.850817919E0,1.038301706E0
2.058465087E1,2.174222171E-1,-7.207171917E-1,1.223393917E0
2.063664423E1,2.736218274E-1,-1.332193255E0,7.218735218E-1
2.068863766E1,4.684878290E-1,-1.160540104E0,-1.144010052E-1
2.074063088E1,4.862029254E-1,3.641795218E-1,-1.047803044E0
2.079262424E1,3.047759533E-1,1.234662533E0,-1.013594627E0
2.084461843E1,2.339155674E-1,4.930721223E-1,-1.063685536E0
2.089661219E1,3.896862268E-1,1.422198176E0,-1.003209949E0
2.094860531E1,6.719059348E-1,1.017805338E0,-8.474393487E-1
2.100059864E1,9.015913010E-1,5.401086807E-1,-9.885491729E-1
2.105259236E1,9.651212692E-1,5.297240019E-1,-1.049024820E0
2.110458838E1,1.320644855E0,-1.520016044E-1,-4.289966226E-1
2.115658267E1,1.285825610E0,-3.593720123E-2,4.622557759E-1
2.120857597E1,1.046977162E0,1.495501995E0,1.621067166E0
2.126056963E1,7.317707539E-1,-1.063412547E0,9.191829562E-1
2.131256302E1,-6.493955851E-1,-1.126331687E0,-9.066932201E-1
2.136455601E1,1.302318811E0,-2.382270575E0,-7.275574207E0
2.141654927E1,-3.018132448E-1,2.293292046E0,1.586557478E-1
2.146854296E1,-2.039113998E0,-1.055758446E-1,-1.962268472E0
2.152053705E1,-2.153345585E0,-1.446712166E-1,-8.449958563E-1
2.157253041E1,-2.423959255E0,-1.635182381E0,5.847385526E-2
2.162452363E1,-2.370813608E0,-6.376394629E-1,7.096561790E-1
2.167651679E1,-1.993910074E0,-1.424433947E0,7.970099449E-1
2.172851038E1,-1.182070017E0,-6.009875536E-1,5.722115636E-1
2.178050364E1,-7.459123135E-1,8.828041553E-1,1.139094472E0
2.183249690E1,-1.302410483E0,2.824133873E0,2.534921646E0
2.188449089E1,-1.291414976E0,-1.801948667E0,5.934386730E0
2.193648461E1,-4.209319651E-1,-2.911890984E0,5.471350670E0
2.198847807E1,3.267670870E-1,2.551687956E0,2.206276178E0
2.204047146E1,2.036578894E0,-2.151974440E0,-2.137586594E0
2.209246476E1,1.655399084E0,-1.333415031E0,-2.380711079E0
2.214446234E1,6.865667105E-1,-7.091107368E-1,-2.091771841E0
2.219646036E1,-2.694373727E-1,4.429811537E-1,-1.147984982E0
2.224845486E1,-5.504354239E-1,2.746553898E0,5.654920340E-1
2.230044808E1,-1.299967051E0,-4.659863412E-1,1.303417206E0
2.235244134E1,-1.356777430E0,-3.599114180E0,1.371834159E0
2.240443470E1,-4.899597466E-1,-1.629073739E0,1.417038202E0
2.245642786E1,-9.656251967E-2,-1.143435955E0,9.155178070E-1
2.250842129E1,3.878535926E-1,-1.880139351E0,3.187024593E-1
2.256041478E1,8.411155939E-1,-8.874833584E-1,-7.747463584E-1
2.261240896E1,7.885812521E-1,4.469700903E-2,-1.041083574E0
2.266440232E1,6.199824214E-1,-5.032491088E-1,-1.289705634E0
2.271639575E1,5.943260789E-1,3.599034846E-1,-1.331244588E0
2.276838908E1,7.238295078E-1,1.174797773E0,-1.088731050E0
2.282038250E1,7.189425826E-1,8.418761492E-1,-1.149206758E0
2.287237566E1,4.953659177E-1,1.146697879E0,-1.196854234E0
2.292434119E1,2.846173942E-1,1.535208225E0,-7.551986575E-1
2.297633472E1,4.703204334E-1,1.260929704E0,-6.818948388E-1
2.302832874E1,5.222439766E-1,2.573068380E0,-1.788430288E-2
2.308032200E1,2.913369238E-1,1.542538524E0,6.998823881E-1
2.313231549E1,4.684878290E-1,1.062398553E0,1.709642529E0
2.318430885E1,9.797820449E-1,5.813604221E-2,2.395033360E0
2.323630460E1,1.697548747E0,-1.472081423E0,2.363268375E0
2.328829946E1,5.271309018E-1,-5.803727150E0,4.616449177E-1
2.334029309E1,1.240010619E0,3.171429038E-1,-1.763126373E0
2.339228628E1,-2.741609097E0,3.220298588E-1,1.114659905E0
2.344427944E1,-4.219292164E0,9.133474231E-1,1.035247445E0
2.349627280E1,-3.818564415E0,-8.276185393E-1,6.754477620E-1
2.354826609E1,-2.918760061E0,-1.035312772E0,2.545616031E-1
2.360025942E1,-1.678092599E0,-1.807122678E-1,-1.828179210E-1
2.365225367E1,-5.834221244E-1,1.246879816E0,-8.193394542E-1
2.370424709E1,-7.697360516E-1,1.326292276E0,-1.226786613E0
2.375624045E1,-6.054132581E-1,1.974420309E0,1.684295982E-1
2.380823384E1,7.386887819E-2,4.347631931E0,1.633284450E0
2.386022714E1,-6.726084352E-1,4.438651085E0,3.336376667E0
2.391222060E1,-1.045847178E0,2.572781146E-1,5.575808525E0
2.396421386E1,-3.427412212E-1,-6.525158882E0,2.541030169E0
2.401620728E1,2.346287489E0,-5.753312111E-1,-9.158561826E-1
2.406820160E1,2.286422968E0,3.098125160E-1,-1.751519918E0
2.412019479E1,1.219241261E0,-1.289432764E0,-1.489458561E0
2.417218812E1,5.676465109E-2,-2.906680107E-1,-4.705354571E-1
2.422418158E1,-6.781062484E-1,1.216660291E-1,1.349232197E0
2.427617816E1,-6.781062484E-1,-7.072781324E-1,2.010188341E0
2.432817658E1,-3.464064002E-1,-1.901519656E0,2.461617708E0
2.438017151E1,2.045940459E-1,-7.402648330E-1,2.676031590E0
2.443216481E1,2.644588351E-1,1.045618057E-1,2.454898119E0
2.448415810E1,3.267670870E-1,2.707171738E-1,1.758511782E0
2.453615149E1,9.097310901E-2,-1.214583367E-1,8.110598326E-1
2.458814485E1,-1.142776161E-1,-1.568885148E-1,-2.457370460E-1
2.464013821E1,-4.097378626E-2,8.876910210E-1,-1.201130271E0
2.469213147E1,1.758833826E-1,4.209899902E-1,-1.925616503E0
2.474412516E1,4.868137836E-1,4.203791618E-1,-2.315959454E0
2.479611918E1,6.780145764E-1,5.584346652E-1,-2.164464951E0
2.484811247E1,5.295743346E-1,4.301529825E-1,-2.066115379E0
2.490010590E1,1.997071207E-1,-1.428386271E-1,-1.842538834E0
2.495209912E1,-3.757279217E-1,-2.049959898E0,-1.359955192E0
2.500409248E1,-7.190341949E-1,-6.303091049E-1,-6.281386614E-1
2.505608591E1,-2.194884539E0,-3.666920185E0,-1.007485986E0
2.510807920E1,1.563356966E-1,-1.369916058E1,-7.364760876E0
2.516007325E1,-3.757279217E-1,6.333554745E0,-1.498311907E-1
2.521206691E1,-1.405646682E0,-1.596086979E0,-1.521834612E0
2.526406024E1,-1.581575871E0,1.967090011E0,8.764224052E-1
2.531605353E1,-1.364107966E0,2.249309540E0,1.069455862E0
2.536804888E1,-1.098381519E0,4.136272430E0,1.332738757E0
2.542004431E1,-1.168630958E0,4.812500477E0,2.408472300E0
2.547203750E1,-2.227871418E0,4.676277161E0,3.754819393E0
2.552403090E1,-3.558336020E0,-4.937623441E-2,6.219660759E0
2.557602425E1,-2.041557550E0,-3.758550167E0,6.148800373E0
2.562801748E1,-2.388941199E-1,5.847018957E-1,3.650972366E0
2.568001094E1,2.541153669E0,-1.918623924E0,-1.793669581E0
2.573200427E1,2.293142319E0,-2.111046314E0,-1.452195883E0
2.578399825E1,1.099511623E0,-3.920716643E-1,-1.242669106E0
2.583599208E1,-1.228297278E-1,4.307638407E-1,-4.613724649E-1
2.588798537E1,-7.990575433E-1,4.863525629E-1,-1.238651481E-2
2.593997849E1,-1.268202066E0,-5.655573606E-1,3.510783017E-1
2.599197202E1,-1.354944944E0,-1.032258391E0,4.585905671E-1
2.604396525E1,-1.430081248E0,-1.166037917E0,7.389777303E-1
2.609595857E1,-9.413891435E-1,-2.500778675E0,1.040745139E0
2.614795203E1,-1.735315472E-1,-2.138535500E0,9.882107377E-1
2.619994612E1,4.800942540E-1,-2.394487858E0,-2.078633904E-1
2.625193964E1,6.963405609E-1,-8.007404804E-1,-9.262409210E-1
2.630393300E1,7.128339410E-1,-3.706913590E-1,-1.657446623E0
2.635592623E1,6.627429724E-1,-2.979983687E-1,-1.874914646E0
2.640792198E1,6.028781533E-1,1.146087050E0,-1.753963351E0
2.645992050E1,7.305490375E-1,1.036131382E0,-1.931114316E0
2.651191700E1,8.686045408E-1,1.684259295E0,-1.484571815E0
2.656391059E1,9.107542634E-1,1.190680146E0,-1.570092916E0
2.661590392E1,1.487411022E0,1.533375621E0,-1.175474048E0
2.666789738E1,1.964496851E0,-5.698334575E-1,-8.132308125E-1
2.671989057E1,1.962053299E0,-7.048346400E-1,-1.575590730E0
2.677188396E1,2.028637648E0,1.222768947E-1,-4.401453018E0
2.682387775E1,2.156308651E0,9.938270569E0,-1.645840168E0
2.687587170E1,-5.785351992E-1,-2.949153662E0,-2.300076962E0
2.692786500E1,-1.621282220E0,3.241965771E0,-9.622820020E-1
2.697985836E1,-1.875402093E0,-1.062190771E0,-4.332726598E-1
2.703185155E1,-2.624933720E0,-2.363944530E0,-4.809201658E-1
2.708384501E1,-3.067200184E0,-6.620740891E-1,-5.450610518E-1
2.713583840E1,-2.831406355E0,-7.555364370E-1,5.123467445E-1
2.718783166E1,-2.535747528E0,6.946576834E-1,1.971092939E0
2.723982528E1,-3.542453289E0,1.214503884E0,4.808561802E0
2.729181930E1,-4.440425396E0,-2.408537865E0,7.999111176E0
2.734381270E1,-2.573621035E0,-7.730395794E0,4.627135277E0
2.739580596E1,-3.793931305E-1,6.850957394E0,9.234590530E-1
2.744779958E1,1.704268217E0,3.263058662E-1,-1.418598294E0
2.749979487E1,7.421554327E-1,-1.778735757E0,-2.347113609E0
2.755179382E1,-1.258840561E-1,7.258117795E-1,-1.520612836E0
2.760378945E1,-5.406615734E-1,-1.027982354E0,-1.272601604E0
2.765578271E1,-9.595166147E-2,-1.852650404E0,-2.200807035E-1
2.770777593E1,-3.628997803E-1,-3.281464338E0,1.455522656E0
2.775976929E1,-1.771967262E-1,-5.299152374E0,2.911214590E0
2.781176262E1,4.037361145E-1,-3.488547564E0,3.559342623E0
2.786375598E1,3.878535926E-1,-2.406094313E0,3.980228662E0
2.791574931E1,2.027614415E-1,-1.973601818E0,2.266751766E0
2.796774336E1,8.242098987E-2,-2.876136899E-1,-6.733427048E-1
2.801973692E1,2.516306639E-1,9.695469737E-1,-2.381321907E0
2.807173051E1,5.167461634E-1,2.126849592E-1,-2.913385391E0
2.812372367E1,3.915188015E-1,9.499993324E-1,-3.138184071E0
2.817571696E1,3.970166147E-1,1.245047212E0,-2.936598301E0
2.822771039E1,7.213860750E-1,2.115530252E0,-2.832751513E0
2.827970381E1,1.147770047E0,1.599959970E0,-2.705080509E0
2.833169704E1,1.040868521E0,6.744990945E-1,-2.281750917E0
2.838369096E1,5.912717581E-1,-1.226800680E-1,-1.769235015E0
2.843568478E1,7.264714688E-2,-3.761891425E-1,-1.025201082E0
2.848767801E1,-3.665649593E-1,-1.712151527E0,-7.130489349E-1
2.853967143E1,-9.835388660E-1,-1.343799710E0,-4.070054591E-1
2.859166602E1,-2.251084328E0,-4.685232639E0,-1.998309493E0
2.864366191E1,-6.188523173E-1,-7.722454548E0,-9.884579659E0
2.869565537E1,-2.908176482E-1,6.172896862E0,-2.706912994E0
2.874764876E1,-1.042181849E0,-1.337691069E0,-1.942109823E0
2.879964206E1,-1.288360596E0,1.646385789E0,6.607869864E-1
2.885163538E1,-1.062951326E0,3.111851215E0,2.162293673E0
2.890362874E1,-1.447185516E0,5.013474941E0,2.916712284E0
2.895562207E1,-3.153943062E0,5.390378952E0,4.573379040E0
2.900761599E1,-5.588241100E0,3.415775001E-1,7.438336849E0
2.905960974E1,-3.412950039E0,-6.566697598E0,5.233724117E0
2.911160303E1,-1.855854392E0,1.755730629E0,5.008925915E0
2.916359643E1,2.061013460E0,-8.856507540E-1,-2.443630219E0
2.921558982E1,1.957166433E0,-2.190459013E0,-3.357484579E0
2.926758321E1,1.421437621E0,-7.873014808E-1,-2.746619463E0
2.931957664E1,1.990962476E-1,-4.806470871E-1,-2.169962645E0
2.937156973E1,-2.786003649E-1,-9.858326316E-1,-6.531841159E-1
2.942356382E1,-9.890366197E-1,-2.979696751E0,6.161938310E-1
2.947555741E1,-9.566607475E-1,-4.095747471E0,2.074939966E0
2.952755080E1,-5.858656168E-1,-3.574068546E0,2.431685209E0
2.957954402E1,-2.211790383E-1,-2.707861900E0,2.900829792E0
2.963153884E1,2.058157623E-1,-2.133037567E0,2.844019175E0
2.968353764E1,1.209055036E-1,-1.060969114E0,1.629008412E0
2.973553443E1,-6.113233790E-2,1.363268048E-1,-7.102958113E-2
2.978752865E1,2.846173942E-1,2.713280022E-1,-1.156537056E0
2.983952185E1,6.871775985E-1,4.625288248E-1,-1.671496511E0
2.989151511E1,7.433772087E-1,5.651541948E-1,-2.145527840E0
2.994350870E1,7.067252994E-1,1.092941761E0,-2.296411514E0
2.999550182E1,5.240765214E-1,7.942286134E-1,-2.411865234E0
3.004749525E1,3.518125713E-1,1.212060571E0,-2.146749735E0
3.009948964E1,2.418568283E-1,1.094163418E0,-1.976318240E0
3.015142226E1,4.471075535E-1,1.613398910E0,-1.918286085E0
3.020341562E1,7.189425826E-1,5.254479647E-1,-1.771678448E0
3.025540898E1,7.867485881E-1,5.541586280E-1,-1.772289276E0
3.030740227E1,9.437409639E-1,2.062385082E0,-8.071221709E-1
3.035939563E1,9.400758147E-1,1.582855701E0,2.527289987E-1
3.041138895E1,1.409220338E0,-9.345199466E-1,6.992715001E-1
3.046338258E1,-7.367493510E-1,-5.496748686E-1,-3.661695480E0
3.051537656E1,2.360948324E0,-2.980918407E0,-8.347642899E0
3.056736992E1,1.094624758E0,3.681177616E0,-2.730736732E0
3.061936331E1,-4.526969492E-1,-1.754301190E0,-2.379489183E0
3.067135664E1,-1.365940571E0,-9.027550220E-1,-1.191356421E0
3.072335106E1,-1.774609327E0,-6.070961952E-1,1.388938308E0
3.077534998E1,-2.222984314E0,1.293916345E0,2.096931219E0
3.082734654E1,-2.970072746E0,3.128344774E0,3.292394638E0
3.087933993E1,-4.579702854E0,-4.604885578E-1,7.946576595E0
3.093133336E1,-4.835044384E0,-4.930800438E0,7.718724251E0
3.098332658E1,-1.529652357E0,-6.814098358E0,5.996695042E0
3.103531994E1,7.653683424E-1,1.815595388E0,-1.225564957E0
3.108731340E1,1.043922901E0,1.027292088E-1,-4.650075912E0
3.113930663E1,1.734399050E-1,3.592602253E0,-3.143070698E0
3.119130068E1,-8.515920043E-1,2.681802273E0,-2.372769833E0
3.124329434E1,-8.296008110E-1,1.784764975E-1,-2.312294245E0
3.129528760E1,-6.548933983E-1,-2.469624281E0,-1.468689203E0
3.134728096E1,-6.127436757E-1,-2.690146685E0,2.606702447E-1
3.139927435E1,-1.906357706E-1,-4.290613651E0,1.586858630E0
3.145126781E1,3.108845949E-1,-5.096344948E0,2.530034781E0
3.150326100E1,1.250395417E0,-5.738975048E0,2.727344036E0
3.155525443E1,1.717707276E0,-3.476941109E0,2.795150042E0
3.160724864E1,1.274829984E0,-1.501402974E0,2.330281734E0
3.165924194E1,5.187772959E-2,-3.939042389E-1,1.032804012E0
3.171123530E1,-6.768845320E-1,3.061473370E-1,-8.028461337E-1
3.176322872E1,-2.034639418E-1,1.096606970E0,-1.491902113E0
3.181522265E1,3.334866166E-1,5.969191790E-1,-1.646450996E0
3.186721900E1,5.863848329E-1,2.890431285E-1,-1.989757299E0
3.191921270E1,5.210222006E-1,5.449956656E-1,-2.372769833E0
3.197120599E1,3.988491893E-1,1.383102775E0,-2.501662254E0
3.202319942E1,2.882826030E-1,9.689360857E-1,-2.948815584E0
3.207519264E1,3.866319060E-1,1.772834897E0,-2.967752695E0
3.212718597E1,3.646407425E-1,2.470442772E0,-2.800375462E0
3.217917943E1,2.369698882E-1,1.976863742E0,-2.456458330E0
3.223117328E1,8.258439898E-1,3.624367476E0,-9.079149961E-1
3.228316707E1,1.376844525E0,2.292681217E0,7.389777303E-1
3.233516043E1,9.327453971E-1,-1.041421413E0,1.195904851E0
3.238715369E1,-7.972249985E-1,-1.142825127E0,-3.813190222E0
3.243914711E1,-9.743758440E-1,1.448494053E1,-3.734388351E0
3.249114044E1,-1.952371120E0,-6.068231583E0,-3.460720778E0
3.254313373E1,-1.566915154E0,-3.866062164E0,-4.173901677E-1
3.259512742E1,-6.891018152E-1,1.356835604E0,8.413019776E-2
3.264712141E1,-1.276143312E0,-1.873419762E0,-1.706006229E-1
3.269911480E1,-1.642662525E0,3.574600220E-1,-3.074344099E-1
3.275110803E1,-1.397705436E0,1.906003475E0,-3.563036621E-1
3.280310149E1,-1.193676472E0,3.530905008E0,1.111605644E0
3.285509538E1,-2.668915987E0,3.755092621E0,2.875784397E0
3.290709390E1,-5.609621525E0,6.115799546E-1,6.900775433E0
3.295909105E1,-4.241283417E0,-3.328500986E0,7.486595154E0
3.301108475E1,-1.507661223E0,-7.032787800E0,5.567867756E0
3.306307804E1,-5.339420438E-1,1.909668565E0,2.294240713E0
3.311507143E1,1.676779270E0,-3.041070700E-1,-6.062396049E0
3.316706479E1,8.814327121E-1,1.293201745E-2,-4.017829895E0
3.321905808E1,-2.999806404E-1,2.509538412E0,-2.714243412E0
3.327105151E1,-8.900764585E-1,-3.755782843E-1,-2.336117983E0
3.332304477E1,-3.512933254E-1,-2.369442463E0,-7.283205390E-1
3.337503899E1,-1.716989428E-1,-3.343161583E0,6.106960177E-1
3.342703244E1,3.402061164E-1,-5.280215263E0,1.459798694E0
3.347902580E1,8.569980860E-1,-6.270427704E0,1.891680479E0
3.353101910E1,1.758024454E0,-4.606431007E0,2.001025438E0
3.358301242E1,1.412274599E0,-1.778735757E0,1.818376541E0
3.363500582E1,6.596886516E-1,4.997916222E-1,6.534566283E-1
3.368699914E1,3.328757286E-1,6.971010566E-1,-1.209071517E0
3.373899286E1,6.028781533E-1,1.984805107E0,-1.929892540E0
3.379098685E1,8.105723858E-1,1.138145804E0,-2.301298618E0
3.384298021E1,7.360467911E-1,2.165621042E0,-2.440575838E0
3.389497357E1,7.525401711E-1,1.519325733E0,-2.153469324E0
3.394696726E1,1.049420595E0,1.742902398E0,-1.810163021E0
3.399896338E1,8.606633544E-1,3.220298588E-1,-4.632050693E-1
3.405095741E1,5.432119220E-2,-5.496748686E-1,1.079229712E0
3.410295087E1,-7.098712325E-1,-2.963814259E0,1.318078041E0
3.415494423E1,-1.332342863E0,-4.049932480E0,7.896795869E-1
3.420693746E1,6.572451591E-1,-4.156834126E0,-4.805235386E0
3.425893105E1,-2.256582022E0,4.765787423E-1,9.766042829E-1
3.431092411E1,-2.780093431E0,-3.621105194E0,6.504023075E-1
3.436291776E1,-2.513756275E0,2.752051830E0,-1.314140439E0
3.441491182E1,-1.341505885E0,3.350699663E0,-1.516947627E0
3.446690514E1,-1.249265313E0,4.312812328E0,-1.160202265E0
3.451889847E1,-5.479919314E-1,6.934035301E0,-1.040163040E-1
3.457089199E1,-1.194287300E0,8.448369980E0,3.065763474E0
3.462288529E1,-3.577272654E0,-6.828435063E-1,6.968581676E0
3.467487861E1,-1.758116007E0,-4.117127895E0,6.690637589E0
3.472687181E1,-1.378157854E0,4.770350456E0,3.991224289E0
3.477886586E1,2.344455004E0,-1.075629830E0,-4.588988781E0
3.483085942E1,2.605905294E0,-8.838181496E-1,-3.895657063E0
3.488285287E1,1.331640363E0,1.265529543E-1,-3.512033463E0
3.493484640E1,9.370214939E-1,-2.268038750E0,-2.160188675E0
3.498683962E1,6.945080161E-1,-3.013905287E0,-6.452429295E-1
3.503883781E1,4.581031203E-1,-4.131177902E0,1.330906153E0
3.509083530E1,9.590126276E-1,-5.074353695E0,2.803702116E0
3.514282949E1,1.403722525E0,-5.806170464E0,3.179995298E0
3.519482292E1,1.844156384E0,-4.386519432E0,2.522093534E0
3.524681624E1,1.524673820E0,-1.243006945E0,1.674823284E0
3.529880974E1,4.257272780E-1,-3.043941408E-2,-1.504420638E-1
3.535080300E1,-3.604562879E-1,1.459460974E0,-1.667220473E0
3.540279619E1,-3.347999454E-1,1.777110815E0,-2.188288689E0
3.545478958E1,-6.848257184E-1,9.041844010E-1,-3.098477840E0
3.550678357E1,-3.121979535E-1,2.280463934E0,-3.657419443E0
3.555877722E1,1.828014106E-2,2.587118149E0,-3.116192818E0
3.561077068E1,-2.914285362E-1,1.979307294E0,-1.515115023E0
3.566276384E1,-1.716989428E-1,8.626455665E-1,-6.186660007E-2
3.571475730E1,2.846173942E-1,-2.423198462E0,-1.464413166E0
3.576675056E1,-4.454474926E0,3.702558041E0,-2.545033932E0
3.581874412E1,-1.158246279E0,1.523569393E1,-1.071626782E0
3.587073758E1,-8.803026080E-1,-6.469569683E0,-2.888950825E0
3.592273153E1,-2.155789375E0,4.814656675E-1,-8.730956316E-1
3.597472496E1,-1.562028170E0,-1.383505940E0,1.494927853E-1
3.602671855E1,-1.649992824E0,4.405376911E-1,1.108551264E0
3.607871174E1,-1.819813371E0,2.294513702E0,2.355937958E0
3.613070769E1,-2.500317335E0,6.042782784E0,3.368141890E0
3.618270222E1,-4.361623764E0,1.809486747E0,6.186673641E0
3.623469561E1,-5.321292877E0,-1.539887428E0,8.493300438E0
3.628668920E1,-1.678092599E0,-6.641222954E0,4.052310944E0
3.633868160E1,1.392116070E0,1.533375621E0,-1.424706936E0
3.639067536E1,2.474569321E0,-3.822977841E-1,-3.471716404E0
3.644266891E1,1.343246818E0,-9.345199466E-1,-3.361760855E0
3.649466230E1,3.518125713E-1,8.626455665E-1,-2.391095638E0
3.654665629E1,1.278235577E-2,7.520789504E-1,-1.196243405E0
3.659864928E1,-4.612490833E-1,-1.636404157E0,-3.254506737E-2
3.665064231E1,-1.011027813E0,-3.012072802E0,7.878469825E-1
3.670263577E1,-1.000032187E0,-2.077448845E0,1.154976964E0
3.675462890E1,-7.110929489E-1,-8.288402557E-1,1.195294023E0
3.680662232E1,4.699081182E-2,-1.319365144E0,4.506493509E-1
3.685861561E1,8.160701394E-1,-7.213280201E-1,-1.788430288E-2
3.691060894E1,1.065303206E0,-9.027550220E-1,-8.407197595E-1
3.696260400E1,1.290712357E0,-5.020273924E-1,-1.331244588E0
3.701459763E1,1.411052823E0,4.191574156E-1,-1.546880007E0
3.706659096E1,1.324920893E0,1.570027590E0,-1.371561646E0
3.711858425E1,8.594415784E-1,7.966721058E-1,-1.173030496E0
3.717058124E1,2.045940459E-1,4.469700903E-2,-3.642449081E-1
3.722257987E1,-2.877633274E-1,-6.187026501E-1,2.148553580E-1
3.727457550E1,-1.893117189E0,-3.921651125E0,-7.851310372E-1
3.732656872E1,-7.153690457E-1,3.957899570E0,-1.023368478E0
3.737856205E1,-7.074277997E-1,2.783816576E0,-2.467453957E0
3.743054237E1,-1.312795162E0,-2.546269596E-1,-1.680659533E0
3.748253573E1,-1.059896946E0,2.027565479E0,-3.306473196E-1
3.753452902E1,-1.485670090E0,2.621326685E0,1.227669954E0
3.758652191E1,-2.741609097E0,5.234607697E0,3.369363546E0
3.763851567E1,-4.775179386E0,8.980757594E-1,7.229420662E0
3.769050893E1,-3.270007610E0,-4.466543198E0,6.328394413E0
3.774250232E1,-1.985357881E0,4.497904778E0,4.858041763E0
3.779449651E1,2.172801733E0,-3.811695337E0,-2.752117157E0
3.784649003E1,1.673725009E0,2.456716746E-1,-3.567622423E0
3.789848335E1,1.094624758E0,1.440524101E0,-2.961032867E0
3.795047668E1,1.722181886E-1,6.219646335E-1,-2.339172125E0
3.800247047E1,6.837109476E-2,-1.100064397E0,-1.834597588E0
3.805446442E1,-1.594816446E-1,-1.594865322E0,-1.039250970E0
3.810645778E1,-2.278985381E-1,-1.736586094E0,5.114347115E-2
3.815845094E1,-2.468353659E-1,-2.294917107E0,5.459443331E-1
3.821044453E1,9.728029370E-3,-1.761020660E0,9.142960906E-1
3.826244125E1,1.819920391E-1,-8.331163526E-1,7.921229601E-1
3.831443961E1,7.745313048E-1,-1.321808577E0,2.793059126E-2
3.836643437E1,8.631067276E-1,-7.824145555E-1,-7.533660531E-1
3.841842766E1,1.020099163E0,-3.059396446E-1,-1.029477119E0
3.847042092E1,1.027429581E0,3.531839550E-1,-1.148595810E0
3.852241448E1,9.333562851E-1,1.095996141E0,-7.729137540E-1
3.857440754E1,4.752073288E-1,-1.728748670E-3,-3.727969825E-1
3.862640007E1,2.045940459E-1,-3.438133001E-1,2.753310204E-1
3.867839336E1,1.343445480E-1,-5.783855319E-1,9.680522084E-1
3.873038728E1,2.656805813E-1,-3.454949856E0,9.821020961E-1
3.878238100E1,-2.555906057E0,-3.149517298E0,-1.720365763E0
3.883437440E1,-1.210780740E0,8.552216530E0,2.482998133E0
3.888636779E1,-1.172296286E0,-1.051195145E0,-2.391706467E0
3.893836191E1,-1.326845050E0,8.333240151E-1,-2.068558931E0
3.899035540E1,-1.069670916E0,1.587742686E0,-7.136597633E-1
3.904234879E1,-1.542480588E0,2.870559454E0,8.764224052E-1
3.909434205E1,-2.485045671E0,5.361668110E0,1.814100623E0
3.914633620E1,-5.065340519E0,1.364165902E0,5.779838085E0
3.919832979E1,-4.500900745E0,-2.679761887E0,7.522025585E0
3.925032322E1,-4.930140674E-1,-4.966230392E0,3.230696917E0
3.930231644E1,1.334083915E0,1.701363564E0,-1.103391886E0
3.935431183E1,2.598574877E0,-2.231997728E0,-3.841900587E0
3.940630703E1,1.225349903E0,-2.301025629E0,-4.241406918E0
3.945830042E1,6.486930251E-1,-1.110736281E-1,-3.204157352E0
3.951029378E1,8.484460115E-1,9.945924878E-1,-1.761904597E0
3.956228707E1,5.668371320E-1,-1.843487382E0,9.604634717E-3
3.961428040E1,5.717240572E-1,-5.066412449E0,2.129307032E0
3.966627382E1,1.021320820E0,-7.203830242E0,3.448775768E0
3.971826712E1,1.911351562E0,-6.585634232E0,2.883725643E0
3.977026113E1,2.005424738E0,-1.406718850E0,1.887404442E0
3.982225476E1,6.267018914E-1,-4.143498838E-2,-3.685209751E-1
3.987424818E1,-2.346180677E-1,8.137763739E-1,-2.078943491E0
3.992624148E1,-2.895959616E-1,1.408759117E0,-2.476006031E0
3.997823493E1,-2.596635520E-1,6.848837733E-1,-2.365439415E0
4.003022806E1,-5.571548939E-1,2.127747536E0,-2.730736732E0
4.008222135E1,-3.671758473E-1,2.126525879E0,-2.554807663E0
4.013421488E1,-3.030349612E-1,3.701947212E0,-1.665998816E0
4.018620900E1,-6.145762205E-1,2.130801678E0,-1.013594627E0
4.023820242E1,-3.683975637E-1,2.112475872E0,-1.260074526E-1
4.029019585E1,-1.503186673E-1,4.747461677E-1,1.052520820E-3
4.034218907E1,4.043469727E-1,-3.230438530E-1,-5.023004413E-1
4.039418506E1,1.093402982E0,-1.903352261E0,-1.752741575E0
4.044618382E1,9.370214939E-1,1.479619503E0,-3.939028263E0
4.049817914E1,2.127597809E0,6.320115566E0,-2.769221544E0
4.055017243E1,-5.991061032E-2,-2.759785414E0,-1.304977417E0
4.060216579E1,-1.047068834E0,-1.265608907E0,-7.286217809E-2
4.065415915E1,-1.644495010E0,-2.363944530E0,8.061729074E-1
4.070615241E1,-2.007349014E0,-8.477771282E-1,1.197737575E0
4.075814580E1,-1.762392044E0,1.557199359E0,1.369390607E0
4.081013913E1,-1.251097798E0,2.862618446E0,1.793331146E0
4.086213259E1,-2.475882530E0,2.653702497E0,3.879436016E0
4.091412687E1,-2.715341806E0,-8.276185393E-1,7.354037762E0
4.096612020E1,-1.952371120E0,-5.435375214E0,6.583736420E0
4.101811342E1,-9.656251967E-2,1.555977702E0,5.589859009E0
4.107010688E1,1.133109212E0,2.597215772E-1,-2.286026955E0
4.112210014E1,1.284603715E0,1.874238372E0,-3.678799868E0
4.117409347E1,1.990962476E-1,7.697940469E-1,-2.970196009E0
4.122608686E1,-9.615477324E-1,4.613071084E-1,-1.883466840E0
4.127808075E1,-1.046458006E0,-7.837400772E-3,-1.848647475E0
4.133007454E1,-4.288732409E-1,-4.165062606E-1,-1.523056269E0
4.138206790E1,-3.726736009E-1,-2.390822649E0,-4.222770929E-1
4.143406116E1,-3.519042134E-1,-4.482425213E0,7.744079232E-1
4.148605601E1,1.135751158E-1,-5.812889576E0,1.994916677E0
4.153805191E1,3.579212129E-1,-6.169024467E0,3.052324533E0
4.159004520E1,8.234004974E-1,-3.444565296E0,2.556912661E0
4.164203853E1,9.058673978E-1,-2.002923250E0,1.928943276E0
4.169403185E1,6.932862401E-1,-1.092123151E0,4.036127329E-1
4.174602518E1,3.023324907E-1,6.848837733E-1,-1.312307715E0
4.179801854E1,2.497980595E-1,1.411813498E0,-2.611618280E0
4.185001190E1,2.833956480E-1,1.811319351E0,-3.110695124E0
4.190200562E1,-8.923213929E-2,1.667155147E0,-3.458277225E0
4.195399961E1,-2.248442173E-1,2.803975344E0,-3.204768419E0
4.200599303E1,-2.633287311E-1,9.273972511E-1,-2.918883324E0
4.205798642E1,-4.728555381E-1,9.188451767E-1,-2.366050243E0
4.210997965E1,-4.655251503E-1,5.141652748E-2,-1.486404300E0
4.216197311E1,-1.881923079E-1,-1.530113697E0,-1.337964058E0
4.221396637E1,2.302503884E-1,-6.345851421E-1,-9.665580392E-1
4.226595959E1,1.461495087E-2,-7.567581534E-1,-8.492718935E-1
4.231795368E1,-8.570897579E-1,-1.887469769E0,-1.053300858E0
4.236994724E1,-1.485059261E0,-3.921651125E0,-8.285024762E-1
4.242194053E1,-3.767251730E0,-4.540457726E0,-1.289094806E0
4.247393402E1,-6.126413345E0,-7.653102875E-1,-2.221885920E0
4.252592898E1,-1.400148869E0,-2.326071024E0,-3.286013365E0
4.257792767E1,-7.917271852E-1,-3.733504534E0,-1.833986640E0
4.262992456E1,3.866319060E-1,-2.714581251E0,7.750188112E-1
4.268191822E1,1.277273417E0,-1.523393989E0,1.952156186E0
4.273391158E1,1.504515290E0,8.562498540E-2,4.616449177E-1
4.278590487E1,1.445261359E0,2.210825205E0,5.251749158E-1
4.283789840E1,1.591258168E0,5.422754288E0,1.601519465E0
4.288989169E1,6.890102029E-1,6.635932922E0,2.424965858E0
4.294188512E1,-1.008385792E-1,6.979850292E0,3.053546190E0
4.299387933E1,-2.437810451E-1,1.037381744E1,4.842159748E0
4.304587266E1,-3.956009150E0,6.017126560E0,6.635660172E0
4.309786589E1,-4.708595276E0,-1.982764721E0,7.243470669E0
4.314985938E1,-1.541258812E0,1.485441029E-1,4.197085857E0
4.320185260E1,1.078131318E0,4.497293949E0,-6.153104901E-1
4.325384596E1,2.553981781E0,-1.104340553E0,-2.304352999E0
4.330583932E1,2.086669922E0,-2.574693203E0,-3.071599722E0
4.335783298E1,1.012768745E0,-2.998633623E0,-2.061228514E0
4.340982710E1,1.447292417E-1,-4.184323311E0,1.116191298E-1
4.346182059E1,-5.308877230E-1,-6.104883194E0,2.222158432E0
4.351381362E1,-2.814561687E-2,-8.103023529E0,4.621026516E0
4.356580698E1,7.409337163E-1,-5.682775497E0,4.072469711E0
4.361780183E1,6.743494272E-1,-1.551493883E0,3.789027929E0
4.366980072E1,3.658624589E-1,-1.819663644E0,2.594786406E0
4.372179701E1,3.059976697E-1,3.079799116E-1,1.579528332E0
4.377379044E1,3.890753388E-1,2.389521599E-1,5.123467445E-1
4.382578370E1,6.712951064E-1,3.476861715E-1,-5.914867520E-1
4.387777699E1,8.307309151E-1,5.059002638E-1,-1.487626076E0
4.392977042E1,6.505256891E-1,1.119208932E0,-2.206003666E0
4.398176364E1,6.273127794E-1,8.681433797E-1,-2.490666866E0
4.403375703E1,4.886463881E-1,1.014140129E0,-2.568246603E0
4.408575096E1,4.489401579E-1,2.069104433E0,-2.219442606E0
4.413774494E1,3.218801618E-1,6.799969077E-1,-2.180958271E0
4.418973797E1,3.670842052E-1,1.526045322E0,-1.932946920E0
4.424173140E1,4.336685240E-1,5.211718678E-1,-2.148582220E0
4.429372462E1,1.984854043E-1,2.194331884E0,-2.300687790E0
4.434571808E1,2.241417170E-1,1.624394536E0,-2.452793121E0
4.439771141E1,6.578561068E-1,2.460058212E0,-1.955548882E0
4.444970467E1,9.529039860E-1,1.602403402E0,-2.463479042E-1
4.450169872E1,9.076999426E-1,1.424354613E-1,1.195294023E0
4.455369244E1,4.574922621E-1,7.679615021E-1,2.118311405E0
4.460568574E1,5.234656930E-1,8.088893890E-1,2.176343679E0
4.465767906E1,5.265200138E-1,-2.489172220E0,8.299966455E-1
4.470967316E1,2.251603603E0,-8.602100372E0,-3.231035471E0
4.476158801E1,3.902970850E-1,8.984098434E0,1.147646666E0
4.481358154E1,-5.241681933E-1,-3.303455353E0,4.414863586E-1
4.486557493E1,6.389192343E-1,3.184544325E0,1.442083597E0
4.491756829E1,5.301852226E-1,8.418761492E-1,1.363892794E0
4.496956151E1,3.793015182E-1,2.701062858E-1,1.256991506E0
4.502155491E1,1.752725095E-1,1.117987275E0,7.120996714E-1
4.507354830E1,-1.012249470E0,-1.251235306E-1,-7.778006792E-1
4.512554202E1,-1.894338965E0,-7.054454684E-1,-1.363009572E0
4.517753594E1,-2.463054419E0,-8.300620317E-1,-2.865127087E0
4.522952937E1,-2.324388266E0,-3.853521049E-1,-4.298828125E0
4.528152260E1,-2.927311897E0,3.212644339E0,-1.951883674E0
4.533351599E1,-3.839334011E0,3.049255908E-1,2.407250643E0
4.538550941E1,-9.145110846E-1,-3.248764575E-1,6.993627071E0
4.543750257E1,-3.104462862E0,5.301803112E0,7.469491005E0
4.548949600E1,1.239399791E0,-7.812862873E0,-1.127215624E0
4.554148989E1,8.007985353E-1,-5.137272835E0,-6.447241306E0
4.559348361E1,-2.309528738E-1,3.178435802E0,-5.725198269E0
4.564547720E1,-5.577657819E-1,2.629878759E0,-2.752727985E0
4.569747036E1,-4.325384200E-1,3.037038743E-1,-2.413086891E0
4.574946448E1,-7.923380136E-1,-2.325460196E0,-1.078957319E0
4.580146320E1,-7.911163568E-1,-5.165372372E0,1.225837231E0
4.585346026E1,4.574922621E-1,-7.879446983E0,2.898386478E0
4.590545462E1,1.364627242E0,-8.798188210E0,3.469545364E0
4.595744802E1,1.923568845E0,-6.506832600E0,2.936870813E0
4.600944138E1,9.357997179E-1,-1.464751005E0,2.428020000E0
4.606143460E1,-6.866583228E-1,1.809486747E0,1.721248984E0
4.611342793E1,-1.288360596E0,2.435623646E0,2.276835293E-1
4.616542142E1,-4.429231286E-1,1.916998982E0,-6.146996617E-1
4.621741560E1,4.629900455E-1,1.183349848E0,-7.545877695E-1
4.626940900E1,1.247951865E0,1.249323249E0,-9.219648242E-1
4.632140242E1,1.562547445E0,2.077980340E-1,-1.236560464E0
4.637339558E1,1.384174824E0,7.704049349E-1,-1.396607161E0
4.642538904E1,9.370214939E-1,8.876910210E-1,-1.703872442E0
4.647738233E1,4.837594628E-1,5.859236717E-1,-1.815049767E0
4.652937569E1,2.711783350E-1,1.393487453E0,-1.636066318E0
4.658136945E1,1.990962476E-1,1.121652484E0,-1.763126373E0
4.663336330E1,3.884644806E-1,1.137534857E0,-1.838873625E0
4.668535670E1,3.316540122E-1,1.048959494E0,-1.850479960E0
4.673734999E1,2.369698882E-1,8.809715509E-1,-1.171197891E0
4.678934341E1,1.245706975E-1,2.047436982E-1,-4.167793095E-1
4.684133744E1,4.332561791E-2,-2.234728336E-1,5.129575729E-1
4.689333609E1,2.027614415E-1,-1.392668962E0,1.930164933E0
4.694533298E1,3.683059514E-1,-2.991914034E0,3.007120371E0
4.699732674E1,-6.787170768E-1,-5.365125656E0,2.246593237E0
4.704931997E1,-2.522919178E0,-2.122652769E0,1.112216473E0
4.710131336E1,-2.926502824E-1,-7.381084561E-2,6.467370391E-1
4.715330669E1,-1.735315472E-1,-3.566738367E0,2.446957111E0
4.720530004E1,1.563158274E0,-1.191083431E0,2.399309635E0
4.725729341E1,1.202136993E0,-7.482060790E-1,9.821020961E-1
4.730928699E1,6.554126143E-1,2.450284481E0,-4.796984196E-1
4.736128121E1,-5.319108814E-2,2.422795296E0,-1.612853527E0
4.741327447E1,-4.288732409E-1,4.359848976E0,-2.221885920E0
4.746526770E1,-3.537367880E-1,4.009212494E0,-2.894448757E0
4.751726102E1,-9.554390907E-1,4.303649426E0,-2.528540611E0
4.756925442E1,-1.843637109E0,4.044031620E0,-2.368493557E0
4.762124778E1,-1.602956176E0,6.317672253E0,-2.185234070E0
4.767324107E1,-3.433520794E-1,7.649969101E0,-8.718739152E-1
4.772523492E1,-2.561403751E0,2.459447384E0,3.720611095E0
4.777722871E1,-3.352474451E0,-1.205744147E0,7.076704502E0
4.782922207E1,-1.730016232E0,-3.581399202E0,4.241068363E0
4.788121543E1,1.438541889E0,3.339704037E0,-9.604493976E-1
4.793320919E1,3.457451344E0,-1.368234277E0,-3.777759790E0
4.798520541E1,1.140439630E0,-5.863267779E-1,-3.634817362E0
4.803719940E1,7.274947166E-1,-1.310202122E0,-2.137586594E0
4.808919283E1,2.021505684E-1,-2.168467760E0,-1.413711429E0
4.814118606E1,-1.649794281E-1,-3.107978582E0,-1.253965795E-1
4.819317948E1,-3.103653491E-1,-4.826952934E0,1.562424064E0
4.824517281E1,-1.613142341E-1,-7.548357964E0,2.529423714E0
4.829716610E1,1.260169148E0,-7.379148483E0,3.138456345E0
4.834916002E1,1.508180380E0,-2.896008253E0,4.073080540E0
4.840115374E1,6.761820316E-1,8.449304700E-1,3.867218733E0
4.845314707E1,-4.392579198E-1,2.023002505E-1,2.079826832E0
4.850514046E1,-7.727903724E-1,6.696121693E-1,1.818686426E-1
4.855713379E1,-1.558164507E-1,1.856523275E0,-5.304002762E-1
4.860912715E1,3.780797720E-1,5.779823661E-1,-8.822585940E-1
4.866112057E1,6.389192343E-1,4.698592126E-1,-1.341018438E0
4.871311376E1,6.089867949E-1,7.245900035E-1,-1.684935570E0
4.876510792E1,6.633538008E-1,1.735895723E-1,-1.622016430E0
4.881710144E1,5.503437519E-1,2.444499582E-1,-1.736248255E0
4.886909477E1,5.081940889E-1,3.708990514E-1,-1.736248255E0
4.892108813E1,6.969513893E-1,8.418761492E-1,-1.670274734E0
4.897308165E1,5.607284307E-1,9.878728986E-1,-1.794891357E0
4.902507981E1,5.063614845E-1,1.125317574E0,-1.947607636E0
4.907707736E1,7.238295078E-1,1.293305516E0,-1.695320368E0
4.912907162E1,1.079964042E0,1.606068611E0,-1.190134764E0
4.918106481E1,9.486279488E-1,1.204730153E0,-5.322328210E-1
4.923305814E1,2.901151776E-1,9.102931023E-1,3.681825399E-1
4.928505150E1,-4.942358136E-1,2.902324677E0,1.452468395E0
4.933704482E1,-3.726736009E-1,1.942655325E0,1.190407157E0
4.938903812E1,1.954310536E-1,-2.088120729E-1,9.295676947E-1
4.944103197E1,7.323815823E-1,-1.835546255E0,1.095723033E0
4.949302596E1,4.361119568E-1,-4.744486332E0,5.541953072E-2
4.954501925E1,2.348120213E0,-3.894162178E0,-3.540744066E0
4.959701245E1,1.532004237E0,1.507108450E0,2.773769855E0
4.964900587E1,3.566994965E-1,8.834149837E-1,1.821430922E0
4.970099923E1,8.612741828E-1,2.947528601E0,3.535217643E-1
4.975299246E1,-1.057255045E-1,4.539767206E-1,-7.527551651E-1
4.980498588E1,-5.929974467E-2,3.055364788E-1,-1.174252152E0
4.985697934E1,-1.167409301E0,-7.213280201E-1,-1.986092210E0
4.990897362E1,-2.115472078E0,-2.230776072E0,-2.304352999E0
4.996096688E1,-2.494819641E0,-3.131802320E0,-1.080789804E0
5.001296021E1,-2.990842104E0,-3.339496374E0,1.368779778E0
5.006495373E1,-4.501511574E0,1.317129254E0,5.705923080E0
5.011694979E1,-4.171033859E0,-2.633336067E0,7.374807358E0
5.016894418E1,-4.731808186E0,1.241410732E1,9.957545280E0
5.022093754E1,-1.570381820E-1,6.368984699E0,3.333632350E-1
5.027293083E1,1.729313731E0,-6.629005909E0,-5.332412243E0
5.032492426E1,-4.716337919E-1,3.871156931E0,-7.631399035E-1
5.037691765E1,-4.807967544E-1,4.588923454E0,2.915232256E-2
5.042891111E1,5.680588484E-1,-1.100675344E0,-5.701065063E-1
5.048090440E1,8.441699743E-1,-2.968090296E0,-1.221899629E0
5.053289852E1,8.753240705E-1,-1.345632315E0,-1.254275560E0
5.058489208E1,6.163172126E-1,-1.789731264E0,-1.009318590E0
5.063688534E1,6.590777636E-1,-2.469624281E0,-5.652195215E-1
5.068887856E1,5.723348856E-1,-2.960760117E0,-2.216035873E-2
5.074087189E1,8.557763696E-1,-2.650440454E0,3.495981684E-3
5.079286538E1,8.967043161E-1,-3.158069611E0,4.646992385E-1
5.084485851E1,9.467952847E-1,-2.423809290E0,4.482058585E-1
5.089685217E1,6.493039727E-1,-1.399388433E0,1.125655413E0
5.094884625E1,3.182149529E-1,-1.431153417E0,9.399523735E-1
5.100083965E1,1.522581559E-2,-8.624378443E-1,1.049908161E0
5.105283304E1,-9.167559445E-2,-8.551074862E-1,8.061729074E-1
5.110482636E1,2.438879572E-2,-2.433076315E-2,4.311016500E-1
5.115682362E1,3.322649002E-1,3.910576105E-1,-9.668592364E-2
5.120882191E1,6.065434217E-1,-1.556667984E-1,-3.746296167E-1
5.126081723E1,7.940790057E-1,2.157392800E-1,-5.603326559E-1
5.131281053E1,7.439880371E-1,4.527550042E-1,-6.959447265E-1
5.136480395E1,5.912717581E-1,5.291131735E-1,-7.044968009E-1
5.141679735E1,3.982383013E-1,1.297581673E0,-6.373016238E-1
5.146879054E1,2.180330753E-1,5.547694564E-1,-8.052896261E-1
5.152078416E1,7.020369172E-2,3.269167542E-1,-7.270988822E-1
5.157277792E1,2.438879572E-2,5.547694564E-1,-9.164671302E-1
5.162477167E1,-4.158465192E-2,9.102931023E-1,-1.036807537E0
5.167676493E1,3.049744852E-2,3.757859766E-1,-1.177917361E0
5.172875829E1,8.608618379E-2,1.055068135E0,-1.157758832E0
5.178075162E1,2.180330753E-1,6.928250194E-1,-1.320249081E0
5.183274491E1,4.745964706E-1,7.734592557E-1,-1.417987466E0
5.188473844E1,6.639647484E-1,8.174415231E-1,-1.457082748E0
5.193673163E1,5.705023408E-1,6.793859601E-1,-1.664776921E0
5.198674769E1,4.880355299E-1,1.458850145E0,-1.502897739E0
5.203874154E1,6.725168228E-1,6.378471851E-1,-1.462580562E0
5.209073464E1,6.822906733E-1,1.139367580E0,-1.133324265E0
5.214272796E1,2.388024926E-1,1.615231514E0,-8.034570217E-1
5.219472139E1,-1.991878748E-1,-3.499219418E-1,-9.366255999E-1
5.224671821E1,-2.731025815E-1,-3.138808906E-1,-8.217829466E-1
5.229871650E1,-3.396869004E-1,-7.381084561E-2,-5.682738423E-1
5.235071139E1,-3.378542960E-1,-1.553326368E0,-5.392535031E-2
5.240270468E1,-3.891669512E-1,-2.462293863E0,7.896795869E-1
5.245469794E1,-8.760265708E-1,-5.613136768E0,1.340680003E0
5.250669157E1,-3.033602476E0,-4.793355942E0,1.543796957E-1
5.255868463E1,-3.810012341E0,2.457003832E0,-2.099713087E0
5.261067795E1,-2.510091066E0,-1.527059317E0,-8.141428232E-2
5.266267154E1,-1.420307517E0,-4.217309475E0,-2.116206408E0
5.271466570E1,3.982383013E-1,1.374550700E0,-1.400883198E0
5.276665899E1,3.573103547E-1,3.922469378E0,-1.070405126E0
5.281865231E1,5.949369669E-1,4.880306244E0,3.987258077E-1
5.287064587E1,7.264714688E-2,5.585855484E0,1.107940316E0
5.292263893E1,-8.265464902E-1,1.041169167E1,2.829358578E0
5.297463236E1,-3.098354340E0,2.761825800E0,5.688818932E0
5.302662565E1,-3.000616074E0,-6.364177465E-1,9.368060112E0
5.307861914E1,3.683059514E-1,-1.434494853E-1,6.499436855E0
5.313061349E1,1.246119261E0,4.378175259E0,-4.164437294E0
5.318260675E1,1.689607382E0,1.710526466E0,-3.922534943E0
5.323460014E1,3.756363094E-1,-1.092734098E0,-3.749049425E0
5.328659340E1,1.294576079E-1,-7.640885711E-1,-2.560916185E0
5.333858882E1,-1.814727932E-1,1.017194510E0,-1.545047402E0
5.339058399E1,-3.696192801E-1,9.597731233E-1,-8.080342412E-2
5.344257738E1,-8.088313937E-1,-3.558186293E0,2.029736042E0
5.349457070E1,-1.045037657E-1,-7.185503960E0,3.462215185E0
5.354656403E1,1.285214663E0,-6.285089016E0,3.860498905E0
5.359855742E1,1.340803385E0,-3.393863440E0,3.391354799E0
5.365055075E1,8.637176752E-1,-6.382502913E-1,2.282634258E0
5.370254424E1,-3.109762371E-1,1.172965050E0,1.128709674E0
5.375453836E1,-7.092604041E-1,3.220298588E-1,-4.723680317E-1
5.380653172E1,-5.296659470E-1,8.070568442E-1,-1.111333132E0
5.385852504E1,-5.013676360E-2,1.109435201E0,-1.383778930E0
5.391051844E1,4.074012935E-1,5.358326435E-1,-1.359344363E0
5.396251176E1,6.902319193E-1,4.411485493E-1,-1.239003897E0
5.401450512E1,7.684226632E-1,-3.108265698E-1,-1.116219997E0
5.406649838E1,7.311599255E-1,-5.704442859E-1,-8.743174076E-1
5.411849210E1,5.332395434E-1,-1.169092298E0,-5.774368644E-1
5.417048609E1,3.102737367E-1,-7.549256086E-1,-2.658956051E-1
5.422247938E1,4.841106944E-3,1.659720764E-2,4.158300161E-1
5.427447281E1,-2.712699771E-1,-8.013513684E-1,3.321414888E-1
5.432646603E1,-6.212957501E-1,-2.686768472E-1,4.640883803E-1
5.437846196E1,-1.125259638E0,-6.816217899E-1,-3.245386779E-1
5.443046071E1,-1.728794456E0,-7.139976025E-1,-9.250191450E-1
5.448245614E1,-2.081263781E0,-9.479590058E-1,-8.834803700E-1
5.453444939E1,-2.094702721E0,-3.041394234E0,-1.430204749E0
5.458644279E1,-1.021412492E0,-7.952426672E-1,-2.234714270E0
5.463843608E1,-9.584934115E-1,-1.462918401E0,-2.466843128E0
5.469042937E1,-2.087372303E0,-9.656741619E-1,-3.766153574E0
5.474242280E1,-2.719007015E0,2.281074762E0,-5.834542751E0
5.479441629E1,2.638479471E-1,1.369387054E1,-4.696500778E0
5.484641011E1,6.670190692E-1,-8.037948012E-1,-3.391693115E0
5.489840383E1,1.828014106E-2,-3.700805008E-1,-2.620780945E0
5.495039713E1,3.860210180E-1,2.599946260E0,-2.156523466E0
5.500239045E1,5.387372971E-1,1.406926513E0,-1.642175078E0
5.505438388E1,-6.341239810E-1,1.563308001E0,-7.185467482E-1
5.510637717E1,-2.438619852E0,2.034285069E0,2.032489181E-1
5.515837043E1,-4.014041424E0,3.201037884E0,2.140913486E0
5.521036392E1,-5.052512169E0,5.025081635E0,4.322924137E0
5.526235774E1,-7.093412876E0,3.800907373E0,5.199515820E0
5.531435146E1,-8.569263458E0,-2.979983687E-1,6.415748596E0
5.536634486E1,-5.517991543E0,-6.032801151E0,7.337543964E0
5.541833815E1,-5.687613487E-1,5.368387699E0,6.884892941E0
5.547033301E1,2.743350029E0,-2.152585268E0,-3.187664032E0
5.552232886E1,2.403708935E0,-4.559394360E0,-3.859004974E0
5.557432219E1,1.025596976E0,-1.385338545E0,-2.480893135E0
5.562631552E1,2.363590449E-1,-4.097867310E-1,-1.783895731E0
5.567830881E1,2.438879572E-2,-2.338288307E0,-8.358328938E-1
5.573030220E1,-1.655903012E-1,-4.433556080E0,1.830903590E-1
5.578229546E1,-3.329673707E-1,-6.111603260E0,1.459187865E0
5.583428899E1,-3.486513346E-2,-5.607639313E0,2.409083366E0
5.588628284E1,1.734399050E-1,-2.764672279E0,2.434129000E0
5.593827646E1,-2.333963364E-1,1.458850145E0,2.262475491E0
5.599026996E1,-6.194632053E-1,8.950214386E-1,1.969871163E0
5.604226328E1,-6.585585475E-1,-9.335853904E-2,6.479588151E-1
5.609425651E1,-4.380362034E-1,3.935010731E-1,8.901711553E-2
5.614624984E1,1.563356966E-1,3.250841796E-1,-1.504420638E-1
5.619824323E1,6.615212560E-1,-1.324539185E-1,-3.691318035E-1
5.625023652E1,8.105723858E-1,-2.466857135E-1,-4.406030476E-1
5.630223087E1,8.551655412E-1,-5.796073079E-1,-8.449958563E-1
5.635422413E1,5.570632815E-1,-2.876136899E-1,-3.581362367E-1
5.640621752E1,3.457039297E-1,-3.706913590E-1,-5.087102577E-2
5.645821115E1,8.608618379E-2,-2.950479044E-3,1.531579792E-1
5.651020600E1,6.837109476E-2,2.023002505E-1,2.350139171E-1
5.656220466E1,-3.303254023E-2,-8.053036779E-2,1.574340165E-1
5.661420139E1,-1.533729881E-1,1.894720793E-1,8.229760081E-2
5.666619531E1,-3.354108334E-1,5.755388737E-1,-1.785418540E-1
5.671818857E1,-4.453665912E-1,4.747461677E-1,-1.034363985E0
5.677018193E1,-2.523331642E-1,4.619179666E-1,-1.477241278E0
5.682217519E1,-7.029531896E-2,1.214503884E0,-1.139432907E0
5.687416852E1,-7.666817307E-1,-2.898451567E0,-9.879382849E-1
5.692616237E1,-1.712301135E0,-7.170519233E-1,-2.310461760E0
5.697815623E1,-2.201604366E0,-8.948137164E-1,-3.216985703E0
5.703014949E1,-7.801207304E-1,3.627421618E0,-5.997033119E0
5.708214285E1,1.771463394E0,6.187558174E0,-4.557835102E0
5.713413631E1,-4.508643746E-1,5.601634271E-3,-3.610382795E0
5.718612956E1,-7.579310238E-2,2.484493017E0,-1.937833786E0
5.723812296E1,8.026310802E-1,3.298165321E0,-1.240225673E0
5.729011632E1,9.150303602E-1,4.674444675E0,-7.301532030E-1
5.734210994E1,4.098447561E-1,2.905378819E0,5.135684609E-1
5.739410389E1,-1.418474913E0,2.462501764E0,1.238054633E0
5.744609748E1,-4.105060101E0,3.397736311E0,4.324145794E0
5.749809054E1,-6.693296432E0,-1.330360770E0,8.088296890E0
5.755008420E1,-3.153943062E0,-8.163499832E0,5.194628716E0
5.760207879E1,3.660609946E-2,6.388532639E0,8.324401379E-1
5.765407768E1,1.288467497E-1,5.981696129E0,-2.992187262E0
5.770607387E1,-8.216595650E-1,3.464644551E-1,-1.760682821E0
5.775806730E1,-1.873569608E0,9.365602136E-1,-1.626903296E0
5.781006072E1,-1.740400910E0,7.524026930E-2,-1.637288094E0
5.786205405E1,-1.422140121E0,-1.258278608E0,-1.262827635E0
5.791404731E1,-1.069059968E0,-3.506873608E0,-5.383414626E-1
5.796604067E1,-7.911163568E-1,-4.211201191E0,2.282943875E-1
5.801803393E1,-5.889199376E-1,-4.434777737E0,1.225837231E0
5.807002801E1,-1.348484959E-2,-3.789704084E0,1.814100623E0
5.812202164E1,1.514487565E-1,-3.097593784E0,1.926499724E0
5.817401496E1,2.461328804E-1,-2.390211821E0,1.036469102E0
5.822600835E1,3.328757286E-1,-5.185207725E-1,4.579797387E-1
5.827800158E1,5.081940889E-1,-1.984273493E-1,-6.287495494E-1
5.832999497E1,8.435590863E-1,5.095654726E-1,-1.153482795E0
5.838198840E1,1.173426270E0,4.790221751E-1,-1.271379709E0
5.843398162E1,1.245508432E0,2.951517701E-1,-1.501676083E0
5.848597574E1,1.150824308E0,5.034568310E-1,-1.755795956E0
5.853796960E1,1.061027050E0,5.474390984E-1,-2.066115379E0
5.858996286E1,1.153878689E0,1.191290975E0,-2.078943491E0
5.864195595E1,1.384785652E0,5.077328682E-1,-2.030074358E0
5.869395011E1,1.434265733E0,1.781997800E0,-1.413100481E0
5.874594640E1,1.151435137E0,3.043147326E-1,-1.177306533E0
5.879794003E1,9.272476435E-1,1.534597278E0,-6.256951690E-1
5.884993342E1,7.977442145E-1,2.963735163E-1,-3.239277899E-1
5.890192671E1,3.695276380E-1,1.620729327E0,-2.093862742E-2
5.895392014E1,8.606633544E-1,2.555353165E0,-7.958168536E-2
5.900591346E1,-6.738302112E-1,-9.192483425E-1,-9.286844134E-1
5.905790676E1,2.881405592E0,8.985320091E0,-6.953338385E-1
5.910990068E1,-1.030575395E0,-1.715816617E0,-5.389523506E-1
5.916189430E1,-1.880289078E0,-1.069521189E0,8.910831809E-1
5.921388766E1,-1.293247581E0,-6.648045778E-2,8.159467578E-1
5.926584213E1,-5.614309907E-1,-2.004144907E0,-5.560565591E-1
5.931783562E1,-2.370615304E-1,-7.592016459E-1,-1.118663430E0
5.936982888E1,-9.994212985E-1,1.194345474E0,-7.472574115E-1
5.942182214E1,-2.774595737E0,5.712628961E-1,1.250581592E-1
5.947381556E1,-2.556516886E0,-2.396320581E0,5.295421600E0
5.952580971E1,-1.877234697E0,-3.324224949E0,6.807312965E0
5.957780320E1,8.447808027E-1,5.527212620E0,2.463450432E0
5.962979660E1,2.346287489E0,-4.591159344E0,-5.460693836E0
5.968178989E1,9.193063974E-1,5.022350550E-1,-5.114943981E0
5.973378404E1,-1.381013691E-1,1.253599405E0,-2.930489779E0
5.978578276E1,-1.625359654E-1,-1.599428356E-1,-2.592070580E0
5.983777969E1,-1.900248975E-1,-2.143422365E0,-7.613072991E-1
5.988977325E1,-2.810438275E-1,-4.539846897E0,1.478735566E0
5.994176658E1,8.221788406E-1,-5.880695820E0,3.171443224E0
5.999375994E1,1.736033201E0,-7.173897266E0,3.675406933E0
6.004575319E1,2.486175776E0,-4.816568851E0,2.663814306E0
6.009774655E1,1.811169624E0,-3.187678158E-1,2.343109846E0
6.014974001E1,3.059976697E-1,4.497006536E-1,1.730412006E0
6.020173337E1,-8.277682662E-1,7.807896137E-1,2.179096788E-1
6.025372756E1,-7.226994038E-1,1.676318169E0,-4.968026280E-1
6.030572108E1,-1.405448169E-1,1.191290975E0,-1.232895255E0
6.035771421E1,-1.531744562E-2,1.110656857E0,-1.838873625E0
6.040970760E1,-1.264949143E-1,5.394978523E-1,-2.278085709E0
6.046170093E1,-1.203862652E-1,8.461522460E-1,-2.908498526E0
6.051369425E1,-4.777424335E-1,1.350726962E0,-3.622600079E0
6.056568758E1,-5.150051713E-1,1.109435201E0,-4.205976486E0
6.061768147E1,-5.522680283E-1,3.311928213E-1,-4.143057346E0
6.066967525E1,-4.184885025E-1,-1.837378740E0,-3.414295197E0
6.072166861E1,1.392314583E-1,1.407537341E0,-1.176084876E0
6.077366197E1,-1.582599133E-1,-6.694045067E-1,-5.087102577E-2
6.082565583E1,-5.400507450E-1,-4.029163361E0,2.099684328E-1
6.087765205E1,-1.204672098E0,-3.979072332E0,1.132375002E0
6.092964598E1,-3.217473030E0,-5.126888275E0,9.173504114E-1
6.098163931E1,-5.079390049E0,-6.927718639E0,-1.008707762E0
6.103363253E1,-1.331121206E0,-1.947621554E-1,-6.757861972E-1
6.108562602E1,-1.381822944E0,-5.483022690E0,-1.605170593E-2
6.113761932E1,-7.376197726E-3,-2.802545786E0,2.103650570E0
6.118961268E1,1.800174117E0,-4.726160526E0,3.677850246E0
6.124160656E1,1.922347188E0,-1.302260876E0,1.069455862E0
6.129360049E1,2.659661293E0,1.389822245E0,-3.929555714E-1
6.134559381E1,1.958388209E0,2.951804638E0,-1.108278751E0
6.139758707E1,1.486189365E0,5.124652386E0,-1.937833786E0
6.144958043E1,7.500966787E-1,6.275522232E0,-1.524277925E0
6.150157372E1,-1.979661584E-1,7.653634071E0,-4.448791146E-1
6.155356712E1,-4.752989709E-1,8.291378021E0,1.165972590E0
6.160556038E1,-8.190175891E-2,1.303841209E1,4.690054417E0
6.165755436E1,-4.196079254E0,4.195526600E0,6.952088356E0
6.170954805E1,-3.566277027E0,-2.528878212E0,8.501242638E0
6.176154134E1,-1.025688648E0,2.816192627E0,3.209927797E0
6.181353470E1,3.165457726E0,4.191574156E-1,-4.769804955E0
6.186552833E1,2.971202612E0,4.379903898E-3,-4.375796795E0
6.191752658E1,1.348133802E0,9.952033162E-1,-3.709342957E0
6.196952414E1,1.112339854E0,-2.401818275E0,-2.471119165E0
6.202151907E1,6.364757419E-1,-3.695019960E0,-8.828694820E-1
6.207351243E1,-1.961335540E-1,-4.900867939E0,1.393825293E0
6.212550572E1,-2.981480360E-1,-7.807364941E0,4.121338367E0
6.217749914E1,1.481302381E0,-9.787178993E0,5.052297592E0
6.222949237E1,1.922958016E0,-2.323016644E0,4.368739128E0
6.228148573E1,3.255453408E-1,1.391654849E0,3.249022961E0
6.233347985E1,-9.230631590E-1,1.265529543E-1,1.375499249E0
6.238547331E1,-1.391596794E0,1.766439080E-1,-2.341306061E-1
6.243746670E1,-1.011027813E0,9.823752046E-1,-1.120496035E0
6.248946006E1,-2.810438275E-1,1.480841160E0,-1.524888873E0
6.254145338E1,4.929224253E-1,1.478397727E0,-1.688600659E0
6.259344694E1,1.199693441E0,8.430979252E-1,-1.508395553E0
6.264544004E1,1.555827975E0,-2.616335824E-2,-1.407602787E0
6.269743346E1,1.524062991E0,-8.233425021E-1,-1.312307715E0
6.274942788E1,1.112339854E0,-7.420974374E-1,-1.124772072E0
6.280142100E1,4.874246418E-1,2.756040692E-1,-1.366063833E0
6.285341443E1,-1.592831127E-2,2.566672266E-1,-1.337964058E0
6.290540772E1,4.562705457E-1,1.400207043E0,-1.555432081E0
6.295740131E1,6.743494272E-1,1.464958787E0,-1.810163021E0
6.300939943E1,8.026310802E-1,1.692200541E0,-9.873274565E-1
6.306139695E1,1.067746639E0,1.676928997E0,4.549253881E-1
6.311339105E1,8.270657063E-1,1.722132921E0,1.616180182E0
6.316538451E1,6.230367422E-1,6.262407303E-1,2.590510368E0
6.321737773E1,1.604697108E0,6.421232224E-1,2.922821045E0
6.326937116E1,1.977324963E0,-2.702363968E0,2.855014801E0
6.332136445E1,2.241417170E-1,-5.755468369E0,-2.277122252E-2
6.337335774E1,-2.315637320E-1,2.327500582E0,3.530631781E0
6.342535157E1,-2.352289259E-1,-3.322068453E-1,3.250855684E0
6.347734542E1,-3.012023866E-1,4.154922068E-1,2.282023430E0
6.352933875E1,-6.854366660E-1,5.743172169E-1,4.628666341E-1
6.358133207E1,-1.454515934E0,2.108810902E0,-2.560305357E0
6.363332536E1,-1.723907590E0,2.695852280E0,-3.415516853E0
6.368531876E1,-3.175934315E0,2.167453766E0,-5.290873051E0
6.373731205E1,-2.756269693E0,2.391641378E0,-5.347072601E0
6.378930564E1,-2.224205971E0,4.586480141E0,-4.317764759E0
6.384129913E1,-1.544924021E0,7.251685143E0,-1.998920321E0
6.389329298E1,-3.241296768E0,1.798491120E0,3.115243673E0
6.394528658E1,1.386205852E-1,-5.419492722E0,6.698579311E0
6.399727994E1,-1.448407292E0,4.755690098E0,3.641198397E0
6.404927329E1,3.067719460E0,1.043461680E0,-5.198021412E0
6.410126938E1,3.308400393E0,-1.042032242E0,-5.304312229E0
6.415326378E1,1.485578537E0,9.805425406E-1,-4.753311634E0
6.420525710E1,1.315757990E0,-1.637625813E0,-4.092966080E0
6.425725059E1,1.214354277E0,-2.866686821E0,-2.365439415E0
6.430924365E1,5.320178270E-1,-4.265568256E0,3.125938177E-1
6.436123745E1,3.945731223E-1,-6.520271778E0,3.234973192E0
6.441323074E1,1.514899969E0,-7.190391064E0,4.829942226E0
6.446522433E1,2.418369532E0,-6.436583042E0,4.654623985E0
6.451721818E1,2.087891579E0,-1.293708682E0,3.389522076E0
6.456921168E1,4.440532327E-1,1.287807703E0,2.264308453E0
6.462120487E1,-7.379710078E-1,2.487259954E-1,7.487515807E-1
6.467319816E1,-1.093494654E0,1.858068854E-1,-3.758513629E-1
6.472519152E1,-8.118857145E-1,1.465569615E0,-6.226408482E-1
6.477718481E1,-3.242167458E-2,1.463736892E0,-6.611254215E-1
6.482917814E1,7.916355729E-1,8.174415231E-1,-6.684558392E-1
6.488117209E1,1.329807878E0,-8.786074817E-2,-5.902650356E-1
6.493316582E1,1.530171633E0,-3.749673963E-1,-3.233169317E-1
6.498515914E1,1.580873370E0,-5.948789120E-1,-1.272291839E-1
6.503715257E1,1.298653722E0,-7.323235869E-1,-1.877048314E-1
6.508914596E1,8.447808027E-1,-5.881593823E-1,-3.330907524E-1
6.514114325E1,3.670842052E-1,-2.552378178E-1,-5.585000515E-1
6.519314134E1,6.226243824E-2,9.628274441E-1,-5.530022383E-1
6.524513583E1,-1.674228907E-1,-1.272432320E-2,-4.687028527E-1
6.529712919E1,-2.016313523E-1,2.016893774E-1,-1.186770722E-1
6.534912255E1,-2.443919033E-1,8.745758235E-2,1.305559576E-1
6.540111584E1,-1.552055776E-1,-1.636080295E-1,2.930461168E-1
6.545310927E1,-3.622889221E-1,-2.112555206E-1,2.368465066E-1
6.550510273E1,-7.239211202E-1,-1.788796633E-1,-1.760984063E-1
6.555709592E1,-1.367162228E0,-1.471146643E-1,-1.785418540E-1
6.560908984E1,-2.174115181E0,-6.663501859E-1,-3.275929987E-1
6.566108353E1,-2.198549747E0,-1.794905365E-1,2.111901641E-1
6.571307685E1,-2.136241436E0,-3.809862852E0,-2.542891502E-1
6.576507025E1,-5.368940353E0,9.664926529E-1,-1.267103791E0
6.581706354E1,-4.966991425E0,-2.502611160E0,2.441768944E-1
6.586905686E1,-4.784342289E0,-1.428709984E0,-4.361747265E0
6.592105019E1,-1.787437558E0,6.250189543E-1,-2.353832960E0
6.597304365E1,-1.400148869E0,-4.323887229E-1,-3.129020929E0
6.602503777E1,-6.732193232E-1,4.422157288E0,-3.388638735E0
6.607703126E1,1.697747260E-1,4.347631931E0,-2.730125904E0
6.612902452E1,2.100918293E-1,4.857093334E0,-1.270158052E0
6.618101798E1,-3.781713843E-1,4.380007744E0,1.488819122E-1
6.623301363E1,-1.489335299E0,5.041574478E0,1.508667946E0
6.628500872E1,-2.272464514E0,5.499112606E0,2.619220972E0
6.633700215E1,-3.138060570E0,9.466071129E0,5.090170860E0
6.638899524E1,-7.230247021E0,1.588964343E0,7.637478828E0
6.644098863E1,-6.949860096E0,-3.276577473E0,8.630134583E0
6.649298196E1,-2.803917170E0,1.615231514E0,6.678420544E0
6.654497525E1,2.524049282E0,5.080566555E-2,-2.700193644E0
6.659695175E1,2.579027414E0,1.362944245E0,-2.950648546E0
6.664894590E1,1.902799487E0,-1.269885063E0,-2.713632584E0
6.670093929E1,1.475193739E0,-2.031023026E0,-2.204170942E0
6.675293255E1,1.378677011E0,-2.270482063E0,-8.254481554E-1
6.680492594E1,5.173570514E-1,-3.684635162E0,7.976207733E-1
6.685691924E1,9.117163718E-3,-5.078629971E0,2.980853319E0
6.690891256E1,4.855920374E-1,-7.935035706E0,3.977785110E0
6.696090599E1,1.422659278E0,-6.263097763E0,3.721832752E0
6.701289941E1,9.590126276E-1,-1.433596969E0,3.421897888E0
6.706489350E1,-2.553874850E-1,4.301529825E-1,1.723692536E0
6.711688706E1,-1.356166601E0,5.950866342E-1,7.772038691E-3
6.716888028E1,-1.402592421E0,1.017805338E0,-9.372364879E-1
6.722087357E1,-9.969779253E-1,9.756556153E-1,-1.442422032E0
6.727286993E1,-4.380362034E-1,8.204958439E-1,-1.414322257E0
6.732486829E1,1.215163693E-1,6.329602599E-1,-1.430204749E0
6.737686458E1,3.957948685E-1,6.607729197E-2,-1.125993848E0
6.742885804E1,4.666552544E-1,-1.251235306E-1,-8.462175727E-1
6.748085126E1,3.279888332E-1,-4.122301936E-1,-4.772549868E-1
6.753284466E1,5.004513636E-2,-4.226149023E-1,-7.835996151E-2
6.758483798E1,-1.228297278E-1,-1.947621554E-1,4.011692405E-1
6.763683141E1,-8.617781103E-2,1.100595966E-1,8.617616296E-1
6.768882536E1,-6.052147225E-2,-8.663901687E-2,1.051129937E0
6.774081895E1,-8.373434842E-2,-1.801013947E-1,9.704956412E-1
6.779281241E1,-5.767026544E-1,-8.236295730E-2,3.406935930E-1
6.784480560E1,-1.241323948E0,-2.698985934E-1,-4.699245989E-1
6.789679900E1,-1.895560622E0,-6.101505160E-1,-1.276877522E0
6.794879235E1,-2.290179729E0,2.453845553E-2,-1.816882491E0
6.800078565E1,-2.105087519E0,-9.284113050E-1,-2.422250032E0
6.805277897E1,-2.132576466E0,-2.589030266E-1,-2.538924932E0
6.810477299E1,-1.733070612E0,1.361111522E0,-3.175446749E0
6.815676661E1,-7.355275750E-1,5.016242266E-1,-2.556029320E0
6.820876004E1,-5.076748133E-1,3.801518202E0,-5.554457307E-1
6.826075337E1,-1.545534968E0,1.619831324E-1,1.448192239E0
6.831274676E1,-3.292609453E0,-1.351740956E0,-4.022716999E0
6.836474281E1,-3.367745876E0,1.496112823E0,-4.220637321E0
6.841674163E1,6.877884269E-1,3.322599888E0,-3.865113497E0
6.846873686E1,3.609755635E-1,-1.908850074E0,-4.055092812E0
6.852073002E1,1.728290617E-1,2.165621042E0,-1.686768174E0
6.857272331E1,7.739204764E-1,1.570962220E-1,-7.216010690E-1
6.862471670E1,5.540089607E-1,-3.358720541E-1,3.009873629E-1
6.867671000E1,2.235308737E-1,2.389521599E-1,1.285702109E0
6.872870332E1,-1.796402037E-1,2.447229862E0,2.013242722E0
6.878069685E1,-6.878800392E-1,2.335441589E0,2.705963850E0
6.883269103E1,-1.184513569E0,4.012877464E0,3.180606127E0
6.888468436E1,-1.774609327E0,3.413618803E0,4.016880512E0
6.893667768E1,-2.723894119E0,3.613371849E0,4.673560619E0
6.898867091E1,-4.649341106E0,9.365602136E-1,5.558093548E0
6.904066447E1,-6.889384270E0,-7.408756614E-1,6.865345001E0
6.909265766E1,-7.599820137E0,-2.356614351E0,7.643587589E0
6.914465105E1,-1.050734043E0,2.569403172E0,4.811616421E0
6.919664454E1,2.688982964E0,-6.446967602E0,-5.637844563E0
6.924863853E1,5.558415651E-1,3.252350330E0,-3.034336805E0
6.930063202E1,1.178511828E-1,8.107220531E-1,-1.614686012E0
6.935262558E1,-9.664346576E-1,-2.819039345E0,-1.422874331E0
6.940461867E1,-1.023855925E0,-2.712748766E0,-3.294255733E-1
6.945661370E1,-9.835388660E-1,-3.994954824E0,1.030670181E-1
6.950860942E1,-4.062712193E-1,-3.894162178E0,7.304255962E-1
6.956060281E1,-6.663012505E-2,-4.313826561E0,8.959701061E-1
6.961259620E1,9.280569851E-2,-3.740834951E0,1.298530221E0
6.966458950E1,1.050230116E-1,-1.982764721E0,1.169637680E0
6.971658276E1,-5.441282317E-2,-8.410575986E-1,7.976207733E-1
6.976857602E1,4.367228448E-1,-3.975694180E-1,2.753310204E-1
6.982056944E1,1.017655730E0,7.829460502E-2,2.777744830E-1
6.987256363E1,1.324310064E0,-9.827783108E-1,3.028199375E-1
6.992455695E1,1.288269043E0,-1.454977155E0,-4.228879809E-1
6.997655048E1,9.015913010E-1,-4.696515203E-1,-6.098127365E-1
7.002854377E1,5.252982974E-1,1.717569828E-1,-9.048606753E-1
7.008053703E1,4.581031203E-1,8.852475882E-1,-1.151650190E0
7.013253042E1,5.613393784E-1,5.419413447E-1,-1.296425343E0
7.018452375E1,6.065434217E-1,7.434229832E-3,-1.563984275E0
7.023651727E1,5.283526182E-1,4.735244215E-1,-1.727085233E0
7.028851156E1,5.069723725E-1,8.687542081E-1,-1.758239388E0
7.034050472E1,4.574922621E-1,6.476210356E-1,-1.664776921E0
7.039249831E1,2.986673117E-1,4.698592126E-1,-1.428982973E0
7.044449170E1,-1.723098159E-1,2.957626283E-1,-7.863527536E-1
7.049648673E1,-7.000974417E-1,-3.105027974E-2,-2.976605892E-1
7.054848568E1,-1.059286118E0,2.804909945E-1,1.363892794E0
7.060048164E1,-9.108458757E-1,-1.116844937E-1,2.294851542E0
7.065247500E1,-5.938068032E-1,-2.491291612E-1,3.370585203E0
7.070446816E1,-8.678868413E-2,-7.036129236E-1,3.324770212E0
7.075646145E1,9.290801883E-1,-1.308369517E0,9.265133739E-1
7.080845478E1,1.266277790E0,5.263825879E-2,6.223024726E-1
7.086044800E1,1.024375200E0,-1.630295515E0,-1.150118783E-1
7.091244156E1,1.221684694E0,4.338181615E-1,-1.855977774E0
7.096443515E1,1.577819109E0,-2.014816850E-1,-1.120496035E0
7.101642904E1,1.883862495E0,-7.475951910E-1,-6.861708760E-1
7.106842253E1,1.828273773E0,8.745758235E-2,-5.029113293E-1
7.112041592E1,1.196837798E-1,-6.987583637E0,1.115270734E0
7.117240911E1,-5.919742584E-1,-7.728563309E0,5.667137504E-1
7.122440277E1,7.299381495E-1,-1.933895469E0,1.809824467E0
7.127639607E1,-2.266768217E-1,3.323821545E0,-1.525499701E0
7.132838912E1,-3.303254023E-2,1.469845533E0,-3.187053204E0
7.138038315E1,7.325801253E-2,4.847319126E0,-3.837624788E0
7.143237680E1,-5.492137074E-1,1.176630259E0,-5.270103455E0
7.148437016E1,-1.161911488E0,3.348580003E-1,-5.096618176E0
7.153636352E1,-2.015290260E0,-8.636596203E-1,-4.915190697E0
7.158835808E1,-2.485045671E0,2.130801678E0,-4.332425117E0
7.164035417E1,-2.922425032E0,6.934646130E0,-9.635037184E-1
7.169234749E1,-3.694558859E0,-5.014165044E-1,5.695538521E0
7.174434082E1,-2.480769634E0,-7.317126989E-1,8.178094864E0
7.179633425E1,7.537618876E-1,5.143589497E0,5.178135395E0
7.184832754E1,4.005397797E0,-4.855664253E0,-5.230397224E0
7.190032100E1,2.246716499E0,3.648191214E0,-5.659835815E0
7.195231419E1,1.355464101E0,7.484137416E-1,-3.077097416E0
7.200430791E1,4.739856124E-1,-2.588743210E0,-3.190718412E0
7.205630197E1,-1.936900914E-1,-3.319948673E0,-2.339783192E0
7.210829516E1,-1.155802846E0,-4.209368706E0,-7.209901810E-1
7.216028855E1,-9.927018285E-1,-5.046253681E0,1.350453854E0
7.221228188E1,-7.837859392E-1,-6.867243290E0,3.072482824E0
7.226427514E1,8.044636846E-1,-8.039493561E0,3.955183268E0
7.231626853E1,1.247951865E0,-5.927121639E0,4.166542530E0
7.236826196E1,3.805232346E-1,-1.184363842E0,2.315620899E0
7.242025581E1,-6.952104568E-1,2.202883959E0,1.082636416E-2
7.247224957E1,-5.040096641E-1,2.055054426E0,-3.697426617E-1
7.252424289E1,-6.968445331E-2,1.317740202E0,-9.897709489E-1
7.257623622E1,4.037361145E-1,1.260318875E0,-8.853129148E-1
7.262823067E1,9.449626803E-1,1.037353039E0,-9.793861508E-1
7.268022943E1,1.214354277E0,8.134892583E-2,-1.194410801E0
7.273222642E1,1.275440812E0,1.687026471E-1,-1.068572521E0
7.278422051E1,1.084850788E0,2.102414817E-1,-1.011151195E0
7.283621397E1,1.004827499E0,-8.480641991E-2,-7.002207637E-1
7.288820720E1,7.073361278E-1,-2.240836918E-1,-3.062126935E-1
7.294020052E1,6.297562122E-1,-3.364829123E-1,-3.834401025E-3
7.299219392E1,4.342793822E-1,-4.800362289E-1,-1.727343537E-2
7.304418754E1,4.348902404E-1,-4.391082823E-1,-2.738368511E-1
7.309618146E1,7.623140216E-1,7.123727202E-1,-5.945410728E-1
7.314817492E1,9.235824347E-1,1.124706745E0,-1.411878824E0
7.320016838E1,1.107452869E0,1.356224775E0,-1.761904597E0
7.325216164E1,1.010936141E0,1.540706038E0,-1.960435748E0
7.330415496E1,8.398939371E-1,1.128982782E0,-2.124147654E0
7.335614826E1,6.138737798E-1,4.588636458E-1,-1.923172951E0
7.340814165E1,5.185787678E-1,2.661643744E0,-9.292952418E-1
7.346013540E1,3.866319060E-1,3.675575927E-2,-9.207431674E-1
7.351212933E1,4.177860022E-1,-3.776979819E-2,-2.567326128E-1
7.356412258E1,3.090519905E-1,-1.623863131E-1,1.898098737E-1
7.361611608E1,-9.534078836E-2,-1.159318328E0,-1.545047402E0
7.366810930E1,-3.348198175E0,8.858584762E-1,-2.493110418E0
7.372010359E1,-3.262478709E-1,7.015891075E0,-1.400573552E-1
7.377210255E1,-9.230631590E-1,-1.633349895E0,-1.979983568E0
7.382409904E1,-1.463678956E0,9.478796273E-2,-6.171431541E-1
7.387605864E1,-1.140531301E0,2.267348468E-1,4.775274098E-1
7.392805207E1,-1.281641126E0,1.887066483E0,9.509480000E-1
7.398004533E1,-1.542480588E0,3.365360498E0,7.017149925E-1
7.403203868E1,-3.200368881E0,3.309160948E0,3.851336241E0
7.408403221E1,-5.281587124E0,1.228877604E-1,7.564175129E0
7.413602547E1,-3.167992830E0,-3.202662706E0,7.787752151E0
7.418801913E1,8.242098987E-2,6.453284264E0,5.682710171E0
7.424001311E1,2.593077183E0,-2.122041941E0,-4.264008999E0
7.429200634E1,1.936396956E0,2.878213823E-1,-3.981788874E0
7.434399966E1,-8.923213929E-2,-5.643356442E-1,-2.193175554E0
7.439599306E1,-9.242849350E-1,-1.913126111E0,-1.901792765E0
7.444798638E1,-1.117318392E0,-2.303468943E0,-9.916034937E-1
7.449997968E1,-1.898615003E0,-4.936298370E0,4.686741158E-2
7.455197310E1,-2.378755093E0,-6.121376991E0,2.216660738E0
7.460396702E1,-1.785604954E0,-7.293015957E0,3.893485785E0
7.465596071E1,-5.284442902E-1,-4.534959793E0,3.481762648E0
7.470795410E1,-2.193464339E-1,-2.492226362E0,2.409694195E0
7.475994740E1,-1.057255045E-1,-1.991927743E0,1.542265534E0
7.481194132E1,-8.556694537E-2,-1.031036735E0,6.009221673E-1
7.486393754E1,-2.645504773E-1,8.589804173E-1,-7.958168536E-2
7.491593144E1,-2.193464339E-1,1.821093082E0,-3.960098922E-1
7.496792473E1,3.110831231E-2,1.598127365E0,-1.331244588E0
7.501991802E1,7.977442145E-1,1.202897429E0,-1.290927529E0
7.507191145E1,1.382953167E0,6.812185645E-1,-1.797334671E0
7.512390474E1,1.594923377E0,-3.561344463E-3,-1.937222958E0
7.517589806E1,1.459311247E0,1.644266099E-1,-1.926227331E0
7.522789232E1,9.932210445E-1,5.162850022E-1,-1.962268472E0
7.527988571E1,8.142375350E-1,6.292950511E-1,-2.104600191E0
7.533187923E1,5.894391537E-1,6.311275959E-1,-2.288470507E0
7.538387246E1,3.670842052E-1,7.374182343E-1,-2.275031567E0
7.543586572E1,2.339155674E-1,7.453594208E-1,-2.814425230E0
7.548785905E1,-1.592831127E-2,-2.369118631E-1,-2.698971987E0
7.553985247E1,-4.807967544E-1,-1.250948071E0,-2.227994919E0
7.559184583E1,-1.168630958E0,-1.420768619E0,-1.593916655E0
7.564383982E1,-2.166785002E0,-3.412800312E0,-1.341629267E0
7.569583341E1,-2.243143082E0,-2.316907883E0,1.754588261E-2
7.574782680E1,-3.310935497E0,-4.907587528E0,1.337625742E0
7.579982012E1,-4.762351036E0,-5.341301918E0,2.071885824E0
7.585181385E1,-7.595544338E0,-2.652272940E0,2.047451019E0
7.590381224E1,-3.957841873E0,-6.347396851E0,5.984787345E-1
7.595580949E1,-3.233966351E0,2.713280022E-1,2.787819862E0
7.600780348E1,-2.601110220E0,-2.252767086E0,9.063547850E-1
7.605979684E1,-5.571548939E-1,-1.552104712E0,-3.544710279E-1
7.611179010E1,1.763522148E0,-5.863267779E-1,-1.871249557E0
7.616378346E1,2.921722651E0,1.300635934E0,-1.848036647E0
7.621577685E1,4.224698067E0,4.044031620E0,-1.868806005E0
7.626777011E1,3.566185474E0,4.285934448E0,-2.336117983E0
7.631976377E1,2.767173767E0,5.091054916E0,-2.253040314E0
7.637175776E1,2.419591427E0,6.205883980E0,-2.393539190E0
7.642375108E1,1.783680677E0,6.809419155E0,-1.900570989E0
7.647574454E1,1.620579720E0,6.190001488E0,9.857672453E-1
7.652773780E1,4.935332835E-1,9.106272697E0,1.906952024E0
7.657973113E1,-2.571177721E0,5.499723434E0,3.969844103E0
7.663172452E1,-5.963923454E0,-1.368845224E0,6.818308830E0
7.668371785E1,-4.225400925E0,-4.036493778E0,7.619763851E0
7.673571134E1,3.762471676E-1,6.918152809E0,5.694316387E0
7.678770556E1,3.179507732E0,-3.963189840E0,-5.325692177E0
7.683969891E1,2.202734470E0,1.280477405E0,-3.598165512E0
7.689169217E1,1.454424262E0,-6.022092700E-1,-2.807095051E0
7.694368576E1,5.045288801E-1,-1.942447662E0,-1.744800329E0
7.699568192E1,-8.129089326E-2,-4.550842285E0,-2.460381947E-2
7.704767611E1,1.490053087E-1,-5.992484570E0,2.415802717E0
7.709966951E1,6.951188445E-1,-7.057222366E0,4.096292973E0
7.715166303E1,1.703657389E0,-3.936922550E0,4.081632137E0
7.720365616E1,1.790400267E0,-8.477771282E-1,4.701660633E0
7.725564958E1,1.305984139E0,-6.962825060E-1,4.356521606E0
7.730764291E1,1.950187236E-2,-2.949440479E-1,2.190393448E0
7.735963630E1,-4.087146521E-1,9.322842360E-1,5.312835574E-1
7.741163062E1,-3.119994141E-2,1.064231038E0,-5.636881292E-2
7.746362388E1,2.791196108E-1,6.757208109E-1,-5.340654254E-1
7.751561720E1,3.786906302E-1,-8.969334513E-2,-8.712630868E-1
7.756761053E1,-9.228646755E-2,1.448789090E-1,-1.290316701E0
7.761960379E1,-5.033987761E-1,2.047436982E-1,-1.844982266E0
7.767159718E1,-7.880619764E-1,7.453594208E-1,-2.107654333E0
7.772359054E1,-4.026060104E-1,9.005192518E-1,-2.350167751E0
7.777558446E1,1.386205852E-1,1.527266979E0,-2.399037123E0
7.782757822E1,5.698914528E-1,3.238624334E-1,-2.775330067E0
7.787957164E1,8.728806376E-1,1.942655325E0,-2.420417309E0
7.793156490E1,8.307309151E-1,1.128982782E0,-2.386819839E0
7.798355836E1,7.268838286E-1,7.759026885E-1,-2.195008039E0
7.803555605E1,4.135099351E-1,6.708338857E-1,-1.110111356E0
7.808755394E1,7.081454992E-2,1.201064944E0,-4.302183390E-1
7.813954933E1,1.828014106E-2,1.248101592E0,-4.292977601E-2
7.819154252E1,4.898681045E-1,1.851960123E-1,7.750188112E-1
7.824353595E1,1.503904462E0,-1.296152234E0,1.535546064E0
7.829552918E1,1.587592959E0,-1.496515989E0,2.702909470E0
7.834752264E1,1.489854455E0,-2.613177776E0,3.395630598E0
7.839951600E1,-4.019951522E-1,-5.250282764E0,2.313487232E-1
7.845151011E1,4.203928947E0,5.858912468E0,-1.767402291E0
7.850350354E1,-1.055621028E0,2.377304286E-1,1.242941499E0
7.855549700E1,-1.453294158E0,4.543719769E0,4.750839472E-1
7.860749029E1,-1.434357405E0,2.004963636E0,-1.206017256E0
7.865948362E1,-2.181445599E0,6.091364622E-1,-2.631165743E0
7.871147691E1,-2.732445955E0,6.066930294E-1,-2.669650316E0
7.876347037E1,-3.674400091E0,-7.695863843E-1,-2.173627615E0
7.881546389E1,-4.482575417E0,1.585910082E0,2.557833195E-1
7.886745802E1,-3.831392527E0,2.414854288E0,5.057795048E0
7.891945127E1,-3.516797066E0,2.130190849E0,8.162212372E0
7.897144453E1,-1.131979108E0,5.923664093E0,7.008898258E0
7.902343803E1,6.309779882E-1,-4.955845833E0,-4.636636257E0
7.907543155E1,-5.418832898E-1,4.679331779E0,-4.750868320E0
7.912742884E1,4.379445910E-1,6.472221375E0,-3.014178276E0
7.917942683E1,6.383083463E-1,-4.220040143E-1,-2.522431850E0
7.923142129E1,3.420387208E-1,-2.076226950E0,-2.191953659E0
7.928341465E1,-8.739954233E-2,-2.465348482E0,-1.573758006E0
7.933540804E1,-4.911814630E-1,-2.740848303E0,-1.027033687E0
7.938740126E1,-9.041264057E-1,-3.954026937E0,1.663386123E-3
7.943939452E1,-1.229717493E0,-4.839170456E0,1.939938784E0
7.949138808E1,-5.736482739E-1,-7.566684246E0,3.889820576E0
7.954338141E1,8.264548182E-1,-9.973493576E0,4.005885124E0
7.959537556E1,1.536280274E0,-5.590534687E0,2.047451019E0
7.964736905E1,1.070190072E0,7.361964583E-1,1.460409522E0
7.969936228E1,7.696443796E-1,-1.636404157E0,3.492456973E-1
7.975135567E1,5.625610948E-1,-1.859369993E0,-3.251495063E-1
7.980334903E1,2.119244188E-1,-1.252169967E0,-9.280735254E-1
7.985534232E1,-1.112232879E-1,-1.287600040E0,-1.716700554E0
7.990733565E1,-5.614309907E-1,3.125797585E-2,-2.204170942E0
7.995932974E1,-7.679034472E-1,9.432798028E-1,-2.507160187E0
8.001132336E1,-8.711396456E-1,1.349505186E0,-2.648270130E0
8.006331662E1,-6.060240865E-1,1.694644094E0,-2.545644760E0
8.011531008E1,-4.013842642E-1,1.298803329E0,-2.301298618E0
8.016730347E1,-7.518224418E-2,8.656998873E-1,-2.000752926E0
8.021929916E1,2.552958429E-1,1.229775667E0,-1.654392362E0
8.027129398E1,4.202294648E-1,7.646200806E-2,-1.306809902E0
8.032328738E1,6.572451591E-1,6.903815866E-1,-1.056355238E0
8.037528064E1,9.070890546E-1,1.099050403E0,-9.091367126E-1
8.042727413E1,1.036592484E0,6.763316393E-1,-8.211721182E-1
8.047926749E1,1.103176713E0,6.463993192E-1,-4.418247640E-1
8.053126071E1,1.055529356E0,7.410833836E-1,-1.357813030E-1
8.058325444E1,7.696443796E-1,3.440209627E-1,1.610992104E-1
8.063524849E1,4.342793822E-1,-2.253054380E-1,4.274364710E-1
8.068724182E1,-7.987063378E-3,-1.458929479E-1,7.725753188E-1
8.073923507E1,-2.682156563E-1,-5.484531522E-1,6.968280673E-1
8.079122840E1,-5.235573053E-1,-7.469843626E-1,3.138155341E-1
8.084322179E1,-6.432869434E-1,-2.576812804E-1,-8.468284011E-1
8.089521512E1,-8.980177045E-1,4.350398779E-1,-1.983648658E0
8.094720851E1,-8.350986242E-1,3.385231793E-1,-3.084427834E0
8.099920220E1,-1.300577879E0,1.118598104E0,-3.882217884E0
8.105119599E1,-1.962144971E0,3.654012680E-1,-1.835208416E0
8.110318945E1,-1.863795638E0,3.147281408E0,1.603352070E0
8.115518277E1,-2.417239428E0,-3.941198826E0,-2.563359976E0
8.120518643E1,-2.877221107E0,-1.196369267E1,-5.753297806E0
8.125718278E1,-1.777663708E0,8.891246796E0,-5.183361053E0
8.130918153E1,-7.935597301E-1,3.635686636E-1,-6.439299583E0
8.136117649E1,-1.172296286E0,1.202286601E0,-3.670247555E0
8.141316988E1,-1.045236230E0,1.187625885E0,-1.841928005E0
8.146516318E1,-1.382433891E0,-4.953078628E-1,-4.222770929E-1
8.151715647E1,-1.348225474E0,-7.976861596E-1,7.676883936E-1
8.156915000E1,-1.295080066E0,9.261755347E-1,1.089003563E0
8.162114332E1,-1.449629068E0,1.585910082E0,1.928332448E0
8.167313655E1,-1.765446424E0,3.181489944E0,2.705963850E0
8.172513044E1,-2.379365921E0,4.894967079E0,3.845838308E0
8.177712416E1,-5.028688431E0,9.457519531E0,5.983255863E0
8.182911745E1,-9.809320450E0,-3.157134652E-1,9.485957146E0
8.188111084E1,-7.609594345E0,-5.847098351E0,8.622193336E0
8.193310427E1,-2.163730383E0,4.321975708E0,5.514111519E0
8.198509746E1,2.261988163E0,-9.662849903E-1,-7.365982533E0
8.203709089E1,2.086669922E0,9.877691045E-3,-4.294551849E0
8.208908421E1,1.568045259E0,-1.144046783E0,-4.118622780E0
8.214107817E1,9.382432103E-1,-2.987027168E0,-1.615296841E0
8.219307182E1,-4.190993607E-1,-3.889885902E0,1.669936419E0
8.224506521E1,-8.173834682E-1,-9.071855545E0,4.805507660E0
8.229705847E1,2.161195278E0,-8.636308670E0,4.624080658E0
8.234905363E1,2.821540833E0,-5.136662006E0,4.562994003E0
8.240104919E1,1.858817101E0,-2.285753965E0,2.591121197E0
8.245304248E1,1.587791443E-1,8.766955137E-1,1.016310573E0
8.250503594E1,-7.715685964E-1,2.398360729E0,-3.837925792E-1
8.255702923E1,-1.155802846E0,1.172354221E0,-1.523667097E0
8.260902256E1,-1.137476921E0,6.250189543E-1,-2.381321907E0
8.266101585E1,-1.033018947E0,1.124706745E0,-2.604287863E0
8.271300921E1,-4.398688078E-1,1.205340981E0,-2.326954842E0
8.276500323E1,1.661095321E-1,7.313095927E-1,-1.817493320E0
8.281699682E1,3.493691087E-1,-5.295162797E-1,-1.261605978E0
8.286899021E1,2.895042896E-1,-9.931630492E-1,-8.419415355E-1
8.292098357E1,3.298214078E-1,-1.063412547E0,-6.308832765E-2
8.297297686E1,2.278069109E-1,-1.060969114E0,3.797889650E-1
8.302497029E1,2.194533311E-2,-8.899267912E-1,9.491153359E-1
8.307696355E1,-1.533729881E-1,-6.724588275E-1,9.393415451E-1
8.312895681E1,-1.203862652E-1,-9.424612522E-1,1.064568996E0
8.318095116E1,2.204765379E-1,8.684670925E-2,8.599290848E-1
8.323294455E1,6.138737798E-1,3.269167542E-1,9.686630964E-1
8.328493798E1,9.755060077E-1,-1.025215164E-1,7.872360945E-1
8.333693127E1,9.498496652E-1,-3.096048236E-1,1.348320097E-1
8.338892672E1,5.191896558E-1,4.649722874E-1,-9.250191450E-1
8.344092551E1,1.648878008E-1,7.233682871E-1,-1.786339283E0
8.349292117E1,3.890753388E-1,1.994578838E0,-2.184012413E0
8.354491456E1,4.012926519E-1,2.619493961E0,-2.711189270E0
8.359690796E1,1.563356966E-1,1.919442534E0,-2.595124722E0
8.364890122E1,-5.278334022E-1,1.232829928E0,-1.358733535E0
8.370089467E1,-1.434968233E0,5.126197934E-1,1.263100147E0
8.375288787E1,-1.904723644E0,-5.610693455E0,9.320111871E-1
8.380488133E1,-3.321320057E0,-3.478162766E0,-1.149206758E0
8.385687492E1,-2.161287069E0,-1.199024677E0,-2.449127913E0
8.390886877E1,-2.067824602E0,1.624394536E0,-1.698374629E0
8.396086233E1,-1.604788780E0,3.867815435E-1,-2.397815228E0
8.401285565E1,-1.219943762E0,2.796644926E0,-2.540757895E0
8.406484891E1,-8.479267359E-1,2.137521267E0,-2.849244595E0
8.411684244E1,-6.261826754E-1,4.124666214E0,-2.293357372E0
8.416883563E1,-4.490317702E-1,3.737988234E0,-1.769845843E0
8.422082899E1,-9.045387059E-2,2.435012579E0,-3.489732742E-1
8.427282258E1,-7.825642228E-1,2.807640553E0,-3.019366562E-1
8.432481663E1,-1.637775540E0,3.731268883E0,4.341559708E-1
8.437680996E1,-2.725115776E0,8.908963203E0,2.253923655E0
8.442880339E1,-6.193608284E0,9.218994975E-1,7.967346191E0
8.448079784E1,-8.398832321E0,-6.290873289E-1,8.927015305E0
8.453279387E1,-2.210156202E0,2.807029486E0,4.646682739E0
8.458478729E1,3.648652315E0,1.500388861E0,-4.764917850E0
8.463678062E1,2.351174593E0,2.860174894E0,-3.388638735E0
8.468877401E1,5.228548646E-1,1.086222291E0,-2.053287268E0
8.474076730E1,1.654986739E-1,-1.579593658E0,-2.509603500E0
8.479276063E1,3.707493842E-1,-2.275369167E0,-2.238990307E0
8.484475396E1,2.027614415E-1,-3.658978939E0,-1.603690386E0
8.489674758E1,-3.242167458E-2,-5.199581146E0,-3.257603645E-1
8.494874177E1,-2.132377923E-1,-5.765242100E0,1.219117761E0
8.500073499E1,7.928572893E-1,-8.027887344E0,3.173886776E0
8.505272855E1,2.399432898E0,-8.731603622E0,3.923418283E0
8.510472174E1,3.026180744E0,-5.724925518E0,3.495812416E0
8.515671504E1,1.952279568E0,-3.032842159E0,2.355327129E0
8.520870856E1,-3.561802804E-1,2.322326303E-1,9.509480000E-1
8.526070169E1,-1.772776723E0,2.307341814E0,-9.262409210E-1
8.531269574E1,-1.863795638E0,1.824147463E0,-1.598803639E0
8.536468950E1,-1.293247581E0,1.125317574E0,-1.516947627E0
8.541668262E1,-6.414543390E-1,1.521158338E0,-1.665998816E0
8.546867611E1,1.257924289E-1,1.279866576E0,-1.670274734E0
8.552067057E1,5.625610948E-1,9.573296905E-1,-1.758850217E0
8.557266929E1,6.737385392E-1,2.933191657E-1,-1.722198367E0
8.562466622E1,8.569980860E-1,2.933191657E-1,-1.200519443E0
8.567666038E1,7.439880371E-1,2.688845396E-1,-8.077331185E-1
8.572865380E1,5.729457736E-1,-2.411879301E-1,-4.723680317E-1
8.578064690E1,3.585320711E-1,3.146994710E-1,-6.186660007E-2
8.583264038E1,2.687349021E-1,-1.355082393E-1,5.966461301E-1
8.588463361E1,7.226077914E-1,-1.263165474E0,4.146082997E-1
8.593662720E1,7.226077914E-1,-1.773237944E0,-8.071221709E-1
8.598862132E1,3.866319060E-1,9.539882839E-2,-8.700413108E-1
8.604061408E1,2.644588351E-1,-1.741473079E0,-3.013257682E-1
8.609260711E1,1.151435137E0,-2.935103655E0,1.910006523E0
8.614460034E1,1.929066658E0,-2.773835182E0,3.740158796E0
8.619659390E1,1.451370001E0,-2.239328146E0,6.280746937E0
8.624858719E1,-3.756256104E0,-1.730477452E0,-1.522445440E0
8.630058052E1,-2.744663239E0,-5.264332771E0,8.031185865E-1
8.635257388E1,-1.577910781E0,2.146073580E0,2.537975788E0
8.640456904E1,-2.125246048E0,-1.907628298E0,3.539184093E0
8.645656260E1,-2.139295816E0,-2.889899731E0,3.361422062E0
8.650855586E1,-3.034213305E0,1.738015532E0,4.414863586E-1
8.656054915E1,-2.021399021E0,1.632335782E0,-1.523667097E0
8.661254344E1,-1.309129953E0,4.209576130E0,-3.458277225E0
8.666454213E1,-1.129535675E0,6.932202816E0,-4.292108536E0
8.671653889E1,-9.737650156E-1,5.999411583E0,-4.488807201E0
8.676853251E1,-1.117929220E0,7.913252354E0,-3.363593340E0
8.682052581E1,-1.427026987E0,7.345758438E0,-2.149193048E0
8.687251927E1,-1.545534968E0,1.056990528E1,-1.412790865E-1
8.692451246E1,-3.568109512E0,1.005005836E1,3.182438612E0
8.697650625E1,-7.406176090E0,-8.703791499E-1,5.547098160E0
8.702849871E1,-4.502733231E0,-1.413438320E0,6.921545029E0
8.708049160E1,-1.796600461E0,9.778835297E0,5.467074871E0
8.713248582E1,4.090918541E0,-6.233165264E0,-3.147346973E0
8.718447918E1,1.687163949E0,-4.552063942E0,-4.540119648E0
8.723647267E1,-5.681505203E-1,4.667114258E0,-7.661942244E-1
8.728846583E1,-7.324732542E-1,8.027807474E-1,-1.775343657E0
8.734045929E1,-9.212306142E-1,-2.373107672E0,-1.983037829E0
8.739245374E1,-1.088607669E0,-5.100010395E0,-1.907901406E0
8.744444683E1,-1.107544541E0,-5.482411385E0,-5.004678369E-1
8.749644046E1,-2.083508670E-1,-5.434153557E0,1.299141169E0
8.754843458E1,6.395300627E-1,-6.564253807E0,2.906327724E0
8.760042784E1,2.053683043E0,-7.151295185E0,3.358978748E0
8.765242110E1,2.893622875E0,-5.821442127E0,3.018726826E0
8.770441529E1,3.105592966E0,-3.255197048E0,2.354105473E0
8.775641151E1,2.213118792E0,-2.194123983E0,2.264919281E0
8.780840533E1,7.800291181E-1,-7.268258333E-1,1.138483644E0
8.786039853E1,-7.275863290E-1,7.313095927E-1,-3.275929987E-1
8.791239209E1,-1.169241905E0,1.318961859E0,-1.226786613E0
8.796438501E1,-1.014082074E0,1.356835604E0,-2.022133112E0
8.801637827E1,-6.811605692E-1,6.207429171E-1,-2.654378653E0
8.806837087E1,-8.302116990E-1,7.129836082E-1,-2.969585180E0
8.812036476E1,-6.188523173E-1,9.261755347E-1,-2.855353355E0
8.817235851E1,-7.428579926E-1,6.506753564E-1,-2.658654690E0
8.822435210E1,-6.970430017E-1,4.344290495E-1,-1.835819244E0
8.827634543E1,-4.398688078E-1,1.143356487E-1,-1.554821253E0
8.832833911E1,-4.282623529E-1,8.046134114E-1,-1.761293650E0
8.838033290E1,1.400408521E-2,9.054061174E-1,-2.722184896E0
8.843232623E1,5.161353350E-1,1.975031137E0,-2.599400997E0
8.848426555E1,5.326286554E-1,1.667765975E0,-2.376435041E0
8.853625967E1,2.925586104E-1,2.381256580E0,-1.334909797E0
8.858825322E1,-1.209971309E-1,1.168078303E0,-5.267350674E-1
8.864024665E1,-2.230116278E-1,-2.184961081E0,5.328577477E-3
8.869223984E1,-2.847090065E-1,-4.033439636E0,9.045222402E-1
8.874423376E1,-2.700482607E-1,-3.098204613E0,1.772561789E0
8.879623232E1,-6.127436757E-1,-4.509913921E0,1.101220846E0
8.884822941E1,-3.682952404E0,-3.263138294E0,1.042887494E-1
8.890022327E1,-2.359207392E0,5.944756866E-1,7.255386710E-1
8.895221656E1,-1.676870942E0,-4.472651482E0,-1.217313930E-1
8.900420985E1,-1.873569608E0,9.243429303E-1,-6.003400311E-2
8.905620331E1,-1.251097798E0,3.633530378E0,-1.948218465E0
8.910819657E1,-7.740120888E-1,3.621923923E0,-1.531608343E0
8.916018990E1,-7.324732542E-1,5.825925827E0,-4.100597799E-1
8.921218329E1,-1.383655667E0,7.204648495E0,1.076175332E0
8.926417721E1,-1.299967051E0,1.134203911E1,2.792095900E0
8.931617090E1,-3.764808416E0,2.273133516E0,6.299684048E0
8.936816429E1,-3.243740320E0,-1.952832341E0,7.471934795E0
8.942015755E1,-3.183875561E0,2.431958437E0,4.655234814E0
8.947215098E1,2.120267391E0,4.569375992E0,-8.413306475E-1
8.952414434E1,3.469668627E0,-3.289405584E0,-3.568233252E0
8.957613760E1,2.221671104E0,-2.737183332E0,-4.952453613E0
8.962813092E1,1.520397782E0,-1.195970297E0,-3.291511297E0
8.968012507E1,1.737254858E0,-1.944891095E0,-1.431426525E0
8.973211870E1,7.702552676E-1,-4.220974922E0,6.681173444E-1
8.978411192E1,2.760652900E-1,-6.992470741E0,3.354091883E0
8.983610565E1,1.061637998E0,-1.016224957E1,4.762136459E0
8.988810180E1,2.549705744E0,-5.514787674E0,3.724276066E0
8.994009586E1,1.080574870E0,2.010785043E-1,3.097528458E0
8.999208932E1,-4.050494730E-1,7.270334959E-1,1.680321097E0
9.004408265E1,-1.033629775E0,1.331790090E0,4.854686558E-1
9.009607591E1,-1.106322765E0,1.664711714E0,-1.846505105E-1
9.014806930E1,-5.504354239E-1,1.138756752E0,-7.576420903E-1
9.020006263E1,1.294576079E-1,8.889127970E-1,-9.879382849E-1
9.025205615E1,7.256621122E-1,5.291131735E-1,-9.451777339E-1
9.030405040E1,1.174037218E0,1.198334321E-1,-8.914216161E-1
9.035604363E1,1.461143851E0,-3.639718294E-1,-5.975953937E-1
9.040803702E1,1.396392107E0,-1.155042410E0,-4.424356520E-1
9.046003038E1,1.099511623E0,-1.097010136E0,-2.958280146E-1
9.051202367E1,5.967695117E-1,-6.525873393E-2,-2.720042467E-1
9.056401713E1,2.039831728E-1,1.334233522E0,-4.644267857E-1
9.061601056E1,3.267670870E-1,4.044966400E-1,-3.428646326E-1
9.066800425E1,6.212041378E-1,9.365602136E-1,-6.189756989E-1
9.071999804E1,4.220620692E-1,1.325681448E0,-9.488429427E-1
9.077199136E1,3.249345124E-1,1.234662533E0,-1.295203447E0
9.082398465E1,2.559067309E-1,1.627448797E0,-1.720365763E0
9.087597814E1,9.586003423E-2,8.840258718E-1,-1.738691688E0
9.092797600E1,-6.390108466E-1,-3.737457097E-1,-1.250610352E0
9.097997386E1,-1.051955819E0,-1.574095964E0,1.635426730E-1
9.103196898E1,-1.052566648E0,-1.505679011E0,1.742629409E0
9.108396241E1,-2.827130079E0,-5.061525345E0,1.571328565E-2
9.113595574E1,-6.847845078E0,5.614889860E-1,-1.448530793E0
9.118794920E1,-2.738554716E0,-2.338899136E0,-1.227397442E0
9.123994236E1,-3.689671993E0,-7.827523232E0,-6.782296300E-1
9.129193571E1,-2.657309532E0,-7.280475497E-1,-8.956976533E-1
9.134392967E1,-1.562639117E0,7.001553774E-1,-2.384376287E0
9.139592342E1,-6.145762205E-1,3.520520210E0,-1.424706936E0
9.144791685E1,3.609755635E-1,3.917582750E0,-4.479334354E-1
9.149991004E1,1.832137555E-1,4.113059521E0,6.479588151E-1
9.155190340E1,-4.264297485E-1,5.044629097E0,1.968038559E0
9.160389676E1,-1.089829445E0,7.367138863E0,3.338209391E0
9.165589005E1,-2.859506130E0,1.086067677E1,4.902024269E0
9.170788348E1,-5.193622112E0,-6.400829554E-1,8.276444435E0
9.175987730E1,-4.213794231E0,-1.329138875E0,9.525053024E0
9.181187112E1,-4.899597466E-1,6.949306488E0,5.313136578E0
9.186386432E1,3.010298014E0,4.344290495E-1,-5.187636852E0
9.191585774E1,3.401252031E0,-2.776278734E0,-4.640301704E0
9.196785123E1,1.607751489E0,-9.436829686E-1,-3.246307135E0
9.201984889E1,1.131887436E0,-2.184350252E0,-2.075278521E0
9.207184674E1,4.532161951E-1,-3.712735176E0,1.775925756E-1
9.212384103E1,-4.612490833E-1,-3.739002228E0,2.076772690E0
9.217583436E1,3.538436815E-2,-5.880084991E0,3.682737350E0
9.222782772E1,9.357997179E-1,-6.523937225E0,3.705950260E0
9.227982098E1,1.034149051E0,-2.696866274E0,2.862956285E0
9.233181437E1,-1.142776161E-1,-2.982855029E-2,1.925888896E0
9.238380783E1,-1.317071319E0,7.190922499E-1,-2.032776177E-2
9.243580109E1,-1.682979584E0,2.780475318E-1,-7.338183522E-1
9.248779524E1,-1.760559440E0,2.175718695E-1,-1.574368954E0
9.253978877E1,-1.391596794E0,9.982576370E-1,-1.428982973E0
9.259178209E1,-4.239862859E-1,1.196177959E0,-1.569482088E0
9.264377565E1,6.279236674E-1,7.661288381E-1,-1.289705634E0
9.269576894E1,1.295599341E0,6.485556066E-2,-7.875745296E-1
9.274776207E1,1.590647340E0,4.026640356E-1,-2.720042467E-1
9.279975540E1,1.377455354E0,-4.326758534E-2,2.118010223E-1
9.285174909E1,8.545547128E-1,-1.195970297E0,6.137503386E-1
9.290374314E1,4.813160002E-1,-2.863919735E-1,1.057238579E0
9.295573637E1,1.990962476E-1,-6.064853668E-1,1.037690759E0
9.300772983E1,3.096628785E-1,-5.264619589E-1,1.623510599E0
9.305972325E1,4.764290750E-1,4.900177717E-1,1.132985830E0
9.311171904E1,4.080121815E-1,2.951517701E-1,-3.263712525E-1
9.316371383E1,6.230367422E-1,1.684259295E0,-8.492718935E-1
9.321570722E1,6.144846082E-1,9.481666684E-1,-9.384582639E-1
9.326770055E1,3.786906302E-1,4.655831456E-1,-7.912396789E-1
9.331969384E1,1.709964573E-1,1.411813498E0,-1.315052360E-1
9.337168713E1,-2.584418058E-1,6.366254091E-1,4.292690456E-1
9.342368049E1,8.425358683E-2,-4.116193354E-1,2.032489181E-1
9.347567392E1,1.357907534E0,-4.052987099E0,-2.206915617E-1
9.352766804E1,-1.053788304E0,-2.481841564E0,-5.707173347E-1
9.357966153E1,5.588958859E-1,6.551633835E0,-1.369118214E0
9.363165492E1,-6.976539493E-1,-3.203273535E0,-3.648557663E-1
9.368364818E1,-1.246821761E0,7.288661003E-1,2.670533657E0
9.373564151E1,1.673725009E0,-3.963189840E0,1.629318148E-1
9.378763490E1,2.293142319E0,-2.778722286E0,5.032749653E0
9.383962829E1,-8.497593999E-1,-8.247187614E0,4.379734516E0
9.389162188E1,-5.296247482E0,-3.518480062E0,4.115230083E0
9.394361587E1,-1.954203725E0,-1.263452619E-1,-2.200807035E-1
9.399560923E1,-1.378157854E0,2.784427643E0,-1.433259010E0
9.404760246E1,-1.596236706E0,3.419727564E0,-3.518141985E0
9.409959582E1,-2.861338615E0,7.860717773E0,-5.110057354E0
9.415159267E1,-2.398913622E0,2.332387447E0,-4.226745605E0
9.420359102E1,-2.824686766E0,5.307301044E0,-3.632374048E0
9.425558605E1,-2.438009024E0,6.292626858E0,-2.660487413E0
9.430757921E1,-1.401981592E0,1.124552250E1,5.263966322E-1
9.435957253E1,-3.747704029E0,5.161914825E0,6.465228558E0
9.441156599E1,-5.009140491E0,-2.859967232E0,7.723610878E0
9.446355915E1,-2.333550930E0,6.533918381E0,7.121297836E0
9.451555251E1,2.908894539E0,-3.867894888E0,-5.879746914E0
9.456754587E1,2.973646164E0,1.137247831E-1,-6.058730602E0
9.461953953E1,1.626077533E0,2.224587947E-1,-4.237130165E0
9.467153365E1,9.150303602E-1,-1.796450853E0,-3.333660841E0
9.472352684E1,4.086230397E-1,-3.368206978E0,-1.434480786E0
9.477552023E1,-2.547766268E-1,-4.860550880E0,9.320111871E-1
9.482751359E1,-2.547766268E-1,-6.426809788E0,2.957640409E0
9.487950688E1,9.015913010E-1,-6.197734833E0,3.975341797E0
9.493150018E1,1.725648522E0,-2.698698759E0,4.124392986E0
9.498349370E1,1.798341393E0,-1.563100338E0,3.690067530E0
9.503548729E1,1.233901978E0,-1.198413849E0,2.192837000E0
9.508748131E1,4.886463881E-1,-2.766180933E-1,9.784368873E-1
9.513947454E1,1.606117338E-1,6.729902327E-2,-3.834401025E-3
9.519146786E1,-7.376197726E-3,6.286842227E-1,-6.580711007E-1
9.524346318E1,-6.846272200E-2,5.315566659E-1,-1.235949636E0
9.529545858E1,-1.319927126E-1,-8.233425021E-1,-1.523667097E0
9.534745204E1,-1.698663533E-1,1.656483263E-1,-1.446698070E0
9.539944540E1,2.033723146E-1,-3.395372331E-1,-1.195021629E0
9.545143849E1,3.294090554E-2,-6.950607896E-1,-9.048606753E-1
9.550343188E1,-1.216080040E-1,-7.317126989E-1,-9.946578145E-1
9.555542557E1,-4.862945676E-1,-7.121650577E-1,-8.230047226E-1
9.560741893E1,-8.363203406E-1,3.018712699E-1,-4.974135160E-1
9.565941275E1,-7.868402600E-1,3.342471421E-1,-2.530674338E-1
9.571140634E1,-7.862293720E-1,2.859887779E-1,-5.453621596E-2
9.576336091E1,-6.939886808E-1,-3.471547365E-2,3.290871680E-1
9.581535417E1,-3.506824672E-1,3.556274176E-1,7.017149925E-1
9.586734753E1,-2.083508670E-1,2.896539569E-1,8.073946238E-1
9.591934086E1,-3.427412212E-1,1.503443241E0,5.997004509E-1
9.597133409E1,-5.437158942E-1,1.058733225E0,-3.804285452E-2
9.602332764E1,-5.058422089E-1,-1.979710460E0,-7.747463584E-1
9.607532183E1,-2.633287311E-1,-1.860591650E0,-1.109500527E0
9.612731519E1,-2.040748149E-1,1.128371954E0,-1.067350864E0
9.617930855E1,2.683225647E-2,4.539767206E-1,-1.278099298E0
9.623130187E1,-1.888031811E-1,1.499778032E0,-8.730956316E-1
9.628329769E1,-6.261826754E-1,-1.394501448E0,-7.680267692E-1
9.633529632E1,-5.205029845E-1,-2.648607969E0,-1.980895549E-1
9.638729264E1,-7.410253286E-1,-3.632711649E0,4.323233962E-1
9.643928617E1,-2.984122515E0,-1.717649221E0,-7.252662182E-1
9.649127963E1,-1.722685814E0,4.640236378E0,-3.308004379E0
9.654327289E1,-1.201617837E0,-3.578631878E-1,-3.789366245E0
9.659526622E1,-9.193980098E-1,2.442342997E0,-1.586586356E0
9.664725961E1,1.667204052E-1,2.800920963E0,-1.923783779E0
9.669925313E1,-8.862127364E-2,3.590769768E0,-9.977121353E-1
9.675124725E1,-9.517738819E-1,4.373288155E0,5.037946105E-1
9.680324058E1,-9.236740470E-1,8.607805252E0,2.070664167E0
9.685523394E1,-2.070268154E0,7.203426838E0,4.615528584E0
9.690722723E1,-5.323736191E0,1.364776850E0,7.966124535E0
9.695922065E1,-3.729989052E0,-4.101856232E0,8.564772606E0
9.701121401E1,2.549094915E0,5.946877003E0,5.708977699E0
9.706320727E1,3.725010395E0,-5.862370014E0,-6.315904617E0
9.711520116E1,1.455646157E0,2.485714674E0,-2.773497343E0
9.716719498E1,-4.343709946E-1,4.173248112E-1,4.146082997E-1
9.721918831E1,-9.236740470E-1,-2.912788689E-1,-8.639326692E-1
9.727118163E1,-9.432217479E-1,-6.810109019E-1,-1.174252152E0
9.732317496E1,-1.008584380E0,-2.347451210E0,-1.501676083E0
9.737517055E1,-1.146639943E0,-3.422574282E0,-9.286844134E-1
9.742716944E1,-1.307297468E0,-3.368206978E0,-1.241748556E-1
9.747916496E1,-1.585241079E0,-4.285726547E0,1.305249929E0
9.753115839E1,-1.128924847E0,-5.463475227E0,1.961929917E0
9.758315165E1,-5.131726265E-1,-3.771989107E0,3.358367920E0
9.763514497E1,-1.466534734E-1,-2.437859297E0,4.312539577E0
9.768713830E1,1.175915590E-3,-2.765893936E0,4.081021309E0
9.773913169E1,-6.479752809E-2,-2.437248468E0,2.798815489E0
9.779112498E1,2.438879572E-2,-5.069143176E-1,1.241719842E0
9.784311874E1,2.377793007E-2,4.069401026E-1,3.144263923E-1
9.789511259E1,1.673312634E-1,-4.244475067E-1,-1.956460923E-1
9.794710605E1,3.904956207E-2,-1.544450521E-1,-8.926433325E-1
9.799909938E1,-1.161102131E-1,4.185465276E-1,-1.549323440E0
9.805109257E1,-2.657721937E-1,4.209899902E-1,-1.780230641E0
9.810308606E1,-2.364506721E-1,8.608129621E-1,-1.722809196E0
9.815507946E1,-3.242167458E-2,6.195212007E-1,-1.488236904E0
9.820707275E1,-3.975205496E-2,3.409666419E-1,-1.432648182E0
9.825906657E1,2.259743214E-1,-4.494929910E-1,-1.101559162E0
9.831106026E1,2.143678963E-1,-1.959839016E-1,-1.486404300E0
9.836305365E1,4.074012935E-1,-1.190148741E-1,-2.279307365E0
9.841504708E1,9.229715466E-1,2.497321129E0,-2.733180523E0
9.846704163E1,1.056140184E0,1.559031963E0,-3.175446749E0
9.851903762E1,1.163652420E0,2.505262136E0,-2.745397806E0
9.857103105E1,1.072633505E0,1.209617019E0,-2.288470507E0
9.862302434E1,1.104398608E0,-4.934752882E-1,-1.617740393E0
9.867501770E1,9.846689701E-1,7.434229832E-3,-8.321676850E-1
9.872701099E1,1.007881880E0,2.235870600E0,3.846758902E-1
9.877900439E1,1.987709761E0,-2.099439859E0,2.168402433E0
9.883099765E1,1.547275901E0,-5.556937695E0,2.484529465E-1
9.888299187E1,6.786666870E0,7.624636889E-1,1.348010421E0
9.893498536E1,2.081172228E0,-8.893159628E-1,5.019921303E0
9.898697872E1,1.028040409E0,2.191277504E0,2.002857924E0
9.903897208E1,-2.437810451E-1,3.538235426E0,-9.482320547E-1
9.909096540E1,-1.144807220E0,2.833907604E0,-3.202324629E0
9.914295866E1,-8.302116990E-1,1.552312374E0,-3.974458456E0
9.919495209E1,-1.461846352E0,9.719904661E-1,-4.466205120E0
9.924694535E1,-2.230925798E0,2.629878759E0,-4.315932274E0
9.929893937E1,-1.889451981E0,2.235870600E0,-1.039861798E0
9.935093302E1,-1.019579887E0,6.506753564E-1,5.125601292E0
9.940292641E1,-1.354334116E0,-4.024563730E-1,6.777991772E0
9.945491971E1,-6.976539493E-1,5.430696011E0,5.419427395E0
9.950691449E1,1.326142550E0,-1.444592357E0,-3.341602087E0
9.955891335E1,1.580873370E0,1.994578838E0,-5.420376301E0
9.961090967E1,7.203628868E-2,1.675707221E0,-5.587753296E0
9.966290320E1,-1.031186342E0,-1.033480048E0,-2.516323328E0
9.971489633E1,-1.459402800E0,-2.983361959E0,-2.091160774E0
9.976688972E1,-1.624336600E0,-4.849555016E0,-9.665580392E-1
9.981888314E1,-1.362275243E0,-7.019959450E0,1.386494875E0
9.987087644E1,-1.906357706E-1,-8.663187027E0,2.848295450E0
9.992286973E1,5.088049173E-1,-4.319324017E0,3.277733564E0
9.997486342E1,3.512016833E-1,-3.209992886E0,3.164723635E0
1.000268575E2,-1.222188622E-1,-1.469637990E0,2.225212812E0
1.000788507E2,-1.271057874E-1,2.204105616E0,7.835709453E-1
1.001308441E2,6.187607050E-1,1.238938570E0,5.807636380E-1
1.001828375E2,1.507569551E0,-4.403299987E-1,4.747828096E-2
1.002348307E2,1.968161941E0,-7.991950214E-2,-4.729789197E-1
1.002868242E2,2.245494843E0,-7.365996242E-1,-7.997918129E-1
1.003388175E2,2.257712126E0,-1.732920885E0,-9.128018618E-1
1.003908110E2,1.635240436E0,-2.131815910E0,-1.246945143E0
1.004428052E2,8.227896690E-1,-1.516674519E0,-9.134128094E-1
1.004947984E2,-1.741424054E-1,-3.254873455E-1,-5.407849550E-1
1.005467918E2,-3.360216916E-1,6.995445490E-1,-6.916686296E-1
1.005987860E2,-1.625359654E-1,7.105401158E-1,-6.531841159E-1
1.006507821E2,1.428966522E-1,-4.421626031E-1,-1.256718993E0
1.007027758E2,-5.284442902E-1,1.146087050E0,-3.162007809E0
1.007547692E2,-3.299130499E-1,3.238300562E0,-4.044096947E0
1.008067624E2,-6.765332539E-3,2.488768816E0,-3.779592514E0
1.008587559E2,-1.020603105E-1,2.373926163E0,-2.829086065E0
1.009107491E2,-3.677866757E-1,1.145476222E0,-1.677605271E0
1.009627425E2,-5.431050658E-1,-7.659211159E-1,-1.058489010E-1
1.010147359E2,-3.751170635E-1,-3.038950682E0,9.411741495E-1
1.010667300E2,-4.954575300E-1,-4.439053535E0,1.461631298E0
1.011187236E2,-1.770944238E0,-5.335803986E0,2.226434469E0
1.011707168E2,-5.158802509E0,-1.615023851E0,1.291810751E0
1.012227101E2,-2.007349014E0,-4.948515415E0,8.513769507E-1
1.012747035E2,-1.738568306E0,-2.781165600E0,2.191004276E0
1.013266968E2,-7.404145002E-1,-2.135480881E0,1.643058300E0
1.013786903E2,3.194366992E-1,2.731606066E-1,8.306075335E-1
1.014306841E2,5.320178270E-1,2.613385201E0,-1.860253930E0
1.014826778E2,8.179027438E-1,4.410550594E0,-3.063047647E0
1.015346712E2,7.110013366E-1,7.720218658E0,-2.829086065E0
1.015866645E2,3.658624589E-1,7.416618824E0,-1.626292467E0
1.016386586E2,-7.972249985E-1,7.276730537E0,1.220038384E-1
1.016906575E2,-2.925479412E0,7.738544941E0,3.296670437E0
1.017426545E2,-5.817926407E0,-1.206354976E0,6.627718925E0
1.017946489E2,-5.091607571E0,-2.644008100E-1,8.024767876E0
1.018466422E2,-3.247405529E0,1.152285480E1,5.248384953E0
1.018986355E2,3.687136650E0,-2.769559145E0,-4.123509884E0
1.019506289E2,2.414093733E0,-5.103675365E0,-5.810108185E0
1.020026220E2,7.513183951E-1,9.909272194E-1,-2.700193644E0
1.020546156E2,5.527872443E-1,-8.062382936E-1,-2.717908621E0
1.021066095E2,1.856572330E-1,-3.196553946E0,-8.511044979E-1
1.021586032E2,-2.883742154E-1,-5.522728920E0,8.764224052E-1
1.022105965E2,4.831486046E-1,-6.807378292E0,2.720013618E0
1.022625899E2,1.833771586E0,-7.688857079E0,3.445110798E0
1.023145832E2,2.775115013E0,-6.924053669E0,3.323548555E0
1.023665766E2,2.126376152E0,-3.422574282E0,2.464672089E0
1.024185700E2,6.004347205E-1,-1.385625601E-1,1.311969399E0
1.024705633E2,-3.519042134E-1,1.610955477E0,3.419153094E-1
1.025225575E2,-5.052313805E-1,1.778332472E0,-1.919808984E-1
1.025745509E2,-1.326035708E-1,1.190069318E0,-6.220300198E-1
1.026265442E2,2.058157623E-1,4.313747287E-1,-9.018063545E-1
1.026785376E2,2.803413272E-1,1.717569828E-1,-1.336131454E0
1.027305315E2,2.369698882E-1,4.958393052E-2,-1.468078375E0
1.027825301E2,1.636660695E-1,3.586817384E-1,-1.588418841E0
1.028345272E2,3.477350250E-2,4.350398779E-1,-1.603690386E0
1.028865209E2,-1.216080040E-1,1.375485212E-1,-1.268936276E0
1.029385142E2,-2.908176482E-1,2.157392800E-1,-9.885491729E-1
1.029905077E2,-2.187355608E-1,3.617360890E-1,-3.764621913E-1
1.030405236E2,-1.240514591E-1,-4.501038492E-1,-8.752293885E-2
1.030925169E2,-8.434522152E-2,-9.198591709E-1,-7.225131243E-2
1.031445101E2,2.650696933E-1,2.511694729E-1,-2.225241512E-1
1.031965039E2,5.607284307E-1,1.132648110E0,-1.754875332E-1
1.032484979E2,7.470423579E-1,2.340652347E-1,-4.231891409E-2
1.033004912E2,7.726987600E-1,4.912394881E-1,-2.811672390E-1
1.033524846E2,8.007985353E-1,3.370143473E-2,-2.457370460E-1
1.034044779E2,1.001773238E0,9.096822143E-1,-1.526721478E0
1.034564712E2,8.380612731E-1,1.190680146E0,-1.975707412E0
1.035084647E2,6.731277108E-1,7.526898384E-1,-2.366050243E0
1.035604579E2,3.599523380E-2,7.624636889E-1,-3.068545341E0
1.036124517E2,-3.793931305E-1,1.048959494E0,-3.736832142E0
1.036644456E2,-6.237392426E-1,8.724194169E-1,-3.951856375E0
1.037164389E2,-4.349818826E-1,9.958142042E-1,-3.508368492E0
1.037684323E2,1.661095321E-1,3.525730968E-1,-1.345294476E0
1.038204259E2,6.438061595E-1,-2.509617507E-1,3.730694652E-1
1.038724220E2,-3.152522743E-1,-4.666296005E0,1.773172617E0
1.039244161E2,-3.889424801E0,-5.299152374E0,-7.832984328E-1
1.039764096E2,-5.958425522E0,-1.420740032E1,-4.014164925E0
1.040284030E2,-2.469163179E0,-1.708486199E0,2.127474308E0
1.040803963E2,-2.208934546E0,-7.174508095E0,6.100851297E-1
1.041323897E2,-6.286261678E-1,-2.014816850E-1,1.249050140E0
1.041843829E2,1.307205796E0,7.826222777E-1,2.179096788E-1
1.042363764E2,1.796508908E0,3.196761608E0,-7.716920376E-1
1.042883706E2,1.186865330E0,6.613330841E0,-1.469300151E0
1.043403639E2,2.528524101E-1,5.727576256E0,-1.289705634E0
1.043923573E2,-3.989408314E-1,6.265748501E0,7.011040449E-1
1.044443507E2,-1.422750950E0,7.536959648E0,2.255756140E0
1.044963440E2,-2.495430470E0,5.392822266E0,3.826290846E0
1.045483373E2,-6.357931137E0,1.343396425E0,6.608781815E0
1.046003306E2,-7.623033047E0,5.813604221E-2,7.256299019E0
1.046523243E2,-3.799627781E0,8.525339127E0,3.688235044E0
1.047043183E2,3.696910620E0,-4.035272121E0,-3.263411283E0
1.047563116E2,2.083004713E0,-3.838573217E0,-7.106975555E0
1.048083050E2,-1.356578916E-1,4.464307308E0,-2.077721834E0
1.048602984E2,-6.304587126E-1,-1.259500265E0,-2.428358555E0
1.049122963E2,-1.527819872E0,-5.872754574E0,-5.450610518E-1
1.049642940E2,-1.835695982E0,-7.122584820E0,1.333349586E0
1.050162882E2,-1.806374431E0,-6.506832600E0,2.054170609E0
1.050682817E2,-1.631666899E0,-7.988181114E0,3.933192253E0
1.051202750E2,-1.016525626E0,-8.842170715E0,4.575822353E0
1.051722683E2,-5.663178563E-1,-5.391392708E0,4.265502930E0
1.052242617E2,-3.818365932E-1,-8.911485672E-1,3.078591585E0
1.052762551E2,-4.647157341E-2,-4.876537248E-2,1.695592642E0
1.053282483E2,3.505908549E-1,-4.372756779E-1,7.762405276E-1
1.053802422E2,7.959116101E-1,-1.347464800E0,-2.603977919E-1
1.054322360E2,7.690334916E-1,-1.982764721E0,-9.494537711E-1
1.054842293E2,5.033071637E-1,-1.556380749E0,-1.926227331E0
