"Time (s)","Linear Acceleration x (m/s^2)","Linear Acceleration y (m/s^2)","Linear Acceleration z (m/s^2)"
5.999413200E-2,1.125605106E-1,6.413627863E-1,-4.411754608E-1
1.199869390E-1,1.323806882E0,1.453038216E0,-1.480007172E-1
1.799809070E-1,1.392997265E0,1.638061762E0,-8.887672424E-2
2.399747690E-1,1.052342534E0,1.765405893E0,-1.118793488E-1
2.999682980E-1,1.888372004E-1,1.798383236E0,-1.917028427E-1
3.599616310E-1,-5.501106381E-1,1.791867733E0,-2.065267563E-1
4.199548970E-1,5.324037552E0,3.889655113E0,-1.052963257E0
4.799474620E-1,6.783544064E0,3.394395828E0,-3.665227890E-1
5.399397930E-1,9.320125580E0,-1.830166578E-1,-1.427004814E0
5.999323230E-1,1.050295639E1,-7.143671036E0,-3.172383785E0
6.599248530E-1,1.117000961E1,-8.565393448E0,-4.423368931E0
7.199173170E-1,8.857091904E0,-1.041623306E1,-5.324477196E0
7.799098470E-1,6.285314560E0,-8.075090408E0,-7.003926277E0
8.399023770E-1,3.140208483E0,-4.723234177E0,-7.586075783E0
8.998947080E-1,1.485248804E0,-2.904343367E0,-6.946455002E0
9.598869720E-1,1.935832262E0,-3.580556870E0,-2.969667912E0
1.019879602E0,3.575773001E0,-3.012297153E0,-3.692874908E-1
1.079872066E0,5.865930557E0,-2.180063725E-1,2.194148064E0
1.139864596E0,5.886722088E0,-1.318922043E-1,2.633782387E0
1.199857327E0,2.471001863E0,-5.912935734E-1,-8.106231689E-2
1.259850693E0,-3.947892785E-1,3.799960613E-1,-3.432036400E0
1.319843724E0,-2.041156054E0,9.100874066E-1,-5.353077412E0
1.379836920E0,-9.795583487E-1,1.738195181E0,-4.846125603E0
1.439829984E0,1.711183429E0,1.705291033E0,-1.747098923E0
1.499823015E0,3.348989487E-1,1.395150185E0,-2.772080421E0
1.559815346E0,-1.794331074E-1,2.664903998E-1,-1.404852867E0
1.619807843E0,-6.642994881E-1,1.014198661E-1,-1.901283264E-1
1.679800307E0,-2.240068674E0,-6.438825727E-1,1.627460480E0
1.739792837E0,-3.310393810E0,1.150837183E0,-9.471216202E-1
1.799785201E0,-4.988976002E0,1.075480223E0,3.416280746E-1
1.859777698E0,-4.017052650E0,-1.323363185E0,-8.802366257E-1
1.919770095E0,-5.597972870E-2,-2.862938881E0,2.240921021E0
1.979762426E0,-8.926680088E-1,-4.140138626E0,1.850016594E0
2.039754956E0,2.719494581E0,-1.281564951E0,9.286384583E-1
2.099747486E0,-3.644858599E0,-1.688130379E0,-1.844227314E0
2.159740016E0,-3.916828632E-1,4.884657860E-1,-1.870967388E0
2.219732514E0,-2.507085800E-1,-5.850512981E-1,-1.138292313E0
2.279726146E0,-4.542956352E-1,-1.363708973E-1,-1.210582733E0
2.339720512E0,-1.108608246E-1,-3.712821007E-2,-1.833837032E0
2.399715045E0,-2.525343895E-1,-2.943348885E-1,-8.090844154E-1
2.459709511E0,-3.437480927E-1,-3.826355934E-2,-1.190238953E0
2.519704043E0,1.755065918E-1,-1.311547756E-1,-6.815299988E-1
2.579697407E0,-2.402729988E-1,-4.721283913E-2,-1.092373371E0
2.639689939E0,1.369242668E-1,2.114863396E-1,-3.988881111E-1
2.699682403E0,-1.542863846E-1,3.157498837E-1,6.493854523E-2
2.759674999E0,-6.111955643E-2,9.417724609E-2,-2.214789391E-1
2.819667463E0,-2.534494400E-1,-4.995787144E-1,2.588605881E-2
2.879660059E0,3.478875160E-1,-3.950781822E-1,8.882093430E-2
2.939652490E0,-1.301817894E-1,-5.394856930E-1,-9.452152252E-2
2.999644821E0,-1.829624176E-2,-5.236506462E-2,1.937518120E-1
3.059637152E0,-2.444291115E-1,2.913665771E-1,-5.321240425E-1
3.119629748E0,-1.437573433E-1,-1.188509464E-1,-4.420695305E-1
3.179622212E0,-1.824636459E-1,3.300580978E-1,-9.615626335E-1
3.239614742E0,-1.721644402E-1,1.546220779E-1,-6.936373711E-1
3.299607239E0,-1.919317245E-1,-1.315822601E-1,-4.420809746E-1
3.359600504E0,-2.541613579E-1,-6.664800644E-2,-5.002179146E-1
3.419594602E0,-1.900672913E-3,1.939387321E-1,-5.709891319E-1
3.479588932E0,5.028247833E-3,-1.526823044E-1,-1.954312325E-1
3.540156105E0,-2.321085930E-1,-3.845374584E-1,2.171373367E-1
3.600150469E0,2.099776268E-1,-3.790047169E-1,2.429852486E-1
3.660144000E0,1.166949272E-1,-2.638292313E-1,-5.715341568E-1
3.720136431E0,6.214776039E-1,1.990528107E-1,-7.567081451E-1
3.780128796E0,3.453683853E-2,-2.338426113E-1,-3.872699738E-1
3.840121326E0,5.003309250E-2,-6.516504288E-2,-1.305055618E-2
3.900113856E0,1.079559326E-3,-5.527067184E-2,-1.185812950E-1
3.960106320E0,5.653047562E-2,7.130479813E-2,-4.482040405E-1
4.020098916E0,1.041536331E-1,1.556611061E-1,-3.878564835E-1
4.080091381E0,2.188668251E-1,-3.227736950E-1,-4.275765419E-1
4.140083712E0,4.628481865E-1,-1.757776737E-1,-8.736729622E-1
4.200076043E0,5.903558731E-1,-2.612621784E-1,-7.910122871E-1
4.260068639E0,5.183215141E-1,-3.675103188E-2,-9.008936882E-1
4.320061103E0,2.926802635E-1,2.477943897E-1,-2.501444817E-1
4.380053666E0,-2.483034134E-2,6.132333279E-1,1.881709099E-1
4.440046431E0,1.250729561E-1,8.353781700E-1,3.359375000E-1
4.500039696E0,1.030616760E-1,7.689678669E-1,1.299891472E-1
4.560032794E0,1.293802261E-1,3.145084381E-1,1.610183716E-2
4.620025990E0,3.080983162E-1,9.473609924E-2,1.887774467E-1
4.680019054E0,4.412517548E-1,4.259104729E-1,-1.674809456E-1
4.740011886E0,8.039174080E-1,6.901698112E-1,-8.440804482E-1
4.800004217E0,-9.985160828E-2,-6.355404854E-2,-5.857830048E-1
4.859996713E0,2.353858948E-2,-3.264579773E-1,-7.442855835E-1
4.919989211E0,2.262291908E-1,-8.653974533E-2,-7.529931068E-1
4.979981741E0,4.414963722E-1,-4.924523830E-1,-2.326021194E-1
5.039974271E0,5.828189850E-2,-1.021827459E0,-2.402296066E-1
5.099966801E0,-2.059488297E-1,-1.037314415E0,7.337570190E-3
5.159959132E0,-1.669139385E0,3.080654144E-2,2.782387733E-1
5.219951396E0,-1.247696877E0,-9.470292330E-1,-3.081574440E-1
5.279943926E0,-1.279375553E0,-1.578056455E0,-2.011645794E0
5.339936456E0,1.471610069E0,-2.131673098E0,-7.240338326E-1
5.399928986E0,1.268604279E0,-8.672283888E-1,-2.653010368E0
5.459921583E0,1.028296232E0,-1.185846329E-2,-1.338926792E0
5.519915349E0,1.823055744E-1,8.527481556E-2,-4.747085571E-1
5.579909613E0,1.216259360E0,2.958824635E-1,3.746719360E-1
5.639903977E0,1.477045059E0,-1.037300467E0,9.505386353E-1
5.699898307E0,-1.218893528E-1,-9.787379503E-1,6.718750000E-1
5.759892571E0,1.225883961E-1,7.383739352E-1,1.549013138E0
5.819885635E0,4.859375954E-1,1.069561481E0,1.827210426E0
5.879878033E0,9.424328208E-1,1.356478810E0,1.711708069E0
5.939870297E0,1.423478484E0,1.637188673E0,2.160673141E0
5.999862827E0,2.430926561E0,8.457138538E-1,1.890989304E0
6.059855325E0,1.870136976E0,9.229710698E-1,1.958808899E-1
6.119847921E0,1.384214640E0,7.099369168E-1,-8.138017654E-1
6.179840385E0,9.819586277E-1,9.021353126E-1,-1.005164146E0
6.239832948E0,8.139301538E-1,1.424997330E0,-1.140248299E0
6.299825212E0,-5.842648745E-1,1.187662840E0,-9.804201126E-1
6.359817642E0,-1.283437729E0,1.030013800E0,-9.420490265E-1
6.419810106E0,-2.566497803E0,-7.311758995E-1,-1.544515610E0
6.479802702E0,-1.115129590E0,-2.591303349E0,-4.421510696E-1
6.539795199E0,-1.607243776E0,-2.561810255E0,-6.841468811E-2
6.599788298E0,-9.226603508E-1,-1.516650438E0,1.208837509E0
6.659781463E0,-8.685554266E-1,-2.331042290E-1,4.886732101E-1
6.719774593E0,-5.491249561E-1,-3.782224655E-1,1.001082420E0
6.779767657E0,-6.698040962E-1,4.565429688E-2,-2.190599442E-1
6.839760754E0,-3.623602390E-1,-1.367871612E-1,-6.935176849E-1
6.899753319E0,2.482113838E-1,8.236587048E-2,-6.760005951E-1
6.959745716E0,-1.442985535E-1,-7.182122469E-1,-1.250161171E0
7.019738246E0,5.673429966E-1,-4.669841230E-1,-9.502124786E-1
7.079730710E0,2.560415268E-1,-2.296135724E-1,-4.880018234E-1
7.139723240E0,1.997725964E-1,2.617642283E-1,-1.783714294E-1
7.199715770E0,4.085340500E-1,8.232599497E-2,2.617044449E-1
7.259708267E0,2.755475044E-1,-1.345289946E-1,-8.207702637E-2
7.319700531E0,2.518265247E-1,8.018025756E-2,-2.357215881E-1
7.379692962E0,3.690195084E-1,1.547228098E-1,-4.196643829E-1
7.439685460E0,7.294535637E-1,3.612653017E-1,-2.219047546E-1
7.499677990E0,3.000974655E-3,6.431724429E-1,-3.325433731E-1
7.559670454E0,-8.724617958E-2,4.496878386E-1,2.938613892E-1
7.619663352E0,5.557799339E-2,9.538948536E-2,3.797607422E-1
7.679657317E0,7.407946587E-1,-1.708000898E-1,-4.610862732E-1
7.739651883E0,6.444051266E-1,-2.990727425E-1,-5.775051117E-1
7.799646349E0,5.185191631E-1,-4.536221027E-1,-4.377107620E-1
7.859640915E0,8.396339417E-1,-3.757212162E-1,-2.746810913E-1
7.919635080E0,5.782248974E-1,-3.952245712E-1,-2.437429428E-1
7.979628178E0,2.122328281E-1,-9.334337711E-2,-1.051321030E-1
8.039620509E0,5.171039104E-1,6.332254410E-2,-3.005495071E-1
8.099613039E0,4.309144020E-1,1.233839989E-1,-4.511823654E-1
8.159605535E0,-3.008172512E-1,3.043026924E-1,-3.738164902E-1
8.219598065E0,-1.401677132E-1,2.544829845E-1,1.675348282E-1
8.279590496E0,-4.393751621E-1,1.166524887E-1,-2.306928635E-1
8.339582960E0,-6.971597672E-3,-2.043015957E-1,-7.803726196E-2
8.399575291E0,-3.213181496E-1,-4.141995907E-1,-6.014585495E-1
8.459567688E0,-2.066967487E-1,-4.847803116E-1,-5.140552521E-1
8.519560218E0,2.256977558E-1,-3.823881149E-1,-2.810382843E-1
8.579552682E0,1.506085396E-1,1.691660881E-1,8.017539978E-2
8.639545212E0,-1.092910767E-3,1.199684143E-1,-3.798990250E-1
8.699537810E0,2.470710278E-1,-1.377739906E-1,-6.555528641E-1
8.759531574E0,5.541846752E-1,-4.987362623E-1,-9.398717880E-1
8.819525838E0,1.098040462E0,-6.082149744E-1,-4.878034592E-1
8.879520234E0,1.183681965E0,-9.872675538E-1,1.410273552E0
8.939514498E0,1.837434530E0,-1.685745001E0,1.791481972E0
8.999508761E0,1.762699008E0,-1.207711935E0,7.228136063E-1
9.059501759E0,1.470182896E0,-3.475458026E-1,-9.274101257E-1
9.119494157E0,1.795028567E0,-3.093739152E-1,-1.028205872E0
9.179486521E0,2.037042856E0,6.514167786E-1,-1.040478706E0
9.239479117E0,1.128126025E0,1.104880452E0,-7.245960236E-1
9.299471581E0,-3.439170122E-1,8.650197983E-1,-8.504896164E-1
9.359464077E0,-1.462288380E0,8.944846988E-1,-1.412141800E0
9.419456541E0,-2.180528641E0,1.117023945E0,1.437193871E0
9.479449071E0,-1.487762094E0,3.509218395E-1,2.045259476E0
9.539441335E0,-1.807994604E0,-5.083023310E-1,1.502859116E0
9.599433832E0,-2.290328503E0,-6.008324027E-2,-2.317657471E-1
9.659426362E0,-2.101726532E0,3.822386861E-1,-6.239223480E-1
9.719418892E0,-1.246946335E0,1.891540885E-1,-5.608654022E-2
9.779411356E0,-3.820472956E-2,-1.682626903E-1,2.461929321E-1
9.839404522E0,5.229317546E-1,-4.491742849E-1,1.636705399E-1
9.899397686E0,7.768511772E-1,-6.345125437E-1,-5.344009399E-1
9.959390816E0,7.289773822E-1,1.997925490E-1,-1.339578629E-1
1.001938395E1,6.356528997E-1,8.483678699E-1,2.874774933E-1
1.007937698E1,4.560401440E-1,1.041133404E0,8.387851715E-2
1.013936948E1,1.300871730E0,4.917058945E-1,9.772758484E-1
1.019936187E1,1.264461279E0,-9.022565931E-2,8.368597031E-1
1.025935440E1,4.193915129E-1,-3.102211356E-1,-2.803821564E-1
1.031934687E1,1.295485497E-1,-3.320515752E-1,-8.649291992E-1
1.037933950E1,3.823912144E-1,-1.314579844E-1,-4.196872711E-1
1.043933199E1,4.710235596E-1,-1.110658646E-1,-9.178924561E-2
1.049932446E1,1.303286552E-1,1.902607083E-1,-2.956085205E-1
1.055931672E1,1.067690849E-1,6.843727827E-1,1.598653793E-1
1.061930925E1,3.866112232E-1,3.364781141E-1,8.537769318E-2
1.067930168E1,4.467108250E-1,1.889846325E-1,-3.613481522E-1
1.073929424E1,8.582975864E-1,1.633631587E0,4.537992477E-1
1.079928671E1,2.821974754E-1,2.577064991E0,5.267515182E-1
1.085927971E1,4.822783470E-1,4.804241657E-1,1.398824692E0
1.091927367E1,6.908235550E-1,-1.370854378E-1,1.791419983E-1
1.096928061E1,7.121982574E-1,-1.032282829E0,-1.562863827E0
1.102927490E1,-1.761417389E-1,-1.998702049E0,-2.371957779E0
1.108926930E1,4.894404411E-1,-1.736375928E0,-1.361091614E0
1.114926336E1,6.622791290E-2,-1.452170730E0,-1.208934307E0
1.120925620E1,-1.024752140E0,-1.450801015E0,-1.530775070E0
1.126924849E1,7.513003349E-1,-1.334922910E0,-9.981389046E-1
1.132924086E1,-2.388820648E-1,-7.122479677E-1,-1.608757973E0
1.138923332E1,2.145385742E-1,4.276744127E-1,-7.261853218E-1
1.144922585E1,-3.689117432E-1,6.178418398E-1,2.218294144E-1
1.150921838E1,-5.242714882E-1,5.515549183E-1,9.373674393E-1
1.156921095E1,5.603418350E-1,2.505202889E-1,1.473571777E0
1.162920344E1,3.264794350E-1,-6.728111506E-1,1.104711056E0
1.168919571E1,8.846597672E-1,-1.325434446E0,9.790501595E-1
1.174918817E1,9.722189903E-1,1.095117927E-1,-2.370309830E-2
1.180918070E1,3.128714561E-1,-2.474066019E-1,6.375422478E-1
1.186917320E1,-3.992481232E-1,-3.379201293E-1,3.930144310E-1
1.192916570E1,-6.373023987E-2,-2.258083820E-1,-6.662354469E-1
1.198915896E1,-1.178464890E-1,4.170653820E-1,-1.900167942E0
1.204915216E1,5.141043663E-1,6.847667694E-1,-1.275834560E0
1.210914532E1,-8.421068192E-1,3.393456936E-1,-2.228897810E0
1.216913839E1,5.096607208E-1,4.674639702E-1,-1.389437675E0
1.222913152E1,2.197241783E-1,2.584326267E-1,-5.300192833E-1
1.228912392E1,2.827396393E-1,-3.850007057E-2,3.642654419E-2
1.234911628E1,1.161646843E-1,1.167416573E-2,-4.890108109E-2
1.240910871E1,3.703856468E-1,2.936186790E-1,5.132484436E-2
1.246910124E1,5.139303207E-2,6.976795197E-2,-2.437391281E-1
1.252909370E1,2.383232117E-3,1.602814198E-1,-2.637305260E-1
1.258908647E1,3.460826874E-1,-8.686542511E-2,6.452941895E-2
1.264907890E1,1.144003868E-1,9.791970253E-2,-2.178812027E-1
1.270907123E1,4.159007072E-1,-5.648875237E-2,-6.599884033E-1
1.276906366E1,-2.319045067E-1,2.372066975E-1,-6.222510338E-1
1.282905619E1,-3.531503677E-2,-8.450233936E-2,2.410788536E-1
1.288904666E1,-3.826966286E-1,-8.443650007E-1,-2.030286789E-1
1.294903969E1,-4.811377525E-1,-5.940996408E-1,-3.966035843E-1
1.300903365E1,-5.700502396E-1,-2.179118395E-1,-6.054430008E-1
1.306902770E1,-6.744799614E-1,8.831930161E-2,-7.838406563E-1
1.312902138E1,-7.810640335E-1,3.499693871E-1,-9.362754822E-1
1.318901501E1,-7.695922852E-1,6.856892109E-1,-9.906120300E-1
1.324900834E1,1.157541275E0,7.910361886E-1,-1.550995827E0
1.330900104E1,1.281754017E0,6.026442647E-1,-2.053094864E0
1.336899337E1,-4.661183357E-1,9.417444468E-3,-2.508842468E0
1.342898587E1,1.181105137E0,1.201202273E-1,-6.359906197E-1
1.348897833E1,4.661851883E0,-3.100799322E-1,1.160987854E0
1.354897086E1,2.750920534E0,-6.264078617E-1,-5.280780792E-2
1.360896339E1,9.728350639E-1,-1.646283627E0,2.956616879E0
1.366895592E1,-1.745669127E0,-1.805765629E0,2.486438751E0
1.372894839E1,-1.512687683E0,-5.307779312E-1,3.812928200E-1
1.378894082E1,1.407107234E0,-4.694166183E-1,2.032227516E-1
1.384893335E1,6.527047753E-1,-9.273786545E-1,-2.233929634E-1
1.390892588E1,-5.680108070E-1,-9.397301674E-1,-5.385107994E-1
1.396891841E1,2.038145661E-1,-8.947205544E-1,-5.355544090E-1
1.402891084E1,1.404272318E-1,-7.908596992E-1,-3.648757935E-1
1.408890394E1,3.079844713E-1,-1.102265358E0,-2.928633690E-1
1.414889700E1,3.779212832E-1,-9.389004707E-1,-1.042585373E-1
1.420889013E1,4.176826477E-1,-5.701112747E-1,-1.876192093E-1
1.426888320E1,2.499493361E-1,-3.734459877E-1,-3.057427406E-1
1.432887633E1,4.728322327E-1,-7.668066025E-2,-6.649169922E-1
1.438886872E1,3.926932216E-1,-4.315524101E-1,-3.203167915E-1
1.444886125E1,7.454609871E-2,-2.395625114E-1,-3.680534363E-1
1.450885372E1,2.505577803E-1,-2.109103203E-1,-2.991423607E-1
1.456884625E1,-1.444027871E-1,-3.600459099E-1,-2.238821983E-1
1.462883871E1,1.394030333E0,-3.531837463E-1,2.911252975E-1
1.468883131E1,3.324764073E-1,-4.143624306E-1,7.581520081E-2
1.474882364E1,8.658303618E-1,-7.582664490E-2,5.789279938E-2
1.480881607E1,3.233265877E-1,-2.065620422E-1,6.332015991E-2
1.486880860E1,-2.057844698E-1,1.991367340E-1,-5.555696487E-1
1.492880113E1,2.959985137E-1,-6.123399734E-2,-4.104862213E-1
1.498879359E1,2.388250828E-2,1.765270233E-1,-8.188591003E-1
1.504878612E1,4.792457819E-1,2.208375931E-2,-5.246648788E-1
1.510877916E1,4.381115437E-1,-1.130199432E-2,-4.537429810E-1
1.516877325E1,-2.928155363E-1,-2.767019272E-1,-4.270524979E-1
1.522876762E1,7.328593731E-2,-4.837751389E-2,1.315402985E-2
1.528876192E1,1.131689548E-2,4.098749161E-2,-1.460571289E-1
1.534875624E1,1.881332994E-1,1.173405647E-1,2.049303055E-1
1.540874998E1,2.418736815E-1,7.646799088E-2,1.008501053E-1
1.546874254E1,8.063097000E-1,2.399291992E-1,6.723499298E-1
1.552873487E1,3.225372434E-1,7.259082794E-2,3.950986862E-1
1.558872744E1,7.849937677E-1,8.999681473E-1,4.045314789E-1
1.564871990E1,4.786863327E-1,5.997743607E-1,1.901960373E-1
1.570871243E1,2.949865162E-1,-2.557158470E-1,1.049032211E-1
1.576870489E1,-7.704886198E-1,-1.035514355E0,3.592042923E-1
1.582869739E1,7.323168516E-1,-5.760025978E-1,-1.251707077E-1
1.588868965E1,4.350569546E-1,-4.917261600E-1,-3.231811523E-1
1.594868212E1,1.087158918E-2,-6.103525162E-1,-8.267126083E-1
1.600867462E1,6.576780677E-1,-3.308882713E-1,-1.019053459E0
1.606866718E1,1.229932427E0,-2.970335484E-1,-1.232688904E0
1.611907726E1,1.660840631E0,1.018970013E-1,-1.343103409E0
1.617906989E1,5.315787792E-1,-2.447845936E-1,-1.484703064E0
1.623906305E1,4.843136668E-1,-4.031682014E-1,6.222925186E-1
1.629905618E1,-1.044726372E-1,-3.698124886E-1,1.090259552E0
1.635904925E1,-1.836817622E0,-3.856854439E-1,1.552282333E0
1.641904238E1,-1.321301699E0,-4.615550041E-1,1.370340347E0
1.647903544E1,-7.410117388E-1,-3.411161900E-2,2.980747223E-1
1.653902777E1,-6.238231659E-1,4.082419872E-1,-5.714445114E-1
1.659902024E1,-3.073856831E-1,1.257769704E0,-1.720911026E0
1.665901277E1,-5.593729019E-1,3.014990389E-1,-1.704560280E0
1.671900530E1,-1.080986261E-1,-8.968975544E-1,-2.512656689E0
1.677899773E1,5.150855184E-1,-8.187633753E-1,-2.951945305E0
1.683899032E1,8.487597704E-1,-6.905400753E-1,-2.589586258E0
1.689898265E1,6.990581751E-1,1.069096923E0,-1.387638092E0
1.695897498E1,-6.710270047E-1,3.575921059E-1,1.008691788E0
1.701896745E1,-7.235913277E-1,-2.145950049E-1,3.223426819E0
1.707896004E1,3.582415581E-1,-2.318577170E-1,2.934630394E0
1.713895251E1,1.893894672E-1,-4.273585677E-1,3.029649734E0
1.719894510E1,1.610948563E0,-1.390025616E0,3.794018745E0
1.725893840E1,-1.098242521E0,6.667245626E-1,1.225040436E0
1.731893260E1,-6.131837964E-1,1.111974716E-1,-4.330444336E-1
1.737892686E1,2.244247794E-1,-6.077446938E-1,-7.438926697E-1
1.743892126E1,5.001711845E-1,-6.957765818E-1,-1.892202377E0
1.749891556E1,2.039558887E0,-9.022108316E-1,-1.861061573E0
1.755890909E1,8.515695333E-1,-3.930618763E-1,-3.305864334E-1
1.761890155E1,4.766219556E-1,-4.932444096E-1,1.256813049E0
1.767889402E1,-5.980223417E-1,2.585845709E0,1.407607079E0
1.773888645E1,1.068516612E0,3.095847607E0,2.415807724E0
1.779887895E1,2.829363346E-1,3.510208130E0,2.533140182E-1
1.785887144E1,9.458377361E-1,1.775237083E0,-1.236280441E0
1.791886397E1,2.774028778E-1,-3.979549408E-1,-2.676104069E0
1.797885637E1,-1.125195742E0,-1.132997036E0,-6.324528694E0
1.803884873E1,-3.397274315E-1,-2.547997475E0,-8.699808121E0
1.809884113E1,3.193525076E0,-6.117228031E0,-8.999802589E0
1.815883366E1,4.925693035E0,-5.883475304E0,-9.800318718E0
1.821882619E1,7.682084084E0,-1.587979603E1,-1.741397476E1
1.827881872E1,3.847790003E0,-1.825662851E0,4.472192764E0
1.833881155E1,-4.381424904E0,4.083910465E0,1.073792267E1
1.839880475E1,-9.476597786E0,8.333963394E0,1.060338306E1
1.845879788E1,-1.042234898E1,7.483551025E0,4.869846344E0
1.851879104E1,-1.161748695E1,5.778801918E0,-3.746510983E0
1.857878414E1,-1.004062271E1,2.712149858E0,-8.249267578E0
1.863877690E1,-6.084615707E0,-4.542873859E0,2.347088814E0
1.869876930E1,1.579242992E1,-1.475455475E1,-1.395022392E1
1.875876170E1,5.118215084E0,-6.944617271E0,-7.035812378E0
1.881875420E1,-2.608713150E0,-8.486247063E-2,-9.754506111E0
1.887874670E1,-1.912778854E0,1.869742393E0,-7.269496918E0
1.893873929E1,-9.600944519E-1,-1.945994377E0,-5.679397583E0
1.899873179E1,-3.563220501E-1,-1.478220582E0,-4.192762852E0
1.905872425E1,3.053090572E-1,5.798627138E-1,-5.396896362E0
1.911871655E1,1.034275174E0,9.729192853E-1,-1.667857170E0
1.917870908E1,2.294799089E-1,4.419758320E0,4.466333389E-1
1.923870158E1,1.820978642E0,6.370365620E0,8.705764771E0
1.929869414E1,5.565011024E0,5.270321369E0,1.145664978E1
1.935868664E1,6.108738899E0,4.351614475E0,7.591578484E0
1.941868044E1,4.903193474E0,1.089939356E0,3.514569283E0
1.947867487E1,2.541360378E0,5.472674370E-1,5.490474701E-1
1.953866937E1,1.954064131E0,9.148554802E-1,-1.422729969E0
1.959866384E1,-3.457649946E-1,-4.720406532E-1,-1.907709122E0
1.965865833E1,-3.472383618E-1,7.206411362E-1,-2.807732105E0
1.971865157E1,-1.432478726E-1,1.028439999E0,-4.750408649E0
1.977864400E1,-1.877010465E0,8.074707985E-1,-5.792709351E0
1.983863653E1,8.807723522E-1,3.196911812E-1,-3.280551672E0
1.989862899E1,1.500968933E-1,-5.671627045E0,-3.988347292E0
1.995862152E1,5.880522728E-1,-9.969140053E0,-7.718084335E0
2.001861405E1,1.337958527E1,-2.087648582E1,1.170241356E1
2.007860658E1,-4.365446568E0,-8.955275536E0,2.950913906E0
2.013859884E1,-5.654947758E0,-2.709307194E0,1.542701721E-1
2.019859128E1,-6.837557316E0,1.022563934E0,1.563845158E0
2.025858374E1,-1.003637123E1,6.063066959E0,6.182774544E0
2.031857627E1,-1.302733040E1,9.423471451E0,2.128532410E0
2.037856873E1,-1.330456066E1,8.867061615E0,-1.468470097E0
2.043856133E1,-1.154132938E1,7.699607849E0,-1.793959618E0
2.049855473E1,1.124934912E0,-6.197669983E0,7.822216034E0
2.055854906E1,1.787379456E1,-2.202891159E1,7.965049744E-1
2.061854332E1,4.048199654E-1,-3.364627600E0,-6.237099648E0
2.067853765E1,-1.286751628E0,-1.177779794E0,-8.878974915E0
2.073853192E1,-2.519253731E0,2.377414942E0,-5.120173454E0
2.079852535E1,-1.069286823E0,3.044693708E0,-5.370660782E0
2.085851768E1,-1.269207239E0,3.472753763E0,-3.746888161E0
2.091851004E1,1.643664539E-1,4.248763084E0,-2.305753708E0
2.097850261E1,-6.207399368E-1,3.469464064E0,-1.031361103E0
2.103849514E1,-1.476815939E0,4.521874428E0,2.065925598E-1
2.109848760E1,-1.154580474E0,5.854677200E0,1.750244141E0
2.115848013E1,-6.422841549E-1,6.607931137E0,6.427958965E0
2.121847263E1,1.409769058E-1,2.807127476E0,6.042868137E0
2.127846493E1,-1.405879259E0,7.372598648E-1,1.905616760E0
2.133845739E1,-1.889027596E0,4.873251915E-1,1.225371838E0
2.139844986E1,-2.456624985E0,7.284417152E-1,3.710613251E-1
2.145844242E1,-1.923185349E0,6.923642159E-1,1.175409794E0
2.151843495E1,-8.973791003E-1,3.691093445E0,2.616676807E0
2.157842792E1,-1.104575396E-1,4.901032925E0,4.637306213E0
2.163842105E1,-1.371835232E0,-9.121952057E-1,1.178654671E0
2.169841424E1,4.847973585E-2,-6.352375984E0,-4.104172707E0
2.175840727E1,3.716667891E-1,-1.317544556E1,-8.587885857E0
2.181840040E1,5.886306763E0,-1.105901051E1,-1.136010551E1
2.187839303E1,-1.680672073E1,-1.062677193E1,-5.406277180E0
2.193838543E1,4.546165466E0,-7.723622322E-1,-1.171310616E1
2.199837793E1,-5.976796150E-2,-3.152234554E0,-4.480784416E0
2.205837052E1,-7.925951481E-1,2.921751499E0,-1.627779961E0
2.211836299E1,-4.358087063E0,4.948007584E0,4.429455757E0
2.217835549E1,-6.414217949E0,6.404517174E0,8.116306305E0
2.223834795E1,-1.045541763E1,6.598530769E0,9.202548027E0
2.229834032E1,-1.606707764E1,1.058036041E1,7.230434418E0
2.235833265E1,-1.679393768E1,9.182984829E-1,4.360243797E0
2.241832518E1,5.027992249E0,-1.985143280E1,-1.361414909E0
2.247831784E1,5.930171013E0,-1.653708458E1,-4.035548210E0
2.253831044E1,-2.258168221E0,-4.217149258E0,-8.150208473E0
2.259830307E1,2.266409397E-1,-2.797395229E0,-8.171562195E0
2.265829687E1,-3.428740263E0,1.854832411E0,-5.717899799E0
2.271829130E1,-3.420210361E0,3.827768803E0,-2.023470402E0
2.277828553E1,-4.793449402E0,6.224392891E0,-4.583454132E0
2.283827979E1,-2.539719343E0,6.925774574E0,-1.258316040E-1
2.289827389E1,-2.998371124E-1,6.916515827E0,3.673630714E0
2.295826689E1,3.100264072E-1,7.418169975E0,4.625552177E0
2.301825909E1,1.557264805E0,4.840716362E0,4.539740562E0
2.307825155E1,6.878423691E-1,2.482459784E0,2.422727585E0
2.313824401E1,1.403594971E0,1.921733856E0,1.496222496E0
2.319823661E1,1.768555641E0,-3.494753838E-1,1.802637577E0
2.325822907E1,1.195829391E0,-9.357175827E-1,7.131085396E-1
2.331822171E1,1.389407873E0,6.570124626E-1,5.032987595E-1
2.337821404E1,1.178120852E0,1.490381718E0,-8.502440453E-1
2.343817826E1,1.151278257E0,3.486692429E0,-7.854938507E-2
2.349817069E1,1.156360865E0,3.849427700E0,-1.294101715E0
2.355816332E1,-2.717468739E0,2.356308937E0,-4.757639885E0
2.361815572E1,-4.565309048E0,-2.335279465E0,-4.309224129E0
2.367814835E1,-4.108231544E0,-5.391716957E0,-3.629733562E0
2.373814128E1,-4.175423622E0,-1.039634895E1,-7.412669182E0
2.379813451E1,9.667850494E0,-1.753228569E1,3.285422802E0
2.385812774E1,-1.005927849E1,1.055521584E1,-6.487251759E0
2.391812107E1,-1.267894030E0,2.206774235E0,-6.210644245E0
2.397811414E1,-2.733303070E0,2.073478222E0,-7.751569748E-1
2.403810663E1,-2.969053268E0,5.029223919E0,6.060909271E0
2.409809893E1,-3.314661026E0,4.765220642E0,1.238426971E1
2.415809133E1,-2.873130322E0,2.587860107E0,7.142646790E0
2.421808366E1,-7.563725948E0,1.264454126E0,6.048046112E0
2.427807616E1,-7.595393181E0,2.380445480E0,8.396300316E0
2.433806869E1,-1.125449848E1,6.609928131E0,2.395132065E0
2.439806118E1,-7.216027737E0,-7.020217419E0,4.887516975E0
2.445805345E1,5.470519543E0,-9.954979897E0,-2.836763859E0
2.451804588E1,1.449276733E1,-7.658240318E0,-5.396661758E0
2.457803841E1,-2.706311703E0,-4.383316517E0,-9.215530396E0
2.463803094E1,-2.288763046E0,-1.624023438E0,-6.089293003E0
2.469802347E1,-4.239962101E0,1.412484884E0,-3.601405621E0
2.475801650E1,-1.664106250E0,2.398590326E0,-5.333690643E-1
2.481801056E1,-2.049541473E-2,3.332365990E0,1.243295670E-1
2.487800489E1,2.048634052E0,5.725420952E0,2.139997005E0
2.493799922E1,4.530529976E-1,5.671932220E0,2.391415119E0
2.499799349E1,-5.168395042E-1,6.782220364E0,2.453002930E0
2.505798735E1,1.795225143E-1,6.915841103E0,2.471713543E0
2.511797998E1,4.582662582E-1,4.396685600E0,2.784101963E0
2.517797235E1,-4.392442703E-1,3.305166006E0,1.125908375E0
2.523796468E1,1.541533470E-1,1.250735521E0,7.991271019E-1
2.529795728E1,1.171816111E0,1.063289165E0,-1.516573429E0
2.535794971E1,1.298460245E0,1.820055008E0,-2.810258865E0
2.541794230E1,-2.118858814E0,7.353353500E-2,-6.310784340E0
2.547793473E1,-1.412573576E0,-6.221004963E0,-4.644910812E0
2.553792720E1,-7.446961403E-1,-9.063031197E0,-1.239603519E1
2.559791946E1,2.775463867E1,-2.210342026E1,-3.186138153E1
2.565791202E1,-1.567846298E0,-7.617311478E-1,-1.813960075E-1
2.571790449E1,-5.581810474E0,-1.738214493E0,7.195137978E0
2.577789702E1,-2.926945925E0,4.674056053E0,6.424796104E0
2.583788968E1,-3.046244860E0,3.928792477E0,8.376383781E0
2.589788301E1,-1.188268757E1,5.099579811E0,2.129558563E0
2.595787624E1,-1.391197586E1,9.767457962E0,-2.487938881E0
2.601786938E1,-1.222490978E1,-3.238567829E0,-2.099989414E0
2.607786251E1,1.608009911E1,-1.106715584E1,-2.970050812E0
2.613785554E1,1.509915161E1,-1.312320137E1,-8.509239197E0
2.619784787E1,1.623707294E0,-4.895750999E0,-8.177980423E0
2.625784010E1,1.499939919E0,8.283892870E-1,-7.558699608E0
2.631783263E1,-1.935544252E0,6.030713558E0,-4.339832306E0
2.637782516E1,-2.455240726E0,7.482095718E0,-2.386960983E0
2.643781765E1,-3.102947712E0,5.154556274E0,-1.198762894E0
2.649781012E1,-1.960425258E0,2.132190228E0,3.672695160E-2
2.655780262E1,-2.559564590E0,1.803839684E0,1.525302887E0
2.661779491E1,-2.049600124E0,2.639590740E0,4.083909035E0
2.667778738E1,-1.840769887E0,4.840636253E0,5.348329544E0
2.673777984E1,7.293190956E-1,4.109485626E0,5.162689209E0
2.679777244E1,9.490766525E-1,2.145177126E0,3.231722832E0
2.685776490E1,1.653659344E0,8.905448914E-1,2.057492256E0
2.691775830E1,1.413558960E0,1.269920826E0,1.386120796E0
2.697775257E1,1.386928558E-1,2.553639412E-1,-1.257619858E-1
2.703774710E1,2.809656858E-1,3.082876205E0,-3.799796104E-1
2.709774156E1,7.605102062E-1,9.564136505E0,3.790415764E0
2.715773616E1,3.036646843E0,4.760484695E-1,1.995327473E0
2.721772980E1,1.028865337E1,-1.126762772E1,-5.737474918E0
2.727772239E1,4.794195938E1,-2.807182312E1,-1.114077091E0
2.733771486E1,-1.696390152E1,5.796971321E-1,-2.387522697E1
2.739770742E1,5.394945621E0,-8.220420837E0,-2.637953281E0
2.745769988E1,-4.451478481E0,-4.477865219E0,-9.968935013E0
2.751769242E1,6.784874439E0,-2.462596893E-1,-5.120415688E0
2.757768494E1,8.613867760E-1,2.995591640E0,-9.698615074E-1
2.763767734E1,-1.043192673E1,2.958373547E0,8.220703125E0
2.769766961E1,-2.351595879E1,7.464869499E0,5.409324169E0
2.775766204E1,-1.961876297E1,-4.639832973E-1,-4.007735252E-1
2.781765457E1,1.403474140E1,-1.736665916E1,1.163439751E-1
2.787764710E1,3.213522339E1,-1.787935829E1,-5.199131966E0
2.793763963E1,-4.375484943E0,-1.028392124E1,-9.597214699E0
2.799763273E1,5.590655327E0,-1.315501451E0,-6.105192184E0
2.805762689E1,8.265078068E-1,2.774151564E-1,-4.880513191E0
2.811762129E1,-1.021762848E0,-9.595465064E-1,-7.731952667E-1
2.817761562E1,-1.375577688E0,-3.286243975E-1,-1.654072762E0
2.823760988E1,1.052464366E0,1.580486774E0,7.840089798E-1
2.829760368E1,3.683682680E0,1.747416973E0,5.232563972E0
2.835759621E1,1.126472473E0,5.342813015E0,2.369035721E0
2.841758848E1,3.670252323E0,8.934460640E0,5.944710732E0
2.847758094E1,3.832171917E0,7.506618977E0,6.784513950E0
2.853757347E1,2.276239395E0,3.993837833E0,4.001924515E0
2.859756593E1,5.163987160E0,1.536503077E0,2.167275429E0
2.865755853E1,5.377822876E0,8.119935989E-1,-6.075768471E-1
2.871755099E1,4.350924492E0,2.915654182E-1,1.151241302E0
2.877754339E1,6.310117245E-1,1.728060246E0,-1.702260494E0
2.883753572E1,2.742572546E0,1.921832085E0,-4.412487984E0
2.889752825E1,-5.476924777E-1,1.289516926E0,-7.503748894E0
2.895752072E1,6.114557981E-1,-1.013373375E0,-7.740706444E0
2.901751331E1,1.617417455E0,-4.879064083E0,-8.030991554E0
2.907750594E1,3.764792681E0,-1.336424828E1,-1.112407875E1
2.913749928E1,2.176612854E1,-5.311268234E1,3.286472321E1
2.919749241E1,-1.029994202E1,-9.272116661E0,2.619800568E-1
2.925748554E1,-1.080316353E1,-1.348864079E0,1.169162273E1
2.931747860E1,-1.098896885E1,3.734154224E0,1.100156212E1
2.937747157E1,-1.156820965E1,2.013572693E0,4.564179420E0
2.943746390E1,-1.861670113E1,5.984844685E0,-5.706987381E0
2.949745633E1,-1.248085690E1,-8.819006920E0,-2.670563221E0
2.955744889E1,1.243739796E1,-1.883594131E1,-1.850960732E0
2.961744136E1,1.391150951E1,-9.385134697E0,1.763772964E-1
2.967743398E1,-1.115136504E0,-4.190716267E0,-7.711911678E0
2.973742652E1,-1.435328484E0,-3.012572765E0,-6.175940514E0
2.979741894E1,-3.204468012E0,1.202566266E0,-6.250512600E0
2.985741118E1,-5.895134926E0,4.293417454E0,-2.485240459E0
2.991740371E1,-5.859056473E0,5.191995144E0,-1.495771885E0
2.997739607E1,-1.601409912E0,3.131944180E0,4.127313614E0
3.003738863E1,-2.116489410E-2,2.225658894E0,3.028472900E0
3.009738120E1,1.294509411E0,3.210370064E0,5.080713272E0
3.015737476E1,2.121362686E0,5.901396275E0,5.587309837E0
3.021736916E1,2.798554897E0,7.040918350E0,6.138422489E0
3.027736376E1,1.688734531E0,4.943469524E0,4.179641724E0
3.033735820E1,2.729907036E0,3.112376213E0,2.548497200E0
3.039735263E1,1.222661018E0,1.880972266E0,1.286372185E0
3.045734616E1,1.253362656E0,9.795730114E-1,-2.067995071E-1
3.051733869E1,-2.496919632E-1,5.791764259E-1,3.520045280E-1
3.057733129E1,-1.279407024E0,7.508182526E-1,7.094998360E-1
3.063732382E1,1.794795990E-1,2.511387825E0,1.489718914E0
3.069725182E1,5.654547215E-1,6.082815170E0,1.991714478E0
3.075724432E1,-1.212117672E-1,3.124907494E0,6.949992180E-1
3.081723678E1,-7.377475500E-1,-1.069030285E0,-2.039590836E0
3.087722898E1,-8.553657532E-1,-6.806713581E0,-5.878864288E0
3.093722131E1,1.353768063E1,-1.465559578E1,-1.017746162E1
3.099721384E1,1.013538265E1,-2.171099854E1,2.840751266E1
3.105720637E1,-1.868021774E1,3.692722321E-2,-2.168994141E1
3.111719883E1,-3.574969292E0,2.729544640E0,1.352378368E0
3.117719136E1,-1.900966072E1,-3.699011803E-1,2.233451366E0
3.123718459E1,-1.438197327E1,3.779365540E0,1.843377113E0
3.129717869E1,-1.520788193E1,6.251284122E0,-3.511079311E0
3.135717296E1,-2.423275375E1,-4.462265015E0,-6.551343918E0
3.141716735E1,6.706447601E0,-9.872379303E0,7.620964050E-1
3.147716162E1,4.052258730E-1,-2.873753357E1,-1.470082664E1
3.153715528E1,1.160685539E1,6.789128780E0,-1.806538105E0
3.159714778E1,7.519168854E-1,-7.210563183E0,-5.437234879E0
3.165714024E1,-3.549815178E0,2.546839476E0,-6.168423653E0
3.171713271E1,-3.202662230E0,2.393682957E0,-3.844068527E0
3.177712534E1,-3.460523844E0,1.481413007E0,-3.730481625E0
3.183711777E1,-2.637150764E0,2.273027897E0,4.056806564E-1
3.189711030E1,-1.252491951E0,2.209977627E0,4.237174988E-1
3.195710269E1,2.419996738E0,2.502269030E0,1.241399765E0
3.201709509E1,4.897852898E0,1.284010172E0,7.283201218E-1
3.207708746E1,5.432793617E0,4.482331753E0,2.379364967E0
3.213707999E1,4.581061840E0,7.270318031E0,2.209374428E0
3.219707248E1,3.020381451E0,7.022094727E0,4.500890732E0
3.225706501E1,1.579778194E0,4.212624550E0,3.505609512E0
3.231705774E1,2.132043362E0,2.297021627E0,1.587538242E0
3.237705094E1,2.670570374E0,1.516343951E0,9.799051285E-1
3.243704407E1,2.272327423E0,1.241882801E0,7.244601250E-1
3.249703727E1,2.005220413E0,2.273261786E0,2.312775612E0
3.255703043E1,3.505765438E0,3.253625631E0,3.139849663E0
3.261702323E1,3.447205067E0,6.468904972E0,2.237593651E0
3.267701556E1,2.674339533E0,4.413457870E0,6.238741875E-1
3.273700806E1,1.862299442E0,2.362465858E-1,-1.473722458E0
3.279700056E1,-8.204941452E-2,-8.275361061E0,-7.812135220E0
3.285699299E1,1.274485588E1,-2.465344238E1,-1.569347382E1
3.291698558E1,-6.898246765E0,-3.107983398E1,-9.618998528E0
3.297697805E1,-6.443202019E0,-4.509083271E0,-2.037322807E1
3.303697041E1,7.068682671E0,-1.017083168E0,4.364605427E0
3.309696274E1,-8.842229843E0,6.839300632E0,7.528534412E0
3.315695534E1,-5.808590889E0,6.159733295E0,9.297839165E0
3.321694780E1,-7.581473351E0,4.706048012E0,8.022854805E0
3.327694040E1,-1.101700783E1,1.936515808E0,3.245449066E0
3.333693290E1,-1.569109344E1,5.686418533E0,-3.967924118E0
3.339692653E1,-1.446395969E1,-2.909039974E0,-8.162515640E0
3.345692072E1,1.009825897E1,-1.667123032E1,6.078944206E0
3.351691512E1,-8.961588144E-2,-1.702443314E1,-1.765724564E1
3.357690938E1,1.338525581E1,8.093167305E0,-4.801341534E0
3.363690368E1,1.309193671E-1,-8.961265564E0,-4.991364479E0
3.369689685E1,-5.433318138E0,1.594529629E0,-3.925286770E0
3.375688924E1,-4.257676125E0,4.870087624E0,-1.470615387E0
3.381688154E1,-4.037957668E0,8.518710136E-1,-1.569480896E0
3.387687407E1,-2.054191113E0,2.377019167E0,-5.585517883E-1
3.393686660E1,9.176995754E-1,1.946877718E0,-1.286934853E0
3.399685913E1,4.771732807E0,1.510234714E0,8.589143753E-1
3.405685166E1,5.042458057E0,4.808066368E0,1.527224064E0
3.411684416E1,4.930662632E0,7.885553837E0,7.058062077E0
3.417683649E1,4.160814762E0,7.720077515E0,8.255217552E0
3.423682895E1,2.469493866E0,3.789847136E0,2.126746178E0
3.429682148E1,4.400059223E0,1.968285799E0,3.357849121E-1
3.435681401E1,2.433752537E0,1.818038940E0,-1.088924408E0
3.441680654E1,1.493687153E0,1.015581131E0,-1.224953175E0
3.447679954E1,-3.285399914E0,-1.433987617E-1,-6.128998756E0
3.453679274E1,-5.437072754E0,-4.730041981E0,-9.352179527E0
3.459678587E1,-3.545839787E0,-7.562150002E0,-9.449257851E0
3.465677910E1,5.495145321E0,-1.405727768E1,-1.150974655E1
3.471677216E1,-1.861433029E1,9.235441208E0,-1.236117554E1
3.477676493E1,-3.448101997E0,-1.969495058E0,6.430778027E0
3.483675719E1,8.034244537E0,1.089359283E1,1.640344810E1
3.489674969E1,-5.918467999E0,8.329766273E0,1.186464119E1
3.495674206E1,-5.343443394E0,7.224538803E0,6.380059242E0
3.501673465E1,-1.179760361E1,8.412231445E0,8.915781975E0
3.507672712E1,-1.995265770E1,7.945758343E0,-1.034928131E1
3.513671971E1,8.383586407E-1,-1.184333420E1,5.663242340E0
3.519671201E1,1.656969643E1,-1.999553680E1,-1.794125557E1
3.525670441E1,1.208121204E1,-7.570042610E-1,-6.943613052E0
3.531669687E1,1.457426906E0,-6.042899609E0,-8.015885353E0
3.537668937E1,-1.964584947E0,-1.443727970E0,-6.634809494E0
3.543668183E1,-5.407032490E0,4.539402008E0,-5.073692799E0
3.549667456E1,-6.805932045E0,3.627096176E0,-1.796609879E0
3.555666869E1,-4.308750153E0,6.019530296E0,-4.334659576E-1
3.561666306E1,-5.365533829E-1,4.454797745E0,1.932024956E-1
3.567665736E1,5.225137234E0,5.446575642E0,2.525278091E0
3.573665175E1,3.560975075E0,8.809346199E0,3.702064037E0
3.579664588E1,2.061740875E0,9.344836235E0,4.993502617E0
3.585663855E1,2.570022583E0,6.089471340E0,3.637810707E0
3.591663085E1,2.196886063E0,5.465113640E0,2.119759560E0
3.597662311E1,7.205660820E0,7.981235504E0,4.922122002E0
3.603661557E1,1.681993008E0,1.053472519E0,-4.091931343E0
3.609660814E1,-3.933815479E0,-4.064921379E0,-1.116615677E1
3.615660067E1,-3.507528067E0,-5.977009296E0,-7.303102493E0
3.621659313E1,8.949730873E0,-6.894382477E0,-7.257603645E0
3.627658570E1,5.937992859E1,-3.058524704E1,2.640809250E1
3.633657796E1,-2.749425316E1,3.109769821E0,-1.841413307E1
3.639657039E1,-1.613198042E0,-2.693422079E0,8.074497223E0
3.645656292E1,-8.499260902E0,9.129443169E-1,3.230775833E0
3.651655552E1,-3.819306612E0,4.609909058E-1,1.834180832E0
3.657654805E1,-1.013263702E1,-4.608225822E-2,2.864071846E0
3.663654128E1,-2.277287674E1,8.361576080E0,-2.751829624E0
3.669653445E1,-1.325497627E1,-3.009550095E0,1.358285904E0
3.675652751E1,1.766207123E1,-1.911720085E1,2.689723969E-1
3.681652047E1,2.237291336E1,-9.476860046E0,-6.644256592E0
3.687651354E1,-2.115024805E0,-8.733975410E0,-7.964208126E0
3.693650597E1,1.908071935E-1,-2.081579208E0,-6.337202072E0
3.699649827E1,-3.368328094E0,2.478216171E0,-2.674362183E0
3.705649080E1,-6.058599472E0,5.026176453E0,-2.831582069E0
3.711648323E1,-5.038163662E0,4.853830338E0,-1.289625168E0
3.717647556E1,-1.687615395E0,3.984873056E0,1.545234680E0
3.723646789E1,6.226022243E-1,3.537925720E0,3.370830536E0
3.729646022E1,-1.150922060E0,5.063269615E0,4.459182739E0
3.735645235E1,1.556127071E-1,4.720424652E0,4.475850105E0
3.741644475E1,5.056605339E-1,3.354867458E0,2.867783546E0
3.747643738E1,4.527380466E-1,2.827978373E0,3.007336617E0
3.753643012E1,1.932208776E0,2.050978184E0,-9.882450104E-2
3.759642285E1,1.078213453E-1,1.262095928E0,-4.597557068E0
3.765641615E1,-1.417714596E0,-2.396991968E0,-7.497329712E0
3.771641051E1,-1.422017813E-1,-8.414062500E0,-7.125502110E0
3.777640515E1,7.256496429E0,-1.133902454E1,-2.359999466E1
3.783639961E1,-8.664799690E0,8.490554810E0,1.177439213E0
3.789639414E1,-1.194679260E1,9.102969170E0,5.661934853E0
3.795637570E1,-1.388462067E1,4.078521729E0,2.983768463E0
3.801636853E1,-1.189009285E1,2.854968071E0,-3.372726440E-1
3.807636076E1,-2.160897827E1,9.246802330E0,-4.813744068E0
3.813635316E1,-5.710641861E0,-4.032218933E0,-4.810687542E0
3.819634543E1,2.248931313E1,-1.472520256E1,1.268577576E-2
3.825633772E1,4.605086327E0,-1.198263359E1,-1.253152180E1
3.831633019E1,4.582550526E0,-4.194052219E0,-5.089112282E0
3.837632282E1,-1.858327150E0,-1.075064421E0,-4.913938046E0
3.843631528E1,-4.424932003E0,3.825029850E0,-4.221018791E0
3.849630798E1,-3.953205824E0,2.633765697E0,-2.414557934E0
3.855630071E1,-4.187421799E0,3.682666779E0,-1.504252434E0
3.861629321E1,-4.209234715E0,3.773899078E0,2.305669785E-1
3.867628567E1,-2.202050209E0,2.699108839E0,2.292611122E0
3.873627854E1,-1.896428227E0,5.610311508E0,3.965916634E0
3.879627250E1,-1.219879031E0,5.281185150E0,5.111434937E0
3.885626673E1,1.672434807E-1,3.936728001E0,3.105156898E0
3.891626106E1,1.543900967E-1,1.890149593E0,2.195140839E0
3.897625533E1,-9.421348572E-2,1.225025415E0,4.183502197E-1
3.903624933E1,-8.036604524E-1,1.376574516E0,-3.636054039E0
3.909624196E1,-2.203106880E0,-1.046333313E0,-5.078960896E0
3.915623412E1,-2.519063950E0,-2.513360023E0,-6.058018684E0
3.921622632E1,-7.287050486E-1,-5.773019314E0,-6.616914272E0
3.927621872E1,1.423281479E1,-9.677564621E0,-1.116117096E1
3.933621098E1,-9.994352341E0,1.367709541E1,1.530103302E1
3.939620348E1,-8.826592445E0,9.128454208E0,5.031852722E0
3.945619621E1,-1.059417343E1,3.285843372E0,2.002819061E0
3.951618891E1,-1.201016331E1,2.884491920E0,1.800079346E-1
3.957618144E1,-2.000746536E1,1.055998802E1,-1.311531067E-1
3.963617424E1,-1.743291473E1,-3.263404608E0,-2.349184990E0
3.969616684E1,9.414475441E0,-1.332974911E1,1.269969273E1
3.975615954E1,6.222683430E0,-1.718251991E1,-1.096204758E1
3.981615210E1,3.421760082E0,-1.469833732E0,-6.499481201E0
3.987614536E1,9.658075571E-1,-3.005684614E0,-7.015621185E0
3.993613843E1,-2.015132427E0,-2.178540230E0,-2.703544140E0
3.999613163E1,-5.225110531E0,1.317374945E0,-1.553764343E0
4.005612452E1,-8.000138283E0,2.783399582E0,-5.234547615E0
4.011611755E1,-2.837080479E0,2.217046738E0,-2.208458900E0
4.017610995E1,3.116005898E0,3.704923153E0,-4.197664261E-1
4.023610241E1,8.673915863E0,6.453088760E0,3.609349728E0
4.029609488E1,6.428750038E0,1.121291924E1,3.113950253E0
4.035608741E1,2.538940430E0,8.513955116E0,3.798699856E0
4.041607994E1,5.053939819E-1,3.903439999E0,5.250701904E-1
4.047607240E1,3.046191692E0,2.725983858E0,1.541317940E0
4.053606480E1,2.094513893E0,4.746113777E0,2.092722416E0
4.059605710E1,2.709563732E0,2.105198860E0,-1.384174824E0
4.065604953E1,-1.084862232E0,1.042373657E0,-4.360010624E0
4.071604206E1,-5.305011272E-1,-8.358101845E-1,-2.485925198E0
4.077603459E1,-2.306699753E-3,-1.106551170E0,-6.452688694E0
4.083602705E1,1.153712630E0,-6.566160679E0,-7.022597790E0
4.089602035E1,4.641011715E0,-1.232139778E1,-9.690267563E0
4.095601465E1,3.215563583E1,-1.787693787E1,-1.605849266E0
4.101600898E1,-1.850571442E1,4.332740307E0,-1.838346672E1
4.107600324E1,-3.175091267E0,-4.244430542E0,2.546864033E0
4.113599764E1,-4.968626022E0,2.771440983E0,1.690178871E0
4.119599117E1,-7.851789474E0,4.984527111E0,5.279099941E0
4.125598363E1,-1.208239555E1,7.290264606E0,5.370905876E0
4.131597590E1,-1.805154419E1,1.298313904E1,3.507190704E0
4.137596839E1,-1.348817253E1,-1.426813602E-1,2.357469559E0
4.143596086E1,6.374557495E0,-1.069963455E1,8.776257515E0
4.149595345E1,2.739659309E0,-2.434794426E1,-1.131659126E1
4.155594592E1,9.347112656E0,1.899441361E0,-8.944875717E0
4.161593845E1,-2.801553726E0,-4.353185654E0,-7.603435993E0
4.167593081E1,-4.912692547E0,9.514179230E-1,-7.547050953E0
4.173592321E1,-1.121251583E0,7.296490669E-2,-3.254207134E0
4.179591564E1,-1.787711978E0,-1.287432790E0,-2.812368870E0
4.185590817E1,-2.659662485E0,3.516963720E-1,-3.552258492E0
4.191590070E1,-1.259032488E0,-1.335172653E-1,-3.102312565E0
4.197589350E1,1.245671988E0,-7.938164473E-1,-1.468086720E0
4.203588676E1,6.107152939E0,3.004368305E0,3.758006096E-1
4.209587993E1,7.779414177E0,3.260632277E0,6.076643944E0
4.215587306E1,5.638121605E0,6.708217621E0,7.116589546E0
4.221586619E1,4.636781693E0,8.258847237E0,8.764228821E0
4.227585905E1,3.629466057E0,5.829815865E0,6.118923187E0
4.233585132E1,3.540307045E0,3.442847490E0,3.092199326E0
4.239584372E1,4.093875408E0,3.735126734E0,-2.414116859E-1
4.245583624E1,2.131742954E0,2.688417196E0,-3.547187090E0
4.251582878E1,5.449171066E-1,2.390055656E0,-3.883123159E0
4.257582134E1,-3.333387375E-1,1.726738453E0,-3.436176062E0
4.263581407E1,1.762826920E0,6.663751602E-1,-2.445504665E0
4.269580660E1,4.339278698E0,8.573675156E-1,-2.822114944E0
4.275579893E1,1.968540668E0,-1.337795258E0,-5.437390804E0
4.281579136E1,-7.639908791E-1,-4.930027008E0,-1.168911934E1
4.287578386E1,-2.730400085E0,-1.001272678E1,-1.026264954E1
4.293577619E1,5.063061714E-1,-1.745338631E1,-9.790306091E0
4.299576869E1,4.898394585E0,-3.939862823E1,2.191178513E1
4.305576235E1,-3.111805916E-1,-1.280124283E1,1.073777485E1
4.311575678E1,7.427454472E0,-1.054040146E1,1.433795929E1
4.317575125E1,1.132785606E1,-8.147794724E0,1.304508781E1
4.323574585E1,1.472588062E1,-7.075123310E0,1.433680820E1
4.329574028E1,1.061353970E1,-3.358734131E0,1.513011265E1
4.335573361E1,4.331100941E0,-2.163187504E0,1.115888882E1
4.341572608E1,-5.958491325E0,-1.780606270E0,9.694703102E0
4.347571861E1,-1.345744610E1,2.263999939E0,8.772154808E0
4.353571107E1,-2.088792610E1,3.556791306E0,-1.590104103E1
4.359570364E1,5.576688766E0,-1.060410404E1,1.427686787E1
4.365569617E1,2.389946938E1,-1.834519005E1,-4.726183414E0
4.371568870E1,3.098505497E0,-2.654300451E0,-1.294367409E1
4.377568103E1,2.228003502E0,-2.799023628E0,-1.150551224E1
4.383567332E1,-2.539660215E0,-3.333280087E-1,-6.987510681E0
4.389566582E1,-6.129960537E0,4.510446548E0,-3.879058361E0
4.395565835E1,-5.090742588E0,3.154369593E0,1.815103054E0
4.401565088E1,5.072406769E0,2.840123415E0,2.275515556E0
4.407564341E1,1.454597759E1,3.536025047E0,9.913085938E0
4.413563681E1,8.450248718E0,9.190967560E0,8.521446228E0
4.419563094E1,8.096381187E0,1.147691727E1,1.247421074E1
4.425562530E1,5.351190090E0,1.160816765E1,7.843659401E0
4.431561967E1,5.435221195E0,1.057943535E1,6.717180252E0
4.437561400E1,6.202259064E0,8.375953674E0,6.809913635E0
4.443560743E1,3.648985863E0,6.588945389E0,5.170635223E0
4.449559996E1,1.951915741E0,4.708241463E0,4.040352821E0
4.455559223E1,-5.354881287E-2,2.852748632E0,2.948351383E0
4.461558479E1,-1.847761154E0,2.564516783E0,5.555872917E-1
4.467557725E1,-1.535818577E0,2.894142628E0,2.341437340E0
4.473556985E1,-3.237915039E-1,3.861357212E0,4.192612648E0
4.479556231E1,-3.960895538E-2,5.259921074E0,3.274727821E0
4.485555488E1,-7.679643631E-1,4.742761612E0,3.649120331E0
4.491554708E1,-4.616749763E0,2.378635406E0,-1.461200714E-1
4.497553947E1,-4.309579849E0,-8.281145096E-1,-2.992512703E0
4.503553197E1,-2.137977123E0,-6.110079765E0,-5.859139919E0
4.509552460E1,-3.569185257E0,-8.943551064E0,-8.123482704E0
4.515551710E1,-2.619351864E0,-1.221574402E1,-1.235576344E1
4.521542885E1,2.633646774E1,-3.947120285E1,3.407209015E1
4.527542212E1,-1.249144936E1,7.472886562E0,-1.824164200E1
4.533541522E1,5.934342861E0,9.452661514E0,-5.664534569E-1
4.539540825E1,-5.804401398E0,1.326137543E1,-5.317031860E0
4.545540134E1,-5.815286636E0,1.268578911E1,-1.005898476E0
4.551539414E1,-3.082228899E0,1.242982864E1,-5.494285107E0
4.557538647E1,-4.568266392E0,9.292369843E0,-3.662940025E0
4.563537897E1,-5.913912296E0,1.054270363E1,-4.169095993E0
4.569537143E1,-9.190030098E0,1.614029694E1,-2.125653744E0
4.575536396E1,-1.889576721E1,1.477487659E1,-3.238062859E-1
4.581535649E1,-1.209553623E1,9.409453392E0,-3.993458748E0
4.587534902E1,2.489126921E0,-1.230192184E1,8.355548859E0
4.593534132E1,1.490857220E1,-4.058841324E1,-1.150569344E1
4.599533372E1,-6.391123533E-1,5.711044788E0,-5.686222553E0
4.605532618E1,2.631572247E0,-8.419670105E0,-4.166582108E0
4.611531871E1,-1.284716988E1,-3.678410292E0,-8.089148521E0
4.617531121E1,-5.916416645E0,-1.033217013E-1,-5.916481972E0
4.623530387E1,-8.384638786E0,1.666169405E0,-3.558034420E0
4.629529764E1,-7.297201157E0,3.992417812E0,1.784117699E0
4.635529211E1,-2.343900204E0,1.928168535E0,1.546254158E0
4.641528657E1,6.080043793E0,2.151654720E0,-2.166414261E-2
4.647528107E1,9.742805481E0,5.330998898E0,3.119066000E0
4.653527547E1,5.925051689E0,8.144701004E0,5.244007111E0
4.659526877E1,3.952006340E0,7.919897079E0,4.042089462E0
4.665526117E1,1.991270065E0,5.894477367E0,3.569087744E0
4.671525370E1,2.315539360E0,4.088770866E0,1.488213301E0
4.677524623E1,2.096656799E0,2.586894512E0,4.508519173E-1
4.683523876E1,1.905107498E0,2.069244385E0,4.001059532E-1
4.689523119E1,1.177638054E0,2.286743641E0,8.369722366E-1
4.695522372E1,-1.672534943E-1,2.005596161E0,4.821777344E-1
4.701521605E1,6.182756424E-1,2.040712595E0,1.108788490E0
4.707520848E1,1.744504929E0,3.433306456E0,1.274613857E0
4.713520101E1,1.160307407E0,3.470187187E0,-1.655557156E0
4.719519350E1,-2.955391407E0,1.550089359E0,-4.125590324E-1
4.725518603E1,-4.475747108E0,-7.883839607E-1,-2.079256535E0
4.731517860E1,-4.777265072E0,-3.620513678E0,-3.060217619E0
4.737517200E1,-7.895497322E0,-6.949226379E0,-4.691453457E0
4.743516620E1,-7.679510117E0,-9.959114075E0,-6.029374599E0
4.749516059E1,5.572762489E-1,-1.717226028E1,-9.189589500E0
4.755515486E1,1.289577484E1,-1.846446991E1,3.366892099E0
4.761514915E1,-4.283307552E0,1.770800591E1,1.655028939E0
4.767514248E1,1.196553135E1,4.460297823E-1,1.115644646E1
4.773513495E1,8.119573593E0,8.509679794E0,3.487262249E0
4.779512728E1,8.578148842E0,8.823427200E0,4.209644794E0
4.785512004E1,4.553937912E0,9.313866615E0,-1.251100302E-1
4.791511250E1,6.437110901E-1,7.917663574E0,8.655104637E-1
4.797510500E1,-3.325591564E0,5.305424690E0,6.864948273E-1
4.803509747E1,-4.734812737E0,6.986759186E0,-1.294198036E0
4.809509000E1,-6.514651299E0,8.388570786E0,1.509096146E0
4.815508209E1,-1.701159668E1,1.471155739E1,3.981971741E-2
4.821507452E1,-1.347050190E1,4.401469231E-1,-3.773512840E0
4.827506705E1,2.887781143E0,-1.214660645E1,9.213306427E0
4.833505958E1,1.341994572E1,-3.125993156E1,-8.222919464E0
4.839505205E1,-1.830744982E0,-3.923303843E0,-5.719644547E0
4.845504501E1,-1.055569649E-1,-7.678725243E0,-1.335331917E1
4.851503824E1,-3.596714973E0,6.757917404E-1,-6.742849350E0
4.857503141E1,-2.682156086E0,-1.168670416E0,-5.675180435E0
4.863502454E1,-2.996265173E0,-2.503325343E-1,-3.154894829E0
4.869501760E1,-2.248408794E0,2.162865400E0,-1.251511574E0
4.875501030E1,2.770576954E0,1.975793540E-1,-5.163393021E-1
4.881500263E1,7.888977528E0,1.958040714E0,-3.580288887E-1
4.887499513E1,9.277401924E0,6.111532211E0,3.907930374E0
4.893498759E1,7.219976425E0,9.073249817E0,3.353698254E0
4.899498019E1,5.126116753E0,9.812713623E0,4.431171894E0
4.905497265E1,2.253227234E0,7.927303314E0,1.493844032E0
4.911496525E1,3.556280613E0,5.067071438E0,-9.770774841E-2
4.917495751E1,4.694699287E0,2.679862499E0,-8.570184708E-1
4.923494998E1,1.191641808E0,1.387375593E0,-6.702728271E-1
4.929494244E1,1.121566296E0,1.380991697E0,4.540276527E-1
4.935493504E1,1.812663078E-1,1.384963512E0,1.322061539E0
4.941492744E1,1.949854374E0,1.703724265E0,2.263379097E0
4.947492013E1,6.734538078E-1,2.183691263E0,1.162035942E0
4.953491393E1,-2.502336502E-1,2.623314857E0,2.336561680E0
4.959490833E1,9.055037498E-1,2.914082050E0,3.700809479E0
4.965490259E1,1.198675632E-1,3.007111549E-1,1.681996346E0
4.971489692E1,3.392164707E-1,-2.357340336E0,-3.015634060E0
4.977489109E1,-1.311738491E-1,-3.806866407E0,-5.405616760E0
4.983488402E1,-2.669367552E0,-3.931684732E0,-8.765473366E0
4.989487635E1,-5.488107204E0,-4.228421211E0,-9.243330956E0
4.995486894E1,-4.457006454E0,-1.023788071E1,-1.148340225E1
5.001486148E1,3.754446030E0,-1.353278542E1,-2.704407501E1
5.007485401E1,-5.855856895E0,1.068758678E1,-2.214802551E1
5.013484657E1,6.503431320E0,1.475657177E1,4.989476204E-1
5.019483907E1,-1.081597328E0,1.775208664E1,-3.145843029E0
5.025483133E1,-2.304686546E0,1.472798729E1,-9.250416756E0
5.031482366E1,-5.680463791E0,1.099122620E1,-6.862290859E0
5.037481609E1,-8.337656021E0,8.850564003E0,-9.573570251E0
5.043480856E1,-8.283972740E0,3.612626553E0,-9.647771835E0
5.049480105E1,-9.021877289E0,9.562335014E-1,-1.067581081E1
5.055479355E1,-7.491783142E0,-5.008797646E-1,-1.744071007E0
5.061478672E1,-6.492556095E0,-1.512327003E1,5.143113613E0
5.067477995E1,4.380618286E1,-2.346882057E1,-1.290225983E0
5.073477311E1,-8.072133064E0,2.380104065E-1,-6.174134731E0
5.079476614E1,-3.008614540E0,-6.763100624E0,-2.202205658E-1
5.085475931E1,-4.168724060E0,7.469036579E-1,-2.748140812E0
5.091475174E1,-5.760299206E0,-2.896553516E0,-4.646863461E0
5.097474427E1,-8.937301636E-1,-5.310835838E-1,-2.747956753E0
5.103473673E1,-1.066591978E0,-5.251002312E-1,-1.444127560E0
5.109472936E1,-1.595139980E0,1.420941830E0,-1.015614986E0
5.115472186E1,-1.104271412E0,1.353876352E0,-6.734862328E-1
5.121471446E1,1.349816799E0,1.821228981E0,6.344318390E-1
5.127470672E1,3.275661469E-1,1.269396663E0,-2.276287079E0
5.133469905E1,2.981223583E0,1.951143503E0,3.121213913E-1
5.139469138E1,9.758830070E-1,3.012373447E0,1.116380692E-1
5.145468395E1,1.896057606E0,3.089717865E0,1.220212460E0
5.151467641E1,2.216926575E0,3.516924381E0,1.393285751E0
5.157466894E1,2.634651184E0,3.677727699E0,1.887125969E0
5.163466197E1,2.351412773E0,3.188966751E0,1.310414791E0
5.169465610E1,1.465710640E0,1.948267221E0,-1.252579689E-1
5.175465057E1,1.786971092E0,7.046087384E-1,-9.468073845E-1
5.181464510E1,1.266756058E0,1.327951550E-1,-1.088574886E0
5.187463964E1,7.363862991E-1,3.277689815E-1,-8.363060951E-1
5.193463367E1,4.971685410E-1,-2.448999882E-2,-7.645082474E-1
5.199462656E1,1.122803688E-1,-3.137183785E-1,-3.722705841E-1
5.205461893E1,6.474142075E-1,-2.392007709E-1,9.584913254E-1
5.211461149E1,5.570306778E-1,-2.363590002E-1,6.979250908E-1
5.217460402E1,2.619361877E-2,-1.393915415E-1,4.793348312E-1
5.223459655E1,6.895613670E-1,-5.911279917E-1,1.151822090E0
5.229458898E1,1.278985023E0,-4.285066128E-1,2.047857761E0
5.235458148E1,3.677158356E-1,4.749727249E-2,1.733551025E0
5.241457371E1,7.830042839E-1,5.177755356E-1,1.298709869E0
5.247458542E1,9.621076584E-1,2.538704872E-1,1.005158424E0
5.253457792E1,9.894752502E-2,-4.642171860E-1,1.349151134E0
5.259457052E1,1.149873495E0,2.439279556E-1,-3.592796326E-1
5.265456298E1,-4.943301678E-1,1.375033855E0,-5.367211342E0
5.271455578E1,-6.701686382E-1,1.383251190E0,-4.823389530E0
5.277454961E1,-1.332175732E0,4.512629509E-1,-4.315072060E0
5.283454391E1,-3.885914326E0,-1.968187809E0,-5.282276630E0
5.289453817E1,-2.016126871E0,-4.822005272E0,-7.148731232E0
5.295453257E1,-9.151103497E-1,-1.168767357E1,-1.367006207E1
5.301452663E1,9.650026321E0,-1.920783806E1,-1.220986366E1
5.307451946E1,-1.126439381E1,-1.881218910E1,3.197660446E1
5.313451179E1,1.375354385E1,-4.365446091E0,1.382314301E1
5.319450432E1,7.019006252E0,7.255764008E-1,1.990341187E1
5.325449679E1,1.569581032E-1,4.635956764E0,1.826596642E1
5.331448932E1,-1.773998737E0,6.174607277E0,9.179019928E0
5.337448188E1,-6.048539162E0,4.187285423E0,5.352021694E0
5.343447441E1,-1.834242439E1,1.374216366E1,-5.722342014E0
5.349446674E1,-1.109623146E1,-1.304070663E1,9.977817535E0
5.355445901E1,7.395421028E0,-4.218934631E1,-8.554039001E0
5.361445154E1,1.461658001E1,7.354007959E-1,-8.713364601E0
5.367444407E1,-5.507430077E0,-1.374389362E1,-1.215295601E1
5.373443660E1,-4.809277534E0,-3.586059213E-1,-8.273508072E0
5.379442913E1,-2.671439648E0,-1.542463899E-1,-5.030580997E0
5.385442240E1,-5.509297371E0,1.007166862E0,-1.532378197E0
5.391441546E1,-9.876543045E0,2.731814384E0,-3.910602093E0
5.397440856E1,-4.328501701E0,1.236745119E0,-3.943729401E-2
5.403440162E1,3.947748423E0,1.048600793E0,4.139251709E-1
5.409439478E1,6.498694897E0,4.260300636E0,1.745445728E0
5.415438718E1,3.841549397E0,7.656094074E0,2.951562405E0
5.421437968E1,8.049430847E-1,7.770293236E0,2.462504864E0
5.427437214E1,1.438223362E0,4.900363445E0,2.262815952E0
5.433436467E1,2.051173210E0,2.277354002E0,1.598719120E0
5.439435710E1,9.358539581E-1,6.079223752E-1,3.968477249E-2
5.445434970E1,6.667137146E-2,-2.371060848E-2,-2.408170700E-1
5.451434206E1,1.167560101E0,-8.361768723E-1,-9.133539200E-1
5.457433443E1,-9.026627541E-1,-1.216222644E0,-2.431019783E0
5.463432689E1,-1.071418762E0,-5.367977619E-1,-9.909448624E-1
5.469431942E1,-1.413101196E0,-1.735351443E0,1.070928574E-2
5.475431188E1,-5.458245277E-1,-1.377989054E0,-1.279234886E0
5.481430441E1,3.000264168E-1,2.123054743E0,-1.779003143E0
5.487429751E1,3.209642887E0,6.130405426E0,-3.698113680E0
5.493429168E1,1.207162380E0,5.648051262E0,-5.778400898E0
5.499428601E1,5.303888321E-1,-5.683977604E-1,-6.150059700E-1
5.505428027E1,7.162737846E0,7.138974190E0,5.577004433E0
5.511427460E1,4.998584270E0,4.920284271E0,-1.746149540E0
5.517426833E1,1.635435295E1,-1.772619009E0,-8.331087112E0
5.523426093E1,2.285208130E1,-1.727466011E1,-7.040050030E0
5.529425333E1,-2.151300049E1,-2.449950027E1,-2.172738266E1
5.535424592E1,-3.070254564E0,-1.619863701E1,3.651675701E0
5.541423839E1,6.678982735E0,-2.267029285E0,4.462965965E0
5.547423092E1,-9.052846432E-1,-2.134444237E0,4.047792435E0
5.553422341E1,-7.197489738E-1,2.133917809E-2,5.584039688E-1
5.559421588E1,-3.973438740E0,2.156602621E0,-2.088372707E0
5.565420814E1,-7.676301003E0,5.393706560E-1,1.181875706E0
5.571420057E1,-1.032218361E1,1.423272729E0,-2.950059175E0
5.577419304E1,-1.314284325E1,4.938227654E0,-1.071308517E1
5.583418557E1,2.108807564E0,-7.375799656E0,1.028724766E1
5.589417803E1,1.455519295E1,-3.249481201E1,-1.799895859E1
5.595417080E1,5.458542824E0,9.549779892E0,-6.520602226E0
5.601416403E1,8.536613464E0,-1.136466408E1,-5.731799603E0
5.607415726E1,2.001956940E0,1.975522041E0,-4.789919853E0
5.613415032E1,3.370997906E-1,1.563913107E0,-4.969170094E0
5.619414345E1,6.007918119E-1,-4.149999619E-1,-2.526731014E0
5.625413635E1,2.175979376E0,3.567365646E0,-3.400411129E0
5.631412875E1,5.169387341E0,7.647247910E-1,-1.409993649E0
5.637412108E1,1.106441021E1,9.896386862E-1,4.787082672E-1
5.643411361E1,6.634259701E0,4.173245907E0,2.735931873E0
5.649410614E1,2.325784206E0,4.497960567E0,2.690135479E0
5.655409867E1,1.745649338E0,3.714530230E0,2.002455711E0
5.661409117E1,1.808318615E0,2.109363794E0,1.596466541E0
5.667408363E1,2.411516190E0,1.012810707E0,8.507690430E-1
5.673407596E1,2.439673424E0,-8.052163124E-1,4.355320930E-1
5.679406846E1,-5.349540710E-1,-7.010203004E-1,-2.990837097E-1
5.685406099E1,-1.330124855E0,-9.384227991E-1,-8.660635948E-1
5.691405342E1,-7.952537537E-1,-1.306446791E0,-6.357975006E-1
5.697404618E1,-1.089795589E0,-8.048098087E-1,6.778898239E-1
5.703403975E1,-8.552756310E-1,5.346060395E-1,3.154230118E-1
5.709403408E1,-4.201550484E-1,1.251306057E0,1.631661415E0
5.715402861E1,1.911100864E0,3.003942490E0,1.997271061E0
5.721402321E1,3.822137356E0,3.116823196E0,9.880518913E-1
5.727401741E1,4.186661720E0,4.755259037E0,-1.574953556E0
5.733401091E1,-2.421564579E0,-3.277828693E0,-6.905130386E0
5.739400344E1,9.440809250E0,6.915115356E0,-9.259333611E0
5.745399597E1,3.729839325E0,2.999116898E0,-5.855609894E0
5.751398843E1,2.789512825E1,-2.757505989E1,2.726152802E1
5.757398103E1,-1.791155624E1,-1.067668438E1,-1.554808140E0
5.763397349E1,-4.931084633E0,-4.039906502E0,-1.752241135E0
5.769396599E1,2.911388874E0,-1.047598839E0,2.109704018E0
5.775395825E1,-6.243182421E-1,-3.276786804E-1,-1.141241074E0
5.781395065E1,-4.302900314E0,3.158774376E-1,-1.753777981E0
5.787394312E1,-5.789751053E0,4.989619732E0,-8.292413712E0
5.793393565E1,-2.480434036E1,1.165189552E1,-9.704252243E0
5.799392818E1,-6.321674347E0,-7.335849762E0,2.525541782E0
5.805392074E1,2.285468483E1,-3.871192169E1,9.261598587E-1
5.811391397E1,1.247114658E1,-4.273331642E0,-8.260837555E0
5.817390814E1,-4.123764992E0,-2.726694107E0,-1.079275799E1
5.823390250E1,2.274323940E0,2.629618406E0,-4.774901390E0
5.829389683E1,2.121598244E0,-2.081191540E-2,-4.025758266E0
5.835389113E1,7.419993877E-1,7.749862075E-1,-2.869596958E0
5.841388462E1,6.656806469E-1,7.908726931E-1,-1.437720776E0
5.847387712E1,2.047061443E0,1.053599596E0,1.297873497E0
5.853386942E1,2.513554335E0,6.141822338E-1,3.190705299E0
5.859386198E1,3.984407425E0,9.926614761E-1,5.117917061E0
5.865385448E1,4.485691071E0,2.767962694E0,6.084037781E0
5.871384708E1,1.913065910E0,4.070713043E0,5.340451241E0
5.877383954E1,2.379889011E0,3.136083841E0,5.359623432E0
5.883383207E1,1.813826084E0,1.836275935E0,2.488681793E0
5.889382430E1,2.012558937E0,8.738199472E-1,5.376749039E-1
5.895381673E1,1.958063126E0,1.264394283E0,-5.912876129E-2
5.901380930E1,1.469254971E0,1.855507374E0,9.495868683E-1
5.907380189E1,1.332161903E0,2.263610363E0,1.634264946E0
5.913379436E1,-1.374084949E-1,4.436728954E-1,5.686435699E-1
5.919378716E1,9.529693127E-1,-8.492221832E-1,1.415176392E-1
5.925378036E1,-4.553329945E-1,3.555865288E-1,-7.196230888E-1
5.931377345E1,4.289350510E-1,2.096677780E0,-5.052776337E-1
5.937376652E1,2.340002298E0,-1.510702610E0,-2.590300560E0
5.943375964E1,1.576703429E0,-6.980934620E0,-3.330863953E0
5.949375251E1,3.593356907E-1,-1.471994781E1,-1.186024857E1
5.955374484E1,-1.872439957E1,-5.811029911E0,-1.119948196E1
5.961373727E1,-3.229345560E0,-3.816593647E0,-1.065181732E1
5.967372980E1,4.788994789E0,4.263638496E0,-2.392999887E0
5.973372233E1,-5.589313507E0,8.443571091E0,-1.196621895E0
5.979367479E1,-1.292069149E1,1.336078453E1,1.985252857E0
5.985366732E1,-1.414402199E1,1.301262665E1,1.601668358E0
5.991365962E1,-1.866818619E1,1.293482208E1,-1.945771217E0
5.997365198E1,-1.549094558E0,-1.105069160E1,5.488449574E0
6.003364451E1,1.873236847E1,-4.708047104E1,-1.343873978E1
6.009363704E1,1.666555047E0,-8.856479645E0,-1.241708946E1
6.015362954E1,1.862306118E0,-8.360201836E0,-6.536765099E0
6.021362217E1,-7.259090424E0,-3.241890669E0,-6.605605125E0
6.027361580E1,-3.916759968E0,-5.536997318E-1,-3.636502266E0
6.033361010E1,-6.183248997E0,-1.476335883E0,-3.077965736E0
6.039360443E1,-4.719788551E0,1.981116772E0,1.947140694E0
6.045359879E1,-1.484174728E-1,-3.407750130E-1,-5.806775093E-1
6.051359302E1,8.433269501E0,1.649859428E0,-5.776381493E-1
6.057358622E1,6.843235016E0,3.533427238E0,1.205710649E0
6.063357852E1,1.575255394E0,5.620262146E0,1.683727264E0
6.069357089E1,2.757426262E0,5.128365517E0,3.951670885E0
6.075356335E1,2.971095085E0,3.627635002E0,1.786410093E0
6.081355605E1,3.319666862E0,2.047665596E0,6.770372391E-1
6.087354851E1,2.047480583E0,1.959149837E0,5.465693474E-1
6.093354110E1,5.151110649E0,3.116919279E0,1.972929001E0
6.099353354E1,5.941369534E0,4.943730354E0,-8.247184753E-1
6.105352587E1,6.867979050E0,7.302856922E0,-3.706029654E0
6.111351816E1,4.025733948E0,4.584038258E0,-5.997839451E0
6.117351080E1,2.428882837E0,-3.543585300E0,-4.551077843E0
6.123350326E1,1.209613323E0,-5.967615604E0,-7.480368614E0
6.129349582E1,-1.867952943E0,-6.758708000E0,-8.742311478E0
6.135348889E1,-9.362256527E-1,-7.847655296E0,-1.178109264E1
6.141348209E1,-2.844044447E0,-1.411454582E1,-1.494637966E1
6.147347512E1,1.086121082E1,-1.736272049E1,-2.660415649E1
6.153346825E1,-6.572698593E0,-1.802963257E0,1.054067612E1
6.159346134E1,3.805506706E0,-4.255287170E0,9.730510712E0
6.165345394E1,4.318879128E0,-6.044886112E0,6.763682842E0
6.171344634E1,2.047079849E1,-8.983277321E0,3.636726856E0
6.177343884E1,1.716990662E1,-5.242491245E0,8.695453644E0
6.183343153E1,1.094858837E1,9.168806672E-1,1.838180304E0
6.189342406E1,5.539288521E0,-1.459274650E0,5.543052673E0
6.195341659E1,2.188224792E-1,3.364249468E0,4.089433670E0
6.201340899E1,-4.491424561E0,2.654047251E0,3.756796837E0
6.207340146E1,-9.521965027E0,4.405909538E0,9.434464455E0
6.213339369E1,-2.015099335E1,8.647067070E0,-1.412381172E1
6.219338628E1,1.407379389E0,-1.237210369E1,8.418654442E0
6.225337875E1,1.869142342E1,-2.405305481E1,1.729283333E0
6.231337134E1,3.354777336E0,-6.353840828E0,-9.662610054E0
6.237336401E1,1.306939602E0,-6.296799183E0,-1.148895931E1
6.243335794E1,-4.948119640E0,1.405190825E0,-8.528281212E0
6.249335234E1,-4.052161694E0,7.306780815E-1,-6.560943604E0
6.255334687E1,-5.439764977E0,3.515825272E0,-4.739101410E0
6.261334134E1,-2.274317265E0,3.534431934E0,-4.028055191E0
6.267333567E1,1.143887711E1,-1.373581767E0,7.540793419E-1
6.273332867E1,1.455216789E1,5.810598850E0,3.503344774E0
6.279332103E1,5.399297714E0,9.600362778E0,3.638276577E0
6.285331356E1,2.722684860E0,9.069657326E0,3.159574747E0
6.291330609E1,2.719097137E0,7.237236023E0,3.782084465E0
6.297329852E1,2.929479599E0,4.362058640E0,1.866395473E0
6.303329105E1,3.020568848E0,1.564470053E0,1.134479046E0
6.309328358E1,2.442507744E0,-3.140773773E-1,-9.609293938E-1
6.315327591E1,4.061822891E-1,-9.096668363E-1,-2.047035217E0
6.321326838E1,-2.784957886E-1,-9.778623581E-1,-2.480492115E0
6.327326101E1,3.618984222E-1,2.246657848E0,3.842020035E-1
6.333325354E1,-1.432655334E0,4.369506359E0,3.884828568E0
6.339324604E1,1.140970707E0,3.660361290E0,8.317626953E0
6.345323863E1,2.975149155E-1,1.248372078E0,5.273600578E0
6.351323230E1,-1.853742599E0,9.879541397E-2,1.131629944E0
6.357322653E1,-3.768279314E0,-2.141968250E0,-2.390799999E0
6.363322082E1,-5.487442970E0,-5.506242275E0,-4.567899227E0
6.369321516E1,-6.747546196E0,-1.007429314E1,-4.102069855E0
6.375320935E1,-7.995949745E0,-1.488705826E1,-1.024567509E1
6.381320242E1,8.426678658E0,-2.697859573E1,-1.603385925E1
6.387319468E1,-1.144660473E0,2.093133926E1,-6.654203415E0
6.393318718E1,9.504083633E0,1.506270409E1,-4.743661880E-1
6.399317964E1,9.213460922E0,1.451779175E1,-8.481116295E-1
6.405317217E1,8.902267456E0,1.833481789E1,1.973621845E0
6.411316464E1,-2.812970638E0,1.718991089E1,3.591521263E0
6.417315720E1,8.709783554E-1,1.427654934E1,-3.416106939E0
6.423314953E1,-4.709536552E0,1.046039867E1,3.778319359E-1
6.429314186E1,-5.524849892E0,1.555530548E1,6.367206573E0
6.435313432E1,-6.814598083E0,1.565763855E1,-5.314695835E0
6.441312686E1,-2.085669041E-1,-1.315169048E1,1.253136635E0
6.447311942E1,2.070831108E1,-3.975953674E1,-2.346305466E1
6.453311195E1,3.265496254E0,-3.865807533E0,-9.025370598E0
6.459310505E1,4.048908710E0,-7.357794762E0,-7.723092556E0
6.465309825E1,-7.795518875E0,-1.482931852E0,-8.880180359E0
6.471309144E1,-4.863553524E0,5.221731663E-1,-5.202558994E0
6.477308444E1,-8.084850311E0,4.444687665E-1,-5.178408146E0
6.483307757E1,-8.006753922E0,3.950888395E0,-1.318054199E0
6.489307027E1,-1.013789654E0,7.497599721E-1,1.961264610E0
6.495306267E1,1.056723690E1,1.406565666E0,1.588181496E0
6.501305506E1,9.165824890E0,6.282374859E0,2.665000916E0
6.507304766E1,2.506425858E0,8.779394150E0,1.770598888E0
6.513304012E1,1.617309093E0,7.824936867E0,7.606186867E-1
6.519303252E1,3.644235134E0,5.127701759E0,1.102721691E0
6.525302492E1,3.093169212E0,3.465375662E0,-1.840190887E-1
6.531301732E1,2.785168171E0,1.934707642E0,-1.152004719E0
6.537300968E1,1.457252026E0,1.111330986E0,-2.594718456E0
6.543300228E1,1.339152336E0,2.685942650E-1,-2.321142197E0
6.549299474E1,-3.344001770E-1,7.727293968E-1,-1.734967232E0
6.555298734E1,-6.211185455E-1,1.443527222E0,-2.744488716E-1
6.561298020E1,-1.471589565E0,1.413201928E0,1.534897804E0
6.567297430E1,2.073559761E-1,-2.787280083E-2,1.892621517E0
6.573296856E1,-5.862970352E-1,-9.465099573E-1,-2.921152115E-1
6.579296296E1,-1.187281132E0,-9.171476364E-1,-8.970637321E-1
6.585295722E1,-1.379046917E0,-9.760117531E-2,-8.769364357E-1
6.591295122E1,7.375092506E-1,1.430845022E0,-1.342192650E0
6.597294388E1,1.186975479E0,2.364397526E0,-1.876199961E0
6.603293628E1,-3.007669449E-1,2.422233820E0,-3.235551834E0
6.609292865E1,-9.543232918E-1,2.967336416E0,-3.637955666E0
6.615292118E1,-2.939237595E0,-1.041187525E0,1.100557804E0
6.621291364E1,9.516471863E0,4.620386124E0,-8.427284241E0
6.627290617E1,-3.431464195E0,-9.427909851E0,-9.923040390E0
6.633289860E1,-3.066818237E0,-1.153023338E1,-3.943418884E1
6.639289103E1,-3.779681206E0,3.240255833E0,4.898461342E0
6.645288336E1,7.394247055E-1,-3.139992714E0,9.927568436E0
6.651287586E1,2.896902084E0,-4.701106071E0,5.731744766E0
6.657286839E1,-2.085786819E0,-7.685417175E0,2.041520119E0
6.663286089E1,1.335983276E-1,-5.625396729E0,-7.636008263E-1
6.669285352E1,-6.091952324E-1,-1.955260754E0,-1.443616867E0
6.675284678E1,-3.647044659E0,1.197514534E0,1.290055275E0
6.681284005E1,-1.299624538E1,7.893389702E0,4.213419914E0
6.687283311E1,-2.091510773E1,-1.829539537E-1,-1.360355186E1
6.693282631E1,1.044383049E1,-1.482241344E1,1.771462822E1
6.699281927E1,2.241539574E1,-2.403179359E1,3.500154495E0
6.705279495E1,4.743021488E0,-3.949791908E0,-7.433362961E0
6.711278725E1,3.132573843E0,-4.907095432E0,-1.049234867E1
6.717277985E1,5.508177280E-1,1.810762882E0,-5.808112621E0
6.723277231E1,-1.149691463E0,6.911686659E-1,-4.523091793E0
6.729276491E1,-2.859510183E0,4.040842056E0,-5.588042259E0
6.735275737E1,-6.701975465E-1,4.419118881E0,-2.227359772E0
6.741274980E1,4.024245262E0,2.974807024E0,-4.597854614E-2
6.747274206E1,9.279208183E0,3.198752403E0,1.641644001E0
6.753273456E1,6.673813820E0,7.074871540E0,3.570480108E0
6.759272703E1,2.644646645E0,8.018985748E0,1.944969654E0
6.765271959E1,1.082349777E0,5.534140587E0,2.217073917E0
6.771271209E1,1.463942528E0,3.076670408E0,1.225278378E0
6.777270539E1,1.479726791E0,1.113692284E0,-3.038873672E-1
6.783269958E1,1.613121033E-1,-4.063244760E-1,-1.103785992E0
6.789269412E1,-2.040338516E-2,-1.351062655E0,-1.399377823E0
6.795268868E1,-9.521574974E-1,-1.494894147E0,-1.550613880E0
6.801268322E1,-1.186208248E0,-1.384302855E0,-1.053525925E0
6.807267698E1,-1.613408566E0,-8.950644135E-1,-1.469597816E-1
6.813266964E1,-1.356670856E0,-2.689317465E-1,6.148562431E-1
6.819266214E1,4.500217438E-1,1.203793049E0,7.211828232E-2
6.825265460E1,1.584868431E0,3.319498301E0,-6.093244553E-1
6.831264710E1,1.503047943E0,7.391687393E0,-1.258363008E0
6.837263957E1,1.140383720E0,7.381418705E0,-2.136779070E0
6.843263213E1,3.691636086E0,8.414087296E0,-2.030128956E0
6.849262446E1,5.940317154E0,3.559722185E0,-1.347467899E0
6.855261679E1,1.115994453E1,9.333304405E0,5.877485275E-1
6.861260929E1,9.493404388E0,4.053472996E0,-3.363214493E0
6.867260188E1,6.877447605E0,1.574239731E-1,-5.999042511E0
6.873259435E1,-5.490961552E0,-8.651580811E0,-1.643230820E1
6.879258691E1,1.193095207E1,-2.036221886E1,-1.914278221E1
6.885257988E1,-7.465489864E0,-1.560629272E1,-2.001368904E1
6.891257388E1,-9.054027557E0,-1.906451035E1,9.877780914E0
6.897256814E1,-2.392422915E0,-1.272127533E1,5.046024799E0
6.903256254E1,-3.862650156E0,-1.199472618E1,9.311836243E0
6.909255680E1,-3.848778248E0,-7.106653214E0,9.203223228E0
6.915255063E1,9.587612152E-1,-3.228849888E0,6.781468391E0
6.921254330E1,-6.233153343E-1,3.962345123E-1,6.541249275E0
6.927253566E1,-9.415811300E-2,-2.561521530E-2,1.183795452E0
6.933252816E1,-1.914428115E0,-1.853196859E0,-5.363850594E-1
6.939252069E1,-5.825091362E0,-4.053325653E-1,-4.519992352E0
6.945251322E1,-1.286380005E1,2.677985430E0,-1.048670864E1
6.951250575E1,-4.125313759E0,2.462006330E0,-5.740669727E0
6.957249828E1,3.637780190E0,-8.751442909E0,1.235724449E1
6.963249051E1,2.091262436E1,-3.511883926E1,-8.114117622E0
6.969248294E1,7.189160347E0,-7.153344154E0,-2.298366547E0
6.975247547E1,8.360026479E-1,-5.969868660E0,-6.233662605E0
6.981246800E1,-1.816047788E0,3.672802210E0,-6.198287964E0
6.987246060E1,9.743051529E-1,8.442461491E-1,4.148626328E-1
6.993245333E1,1.588090181E0,-9.199619293E-3,2.251780510E0
6.999244649E1,1.736654758E0,-1.309211254E0,2.594858646E0
7.005243962E1,1.469340324E0,-1.547837257E0,2.428667068E0
7.011243269E1,1.938054085E0,-4.126958847E-1,2.535956860E0
7.017242572E1,2.103481293E0,1.077202797E0,3.234790325E0
7.023241865E1,1.210298061E0,1.348756313E0,2.593734741E0
7.029241105E1,1.110391140E0,7.928900719E-1,1.849683762E0
7.035240344E1,7.578015327E-1,-4.001431465E-1,-3.323702812E-1
7.041239597E1,1.197696209E0,2.536444664E-1,-7.506670952E-1
7.047238844E1,1.492046356E0,-5.321912766E-1,-1.334309578E-1
7.053238103E1,8.760628700E-1,-5.314421654E-1,-4.887104034E-3
7.059237350E1,-3.845100403E-1,-1.518197060E-1,2.935290337E-1
7.065236590E1,-9.409847260E-1,-2.947618961E-1,4.075884819E-1
7.071235823E1,-2.123303413E-1,-5.240440369E-4,2.636242867E0
7.077235076E1,-6.845717430E-1,-9.362447262E-1,1.927466393E0
7.083234322E1,-7.953238487E-1,-1.911560774E0,1.333060265E-1
7.089233582E1,-1.215514183E0,-2.365962029E0,-1.273161888E0
7.095232835E1,-7.655911446E-1,-2.075090408E0,-2.166522980E0
7.101232181E1,-1.985511780E-1,-3.262715101E0,-1.247281075E0
7.107231608E1,5.555090904E-1,-1.570147991E0,-2.434663296E0
7.113231040E1,-8.154902458E-1,1.223985434E0,-3.358511448E0
7.119230467E1,2.644586563E-2,4.608213902E-1,-3.007473946E0
7.125229900E1,3.947808743E0,-6.103825569E-1,2.728157997E0
7.131229240E1,2.036132336E0,-1.425299168E0,2.059502602E-1
7.137228479E1,4.120908260E0,2.642860413E0,7.959765434E0
7.143227712E1,2.754319668E0,1.367977142E0,4.461804390E0
7.149226959E1,-3.220229387E0,-2.201043367E0,1.999560356E0
7.155226209E1,-4.959158897E0,-1.053932953E1,-4.938065052E0
7.161225462E1,4.368002892E0,-8.714437485E0,-2.490248489E1
7.167224715E1,6.014458656E0,2.973134613E1,-1.823853493E1
7.173223978E1,1.748848724E1,1.192765236E1,1.200529814E0
7.179223218E1,-8.355808258E-2,1.319178009E1,-8.364558220E-1
7.185222454E1,3.959469795E0,1.042194176E1,1.587295532E0
7.191221707E1,4.216527939E-2,9.636108398E0,-9.064158440E0
7.197220953E1,-2.399910450E0,8.570603371E0,-7.297966003E0
7.203220196E1,-1.364149094E0,9.770063400E0,-3.083040714E0
7.209219500E1,-7.627351761E0,1.381507969E1,2.818276405E0
7.215218833E1,-1.415427494E1,8.210794449E0,4.023647308E-1
7.221218139E1,1.682401538E0,-1.854635429E1,1.306721592E1
7.227217452E1,1.199931335E1,-5.066851044E1,-3.337259293E-1
7.233216762E1,7.350445986E-1,-3.706247091E0,-7.369029999E0
7.239216025E1,7.456169128E-1,-1.398505783E1,-1.040647125E1
7.245215252E1,-4.066195488E0,1.987178326E0,-1.202630806E1
7.251214501E1,-9.301917553E-1,-2.894876957E0,-8.639152527E0
7.257213754E1,-2.592020988E0,-2.631890535E0,-4.773701191E0
7.263213004E1,-3.086425781E0,-2.607720852E0,2.342823029E0
7.269212254E1,-2.188667774E0,-3.188182592E0,2.000862122E0
7.275211507E1,5.142373562E0,-3.855209827E0,5.166452885E0
7.281210743E1,1.238322449E1,1.402421713E0,8.560678482E0
7.287209976E1,8.895185471E0,8.395781517E0,1.100627422E1
7.293209229E1,3.318220139E0,8.936081886E0,4.341882706E0
7.299208472E1,2.859946251E0,5.224615097E0,1.929768085E0
7.305207725E1,3.669049263E0,2.542853594E0,1.455780506E0
7.311206985E1,4.227665424E0,1.918549538E-1,5.056142807E-2
7.317206368E1,1.857647419E0,1.611757278E-2,-9.728059769E-1
7.323205811E1,3.179483414E-1,-2.571060658E-1,-1.336014271E0
7.329205271E1,5.319356918E-2,-1.221976280E0,-1.032399178E0
7.335204718E1,-1.492113590E0,-7.964656353E-1,-2.334195375E0
7.341204164E1,-1.299837589E0,-4.781859517E-1,-7.015047073E-1
7.347203481E1,-9.125695229E-1,2.462462902E0,1.083361149E0
7.353202734E1,-5.806765556E-1,4.658489227E0,4.330572605E0
7.359201980E1,2.081807137E0,3.391882896E0,4.648756981E0
7.365201243E1,2.857113361E0,2.706140518E0,4.898292065E0
7.371200506E1,2.300462723E0,2.970567703E0,1.141400814E0
7.377199760E1,2.362573147E0,2.498709202E0,-4.247121811E-1
7.383198996E1,2.083215714E-1,2.411403179E0,-2.058150768E0
7.389198236E1,-3.326320648E-2,9.666061401E-1,-3.233956337E0
7.395197466E1,-3.066451073E0,-2.419430494E0,-4.467599869E0
7.401196702E1,-2.407690048E0,-5.946475506E0,-2.981622696E0
7.407195955E1,-3.232499599E0,-1.021454430E1,-2.716047049E0
7.413195208E1,6.380235672E0,-1.792763710E1,-1.011331749E1
7.419194458E1,-1.197439766E1,-2.456608963E1,3.647974014E1
7.425193807E1,-1.399138641E1,6.918629169E0,5.002047539E0
7.431193234E1,-1.354898262E1,1.005278492E1,6.343882561E0
7.437189754E1,-1.227054119E1,8.851370811E0,5.724854946E0
7.443189187E1,-1.331846142E1,1.026926231E1,4.255327225E0
7.449188610E1,-2.437176514E1,1.414083099E1,-1.712952614E0
7.455187940E1,-1.528069878E1,-1.370737433E0,3.939610481E0
7.461187180E1,4.699166298E0,-1.590619469E1,1.164909458E1
7.467186420E1,-3.604509234E-1,-1.164847088E1,-5.627388000E0
7.473185669E1,8.450445175E0,3.610720873E0,-7.088058472E0
7.479184929E1,-7.728321552E-1,-5.346986771E0,-1.245372295E1
7.485184175E1,-5.453720093E0,4.710898399E0,-8.959132195E0
7.491183428E1,-2.768692493E0,-1.900858760E0,-7.762497425E0
7.497182668E1,-4.159861088E0,-2.536899328E0,-6.974266052E0
7.503181904E1,-3.712819099E0,-2.650237322E0,-3.502950191E0
7.509181141E1,4.934580803E0,-3.970330238E0,6.332339764E0
7.515180400E1,1.472410774E1,-2.850496292E0,8.927892685E0
7.521179654E1,9.053522110E0,1.938998699E0,1.073882389E1
7.527178907E1,6.555537701E0,6.228612900E0,9.667370796E0
7.533178196E1,6.070831776E0,6.923474312E0,9.831661224E0
7.539177526E1,5.336522579E0,4.846152306E0,7.330357075E0
7.545176832E1,3.650247574E0,3.148633003E0,4.362059593E0
7.551176139E1,2.844857693E0,1.724781990E-1,3.994158268E0
7.557175452E1,1.941110611E0,2.762951851E-1,3.023814201E0
7.563174722E1,1.342306614E0,-1.826076508E-1,1.990289927E0
7.569173955E1,1.772651672E-1,8.265638351E-1,1.109240770E0
7.575173211E1,4.994306564E-1,2.592709541E0,1.817584515E0
7.581172464E1,4.239473343E-1,3.907261848E0,1.074241161E0
7.587171717E1,1.995143890E0,4.604368687E0,-1.431794405E0
7.593170970E1,1.603510380E0,5.866245270E0,-3.345696211E0
7.599170210E1,8.460016251E-1,3.657108545E0,-4.469251156E0
7.605169440E1,-8.443512917E-1,5.257998943E0,-7.325227737E0
7.611168680E1,4.463992119E-1,1.019405842E0,-1.025828362E1
7.617167933E1,-2.235116482E0,-8.107085228E0,-7.706302166E0
7.623167186E1,-7.192437172E0,-1.532723999E1,-1.077731800E1
7.629166445E1,-3.792740822E0,-1.918004799E1,-1.183061981E1
7.635165712E1,1.235099697E1,-3.123954201E1,1.121343994E1
7.641165098E1,9.430490494E0,-1.817755699E1,9.182615280E0
7.647164528E1,9.611638069E0,-1.599655151E1,7.215258598E0
7.653163961E1,1.491534996E1,-1.713742065E1,5.611156464E0
7.659163387E1,1.579733562E1,-1.223505211E1,4.088299274E0
7.665162807E1,1.024108505E1,-1.070611191E1,1.037379742E0
7.671162094E1,7.343196392E0,-1.208313751E1,3.987770557E0
7.677161330E1,2.789999962E0,-5.277589798E0,2.239847183E-2
7.683160570E1,-5.208930969E-1,-1.176275730E0,-1.299175620E0
7.689159829E1,-1.279599667E0,-8.073344231E-1,1.236092567E0
7.695159076E1,-9.844259262E0,-3.877307415E0,5.759160995E0
7.701158335E1,-1.358265686E1,2.913850784E0,5.967906475E0
7.707157582E1,-3.026761055E1,1.245582199E1,-1.271288872E1
7.713156822E1,-5.561385632E0,-7.070492744E0,2.002029419E0
7.719156048E1,1.500714684E1,-4.195418167E1,-1.760219955E1
7.725155301E1,7.214309692E0,1.067549896E1,-4.772997856E0
7.731154551E1,2.121068716E0,-1.013134861E1,-6.557945251E0
7.737153804E1,-4.899649620E0,3.623330593E-1,-9.510816574E0
7.743153060E1,-3.677073240E0,1.181519628E0,-8.278104782E0
7.749152380E1,-4.353246689E0,-2.901112139E-1,-6.585450172E0
7.755151693E1,-2.583972931E0,1.783552408E0,-5.166138649E0
7.761151003E1,9.697666168E0,2.053037643E0,2.402666330E0
7.767150316E1,1.050051594E1,5.759918213E0,5.409287453E0
7.773149629E1,9.172842026E0,8.068958282E0,7.284312248E0
7.779148879E1,1.140158081E1,1.159017754E1,6.771778107E0
7.785148109E1,6.510360718E0,1.164770699E1,6.152890205E0
7.791147362E1,5.163318634E0,9.499600410E0,4.897887707E0
7.797146611E1,3.853819847E0,7.006591797E0,2.719163895E0
7.803145861E1,2.895641804E0,5.325050354E0,1.899189234E0
7.809145104E1,6.574935913E-1,4.697493553E0,2.650789976E0
7.815144360E1,-2.240276337E-2,3.967742443E0,3.211616039E0
7.821143587E1,6.223173141E-1,2.045868635E0,5.413538933E0
7.827142836E1,3.600044250E-1,1.466705680E0,5.103324890E0
7.833142083E1,1.051349640E-1,5.495156646E-1,4.363395691E0
7.839141343E1,7.876420021E-1,1.236026287E-1,2.264602661E0
7.845140589E1,4.944581985E-1,6.579041481E-2,1.921535492E0
7.851139899E1,-3.832616806E-1,1.414928913E0,-4.580702782E-1
7.857139302E1,-5.181064606E-1,3.852324009E0,-1.310233593E0
7.863138755E1,-2.023987770E0,2.927462101E0,-3.753244877E0
7.869138205E1,-4.492392540E0,-3.332848549E-1,-4.062013626E0
7.875137665E1,-5.917576790E0,-5.099974155E0,-6.781689167E0
7.881137062E1,-6.814337254E0,-9.917100906E0,-5.644355774E0
7.887136345E1,-2.095966816E0,-1.748888779E1,-1.300631714E1
7.893135591E1,3.496614075E1,-7.764175415E1,7.269869232E1
7.899134841E1,1.190381336E1,2.582831955E1,-1.887966156E1
7.905134087E1,9.972248077E-1,2.642345428E1,2.058535337E0
7.911133340E1,-7.631306648E0,2.452752304E1,-2.690215588E0
7.917132597E1,-7.894458294E0,1.624986267E1,-1.521073341E0
7.923131840E1,-1.332419872E1,8.573478699E0,-3.408633947E0
7.929131073E1,-1.058125305E1,9.365999222E0,-3.577511311E0
7.935130319E1,-7.276596546E0,2.528518200E0,-1.619722843E0
7.941129572E1,5.686725616E0,-1.495480442E1,-2.182672501E0
7.947128822E1,-5.058710575E-1,-1.162318230E1,-7.162808895E0
7.953128072E1,1.116184425E1,3.502695560E-1,-7.470065117E0
7.959127348E1,-2.182074070E0,-4.273452282E0,1.666765213E-1
7.965126738E1,-1.012117958E1,-1.368933201E0,-7.028388023E0
7.971126168E1,-2.959086418E0,-3.868556023E-1,-4.916245937E0
7.977125601E1,-1.168925643E0,-3.043241501E-1,-5.255017281E0
7.983125027E1,-3.103490829E0,-1.703533649E0,-3.810961246E0
7.989124437E1,-4.628636360E0,-2.091372967E0,-2.152872562E0
7.995123710E1,-3.941869259E0,-4.854860783E0,1.317484856E0
8.001122947E1,4.746878624E0,-7.673331261E0,2.089560747E0
8.007122186E1,1.646008682E1,-3.752394676E0,1.908024192E0
8.013121439E1,1.088783073E1,3.708691597E0,2.212465525E0
8.019120686E1,6.404585361E0,5.450787544E0,-1.280400157E0
8.025119949E1,7.099065781E0,5.187156677E0,-9.616079330E-1
8.031119199E1,6.353992939E0,4.220868111E0,-9.785116911E-1
8.037118438E1,5.652021408E0,2.308485508E0,-1.573667526E-1
8.043117675E1,3.539116383E0,-4.956536293E-1,8.554853201E-1
8.049116928E1,1.793905258E0,-1.391008854E0,-4.934566021E-1
8.055116174E1,7.315731049E-1,-2.761203766E0,-3.575837612E-1
8.061115424E1,-7.529067993E-2,-3.071385145E0,-1.747029066E0
8.067114683E1,-4.754877090E-1,-2.350777864E0,-8.904628754E-1
8.073114007E1,-2.642707825E-1,-1.439392328E0,-1.386142731E0
8.079113320E1,1.388882637E0,-7.315731049E-1,-2.473177910E-1
8.085112626E1,-1.513214111E-1,5.166135430E-1,3.523592949E-1
8.091111939E1,2.313404083E-1,3.351473212E-1,-9.584681988E-1
8.097111245E1,1.529407501E-2,-4.874267578E-1,-2.075981855E0
8.103110485E1,-1.900597095E0,-6.395189762E-1,-2.879908085E0
8.109109722E1,-1.387687206E0,-2.405588627E-1,-3.543870211E0
8.115108981E1,-1.110571861E0,1.016553402E0,-3.366420746E0
8.121108234E1,-8.565020561E-1,1.859041214E0,-1.197476149E0
8.127107487E1,7.646503448E-1,2.729285479E0,1.692152500E0
8.133106744E1,4.662851334E0,4.900970459E0,5.267313957E0
8.139105994E1,4.054816246E0,1.106824780E1,8.924764633E0
8.145105220E1,1.383179760E1,1.062435627E1,3.670910358E0
8.151104466E1,5.086746693E0,8.234970093E0,-9.671937943E0
8.157103706E1,-4.799008369E0,-1.107287979E1,-1.244840431E1
8.163102956E1,-6.619668961E0,-1.868703842E1,-1.851564407E1
8.169102583E1,1.036731815E1,-1.109405327E1,-2.189988708E1
8.175101903E1,9.947586060E-2,-5.745507717E0,1.053875637E1
8.181101312E1,-1.279429340E1,-1.019251156E1,2.651051998E0
8.187100762E1,-8.195137978E0,-8.548762321E0,4.435127258E0
8.193100189E1,-7.950962067E0,-4.045374870E0,5.666394234E0
8.199099618E1,-2.276568413E0,-2.554933786E0,7.252155304E0
8.205098985E1,-1.135725081E-1,-1.360590458E0,5.879701614E0
8.211098248E1,-6.513358653E-2,-1.596388817E0,7.012975693E0
8.217097471E1,-1.619648457E0,1.043811083E0,4.644792557E0
8.223096721E1,-7.226689339E0,3.719612360E0,1.160565376E0
8.229095974E1,-2.747138596E1,1.185234427E0,-2.220248032E1
8.235095227E1,8.028469086E0,-1.379770184E1,-4.708714485E-1
8.241094473E1,1.015056038E1,-3.286280441E1,-2.711695480E1
8.247093726E1,1.476108932E1,3.515568256E0,-4.493710518E0
8.253092962E1,2.000221729E0,-1.085599899E1,-8.279717445E0
8.259092196E1,-6.600205421E0,-2.539978743E0,-1.237281799E0
8.265091448E1,-5.625258446E0,2.117467403E0,-3.269843102E0
8.271090692E1,-6.511495590E0,3.068235874E0,-3.261200905E0
8.277089948E1,1.071013737E1,-1.530786753E0,3.300733566E0
8.283089221E1,1.448059940E1,1.947408080E0,-6.818208694E-1
8.289088554E1,1.165389347E1,7.934558392E0,2.435116768E-1
8.295087861E1,7.442027569E0,1.059080696E1,2.587944508E0
8.301087184E1,3.842523098E0,9.027198792E0,-5.170207024E-1
8.307086487E1,4.424388885E0,5.018713474E0,-5.861139297E-1
8.313085780E1,6.645330429E0,1.235354662E0,-5.264296532E-1
8.319085006E1,4.082269669E0,-9.457340240E-1,-1.762174129E0
8.325084259E1,4.976177216E-1,-8.779532909E-1,-3.328543425E0
8.331083506E1,-4.756731987E-1,-5.174230337E-1,-5.277959824E0
8.337082765E1,5.156521797E-1,-8.367008567E-1,-4.295442581E0
8.343082012E1,-4.549398422E-1,-4.844181538E-1,-4.571234226E0
8.349081265E1,-5.173568726E-1,-7.395611405E-1,-3.048193932E0
8.355080498E1,4.984664917E-1,2.767522335E-1,-1.141467571E0
8.361079738E1,1.215982437E0,2.819751501E-1,3.530263901E-2
8.367078984E1,2.344435692E0,3.132662773E-1,1.447772026E0
8.373078244E1,6.464376450E-1,1.189536572E0,3.864612579E-1
8.379077500E1,2.825839043E0,2.445100069E0,-1.670354843E0
8.385076757E1,4.365405083E0,7.040123940E0,-2.852284908E-1
8.391076110E1,5.704856873E0,7.810330868E0,9.210247993E-1
8.397075536E1,6.935487747E0,3.879179239E0,3.015597105E0
8.403074962E1,6.892276764E0,4.713830471E0,2.518521309E0
8.409074392E1,2.419691086E0,4.805088997E0,-6.635863304E0
8.415073822E1,-9.378999710E0,-3.626672268E0,-1.483897591E1
8.421073142E1,-1.522845268E1,-1.233732986E1,-1.518133450E1
8.427072382E1,2.113038063E0,-1.165757179E1,-4.679030418E0
8.433071615E1,3.596708679E1,-6.026015472E1,6.587489319E1
8.439070868E1,-8.734741211E-1,1.859951401E1,1.423626804E1
8.445070114E1,-5.703039169E-1,8.403678894E0,2.510563660E1
8.451069374E1,-7.920416355E0,-1.419137001E0,1.060708046E1
8.457068620E1,-3.266758919E-1,-1.275940895E0,3.702511311E0
8.463067873E1,-4.249334335E-2,-7.048525810E-1,4.677058220E0
8.469067099E1,-2.850946188E0,-1.121279716E0,4.702323914E0
8.475066339E1,-3.762041092E0,2.084755898E0,1.039151192E0
8.481065589E1,-9.882025719E0,7.212529182E-1,-6.153302193E-1
8.487064849E1,-2.362584114E1,9.974102974E0,7.778835297E-2
8.493064095E1,-1.706523132E1,-2.336284637E0,-2.166841507E1
8.499063395E1,6.660675526E0,-2.390703011E1,2.900129700E1
8.505062722E1,1.357411861E1,-1.122794914E1,-1.182921791E1
8.511062038E1,2.904747963E0,-1.134101105E1,-1.254249668E1
8.517061344E1,-7.480019093E0,7.464447021E0,-1.276580429E1
8.523060657E1,8.323326111E-1,-1.400395632E0,-6.477298260E0
8.529059924E1,3.380632401E-2,-2.472958565E-1,-5.079593658E0
8.535059157E1,-1.763551474E0,1.678644896E0,-2.221558094E0
8.541058397E1,-1.974656582E0,2.996849298E0,3.607187271E-1
8.547057660E1,8.473621607E-1,1.663979292E0,2.466154099E0
8.553056913E1,8.528956413E0,-1.964378357E-1,1.397329330E0
8.559056166E1,1.388914108E1,3.180783272E0,3.773345947E-1
8.565055419E1,9.056104660E0,8.729036331E0,-6.169581413E-1
8.571054652E1,8.430520058E0,1.007863426E1,6.946320534E-1
8.577053878E1,4.487423420E0,7.006114006E0,-8.072185516E-1
8.583053131E1,3.005506039E0,4.101137638E0,-2.977223396E-1
8.589052381E1,4.924182892E0,1.750759602E0,-9.999613762E-1
8.595051627E1,3.223745823E0,7.398030758E-1,-4.543638229E-1
8.601050907E1,2.794236183E0,3.257179260E-2,-1.360361099E0
8.607050297E1,1.969395161E0,-1.409678340E0,-1.631711960E0
8.613049744E1,-1.717991829E-1,-2.049964905E0,-2.913862944E0
8.619049197E1,-8.689336777E-1,-1.284010887E0,-3.067814112E0
8.625048660E1,-1.763621330E0,5.027878284E-1,-1.463539124E0
8.631048080E1,-2.488586426E0,1.395985603E0,3.938598633E-1
8.637047393E1,-1.670641899E-1,5.511675358E0,3.828751087E0
8.643046623E1,1.834469795E0,1.132049370E1,-1.908779144E-3
8.649045873E1,-5.583686829E-1,6.597918034E0,-1.786663532E0
8.655045096E1,-1.085356522E1,6.861016750E-1,-3.879861355E0
8.661044342E1,-1.755811310E1,-4.319178581E0,-4.447460175E0
8.667043568E1,-1.592077827E1,-2.019871140E1,-4.684398651E0
8.673042812E1,3.638633728E0,-2.633061790E1,-1.269615841E1
8.679042025E1,3.684954643E0,-2.161703348E0,-6.368874741E1
8.685041281E1,3.152575302E1,1.409348202E1,1.137357140E1
8.691040548E1,4.927845478E0,1.071457100E1,1.604482651E0
8.697039828E1,2.834888649E1,4.839340687E0,3.617285013E0
8.703039094E1,1.810201645E1,-3.538944244E0,1.389403343E0
8.709038371E1,1.642151260E1,-3.915043116E0,1.217417240E0
8.715037734E1,5.398834229E0,-2.372056484E0,-1.040171146E0
8.721037164E1,3.393878937E-1,-4.094317436E0,2.376244545E0
8.727036600E1,-3.235649586E0,-2.299391270E0,-5.570558548E0
8.733036037E1,-6.977075577E0,1.610174179E-1,-2.410656452E0
8.739035463E1,-2.239802742E1,6.575083733E0,-8.457486153E0
8.745034803E1,-1.406135273E1,5.926171303E0,-1.810860825E1
8.751034033E1,1.058510017E1,-1.141945076E1,1.213958168E1
8.757033233E1,1.638844681E1,-1.435220242E1,-1.446978569E1
8.763032462E1,7.065102100E0,4.908082485E0,-9.164107323E0
8.769031699E1,3.299118042E0,-1.481767178E0,-3.721371651E0
8.775030912E1,-3.397536755E0,7.665889740E0,-9.195859909E0
8.781030145E1,-7.761130333E-1,-3.589754105E-1,-6.809539795E0
8.787029418E1,1.658970594E0,9.604978561E-2,-5.972815514E0
8.793028668E1,2.336411953E0,-1.858060360E0,-3.086406231E0
8.799027928E1,2.869899750E0,-1.465507984E0,2.930448055E0
8.805027198E1,6.121520042E0,-1.193380833E0,2.981759071E0
8.811026478E1,1.266201210E1,2.061113358E0,1.919404030E0
8.817025724E1,1.369556618E1,6.768908978E0,1.433021545E0
8.823025034E1,1.055768871E1,9.412780762E0,3.775334358E-1
8.829024360E1,1.108933258E1,1.231116867E1,2.312945843E0
8.835023673E1,7.948046684E0,1.295067692E1,9.645109177E-1
8.841023000E1,6.493316650E0,8.580725670E0,4.051587582E-1
8.847022320E1,6.467049599E0,4.400136948E0,1.109340191E0
8.853021566E1,3.467060566E0,3.045142651E0,-1.956033707E-1
8.859020773E1,2.392254829E0,9.372630119E-1,4.518394470E-1
8.865020002E1,1.742604256E0,1.124081492E0,-1.291415453E0
8.871019219E1,-3.040094376E-1,-1.064409018E-1,-1.413356066E0
8.877018449E1,-2.601242065E-2,9.399284124E-1,6.362590790E-1
8.883017705E1,5.353075027E0,7.639000893E0,6.226259232E0
8.889016979E1,4.725110054E0,5.637092590E0,1.490426540E0
8.895010782E1,4.190673828E0,8.623394966E-1,-2.809195518E0
8.901010042E1,9.912729263E-2,-1.609255075E0,-4.677318573E0
8.907009308E1,-4.008190632E0,-2.431239128E0,-7.851713181E0
8.913008565E1,-4.967741489E0,-1.835447788E0,-9.189935684E0
8.919007818E1,-6.589656830E0,-2.386730671E0,-8.415532112E0
8.925007101E1,-6.121673584E0,-5.558804989E0,-7.498607159E0
8.931006497E1,3.711459160E0,-1.398768425E1,-9.666966438E0
8.937005940E1,1.273635483E1,-1.600279808E1,2.302975845E1
8.943005367E1,2.176933289E-1,1.141629219E1,1.497241592E1
8.949004800E1,1.250501537E1,9.484186172E0,2.314535141E1
8.955004196E1,4.249767303E0,5.536368370E0,1.727947044E1
8.961003476E1,-3.438722610E0,2.859704494E0,1.509057713E1
8.967002699E1,-6.693196774E0,1.719735622E0,6.420011997E0
8.973001942E1,-1.054349041E1,1.019026661E1,6.925259590E0
8.979001189E1,-2.295162010E1,9.131740570E0,-1.056085110E1
8.985000442E1,-7.893302441E-1,-4.446344376E0,1.179986191E1
8.990999688E1,1.358093262E1,-3.428057861E1,-2.533568382E1
8.996998951E1,6.626966476E0,3.464588404E0,-1.164931870E1
9.002998194E1,4.835223198E0,-4.550526619E0,-1.272563171E1
9.008997427E1,-2.992445469E0,-9.911952019E-1,-6.223174095E0
9.014996670E1,-6.471069336E0,2.787310123E0,-3.603851795E0
9.020995923E1,-9.410763741E0,5.398453712E0,-5.021450043E0
9.026995166E1,-7.537253380E0,6.841578007E0,-3.096872330E0
9.032994426E1,2.509112358E0,2.150711060E0,-7.827014923E-1
9.038993753E1,1.364290142E1,3.463426113E0,2.729372740E0
9.044993076E1,6.337154388E0,1.022793102E1,4.161199093E0
9.050992389E1,3.746395111E0,9.735754967E0,4.244219303E0
9.056991695E1,1.994008064E0,8.126291275E0,2.512399197E0
9.062991001E1,1.092308044E0,6.096573830E0,1.823603630E0
9.068990241E1,1.003397942E0,3.819820642E0,7.757825851E-1
9.074989481E1,1.081009865E0,1.729418039E0,2.374396324E-1
9.080988731E1,4.717693329E-1,3.016135097E-1,-7.842876911E-1
9.086987994E1,-5.048799515E-1,-9.810300916E-2,-5.338411331E-1
9.092987240E1,-1.303290367E0,2.634078264E-2,2.014895439E0
9.098986493E1,-1.002938271E0,1.273497581E0,4.419057369E0
9.104985733E1,4.335117340E-1,1.379981637E0,5.773898125E0
9.110984986E1,-1.415606499E0,1.897827029E0,2.198455095E0
9.116984239E1,1.163492203E0,2.266031981E0,2.547975063E0
9.122983499E1,2.372084618E0,2.867321253E0,2.883100986E0
9.128982745E1,1.747587204E0,3.517217159E0,4.901008606E-1
9.134981998E1,1.293600559E0,2.317312241E0,-3.202691555E0
9.140981301E1,-2.276238441E0,1.238277912E0,-8.925743103E0
9.146980711E1,-7.584103107E0,-3.676141977E0,-8.283616066E0
9.152980158E1,-5.684350491E0,-1.028834724E1,-5.617900848E0
9.158979611E1,9.064510345E0,-2.249891090E1,-1.390964413E1
9.164979065E1,1.662350845E1,-6.882385254E1,6.324991226E0
9.170978444E1,-9.416311264E0,1.924396133E1,3.106141329E0
9.176977711E1,1.420464420E1,-3.121563911E0,2.331416321E1
9.182976957E1,7.222473145E0,5.262842178E-1,1.354008961E1
9.188976210E1,8.536214828E-1,-2.864189148E0,1.434626293E1
9.194975463E1,-5.304050446E-1,-2.463337898E0,8.342983246E0
9.200974716E1,-4.674963951E-1,-2.811450958E-1,4.221797466E0
9.206973969E1,-2.540967464E0,3.677760124E0,3.571321487E0
9.212973209E1,-1.168209362E1,1.070784283E1,2.025241852E0
9.218972442E1,-2.211915207E1,-1.880969048E0,-4.511043072E0
9.224971685E1,1.641538239E1,-1.797375870E1,1.113625622E1
9.230970938E1,1.510964274E0,-8.735146523E0,-1.164185333E1
9.236970191E1,2.235154867E0,-6.544859886E0,-1.128679562E1
9.242969437E1,2.959402204E-1,-4.434132576E0,-1.049767113E1
9.248968730E1,-3.413133144E0,2.349300861E0,-7.446457863E0
9.254968137E1,-6.580801964E0,2.052341700E0,-6.203739166E0
9.260967570E1,-6.352796555E0,3.452136517E0,-1.443711281E0
9.266966996E1,-1.757850647E-1,3.590197563E0,3.729685783E0
9.272966436E1,7.768610954E0,2.426928759E0,4.766256809E0
9.278965822E1,6.156639099E0,7.047767639E0,5.783383369E0
9.284965095E1,2.439897537E0,1.013807392E1,6.826589584E0
9.290964322E1,-9.057989120E-1,7.254305840E0,3.060031891E0
9.296963575E1,9.718890190E-1,5.576653481E0,2.083934307E0
9.302962821E1,1.624537468E0,2.910568476E0,1.319898605E0
9.308962081E1,2.472282410E0,-8.243539333E-1,1.894361496E0
9.314961324E1,-5.071091652E-1,-1.454554558E0,-7.166032791E-1
9.320960577E1,-4.073491096E-1,-2.337311506E0,-9.050216675E-1
9.326959810E1,-1.013555050E0,-2.082492828E0,-2.355120659E0
9.332959053E1,-1.015069008E0,-4.201277494E-1,-2.794567347E0
9.338958300E1,-1.206276894E0,-8.269602060E-2,-1.165443897E0
9.344957552E1,-3.604960442E-1,1.337512732E-1,4.485902786E-1
9.350956802E1,3.060559273E0,1.604600668E0,9.206647873E-1
9.356956065E1,4.162732124E0,5.532253742E0,1.200155258E0
9.362955382E1,4.701931953E0,3.992326021E0,1.867936611E0
9.368954692E1,8.019704819E-1,1.888524532E0,-1.042285919E0
9.374954008E1,1.253396034E0,1.675610423E0,-3.413491249E-1
9.380953324E1,8.959283829E-1,3.083035469E0,-4.245367050E0
9.386952634E1,-7.291254997E-1,8.730850220E-1,-7.083835602E0
9.392951867E1,-5.622813702E0,-3.229706287E0,-4.463725090E0
9.398951110E1,-2.617811680E0,-8.565127373E0,-8.648502350E0
9.404950360E1,2.283830643E0,-6.311061382E0,-1.189971066E1
9.410949613E1,-1.022856712E1,1.640800667E1,-4.044377327E0
9.416948853E1,-6.915451527E0,2.784144878E0,4.591350555E0
9.422948112E1,-2.215826511E0,4.060557842E0,2.086293602E1
9.428947352E1,-2.257861614E0,1.279809570E1,-9.219426155E0
9.434946585E1,-1.046770096E1,6.577132702E0,-2.271622467E1
9.440945828E1,1.208434486E1,-2.659181976E1,4.563697815E0
9.446945088E1,1.822939110E1,-7.844545364E0,4.650264263E0
9.452944334E1,7.373661995E0,1.803386092E0,5.013638496E0
9.458943594E1,7.444670677E0,1.723759651E0,4.199673533E-1
9.464942924E1,-3.830554485E0,8.882177353E0,5.378954887E0
9.470942347E1,-2.939110518E0,2.753508568E0,3.404355049E0
9.476941773E1,-3.897402287E0,4.883417130E0,6.292832375E0
9.482941216E1,-1.369218636E1,6.602325439E0,-2.763937473E0
9.488940646E1,7.333538532E-1,-1.778059959E1,1.920837402E0
9.494939996E1,2.632163048E0,-4.749542999E1,-1.992068863E1
9.500939242E1,1.708384895E1,7.108761311E0,-8.214245796E0
9.506938475E1,2.897309959E-1,-1.837994576E1,-1.105330563E1
9.512937712E1,-2.631484985E0,-1.481068134E0,-8.112221718E0
9.518936961E1,-3.328521729E0,-2.334351063E0,-5.293492794E0
9.524936214E1,-3.850243568E0,-1.806837678E0,-2.274476051E0
9.530935471E1,-9.412598610E-2,-2.774388790E-1,9.000988007E-1
9.536934727E1,7.080101490E0,-3.163182974E0,4.198419571E0
9.542933960E1,8.150437355E0,1.590885520E0,3.410331249E0
9.548933200E1,6.571299553E0,4.275848389E0,2.874695301E0
9.554932446E1,4.670508385E0,7.355113029E0,2.183676720E0
9.560931696E1,3.634403706E0,7.476178169E0,1.419842720E0
9.566930939E1,3.614817619E0,4.993524075E0,9.100627899E-1
9.572930229E1,9.212150574E-1,3.058046103E0,-5.560779572E-1
9.578929555E1,1.026201248E0,1.196936131E0,-1.446181536E0
9.584928878E1,1.856880188E0,-7.555686235E-1,1.460004807E0
9.590928185E1,-6.286606789E-1,-1.150331378E0,-2.229790688E-1
9.596927504E1,-2.122879028E-1,-8.915882111E-1,1.010003090E-1
9.602926781E1,-2.005916119E0,-3.132780194E-1,1.124933720E0
9.608926014E1,-1.489922047E0,-7.621947527E-1,1.631251335E0
9.614925247E1,-1.649103642E0,-1.534483671E0,1.222069263E0
9.620924500E1,-1.187175751E0,-9.190037847E-1,6.220841408E-1
9.626919755E1,-2.516164780E-1,-7.547339201E-1,7.193393707E-1
9.632919014E1,-6.357569695E-1,4.428865314E-1,4.602146149E-2
9.638918261E1,1.726231575E0,2.661342382E0,1.027900219E0
9.644917504E1,1.194535255E0,4.676613808E0,-5.880260468E-2
9.650916737E1,1.453588963E0,4.975343704E0,-1.168938637E0
9.656915983E1,5.548869133E0,2.843176365E0,7.677268982E-2
9.662915230E1,1.897890091E0,1.777782321E0,-2.239262581E0
9.668914483E1,3.543814659E0,2.467679024E0,-2.507730961E0
9.674913742E1,-8.924326897E-1,2.090459824E0,-5.804369926E0
9.680913122E1,-6.552805901E-1,-1.686249495E0,-4.586398125E0
9.686912562E1,-2.844494820E0,-6.363306046E0,-7.211426735E0
9.692912009E1,5.248531342E0,-1.156408215E1,-1.052482700E1
9.698911462E1,1.079454327E1,-4.328020859E1,4.753322220E1
9.704910909E1,-2.514696121E-1,4.503452778E0,7.417850971E0
9.710910232E1,-8.121709824E-1,1.682261467E0,1.197870255E1
9.716909478E1,-2.641513824E0,-1.385145187E-1,5.036677837E0
9.722908731E1,-6.204190731E0,3.472054958E0,4.136678219E0
9.728907984E1,-1.062162018E1,1.031199837E1,1.138209343E1
9.734907241E1,-1.949909401E1,7.266861439E0,-3.964274883E0
9.740906497E1,-6.766448021E0,-1.164973068E1,7.715515137E0
9.746905750E1,2.169448471E1,-5.428890991E1,2.163944244E0
9.752904983E1,1.111104679E1,-1.285344124E0,-1.421027946E1
9.758904220E1,-3.487031162E-2,-7.555655479E0,-9.951590538E0
9.764903463E1,-1.046902752E1,8.946514130E0,-1.265891838E1
9.770902719E1,8.241201639E-1,-2.200142145E0,-7.159695148E0
9.776901966E1,5.952783823E-1,-2.701981783E0,-6.597935677E0
9.782901225E1,9.660832882E-1,-1.743440866E0,-4.589552402E0
9.788900568E1,1.573563457E0,-1.127287388E0,-1.871844769E0
9.794899995E1,2.131508589E-1,-1.163421988E0,-1.580141068E0
9.800899418E1,3.944820881E0,-2.088402271E0,7.232561111E-1
9.806898851E1,3.458569050E0,-2.991238356E0,1.009708405E0
9.812898277E1,2.059262753E0,-3.079929113E0,3.670568943E0
9.818897617E1,6.289131165E0,-2.492428780E0,3.560423851E0
9.824896857E1,9.693778038E0,1.055282116E0,3.463900328E0
9.830896090E1,7.290000916E0,4.349222183E0,1.733684063E0
9.836895343E1,3.845725536E0,4.558201313E0,5.258500576E-1
9.842894599E1,3.956149578E0,3.231582880E0,-5.294852257E-1
9.848893846E1,3.080915928E0,7.916679382E-1,-1.080894470E-2
9.854893099E1,1.678699970E0,-1.435754776E0,-1.052871943E0
9.860892352E1,1.005067825E-1,-2.924194336E0,-8.298153877E-1
9.866891585E1,-4.949460030E-1,-3.614161253E0,-1.814038754E0
9.872890818E1,-1.555202007E0,-3.165190458E0,2.393884659E-1
9.878890064E1,1.568692207E0,-3.418047428E-1,1.947086096E0
9.884889317E1,4.811762810E0,1.940381765E0,3.868860245E0
9.890888574E1,4.675720215E0,1.496917009E0,3.180936575E0
9.896887867E1,3.734428406E0,-9.036340714E-1,2.458138466E0
9.902887190E1,6.222019196E-1,-1.044606924E0,-1.738728523E0
9.908886510E1,-2.442398071E-1,-4.073646069E-1,-2.431427240E0
9.914885816E1,-2.199457645E0,-2.040549517E0,-3.047939301E0
9.920885126E1,-3.782372236E0,-5.049969196E0,-4.457711220E0
9.926884392E1,-1.105728531E1,-2.190170670E1,-1.112580872E1
9.932883632E1,1.123401642E0,-1.918244171E1,-1.333802891E1
9.938882882E1,1.130747032E1,-2.103741455E1,3.163795471E1
9.944882141E1,2.283757019E1,2.536866760E1,-3.329343319E0
9.950881398E1,5.876364708E0,2.339461517E1,1.539090872E0
9.956880651E1,-2.837809563E0,2.064510345E1,-1.405706406E0
9.962879897E1,-3.656609058E0,1.615787506E1,2.946300507E-1
9.968879134E1,-7.376552582E0,1.534084129E1,-4.049007416E0
9.974878360E1,-1.225729752E1,1.909236717E1,-1.051505566E0
9.980877603E1,-9.551391602E0,6.796998501E0,1.258907318E-1
9.986876856E1,5.606961250E-1,-6.705839157E0,3.824812889E0
9.992876109E1,1.124483013E1,-3.690678024E1,-1.280209732E1
9.998875372E1,5.362096786E0,4.764106750E0,-7.712515831E0
1.000487476E2,-6.395517349E0,-4.474303246E0,-9.367560387E0
1.001087419E2,-9.289299965E0,-3.194392443E0,-1.136188793E1
1.001687363E2,-3.150028467E0,-3.166862130E-1,-9.936151505E0
1.002287306E2,-3.745580196E0,-1.089763045E0,-6.785598755E0
1.002887247E2,-2.790610790E0,1.754128188E-1,-1.724199772E0
1.003487177E2,4.861671448E0,-5.195579052E0,2.264993191E0
1.004087101E2,1.486253262E1,-5.492568016E0,7.068979740E0
1.004687024E2,1.055161381E1,5.696120262E-1,9.757435799E0
1.005286949E2,1.086792183E1,5.261622429E0,1.646408844E1
1.005886875E2,3.054342747E0,6.848551750E0,6.141180038E0
1.006486800E2,2.602272511E0,3.408908129E0,4.217206001E0
1.007086725E2,4.124944210E0,2.599322796E0,1.633241653E0
1.007686649E2,3.241110325E0,9.707303047E-1,1.266410947E-1
1.008286572E2,3.139619827E-1,1.194823980E0,-1.180964708E-1
1.008886496E2,-6.387405396E-1,3.075212002E0,1.239797235E0
1.009486422E2,8.842897415E-1,2.105494499E0,3.153942585E0
1.010086347E2,1.221029282E0,1.965996861E0,4.888266087E0
1.010686273E2,-2.021121979E-2,2.356013775E0,3.846343279E0
1.011286204E2,1.145033836E0,5.283949852E0,5.089230061E0
1.011886137E2,9.678530693E0,8.363922119E0,9.548822403E0
1.012486067E2,5.295786858E0,5.895390511E0,2.445204496E0
1.013085999E2,2.721968651E0,1.045062780E0,-2.130623579E0
1.013685930E2,-2.528095245E-1,-2.016637564E0,-6.823297024E0
1.014285855E2,-7.617405891E0,-3.441885471E0,-9.327992439E0
1.014885778E2,-8.364342690E0,-4.317648411E0,-9.845623016E0
1.015485703E2,-6.370236397E0,-7.085186958E0,-9.957990646E0
1.016085628E2,-1.117846489E0,-1.400500202E1,-1.324985123E1
1.016685552E2,8.225079536E0,-1.023452187E1,-7.840462685E0
1.017285478E2,3.364992142E0,1.296759987E1,4.495641708E0
1.017885402E2,8.485898018E0,-5.275129795E0,1.278021240E1
1.018485326E2,1.391305161E1,-3.986396790E-1,1.211985016E1
1.019085250E2,1.270380020E1,4.497598171E0,1.109333038E1
1.019685176E2,8.208194733E0,5.011268139E0,1.164137459E1
1.020285100E2,1.874440193E0,2.532630444E0,9.891482592E-1
1.020885026E2,-6.200628757E0,3.047587633E0,-4.271069527E0
1.021484957E2,-1.554377556E1,4.176604271E0,-5.675343513E0
1.022084897E2,-1.994910240E1,-9.702987671E-1,-1.558708286E1
1.022684842E2,1.764026165E0,-1.029564381E1,1.396763134E1
1.023284788E2,2.065047073E1,-2.954212189E1,-8.773021698E0
1.023884733E2,-5.976531982E0,6.048814297E0,-6.810214996E0
1.024484673E2,7.009280205E0,-8.662354469E0,-6.707338333E0
1.025084601E2,-4.983573437E0,3.362148523E0,-2.512780190E0
1.025684525E2,-6.436194420E0,2.258864880E0,-4.472893715E0
1.026284450E2,-5.367503643E0,1.267992020E0,-3.908512592E0
1.026884376E2,-9.434661865E-1,-1.129027367E0,1.864995956E-1
1.027484301E2,5.133047104E0,-4.030675411E0,6.368775368E-1
1.028084227E2,9.375503540E0,-1.296580315E0,6.608729362E-1
1.028684151E2,9.417660713E0,5.000292301E0,1.833798170E0
1.029284074E2,7.289941311E0,6.291862965E0,1.813184738E0
1.029883998E2,4.985817432E0,5.603212833E0,-3.305938244E-1
1.030483924E2,3.728933811E0,3.967324018E0,-1.061346769E0
1.031083848E2,3.024102688E0,2.536742449E0,-1.812973022E0
1.031683773E2,2.989447117E0,1.070626259E0,-2.226626635E0
1.032283700E2,2.522403240E0,-4.864692688E-3,-1.363776922E0
1.032883640E2,1.546472549E0,-1.186348200E0,-1.071327686E0
1.033483582E2,-1.987819672E-1,-1.228147030E0,-6.981461048E-1
1.034083526E2,-8.470592499E-1,-1.274778366E0,-1.383001328E0
1.034683469E2,-1.270571232E0,-1.792857289E0,-1.228187084E0
1.035183647E2,-1.765235901E0,-1.130858660E0,-9.727768898E-1
1.035783579E2,4.314193726E-1,7.126191854E-1,-2.349042892E-2
1.036383501E2,2.013400078E0,4.525338411E-1,2.294211626E0
1.036983426E2,9.301471710E-2,2.785807848E-1,-1.151490211E-1
1.037583351E2,5.068769455E-1,-8.723646402E-1,-1.202189207E0
1.038183276E2,4.972982407E-1,1.333961487E-1,1.123466492E-1
1.038783200E2,6.706443787E0,3.889728546E0,2.795186043E0
1.039383126E2,1.714499474E0,3.906505585E0,-7.520051003E-1
1.039983050E2,3.928172112E0,2.512102604E0,-1.517173529E0
1.040582974E2,5.062933922E0,4.763801575E0,-1.683314323E0
1.041182898E2,2.710000515E0,6.654174328E0,-1.541165352E0
1.041782823E2,-9.169130325E-1,2.411325932E0,-1.728536606E0
1.042382747E2,-5.849634171E0,-3.080174685E0,-3.016586542E0
1.042982673E2,-2.908337831E0,-7.924137592E0,-5.821628094E0
1.043582604E2,-4.037619591E0,-1.199698353E1,-1.871395874E1
1.044182536E2,8.955326080E0,-1.977070236E1,-1.369819069E1
1.044782467E2,1.068321609E1,-3.689515305E1,2.765190125E1
1.045382398E2,-3.242166042E0,-6.674025536E0,4.650843620E0
1.045982330E2,1.799177742E1,-1.147501087E1,2.352083397E1
1.046582255E2,1.374330807E1,-8.743207932E0,1.650553131E1
1.047182179E2,9.989480019E0,-4.142234325E0,7.019291878E0
1.047782104E2,1.017533207E1,8.989458084E-1,1.259707451E0
1.048382029E2,-4.030039310E0,-2.342653275E-1,-3.914926052E0
1.048981953E2,-6.245635986E0,5.769453049E-1,-4.575994968E0
1.049581878E2,-1.458461285E1,5.752756596E0,-7.675452232E0
1.050181804E2,-1.716865349E1,3.593884468E0,-1.491609097E1
1.050781727E2,-1.568214417E0,-7.714871883E0,5.258633614E0
1.051381650E2,3.879374313E1,-4.783112717E1,-8.832363129E0
1.051981576E2,-3.188274860E0,6.657329559E0,-6.172789574E0
1.052581501E2,8.225650787E0,-1.445444107E1,-4.103081226E0
1.053181426E2,-4.933942318E0,6.106178284E0,-4.809319496E0
1.053781355E2,-5.673360348E0,2.507275581E0,-7.059766769E0
1.054381296E2,3.953368664E-1,-1.352031231E0,-4.342218399E0
1.054981239E2,4.965255737E0,-4.499745846E0,-8.208055496E-1
1.055581183E2,4.034686089E0,-7.880482674E0,-1.914842725E0
1.056181125E2,9.797795296E0,-9.246467590E0,-1.200733185E-1
1.056781065E2,1.349556541E1,-4.257308960E0,5.116902828E0
1.057380991E2,1.089142799E1,-4.636821747E-1,4.424091339E0
1.057980915E2,9.772535324E0,7.895431519E-1,2.135267496E0
1.058580839E2,8.182338715E0,1.256798744E0,1.251243949E0
1.059180764E2,7.303726196E0,-3.244895935E-1,-6.577241421E-2
1.059780689E2,4.985837460E0,8.129549026E-1,9.394764900E-3
1.060380615E2,2.951152802E0,-1.509418488E-1,2.898466587E-1
1.060980539E2,5.697011948E-2,-2.315560341E0,-2.547730207E-1
1.061580464E2,-1.820870638E0,-3.701186180E0,1.543229818E-1
1.062180387E2,-2.691414356E0,-3.047074795E0,1.345748901E-1
1.062780311E2,-2.670892715E0,-3.095910072E0,1.131514192E0
1.063380237E2,-2.557783127E0,-1.668437004E0,8.306856155E-1
1.063980161E2,-2.131396294E0,-1.124458313E-1,3.946757317E0
1.064580088E2,-1.194623470E0,5.250706673E-1,3.545700073E0
1.065180021E2,-6.587009430E-1,3.305149078E-2,1.478310823E0
1.065779953E2,2.070559978E0,-2.200679779E-1,2.046363592E0
1.066379884E2,2.919322014E0,9.073681831E-1,2.478236437E0
1.066979815E2,3.029720306E0,2.546701193E0,2.737099409E0
1.067579745E2,4.599093437E0,2.867224216E0,-1.085662842E-1
1.068179669E2,7.019080162E0,2.474421024E0,1.217527866E0
1.068779593E2,4.581638336E0,3.794244230E-1,-1.683039188E0
1.069379520E2,5.923968792E0,-1.428988099E0,-1.063853264E0
1.069979447E2,5.006846905E0,-3.495659828E-1,-7.015810966E0
1.070579373E2,1.604313850E-1,-1.610425949E0,-1.052003384E1
1.071179297E2,-4.809418678E0,-2.075095654E0,-9.333642960E0
1.071779221E2,-2.426121712E0,-2.224293470E0,-1.022032547E1
1.072379142E2,7.758519173E0,-1.193891525E1,-9.347248077E0
1.072979066E2,8.815268517E0,-1.277272797E1,-3.068153000E1
1.073578990E2,-1.932558823E1,7.268730164E0,8.055637360E0
1.074178915E2,4.834283829E0,-6.601771355E0,1.155937958E1
1.074778841E2,1.111532974E1,-1.059547043E1,2.055755138E0
1.075378774E2,7.892115593E0,-1.109570694E1,-3.107968807E0
1.075978716E2,7.217069149E0,-1.439148331E1,3.445990562E0
1.076578662E2,1.920799065E1,-1.773425674E1,-3.499990702E-1
1.077178608E2,6.957565308E0,-1.201627254E1,-4.605021477E0
1.077778552E2,1.272100163E1,-7.282200813E0,-3.451644897E0
1.078378491E2,8.045619965E0,-4.979896545E-2,-8.444297791E0
1.078978418E2,3.760605812E0,-1.795282602E0,-3.930997849E0
1.079578342E2,-3.391680717E-1,-4.216432571E-1,-3.955929995E0
1.080178267E2,-8.079210281E0,1.592965603E0,7.548246384E-1
1.080778193E2,-2.224617386E1,1.184324265E1,-6.784188271E0
1.081378117E2,-2.347889709E1,-9.871613979E-1,-6.277034760E0
1.081978042E2,7.213347912E0,-5.482221127E0,9.066167831E0
1.082577966E2,9.448984146E0,-2.596968651E1,-4.330617428E0
1.083177889E2,1.150852776E1,6.404869556E-1,-9.417778969E0
1.083777814E2,1.576252699E0,-2.561666727E0,-1.079608250E1
1.084377739E2,-4.050850868E-1,1.968800545E0,-5.997019768E0
1.084977664E2,-4.433722496E0,-2.652232170E0,-5.426641941E0
1.085577589E2,-4.109652519E0,-1.420356989E0,-1.574376106E0
1.086177519E2,-1.449009657E0,-3.760968447E0,-2.656240463E-1
1.086777459E2,2.672378540E0,-2.021097183E0,2.862024307E0
1.087377402E2,9.183508873E0,-7.408080101E-1,1.836156845E0
1.087977346E2,9.793456078E0,1.646483898E0,2.104686975E0
1.088577289E2,6.690007687E0,7.265489101E0,2.073386908E0
1.089177228E2,9.078456879E0,8.900545120E0,2.945219994E0
1.089777155E2,8.728069305E0,8.564795494E0,3.177086830E0
1.090377078E2,7.669567108E0,7.525760174E0,3.613376141E0
1.090977002E2,4.521700859E0,5.827344894E0,3.151016951E0
1.091576928E2,3.350437164E0,2.307955265E0,3.364240646E0
1.092176852E2,2.624883175E0,-9.998922348E-1,2.283850670E0
1.092776777E2,2.944030762E-1,-9.431304932E-1,2.403522015E0
1.093376703E2,2.133464813E-1,-1.017682076E0,2.739466667E0
1.093976627E2,-2.403081894E0,-7.049239874E-1,1.462310791E0
1.094576550E2,-1.167394161E0,1.259154439E0,2.041055202E0
1.095176475E2,-2.990837097E-1,3.040055275E0,3.577677250E0
1.095776400E2,9.017324448E-1,3.389041901E0,2.387583733E0
1.096376326E2,1.970654011E0,4.249019623E0,1.690355301E0
1.096976253E2,3.179960728E0,7.626799583E0,-2.074794769E-1
1.097576185E2,2.210083723E0,4.872426510E0,-3.459348679E0
1.098176117E2,-1.472484350E0,8.070087433E-1,-5.417707443E0
1.098776048E2,-1.243176341E0,-1.887924671E0,-5.126904488E0
1.099375978E2,-1.541168571E0,-2.556942463E0,-4.831646442E0
1.099975908E2,-1.954830885E-1,-2.993443966E0,-6.686523914E0
1.100575832E2,1.884245872E-2,-7.723580360E0,-1.340417290E1
1.101175755E2,4.337133408E0,-1.624336243E1,-1.395903397E1
1.101775681E2,4.450321198E-1,-1.620014000E1,2.301234245E1
1.102375605E2,-1.530331516E1,3.560411930E0,4.358022690E0
1.102975531E2,-5.739510536E0,7.302499294E0,1.891236877E1
1.103575456E2,-1.136321068E1,1.525945663E-1,1.022318268E1
1.104175381E2,-9.479686737E0,-1.482272148E-1,4.100023270E0
1.104775304E2,-6.554667473E0,-2.057871819E0,1.379728794E0
1.105375228E2,-5.495379925E0,-1.972597837E0,-3.272538185E-1
1.105975153E2,-2.018727684E1,-7.028319836E-1,-6.243394852E0
1.106575079E2,-1.542034435E1,-8.590543747E0,-1.862980843E0
1.107175003E2,1.487538242E1,-1.294414997E1,5.975592613E0
1.107774938E2,1.832079315E1,-2.050299263E1,-2.675182819E0
1.108374471E2,-1.518664479E0,-5.114401340E0,-6.741594315E0
1.108974414E2,7.688381672E-1,-5.584730148E0,-7.699042320E0
1.109574357E2,-5.435087204E0,8.561208248E-1,-4.581906319E0
1.110174300E2,-7.164153576E0,5.914995193E0,-3.705884933E0
1.110774235E2,-3.747669220E0,2.311782360E0,-4.438476562E0
1.111374159E2,8.883873940E0,-1.149114847E0,-1.205312729E0
1.111974083E2,2.198027802E1,4.080744743E0,2.313945770E0
1.112574007E2,1.558666611E1,9.147377014E0,4.199189186E0
1.113173932E2,9.348278046E0,1.318061066E1,1.928885102E0
1.113773857E2,6.407595158E0,1.117750549E1,5.035855770E-1
1.114373782E2,6.048198700E0,6.842252731E0,8.944442272E-1
1.114973707E2,5.550563812E0,3.159929752E0,-4.605464935E-1
1.115573631E2,2.596501827E0,1.322426796E0,-9.934699535E-1
1.116173554E2,-8.458509445E-1,-8.223471642E-1,-1.581959248E0
1.116773479E2,-3.659286499E-1,1.858718395E-1,-2.713099480E0
1.117373404E2,8.380689621E-1,6.335310936E-1,3.789504766E-1
1.117973330E2,-9.229011536E-1,1.970830798E0,1.177124500E0
1.118573259E2,4.515155792E0,1.327320695E0,3.566208124E0
1.119173192E2,3.064094543E0,2.026149511E0,3.096421242E0
1.119773123E2,2.157945633E0,2.811050653E0,4.499296188E0
1.120373055E2,4.793643951E0,2.739573956E0,3.168811798E0
1.120972986E2,2.347723961E0,1.659889817E0,5.267601013E-1
1.121572914E2,3.812165260E0,1.137948036E-2,3.638867617E0
1.122172836E2,7.934308052E-1,2.143677711E0,1.655498028E0
1.122772762E2,-4.723318100E0,-7.017254829E-1,-1.648011684E0
1.123372687E2,-4.608367443E0,-5.779625893E0,-4.332841873E0
1.123972613E2,-6.890724182E0,-1.460838127E1,-6.914559841E0
1.124572538E2,-7.609705925E-1,-2.003654099E1,-1.184726906E1
1.125172463E2,-5.092859268E-1,-1.015795898E1,-1.743817139E1
1.125772386E2,-2.247675419E0,1.621883011E1,2.269835663E1
1.126372309E2,6.059880257E0,-3.909953833E-1,-2.191988945E1
1.126972234E2,4.488700867E0,7.653524399E0,-2.030490494E1
1.127572158E2,6.033883095E0,7.822780609E0,-1.685536194E1
1.128172083E2,3.663108826E0,9.396872520E0,-1.560681152E1
1.128772009E2,3.162533760E0,1.030863953E1,-1.033417702E1
1.129371948E2,5.535419464E0,9.204546928E0,-6.898099422E0
1.129971894E2,5.308670044E0,8.255947113E0,-3.460027218E0
1.130571840E2,6.324947357E0,6.791851044E0,-2.912913084E0
1.131171785E2,6.688976288E0,5.526477337E0,-7.413713455E0
1.131771729E2,2.980841637E0,6.237287521E0,-4.256715298E0
1.132371661E2,5.348749161E-1,6.098239422E0,2.850019455E0
1.132971584E2,-5.466905594E0,7.817701340E0,4.605335712E0
1.133571509E2,-8.780096054E0,1.097106552E1,5.595973015E0
1.134171435E2,-1.494061661E1,-3.992754221E-2,-8.442640305E0
1.134771359E2,1.521842575E1,-1.236017227E1,1.794332886E1
1.135371285E2,-1.911464095E0,-1.948947144E1,-9.117938042E0
1.135971211E2,6.772377491E0,-1.954195499E0,-1.193805885E1
1.136571135E2,-9.822092652E-1,-6.173893452E0,-1.095597363E1
1.137171058E2,-7.934900284E0,4.578831673E0,-7.502672195E0
1.137770984E2,-6.879177570E0,-5.316898227E-2,-5.309370041E0
1.138370909E2,-7.600337505E0,-2.043321133E0,-2.899677753E0
1.138970832E2,-1.629811764E0,-1.272899985E0,-1.443634510E0
1.139570758E2,1.206662846E1,-3.390216351E0,4.769666672E0
1.140170693E2,1.424446869E1,2.854111671E0,4.442249298E0
1.140770635E2,1.105570984E1,8.451964378E0,5.008741379E0
1.141370578E2,1.205145836E1,1.068672085E1,6.003454685E0
1.141970521E2,7.841269016E0,1.074377823E1,3.952851534E0
1.142570464E2,4.284161091E0,8.780070305E0,2.627863884E0
1.143170397E2,1.340531826E0,7.130335808E0,5.937132835E-1
1.143770322E2,2.013446331E0,5.042034626E0,6.490101814E-1
1.144370245E2,2.643218040E0,2.385657549E0,1.125533104E0
1.144970170E2,1.500014305E0,7.078533173E-1,2.872790337E0
1.145570095E2,1.589487076E0,7.172422409E-1,3.967021227E0
1.146170020E2,9.984035492E-1,6.611692905E-1,3.708139181E0
1.146769945E2,-1.423138618E0,1.168229580E-1,2.719079256E0
1.147369870E2,-1.372451305E0,1.044450521E0,1.991190910E0
1.147969793E2,-4.258718491E-1,1.448164940E0,1.671260357E0
1.148569717E2,-3.630681038E-1,2.800549746E0,1.480048180E0
1.149169642E2,-2.182626724E-2,2.699508429E0,1.938187599E0
1.149769567E2,-1.515152454E0,3.453318596E0,-1.964426041E-2
1.150369493E2,-3.890523911E-1,1.921826839E0,-7.284212112E-1
1.150969422E2,-2.276060820E0,-1.949071884E-2,-2.744766474E0
1.151569355E2,-5.623444557E0,-2.160128593E0,-5.959611416E0
1.152169286E2,-5.324771881E0,-5.249022961E0,-1.110011292E1
1.152769217E2,-2.051756382E0,-8.735872269E0,-7.631127834E0
1.153369148E2,-3.029898167E0,-8.826051712E0,-1.277390480E1
1.153969075E2,2.920055389E-1,-9.528568268E0,-2.328988647E1
1.154568998E2,1.275046635E1,2.277443504E1,5.705537796E0
1.155168923E2,9.717168808E-1,1.060313606E1,1.635151672E1
1.155768849E2,-1.555652618E-1,1.595768738E1,7.996606827E0
1.156368775E2,-4.562658310E0,9.917757034E0,1.245640755E0
1.156968700E2,-7.505582333E0,5.246385098E0,5.621241570E0
1.157568625E2,-6.977252960E0,6.068074703E0,4.421986103E0
1.158168548E2,-1.211175728E1,1.341555023E1,8.796380043E0
1.158768471E2,-1.564082813E1,8.624206543E0,-9.605429649E0
1.159368396E2,3.814095974E0,-1.124351692E1,1.831986809E1
1.159968321E2,6.557365417E0,-2.101606750E1,-1.147914791E1
1.160568246E2,8.446714401E0,-2.015697002E0,-8.919149399E0
1.161168173E2,-1.708146691E0,-6.784686565E0,-1.181848907E1
1.161768112E2,-3.900845528E0,2.895180702E0,-9.146042824E0
1.162368057E2,-4.698201180E0,-4.992496371E-1,-4.571103096E0
1.162968003E2,-6.704757690E0,1.844481230E-1,-1.748565197E0
1.163567948E2,-2.951709270E0,8.540027738E-1,-2.152493954E0
1.164167891E2,1.187714291E1,-5.326303005E0,-3.036689758E-2
1.164767822E2,1.532498455E1,3.074937344E0,-8.195936680E-1
1.165367746E2,9.704986572E0,9.946956635E0,-5.280179977E-1
1.165967670E2,8.895622253E0,1.111428070E1,1.220239639E0
1.166567596E2,3.560752869E0,9.962350845E0,-1.343297243E0
1.167167521E2,3.093509674E0,7.786118507E0,-5.458657742E-1
1.167767447E2,5.213807583E0,4.905002594E0,1.544375181E0
1.168367371E2,6.794865608E0,2.265033722E-1,1.455656767E0
1.168967295E2,2.816008568E0,-1.031190395E0,-1.369887829E0
1.169567218E2,3.941946030E-1,-1.121665597E0,-2.148012877E0
1.170167144E2,1.463117599E-1,-3.332011104E-1,-1.545024872E0
1.170767068E2,-1.414983749E0,6.482334733E-1,-1.785392761E-1
1.171366993E2,9.525442123E-1,3.427370548E0,2.506243706E0
1.171966918E2,2.661076546E0,4.193387032E0,2.972188950E0
1.172566855E2,3.594224930E0,4.643604279E0,1.181849957E0
1.173166797E2,4.207606316E-1,3.848026514E0,-1.503448009E0
1.173766740E2,-2.741930485E0,2.163194180E0,-4.959768295E0
1.174366684E2,-9.061639786E0,-3.276247978E0,-6.925437450E0
1.174966628E2,-1.189604187E1,-1.073538399E1,-7.335558414E0
1.175566559E2,-5.953549862E0,-1.778469086E1,-1.050011635E1
1.176166482E2,2.269116402E0,-1.351310349E1,-4.486844063E0
1.176766406E2,2.853194237E0,-1.015513897E1,4.751920700E-3
1.177366331E2,1.235945988E1,7.845129967E0,8.120422363E-1
1.177966256E2,1.916065788E1,5.072311878E0,-3.218560219E-1
1.178566183E2,1.857841110E1,5.824753284E0,-3.822369576E-1
1.179166109E2,1.599839401E1,4.651721001E0,3.844790697E0
1.179766033E2,1.218130493E1,1.627738476E0,3.202227354E0
1.180365956E2,5.848620415E0,3.076381683E-1,3.157325029E0
1.180866219E2,5.206561089E0,1.321068525E0,3.351510763E0
1.181466143E2,-1.075586319E0,3.920892239E0,1.345324516E-2
1.182066067E2,-5.080890179E0,3.520025253E0,8.571317196E-1
1.182665993E2,-8.580492020E0,3.059256077E0,-2.907839298E0
1.183265922E2,-1.143216515E1,3.595022440E0,-5.101737976E0
1.183865856E2,-1.871426392E1,5.954686165E0,-8.684245110E0
1.184465787E2,2.846815586E0,-4.041119576E0,-6.665984154E0
1.185065718E2,2.377018929E1,-1.580546188E1,3.503063202E0
1.185665649E2,2.645726919E0,-2.939324141E0,-8.212627411E0
1.186265577E2,-3.565649986E0,-1.418758011E1,-5.631041527E0
1.186865500E2,-2.602928162E0,1.577032685E0,-4.904693604E0
1.187465425E2,-6.164060116E0,3.154967785E0,-4.705248833E0
1.188065350E2,-4.277648926E0,-1.991204739E0,1.862201691E-1
1.188665276E2,2.860471010E0,-1.949281216E0,-2.948747158E0
1.189265201E2,3.753543854E0,-2.322444439E0,-1.686114311E0
1.189865126E2,3.404603481E0,-1.251710415E0,1.538955212E0
1.190465049E2,3.725654840E0,-1.357543945E0,3.458461761E0
1.191064974E2,4.891660690E0,1.048789978E0,5.236062527E0
1.191664899E2,3.263324976E0,2.799845219E0,5.144201756E0
1.192264823E2,2.364130020E0,2.423999786E0,3.787698746E0
1.192864748E2,1.418121815E0,1.037725449E0,2.927130222E0
1.193464674E2,9.453697205E-1,4.802718163E-1,2.125850201E0
1.194064612E2,2.577111721E0,-1.313924789E-2,4.617766857E0
1.194664554E2,4.020557404E-1,-7.412424088E-1,3.464725018E0
1.195264498E2,-2.694196701E-1,-1.877079487E0,7.563438416E-1
1.195864441E2,-4.929642677E-1,-1.511610270E0,-2.377478600E0
1.196464383E2,-8.068315983E-1,-1.514481544E0,-2.831837654E0
1.197064313E2,-2.082554817E0,1.304123640E0,-4.538650513E-1
1.197664237E2,-2.255849123E0,1.316787362E0,1.704910278E0
1.198264160E2,-1.238095045E0,2.021048069E-1,9.981994629E-1
1.198864086E2,3.669155836E-1,-8.782882690E-1,-1.482868195E-1
1.199464011E2,4.849271774E-1,-1.066197991E0,-1.837787628E0
1.200063936E2,5.871877670E-1,-7.418750525E-1,-2.447722912E0
1.200663861E2,6.185777187E-1,-4.321559966E-1,-3.388261318E0
1.201263786E2,2.124426365E0,8.132225275E-2,-3.608230591E0
1.201863709E2,1.348440170E0,4.791051745E-1,-3.103740215E0
1.202463633E2,-2.305123806E-1,7.749583721E-1,-1.923678875E0
1.203063559E2,-1.648885965E0,1.338150978E0,1.426387787E0
1.203663484E2,-2.566462755E0,1.940276146E0,2.720213890E0
1.204263409E2,-1.887052059E-1,1.554907084E0,1.926408768E0
1.204863341E2,-6.269526482E-2,1.000380993E0,-1.087897301E0
1.205463273E2,9.330873489E-1,-8.559912443E-1,-2.264726639E0
1.206063204E2,-2.473534346E-1,-1.877566218E0,-5.847105026E0
1.206663135E2,1.222840190E0,-3.279180527E0,-6.854984283E0
1.207263065E2,2.429878235E0,-5.392416954E0,-8.081748009E0
1.207862990E2,4.557604313E0,-5.187406540E0,-4.958437920E0
1.208462914E2,9.460027695E0,-2.749596357E0,1.991765976E0
1.209062839E2,8.625891685E0,3.549190998E0,1.084924126E1
1.209662763E2,4.184159279E0,6.478485107E0,8.192502975E0
1.210262690E2,6.122184753E0,3.591927052E0,1.736453056E0
1.210862614E2,4.200184822E0,-2.480104923E0,-2.178615761E1
1.211462540E2,-1.148994541E1,1.890844154E1,-2.182967949E1
1.212062462E2,-6.556202888E0,-2.507834673E0,4.835741043E0
1.212662387E2,-3.064087391E0,3.403302908E0,1.042117596E0
1.213262312E2,-1.827804089E0,4.418646812E0,7.541751862E-1
1.213862238E2,-5.449489594E0,1.858129978E0,1.204678059E0
1.214462163E2,-4.794084549E0,4.401363373E0,4.352765083E0
1.215062092E2,-9.322767258E0,4.009547710E0,2.204226494E0
1.215662032E2,-1.978031349E1,1.331450081E1,-7.341134548E0
1.216261978E2,-2.093239784E0,-3.480811119E-1,-1.365727425E0
1.216861923E2,1.426185322E1,-1.745150375E1,1.145649910E1
1.217461868E2,8.141006470E0,-1.245851612E1,-6.645923138E0
1.218061809E2,9.265764236E0,-1.034356022E1,-1.180125237E1
1.218661740E2,1.221528053E-1,-3.979280472E0,-6.302350044E0
1.219261663E2,4.643712044E-1,2.327796698E0,-9.713101387E0
1.219861588E2,-1.063048840E0,2.149541378E0,-6.258679390E0
1.220461514E2,-3.063955307E0,5.519378185E0,-5.065796375E0
1.221061439E2,8.814921379E-1,-3.879300952E-1,5.583008766E0
1.221661363E2,9.052171707E0,-2.932697773E0,4.667540550E0
1.222261287E2,8.629545212E0,3.812301636E0,6.110909462E0
1.222861210E2,4.402216434E0,6.404556274E0,4.495948315E0
1.223461135E2,8.620939255E-1,6.250369072E0,2.083640099E0
1.224061061E2,2.387526035E0,4.057596207E0,1.973126411E0
1.224660985E2,1.796592236E0,1.557130337E0,-3.570342064E-1
1.225260911E2,-1.120870113E0,1.347823620E0,-2.112536430E0
1.225860838E2,-3.238201141E-2,8.340131640E-1,-2.137189865E0
1.226460775E2,9.642906189E-1,-5.185388923E-1,-8.867940903E-1
1.227060717E2,2.125544548E-1,-5.943876505E-1,-5.406579971E-1
1.227660661E2,-4.533705711E-1,-1.325031638E0,1.400163651E0
1.228260604E2,-1.560827255E0,-4.749013782E-1,1.242354393E0
1.228860546E2,-2.036546707E0,7.798545063E-2,1.241623402E0
1.229460475E2,-1.956707478E0,7.434691191E-1,1.199232101E0
1.230060398E2,1.823854446E-2,1.234791577E-1,1.330802917E0
1.230660322E2,2.398842812E0,6.585166454E-1,9.607954025E-1
1.231260248E2,1.373723984E0,9.104503989E-1,-1.388945580E0
1.231860173E2,1.556056499E0,5.348847508E-1,-1.722212315E0
1.232460098E2,6.026153564E-1,3.551665545E-1,-2.808461428E0
1.233060023E2,1.179764748E0,-1.149523973E0,-2.287876368E0
1.233659947E2,2.075168610E0,-1.618595719E0,-1.516483307E0
1.234259870E2,1.441923141E0,-1.133539081E0,-2.039938688E0
1.234859795E2,6.078357697E-1,1.004123688E-2,-1.830169678E0
