"Time (s)","Acceleration x (m/s^2)","Acceleration y (m/s^2)","Acceleration z (m/s^2)"
5.199366900E-2,3.641691923E0,-4.788549617E-3,5.633728504E0
1.039870810E-1,1.120520592E0,-1.300091267E0,4.024775982E0
1.559804400E-1,-1.024749637E0,-1.843591571E0,3.442967176E0
2.079747910E-1,-4.537150860E0,-1.125309110E0,5.681613922E0
2.599680840E-1,-1.059706020E1,-1.807677507E0,6.498061657E0
3.119612440E-1,-1.364018345E1,-1.005595401E-1,9.960182905E-1
3.639547690E-1,-7.482108593E0,-2.762993097E0,9.205986977E0
4.159482280E-1,-7.759844780E0,-5.660065651E0,8.803748131E0
4.679413870E-1,-1.312780857E1,-4.620950222E0,1.769369125E0
5.199348470E-1,-1.661626625E1,-6.129343510E0,4.180403709E0
5.719286020E-1,-1.833056831E1,-8.523618698E0,6.790163517E0
6.239223900E-1,-2.014064026E1,-7.371972084E0,7.185218811E0
6.759157160E-1,-1.795945549E1,-8.197997093E0,4.587430477E0
7.279090420E-1,-1.183250618E1,-6.924242973E0,1.046298146E0
7.799023680E-1,-3.711125851E0,-6.004841328E0,8.356019258E-1
8.318967560E-1,9.864411950E-1,-2.035133541E-1,-2.736656189E0
8.838956770E-1,1.783734679E0,-8.188419938E-1,5.722316504E-1
9.358922020E-1,-8.164477348E-1,9.265843630E-1,3.100585938E0
9.878856950E-1,-6.629746914E0,4.077449799E0,3.723097324E0
1.039879055E0,6.464541703E-2,4.601796150E0,8.308133125E0
1.091872481E0,3.612960577E0,5.652883053E0,5.779779434E0
1.143865706E0,3.646480560E0,8.892336845E0,3.483669758E0
1.195859132E0,3.112557173E0,9.828497887E0,5.023188591E0
1.247852425E0,2.643279314E0,9.809344292E0,6.361588001E0
1.299846444E0,4.027170181E0,8.834874153E0,7.606611252E0
1.351840335E0,1.908236980E0,7.127756119E0,6.237085819E0
1.403833460E0,1.664021015E0,6.691998005E0,4.992063046E0
1.455826720E0,2.861158371E0,6.323279858E0,5.174027920E0
1.507820246E0,2.099778891E0,7.460560322E0,5.901887417E0
1.559813372E0,1.755003452E0,6.605803967E0,7.549148560E0
1.611806798E0,7.518022656E-1,6.943397045E0,7.043956280E0
1.663800191E0,1.766974807E0,6.426233768E0,6.713546753E0
1.715794209E0,3.794925690E0,6.095823765E0,5.648094177E0
1.767787734E0,3.543526649E0,7.371972084E0,4.927417755E0
1.819781226E0,8.085466385E0,1.156434727E1,6.244268894E0
1.871774419E0,1.719089317E1,2.279349709E1,4.798126698E0
1.923768478E0,2.324840927E1,3.350069427E1,1.027143836E0
1.975764831E0,1.079099655E1,3.270579338E0,1.292908382E1
2.027758493E0,-1.674077034E1,-3.059883118E1,-1.482056141E1
2.079751752E0,-1.503365135E1,-2.059315681E1,5.885127544E0
2.131745145E0,-2.765387297E0,1.664021015E0,-5.083045483E0
2.183738471E0,1.190194035E1,2.454610443E1,-1.395862222E0
2.235731730E0,-7.929838181E0,1.473676109E1,-3.763799906E0
2.287725156E0,-7.403097630E0,5.921041489E0,4.800520897E0
2.339719341E0,-4.386311531E0,9.553156495E-1,8.925856590E0
2.391712765E0,-1.735849261E0,-1.843591630E-1,7.953781128E0
2.443706190E0,2.825244188E0,2.770175934E0,6.522004604E0
2.495699450E0,1.826831698E0,1.309668303E0,6.244268894E0
2.547692776E0,3.074248791E0,2.365543604E0,8.621783257E0
2.599686202E0,6.050332546E0,3.088614643E-1,1.026665020E1
2.651679494E0,5.502043724E0,-1.455719113E0,1.041749001E1
2.703672985E0,7.649707794E0,-2.391880512E0,9.047964096E0
2.755667204E0,6.644112587E0,-1.910631299E0,8.142929077E0
2.807660430E0,5.344021320E0,-1.788523316E0,6.438204765E0
2.859653855E0,3.612960577E0,-1.417410731E0,5.030371189E0
2.911647214E0,2.475680113E0,1.515576005E0,3.533949614E0
2.963641138E0,9.194015265E-1,5.628940105E0,4.719115734E0
3.015639593E0,-2.011190891E0,7.834067345E0,5.753442287E0
3.067636883E0,-5.822876453E0,2.794118643E0,9.172467232E0
3.118034397E0,-9.107821465E0,-3.945764780E0,9.696812630E0
3.170027656E0,-8.078283310E0,-3.557892323E0,7.450983047E0
3.222021016E0,-6.902694225E0,-2.595393896E0,4.661653042E0
3.274014475E0,-8.305739403E0,-4.271386147E0,4.321666241E0
3.326008592E0,-5.691191196E0,-4.053507328E0,3.787742853E0
3.378002051E0,-3.912245035E0,-4.599401951E0,3.610566378E0
3.429995410E0,-4.029564381E0,-5.640911579E0,3.929004908E0
3.481988702E0,-3.620143414E0,-7.134938717E0,4.939388752E0
3.533982261E0,-4.283357620E0,-1.017566776E1,5.078257084E0
3.585975454E0,-5.152479172E0,-1.124590874E1,3.943370581E0
3.637968713E0,-3.076643229E0,-1.041030693E1,3.131711483E0
3.689962601E0,-3.306493521E0,-1.036242104E1,3.074248791E0
3.741956355E0,-2.672010660E0,-9.567522049E0,2.640885115E0
3.793949748E0,-2.248224020E0,-8.928250313E0,2.801301479E0
3.845943041E0,-2.231464148E0,-8.755863190E0,2.561874151E0
3.897936798E0,-2.276955366E0,-9.361614227E0,2.272166729E0
3.949933021E0,-2.612153769E0,-9.974549294E0,2.238646984E0
4.001927048E0,-2.559479713E0,-9.986519814E0,2.394274712E0
4.053920408E0,-2.262589693E0,-9.804554939E0,2.418217659E0
4.105913767E0,-1.197137356E0,-9.699207306E0,2.430188894E0
4.157906993E0,-8.068706393E-1,-9.715967178E0,2.619336605E0
4.209900453E0,-7.206767201E-1,-9.390345573E0,1.936968327E0
4.261893712E0,-1.127703428E0,-9.273026466E0,1.477267504E0
4.313887269E0,-1.383890867E0,-9.490905762E0,1.687963724E0
4.365881489E0,-1.697540879E0,-9.445414543E0,1.491633177E0
4.417874749E0,-1.589798450E0,-9.725543976E0,1.565855742E0
4.469868142E0,-1.223474383E0,-1.004158878E1,1.668809533E0
4.521861635E0,-9.529213905E-1,-1.021158218E1,1.628106833E0
4.573854760E0,-1.091789365E0,-1.001046276E1,1.675992370E0
4.625848053E0,-1.168406129E0,-9.385557175E0,1.036720991E0
4.677841512E0,-9.696813226E-1,-9.373585701E0,1.824437380E0
4.729835432E0,-1.182771802E0,-9.194015503E0,1.659232497E0
4.781829154E0,-9.122186899E-1,-9.115004539E0,1.632895470E0
4.833822413E0,-1.087000728E0,-9.830892563E0,1.687963724E0
4.885815872E0,-1.110943556E0,-9.921875000E0,1.625712633E0
4.937809262E0,-1.115732074E0,-9.768641472E0,1.714300752E0
4.989807316E0,-1.185166001E0,-9.579493523E0,1.438959122E0
5.041804937E0,-9.648927450E-1,-9.596253395E0,1.750214934E0
5.093799064E0,-1.063058019E0,-9.601041794E0,1.625712633E0
5.145792491E0,-1.144463301E0,-9.534002304E0,1.750214934E0
5.197785817E0,-1.158828974E0,-9.591464996E0,1.585009933E0
5.249779109E0,-1.139674783E0,-9.680052757E0,1.580221415E0
5.301772468E0,-1.077423692E0,-9.577098846E0,1.508393168E0
5.353765794E0,-1.087000728E0,-9.684841156E0,1.405439258E0
5.405759153E0,-1.087000728E0,-9.725543976E0,1.357553840E0
5.457753339E0,-1.154040456E0,-9.979337692E0,1.436564922E0
5.509746796E0,-9.936240315E-1,-9.799766541E0,1.608952641E0
5.561740155E0,-7.518022656E-1,-9.598648071E0,1.690358043E0
5.613733548E0,-6.009629965E-1,-9.553156853E0,1.685569525E0
5.665726907E0,-6.081457734E-1,-9.689630508E0,1.644866824E0
5.717720133E0,-5.985686779E-1,-9.833286285E0,1.644866824E0
5.769713559E0,-5.937801600E-1,-9.996097565E0,1.865140080E0
5.821706785E0,-4.381522834E-1,-9.452596664E0,1.410227895E0
5.873700938E0,-8.499675393E-1,-9.268238068E0,1.393467903E0
5.925694628E0,-1.494027495E0,-1.033368969E1,2.004008055E0
5.977687820E0,-1.058269501E0,-9.500482559E0,1.007989645E0
6.029681344E0,-2.154847383E-1,-9.253871918E0,1.168406129E0
6.081677466E0,-4.453351200E-1,-1.000088596E1,2.118933201E0
6.133671926E0,-1.632895470E0,-8.794171333E0,8.236305118E-1
6.185665152E0,-1.185166001E0,-8.956981659E0,1.403045058E0
6.237658511E0,-7.709565163E-1,-1.007032013E1,2.162030220E0
6.289651871E0,-1.039115310E0,-9.888355255E0,1.501210332E0
6.341645129E0,-8.044763207E-1,-9.862017632E0,1.790917516E0
6.393638555E0,-1.290514112E0,-9.818921089E0,1.984853864E0
6.445631914E0,-1.532335877E0,-9.440625191E0,1.822043180E0
6.497625833E0,-1.142069101E0,-9.579493523E0,2.123721838E0
6.549619623E0,-9.026415944E-1,-9.620196342E0,1.989642382E0
6.601612882E0,-1.376708031E0,-9.596253395E0,1.831620216E0
6.653606241E0,-1.647261024E0,-9.603436470E0,1.738243461E0
6.705599534E0,-1.197137356E0,-9.613013268E0,1.788523316E0
6.757592926E0,-9.840469360E-1,-9.522030830E0,1.814860344E0
6.809586219E0,-9.553156495E-1,-9.536396980E0,1.783734679E0
6.861579810E0,-9.026415944E-1,-9.431048393E0,2.015979290E0
6.913573895E0,-6.751855016E-1,-9.706390381E0,2.174001455E0
6.965567255E0,-9.577099085E-1,-1.002482891E1,3.102980137E0
7.017560547E0,-1.793311834E0,-9.866806030E0,3.955342054E0
7.069553972E0,-3.186779737E0,-9.665687561E0,3.885908127E0
7.121551059E0,-4.326454639E0,-9.217958450E0,4.438985348E0
7.173549152E0,-4.616161823E0,-8.229122162E0,4.395888329E0
7.225545011E0,-5.444581032E0,-8.152505875E0,3.986467600E0
7.277538138E0,-5.387118340E0,-7.328875065E0,4.151672363E0
7.329531530E0,-5.171633720E0,-7.400703430E0,4.249837875E0
7.381524889E0,-6.064698219E0,-6.696786404E0,3.526766777E0
7.433518247E0,-6.888328552E0,-6.941002846E0,3.129317284E0
7.485511539E0,-6.543552876E0,-6.107795238E0,2.731867552E0
7.537505262E0,-6.210748672E0,-5.470917702E0,2.679193497E0
7.589499182E0,-6.428627968E0,-5.011217117E0,3.086220264E0
7.641492507E0,-7.072687626E0,-4.692778587E0,2.794118643E0
7.693485966E0,-7.484503269E0,-4.034353256E0,2.248224020E0
7.745479192E0,-8.159688950E0,-3.811685562E0,2.267378330E0
7.797472518E0,-8.909096718E0,-3.526766777E0,2.312869549E0
7.849466043E0,-8.375173569E0,-3.708731651E0,1.994430900E0
7.901459170E0,-9.500482559E0,-4.051113129E0,2.487651587E0
7.953453092E0,-9.213169098E0,-3.217905283E0,2.913832426E0
8.005447180E0,-9.433443069E0,-2.813272953E0,3.617749214E0
8.057440207E0,-1.045579815E1,-2.463708878E0,2.006402254E0
8.109433532E0,-9.543579102E0,-2.437371731E0,1.604164124E0
8.161426991E0,-8.554743767E0,-2.968900681E0,2.758204460E0
8.213423945E0,-7.922655106E0,-3.287339211E0,1.800494671E0
8.265422199E0,-7.680833817E0,-4.482082367E0,8.475732803E-1
8.317416959E0,-1.193546009E1,-8.621783257E0,-2.159635782E0
8.369410285E0,-1.084367085E1,1.953728199E0,-2.911438227E0
8.421403644E0,-6.615381241E0,-2.736656189E0,9.553156495E-1
8.473397037E0,-7.929838181E0,1.661626697E0,1.987248063E-1
8.525390263E0,-7.695199013E0,1.422199249E0,1.237840056E0
8.577383656E0,-5.942590237E0,1.410227895E0,1.766974807E0
8.629377316E0,-5.933012962E0,2.561874092E-1,1.731060743E0
8.681371469E0,-9.909903526E0,-1.977671027E0,4.422225475E0
8.733364827E0,-1.571362591E1,-8.949799538E0,6.368771076E0
8.785358020E0,-2.231224632E1,-1.064255142E1,1.030495834E1
8.837351345E0,-2.177592850E1,-1.045579815E1,1.355638409E1
8.889344771E0,-1.998501205E1,-9.780612946E0,7.099024773E0
8.941338096E0,-1.553166103E1,-9.634561539E0,2.442160368E0
8.993331356E0,-5.748653889E0,-7.489291668E0,4.860377908E-1
9.045324748E0,-6.009629726E0,-4.472505569E0,-3.064671755E-1
9.097318766E0,-3.663240433E0,-2.944957972E0,-2.906649590E0
9.149312390E0,2.698347807E0,-2.162030220E0,-2.226675600E-1
9.201305616E0,2.229069948E0,8.643332124E-1,-2.789330244E0
9.253299008E0,3.100585938E0,5.332049847E0,7.972934842E-1
9.305294729E0,8.947404861E0,1.290274715E1,2.722290516E0
9.357289655E0,1.779185677E1,3.129077721E1,5.487678051E0
9.409283114E0,2.605928612E1,3.717829895E1,4.817280769E0
9.461276341E0,1.316611671E1,1.282373619E1,2.084216309E1
9.513269666E0,-5.746259689E-1,-6.831823730E1,-1.600812149E1
9.565263093E0,-1.269923401E1,-2.295151901E1,5.597814560E0
9.617256318E0,9.050358772E0,1.891477108E0,-5.906675816E0
9.669249677E0,3.268185139E0,1.535927296E1,-7.510839939E0
9.721243862E0,-7.455771923E0,1.229938984E1,-5.013611317E0
9.773237352E0,-3.112557232E-1,1.119562912E1,-1.029538140E-1
9.825230811E0,1.587404251E0,1.051804924E1,3.565075159E0
9.877224037E0,3.081431627E0,7.314509392E0,5.272192955E0
9.929217396E0,1.460507631E0,5.387118340E0,6.100612164E0
9.981210655E0,-7.925049663E-1,3.052700281E0,6.929031372E0
1.003320401E1,-9.792584181E-1,3.011997700E0,5.935407162E0
1.008519747E1,-6.512427330E-1,2.516382933E0,6.830865860E0
1.013719169E1,-1.731060743E0,4.585036278E0,5.188393593E0
1.018918498E1,-1.565855742E0,4.822069645E0,5.988081455E0
1.024117851E1,-4.972908974E0,6.981705189E0,7.115784645E0
1.029311945E1,-1.886688590E0,8.092648506E0,8.011243820E0
1.034511524E1,-3.198751211E0,6.289760113E0,8.703188896E0
1.039711383E1,-5.317684174E0,7.053533554E0,6.926637173E0
1.044911009E1,-6.234691620E0,5.190787792E0,7.561120033E0
1.050110362E1,-7.515628815E0,4.805309772E0,4.726298332E0
1.055309695E1,-1.156195259E1,3.816473961E0,5.243461609E0
1.060509024E1,-8.681640625E0,2.585816860E0,6.201171875E0
1.065708356E1,-1.095859623E1,2.346389294E-1,4.235472202E0
1.070907702E1,-9.447808266E0,0.000000000E0,4.010410309E0
1.076107068E1,-9.656110764E0,-5.578660369E-1,2.303292274E0
1.081306463E1,-9.653716087E0,-1.642472506E0,2.355966330E0
1.086505799E1,-1.134886265E1,-2.865947008E0,1.415016413E0
1.091705135E1,-1.072395706E1,-2.391880512E0,1.359948039E0
1.096904478E1,-9.921875000E0,-2.334417820E0,2.106961727E0
1.102103797E1,-1.016130257E1,-2.116539001E0,1.118126392E0
1.107303130E1,-8.803748131E0,-2.492439985E0,3.404658794E0
1.112502456E1,-8.427846909E0,-2.683982134E0,3.426207304E0
1.117701851E1,-7.465348721E0,-2.090201855E0,2.097384691E0
1.122901236E1,-5.995264053E0,-2.059076309E0,3.280156553E-1
1.128100559E1,-5.609786034E0,-3.668029070E0,1.632895470E0
1.133299898E1,-3.572257996E0,-5.248250484E0,3.095797300E0
1.138499234E1,-5.470917702E0,-8.906702042E0,5.621757030E0
1.143698816E1,-6.962551117E0,-9.660899162E0,4.513207912E0
1.148898689E1,-7.635342598E0,-9.495694160E0,4.479688168E0
1.154098231E1,-6.541158676E0,-8.854028702E0,4.053507328E0
1.159297560E1,-5.470917702E0,-8.118986130E0,4.022381783E0
1.164496926E1,-5.499649048E0,-8.140534401E0,4.173221111E0
1.169696255E1,-4.795732498E0,-7.745479107E0,3.936187744E0
1.174895568E1,-4.563488007E0,-7.601822376E0,3.960130453E0
1.180094911E1,-4.264203548E0,-7.695199013E0,3.713520288E0
1.185294230E1,-3.282550812E0,-7.905895233E0,3.739857197E0
1.190493639E1,-2.542719841E0,-8.152505875E0,3.912245035E0
1.195693021E1,-2.434977531E0,-8.042368889E0,3.505218267E0
1.200892340E1,-2.703136206E0,-7.972935200E0,3.261002302E0
1.206091679E1,-2.442160368E0,-8.133351326E0,2.686376333E0
1.211290999E1,-2.367937803E0,-8.650514603E0,2.592999697E0
1.216490338E1,-1.975276709E0,-9.167677879E0,2.221887112E0
1.221689670E1,-1.652049661E0,-9.907508850E0,2.094990492E0
1.226889003E1,-1.704723716E0,-1.058987713E1,2.071047783E0
1.232088428E1,-1.829225898E0,-1.064255142E1,1.917814136E0
1.237287767E1,-1.472478986E0,-1.024749660E1,1.640078187E0
1.242487103E1,-1.091789365E0,-1.019482231E1,1.637683988E0
1.247686442E1,-1.022355318E0,-1.012538815E1,1.589798450E0
1.252885911E1,-1.142069101E0,-9.586676598E0,1.687963724E0
1.258085514E1,-4.189980924E-1,-9.337671280E0,2.123721838E0
1.263284836E1,-6.727912426E-1,-9.320911407E0,2.094990492E0
1.268484166E1,-1.125309110E0,-9.553156853E0,2.217098475E0
1.273683508E1,-1.596981287E0,-9.531607628E0,2.253012657E0
1.278882838E1,-8.643332124E-1,-9.569916725E0,3.074248791E0
1.284082183E1,-7.709565163E-1,-9.182044029E0,3.375927448E0
1.289281529E1,-1.841197371E0,-9.967366219E0,4.163643837E0
1.294480938E1,-4.319271564E0,-1.015651417E1,3.986467600E0
1.299680270E1,-5.731894016E0,-8.887548447E0,4.302511692E0
1.304879600E1,-6.182017326E0,-8.561926842E0,4.142095566E0
1.310078949E1,-6.857203007E0,-8.008849144E0,3.581835032E0
1.315278282E1,-6.929031372E0,-6.366376877E0,3.770982742E0
1.320477604E1,-7.601822376E0,-6.747066498E0,3.155654192E0
1.325676960E1,-7.264229774E0,-7.510839939E0,3.043123245E0
1.330876329E1,-8.013637543E0,-7.003253937E0,2.281744003E0
1.336075708E1,-7.254652500E0,-6.306519985E0,1.517970204E0
1.341275044E1,-6.821289062E0,-4.652075768E0,1.984853864E0
1.346474373E1,-6.701575279E0,-3.668029070E0,9.098244309E-1
1.351673709E1,-6.984099388E0,-2.865947008E0,1.491633177E0
1.356873211E1,-7.374366283E0,-3.062277555E0,2.066259146E0
1.362073087E1,-8.169265747E0,-3.371139050E0,2.367937803E0
1.367272713E1,-8.648120880E0,-3.840416908E0,3.641691923E0
1.372472049E1,-8.827691078E0,-2.672010660E0,2.174001455E0
1.377671381E1,-7.544359684E0,-3.181991339E0,2.751021862E0
1.382870711E1,-8.061523438E0,-3.660846233E0,1.731060743E0
1.388070050E1,-8.755863190E0,-6.785374641E0,-4.668835998E-1
1.393269376E1,-9.354432106E0,-7.041562080E0,-1.218685865E0
1.398468708E1,-1.436564922E-1,-9.725543976E0,-2.585816681E-1
1.403668077E1,-8.370385170E0,3.280156553E-1,1.766974807E0
1.408867482E1,-7.388731956E0,3.493247032E0,3.023969173E0
1.414066805E1,-8.006455421E0,4.070267081E-2,9.265843630E-1
1.419266144E1,-8.569109917E0,2.336812258E0,-7.637736797E-1
1.424465484E1,-7.664073467E0,-4.549122155E-1,5.458946824E-1
1.429664813E1,-1.024510193E1,-1.781340480E0,3.732674360E0
1.434864152E1,-1.264416504E1,-3.744645834E0,5.595420361E0
1.440063485E1,-2.100018501E1,-6.148497581E0,8.389538765E0
1.445262907E1,-1.999698257E1,-5.868367672E0,1.349652672E1
1.450462252E1,-2.173762131E1,-5.454157829E0,6.806923389E0
1.455661582E1,-1.184687138E1,-8.047157288E0,6.057515144E0
1.460860911E1,-1.029298782E1,-6.727912426E0,1.508393168E0
1.466060350E1,-1.236882401E1,-5.710345268E0,-1.005595446E0
1.471259959E1,1.106154919E0,-2.877918243E0,8.451790214E-1
1.476459328E1,2.241041183E0,-8.212362528E-1,-8.930644989E-1
1.481658658E1,1.869928598E0,1.132491946E0,-1.582615614E0
1.486857977E1,1.735849261E0,3.639297724E0,-1.343188167E0
1.492057319E1,7.288172722E0,8.197997093E0,7.326480746E-1
1.497256652E1,1.003680038E1,1.361624050E1,1.709512234E0
1.502455985E1,1.634331894E1,3.070178604E1,5.952167034E0
1.507655383E1,2.338967133E1,3.634269714E1,1.328822494E0
1.512854746E1,5.739076614E0,6.141314983E0,2.855651474E1
1.518054088E1,4.354228210E1,-7.086334991E1,-4.968120098E0
1.523253414E1,-1.483013821E1,-1.164335823E1,2.094990492E0
1.528452754E1,4.434196949E0,7.587456703E0,-2.705530643E0
1.533652093E1,1.175588965E0,9.529213905E0,4.812492430E-1
1.538851415E1,-2.842004299E0,3.258608103E0,4.486870766E0
1.544050781E1,1.273754239E0,5.147690773E0,4.802915096E0
1.549250176E1,2.676799297E0,7.070293427E0,4.465322495E0
1.554449519E1,3.603383541E0,8.147717476E0,3.119740009E0
1.559648865E1,4.898686409E0,9.876383781E0,3.272973776E0
1.564848184E1,3.680000305E0,1.039115238E1,1.472478986E0
1.570047606E1,3.428601503E0,1.075029373E1,2.214704275E0
1.575247485E1,2.504411459E0,9.289786339E0,1.927391171E0
1.580447198E1,1.857957244E0,9.881172180E0,2.930592299E0
1.585646624E1,1.077423692E0,9.201197624E0,3.186779737E0
1.590845973E1,7.158881426E-1,8.698400497E0,4.996851444E0
1.596045292E1,-4.549122155E-1,8.767834663E0,5.185999393E0
1.601244621E1,-4.213923812E-1,8.341653824E0,4.369551659E0
1.606443954E1,-1.189954638E0,7.843644142E0,4.436591148E0
1.611643316E1,-2.260195494E0,6.845231533E0,1.625712633E0
1.616842718E1,-2.020767927E0,4.491659641E0,1.850774407E0
1.622042050E1,-1.905842781E0,4.846012115E0,-7.182824425E-3
1.627241390E1,-2.202732801E0,4.869955063E0,2.755810261E0
1.632440726E1,-5.439792156E0,3.284945011E0,4.477293968E0
1.637640055E1,-1.211742496E1,4.860377908E-1,6.672843933E0
1.642839398E1,-1.382693672E1,2.322446555E-1,6.306519985E0
1.648038730E1,-9.301757812E0,-1.022355318E0,7.963357925E0
1.653238099E1,-8.195602417E0,-1.647261024E0,6.067092419E0
1.658437518E1,-5.722316742E0,-5.569083214E0,8.087860107E0
1.663636824E1,-4.869955063E0,-7.283383846E0,7.719141960E0
1.668836156E1,-4.005621910E0,-6.842837334E0,5.595420361E0
1.674035502E1,-4.857983589E0,-8.506858826E0,5.387118340E0
1.679234935E1,-3.210722446E0,-8.676852226E0,5.379935265E0
1.684434804E1,-2.126116037E0,-9.265843391E0,5.525986195E0
1.689634456E1,-1.951334000E0,-8.976136208E0,4.429408550E0
1.694833818E1,-1.513181686E0,-8.801354408E0,3.445361376E0
1.700033161E1,-2.257801056E0,-1.014214802E1,3.112557173E0
1.705232497E1,-3.553103924E0,-1.169124413E1,2.693559170E0
1.710431826E1,-3.301704884E0,-1.194503689E1,1.608952641E0
1.715631159E1,-2.197944164E0,-1.166251278E1,2.274561167E0
1.720830492E1,-1.374313712E0,-9.984126091E0,2.291321039E0
1.726029904E1,-1.134886265E0,-9.706390381E0,1.347976685E0
1.731229266E1,-1.443747759E0,-1.003919411E1,1.501210332E0
1.736428605E1,-1.699935079E0,-9.275420189E0,1.549095750E0
1.741627941E1,-1.120520592E0,-9.289786339E0,1.321639657E0
1.746827264E1,-1.132491946E0,-9.213169098E0,1.462901950E0
1.752025153E1,-1.166011810E0,-9.239506721E0,1.357553840E0
1.757224465E1,-1.046298146E0,-9.945817947E0,1.154040456E0
1.762423798E1,-8.164477348E-1,-1.007989693E1,1.405439258E0
1.767623207E1,-8.954587579E-1,-9.680052757E0,1.685569525E0
1.772822569E1,-7.853221297E-1,-8.997684479E0,1.465296149E0
1.778021901E1,-6.584255695E-1,-9.165284157E0,1.800494671E0
1.783221244E1,-8.092648983E-1,-9.555550575E0,1.778946161E0
1.788420613E1,-1.019961119E0,-9.481328011E0,1.659232497E0
1.793620242E1,-1.173194647E0,-9.888355255E0,1.350371003E0
1.798819641E1,-1.149251938E0,-1.004398251E1,1.532335877E0
1.804018970E1,-1.261782765E0,-9.907508850E0,1.544307232E0
1.809218303E1,-1.537124395E0,-9.620196342E0,1.429382086E0
1.814417639E1,-1.474873304E0,-9.608224869E0,1.599375606E0
1.819616975E1,-1.122914910E0,-9.859623909E0,1.517970204E0
1.824816304E1,-1.048692346E0,-1.021397591E1,1.539518714E0
1.830015693E1,-9.888355136E-1,-1.003680038E1,1.726272106E0
1.835215072E1,-1.075029373E0,-9.641744614E0,1.549095750E0
1.840414398E1,-1.029538155E0,-9.474145889E0,1.623318315E0
1.845613747E1,-9.074301720E-1,-9.469356537E0,1.580221415E0
1.850813076E1,-8.092648983E-1,-9.706390381E0,1.529941559E0
1.856012402E1,-7.757450342E-1,-9.517242432E0,1.436564922E0
1.861211751E1,-8.164477348E-1,-9.409500122E0,1.450930476E0
1.866411084E1,-9.553156495E-1,-9.205986977E0,1.321639657E0
1.871610502E1,-1.094183564E0,-9.196409225E0,1.312062621E0
1.876809848E1,-1.245022893E0,-9.407105446E0,1.664021015E0
1.882009171E1,-1.647261024E0,-1.021876526E1,1.728666425E0
1.887208510E1,-2.487651587E0,-9.754275322E0,1.391073704E0
1.892407866E1,-2.219492674E0,-9.318517685E0,1.534730196E0
1.897607678E1,-2.693559170E0,-9.201197624E0,1.822043180E0
1.902807437E1,-3.047911882E0,-9.644139290E0,1.601769805E0
1.908006846E1,-3.143682718E0,-9.759063721E0,1.702329397E0
1.913206182E1,-2.552296877E0,-9.452596664E0,1.814860344E0
1.918405508E1,-2.528354168E0,-9.402317047E0,2.094990492E0
1.923604837E1,-2.923409462E0,-9.672870636E0,2.346389294E0
1.928804180E1,-3.380716085E0,-9.402317047E0,2.389486313E0
1.934003512E1,-4.817280769E0,-9.332882881E0,2.921015263E0
1.939202842E1,-4.865166187E0,-9.033598900E0,3.043123245E0
1.944402264E1,-5.181210518E0,-8.693612099E0,3.488458395E0
1.949601609E1,-5.174027920E0,-8.176448822E0,3.306493521E0
1.954800939E1,-5.763019562E0,-7.738296032E0,2.995237827E0
1.960000285E1,-5.880339146E0,-7.194795609E0,2.832427025E0
1.965199611E1,-6.021601200E0,-6.735095024E0,2.621730804E0
1.970398946E1,-6.014418125E0,-6.586649895E0,2.669616461E0
1.975598286E1,-6.026389599E0,-6.718335152E0,2.992843628E0
1.980797628E1,-6.126949310E0,-6.440599442E0,2.990449190E0
1.985997047E1,-6.045543671E0,-5.930618763E0,3.524372578E0
1.991196386E1,-6.833260536E0,-5.087833881E0,3.720703125E0
1.996395712E1,-7.666468143E0,-4.707144260E0,3.744645834E0
2.001595071E1,-8.217150688E0,-4.733481407E0,4.582642078E0
2.006794673E1,-8.169265747E0,-4.362368584E0,4.601796150E0
2.011994116E1,-8.162082672E0,-4.292934895E0,5.037554264E0
2.017193442E1,-7.755055904E0,-3.684788942E0,4.755029678E0
2.022392781E1,-7.307326794E0,-3.067065954E0,4.975303173E0
2.027592120E1,-7.017619610E0,-2.585816860E0,4.984879971E0
2.032791443E1,-6.711152077E0,-2.255406857E0,5.121353626E0
2.037990789E1,-6.924242973E0,-2.856369734E0,5.090228081E0
2.043190128E1,-6.878751755E0,-2.609759569E0,5.044736862E0
2.048389543E1,-7.142121792E0,-2.174001455E0,5.140508175E0
2.053588889E1,-7.003253937E0,-1.857957244E0,5.253038883E0
2.058788218E1,-7.216344357E0,-1.987248063E0,5.394300938E0
2.063987547E1,-7.031985283E0,-8.691217303E-1,5.102199554E0
2.069186900E1,-7.520417213E0,-3.361561775E0,4.970514297E0
2.074386223E1,-5.205153465E0,-4.714327335E0,5.976109982E0
2.079585559E1,-3.909850836E0,-6.000052452E0,5.377541065E0
2.084784944E1,-4.084632874E0,-6.447782040E0,4.755029678E0
2.089984316E1,-6.256239891E0,-9.198803902E0,2.138087511E0
2.095183662E1,-7.479714394E0,-8.705583572E0,2.741444588E0
2.100382985E1,-7.436617374E0,-1.046776962E1,5.044736862E0
2.105582330E1,-7.053533554E0,-7.922655106E0,4.465322495E0
2.110782063E1,-6.340039730E0,-5.389512539E0,2.683982134E0
2.115981875E1,-6.122160912E0,-1.738243461E0,1.324033976E0
2.121181428E1,-6.696786404E0,-6.464542150E-1,1.604164124E0
2.126380754E1,-1.061382008E1,-4.573064744E-1,5.621757030E0
2.131580093E1,-1.709991074E1,-4.656864643E0,5.851607800E0
2.136779425E1,-2.350220108E1,-3.718308687E0,8.832479477E0
2.141978748E1,-2.244393158E1,-4.656864643E0,9.423865318E0
2.147178101E1,-1.729384613E1,-6.196382999E0,5.813299179E0
2.152377489E1,-1.227065849E1,-5.006428719E0,3.009603500E0
2.157576852E1,-6.708757877E0,-1.577827096E0,-1.271359921E0
2.162776197E1,1.101366401E0,-1.376708031E0,-3.088614643E-1
2.167975527E1,1.060663700E0,1.726272106E0,-1.419804931E0
2.173174869E1,-5.267404318E-1,3.615354896E-1,2.382303476E0
2.178374202E1,1.845985889E0,3.292127848E0,-9.553156495E-1
2.183573518E1,2.928198099E0,5.195576191E0,-5.075862408E-1
2.188772887E1,4.618556023E0,9.732727051E0,3.521978140E0
2.193972273E1,8.054340363E0,1.490675449E1,4.790944099E0
2.199171622E1,1.750693703E1,3.106332207E1,5.276981831E0
2.204370964E1,2.425879288E1,3.567230225E1,1.999219418E0
2.209570287E1,1.111901188E1,7.388731956E0,2.692362022E1
2.214769640E1,2.177353477E1,-6.212664413E1,-1.757397652E0
2.219969348E1,-2.600421906E1,-1.462423038E1,-5.504437923E0
2.225169174E1,6.811711788E0,3.270579338E0,-3.232270956E0
2.230368623E1,3.246636629E0,7.077476501E0,1.410227895E0
2.235567966E1,3.158048391E0,8.669669151E0,1.340793848E0
2.240767298E1,-2.798907280E0,5.695979595E0,3.569863796E0
2.245966631E1,2.238646984E0,1.190194035E1,3.557892323E0
2.251165957E1,-1.347976685E0,7.194795609E0,6.419050694E0
2.256365292E1,-1.920208454E0,8.451789856E0,4.223500729E0
2.261564655E1,-7.541965842E-1,9.179649353E0,4.525179386E0
2.266764050E1,-2.727078915E0,8.547560692E0,3.883513689E0
2.271963393E1,-1.007989645E0,6.680026531E0,5.758230686E0
2.277162732E1,-8.834874034E-1,6.311308384E0,6.555524349E0
2.282362075E1,-1.209108829E0,5.959350109E0,5.930618763E0
2.287561394E1,-1.007989645E0,7.213950157E0,6.450176239E0
2.292760730E1,-1.630501151E0,6.818894863E0,5.458946705E0
2.297960079E1,-1.563461423E0,6.182017326E0,6.759037971E0
2.303159411E1,-1.637683988E0,5.839636326E0,4.984879971E0
2.308358827E1,-1.879505754E0,5.056708336E0,5.142902374E0
2.313558159E1,-2.473285913E0,2.693559170E0,2.087807655E0
2.318757488E1,-5.822876453E0,4.616161823E0,1.003201127E0
2.323956828E1,-4.168432236E0,3.395081758E0,3.591412306E-2
2.329156393E1,-3.617749214E0,2.600182533E0,2.913832426E0
2.334355896E1,-3.608172178E0,5.075862408E-1,6.323279858E0
2.339555235E1,-6.974522591E0,-1.608952641E0,1.098253822E1
2.344754564E1,-1.047495270E1,-3.323253393E0,1.043664360E1
2.349953900E1,-6.483695984E0,-5.992869854E0,1.046298122E1
2.355153236E1,-2.068653345E0,-8.552350044E0,1.162180996E1
2.360352565E1,-9.241901040E-1,-1.149730778E1,1.313020325E1
2.365551941E1,-3.936187744E0,-9.486116409E0,5.485283375E0
2.370751336E1,-6.311308384E0,-1.071198559E1,3.241847992E0
2.375950662E1,-3.787742853E0,-1.078381348E1,3.797319889E0
2.381150025E1,-5.411061049E-1,-1.032650757E1,4.300117493E0
2.386349341E1,-2.130904645E-1,-1.012778282E1,3.368744612E0
2.391548683E1,-1.328822494E0,-1.042706680E1,2.743839025E0
2.396748006E1,-3.227482557E0,-1.025228500E1,1.223474383E0
2.401947332E1,-3.871542454E0,-1.000088596E1,1.177983165E0
2.407146731E1,-3.031152010E0,-9.986519814E0,1.527547359E0
2.412346116E1,-1.862745762E0,-1.038397026E1,2.083019018E0
2.417545432E1,-9.577099085E-1,-9.938634872E0,2.123721838E0
2.422744778E1,-6.751855016E-1,-9.730332375E0,2.071047783E0
2.427944100E1,-6.296942830E-1,-9.790189743E0,2.032739401E0
2.433143726E1,-1.963305324E-1,-9.524425507E0,2.059076309E0
2.438343578E1,1.508393139E-1,-9.201197624E0,1.944151163E0
2.443543094E1,1.268965602E-1,-9.026415825E0,2.042316437E0
2.448742443E1,-2.537931204E-1,-8.887548447E0,1.862745762E0
2.453941772E1,-7.494080067E-1,-9.217958450E0,1.769369125E0
2.459141125E1,-1.187560320E0,-9.629773140E0,1.608952641E0
2.464340454E1,-1.486844659E0,-9.909903526E0,1.608952641E0
2.469539770E1,-1.625712633E0,-9.967366219E0,1.556278586E0
2.474739106E1,-1.707117915E0,-9.838075638E0,1.680780888E0
2.479938501E1,-1.608952641E0,-9.651321411E0,1.690358043E0
2.485132192E1,-1.477267504E0,-9.615407944E0,1.817254543E0
2.490331515E1,-1.529941559E0,-9.562733650E0,1.853168726E0
2.495530847E1,-1.510787368E0,-9.651321411E0,1.831620216E0
2.500730180E1,-1.369525194E0,-9.794978142E0,1.877111435E0
2.505929509E1,-1.101366401E0,-9.830892563E0,1.944151163E0
2.511128845E1,-9.960182905E-1,-9.991309166E0,1.934574008E0
2.516328181E1,-7.278595567E-1,-9.830892563E0,1.898659945E0
2.521527576E1,-4.525179267E-1,-9.488511086E0,1.898659945E0
2.526726939E1,-2.250618339E-1,-9.306546211E0,1.944151163E0
2.531926278E1,-1.699935049E-1,-9.318517685E0,1.874717116E0
2.537125607E1,-3.854782581E-1,-9.385557175E0,1.781340480E0
2.542325109E1,-6.656084061E-1,-9.320911407E0,1.690358043E0
2.547524685E1,-8.978530765E-1,-9.557945251E0,1.582615614E0
2.552724008E1,-1.022355318E0,-9.742303848E0,1.716695070E0
2.557923344E1,-9.002473354E-1,-9.684841156E0,1.843591571E0
2.563122686E1,-9.457385540E-1,-9.641744614E0,1.893871427E0
2.568322012E1,-8.356019258E-1,-9.816526413E0,2.075836182E0
2.573521348E1,-9.864411950E-1,-9.785401344E0,2.097384691E0
2.578720687E1,-9.768640995E-1,-9.711178780E0,2.114144564E0
2.583920073E1,-7.829278708E-1,-9.723150253E0,2.329629421E0
2.589119448E1,-7.613793612E-1,-9.648927689E0,2.324840784E0
2.594318781E1,-1.132491946E0,-9.474145889E0,2.418217659E0
2.599518120E1,-1.340793848E0,-9.474145889E0,3.011997700E0
2.604717446E1,-1.503604531E0,-9.773429871E0,3.739857197E0
2.609916789E1,-2.312869549E0,-9.507665634E0,3.529160976E0
2.615116111E1,-3.217905283E0,-9.263449669E0,3.897879362E0
2.620315441E1,-3.780560017E0,-8.722343445E0,4.254626274E0
2.625514862E1,-4.936994553E0,-8.614601135E0,3.897879362E0
2.630714222E1,-5.128536701E0,-8.705583572E0,3.438178539E0
2.635913557E1,-5.916253090E0,-8.703188896E0,3.170019865E0
2.641112887E1,-5.557111740E0,-8.188420296E0,3.289733648E0
2.646312412E1,-5.490072250E0,-7.314509392E0,2.614548206E0
2.651512278E1,-5.906675816E0,-6.462147713E0,2.968900681E0
2.656711950E1,-5.593026161E0,-5.779779434E0,2.753416061E0
2.661911323E1,-6.469330311E0,-5.353598595E0,2.190761566E0
2.667110649E1,-6.203566074E0,-4.644893169E0,3.050306082E0
2.672309991E1,-6.589044094E0,-4.510813713E0,2.899466753E0
2.677509344E1,-7.297749519E0,-4.503631115E0,3.280156374E0
2.682708667E1,-8.628966331E0,-4.745452881E0,3.433390141E0
2.687908052E1,-8.497281075E0,-3.905062199E0,3.859570980E0
2.693107418E1,-9.229928970E0,-3.409447432E0,3.371139050E0
2.698306757E1,-9.160495758E0,-3.069460392E0,3.040729046E0
2.703506089E1,-9.155706406E0,-3.150865555E0,3.316070557E0
2.708705425E1,-9.534002304E0,-2.820455790E0,3.268185139E0
2.713904751E1,-8.806142807E0,-2.813272953E0,3.150865555E0
2.719104084E1,-7.628159523E0,-2.384697676E0,3.351984739E0
2.724303430E1,-6.991282463E0,-1.936968327E0,3.533949614E0
2.729502799E1,-7.297749519E0,-2.940169573E0,2.487651587E0
2.734702191E1,-6.852414608E0,-3.093403101E0,2.719896078E0
2.739901523E1,-5.858790398E0,-3.864359617E0,1.601769805E0
2.745100849E1,-7.527599812E0,-5.700768471E0,1.245022893E0
2.750300195E1,-1.025467873E1,-8.868393898E0,1.453324795E0
2.755499707E1,-9.608224869E0,-3.773377180E0,1.005595446E0
2.760699616E1,-6.964945316E0,-4.788549542E-1,3.478881359E0
2.765899209E1,-5.947378635E0,5.482889414E-1,2.205127001E0
2.771098528E1,-7.448588848E0,2.633702382E-2,4.740664065E-1
2.776297857E1,-8.224333763E0,-3.735068738E-1,2.466103077E0
2.781497210E1,-1.256754875E1,-3.703943014E0,2.856369734E0
2.786696522E1,-1.309428883E1,-6.301731110E0,6.696786404E0
2.791895855E1,-1.921644974E1,-6.840443134E0,7.946598053E0
2.797095194E1,-1.768890190E1,-5.686402798E0,9.344854355E0
2.802294609E1,-1.747102356E1,-7.735901833E0,8.329682350E0
2.807493958E1,-1.548616982E1,-9.794978142E0,5.628940105E0
2.812693291E1,-1.225389862E1,-1.058748341E1,3.201145411E0
2.817892634E1,-8.188420296E0,-9.024022102E0,2.217098475E0
2.823091963E1,-3.538738251E0,-4.951360226E0,1.446141958E0
2.828291292E1,1.731060743E0,-8.499675393E-1,-1.192348838E0
2.833490651E1,1.110943556E0,1.529941559E0,1.388679445E-1
2.838689970E1,3.177202702E0,3.373533249E0,6.608198285E-1
2.843889392E1,5.176422119E0,8.372778893E0,7.422251701E-1
2.849088735E1,1.179898643E1,1.946306038E1,2.992843390E-1
2.854288058E1,2.209436798E1,4.174657440E1,-1.268965602E0
2.859487407E1,1.427706051E1,1.710948753E1,7.874769688E0
2.864686829E1,-2.815667152E0,-1.726750946E1,-1.158110714E1
2.869886441E1,-2.261871338E1,-2.576000214E1,-4.395888329E0
2.875085797E1,4.376734257E0,1.295302629E0,-6.536370516E-1
2.880285140E1,4.017592907E0,1.119562912E1,-1.027143836E0
2.885484459E1,-9.194015265E-1,8.233911514E0,1.867534399E0
2.890683798E1,-9.170072675E-1,7.410280704E0,2.621730804E0
2.895883144E1,5.698373914E-1,6.799740314E0,4.338426113E0
2.901082464E1,2.178790092E0,7.036773682E0,6.464541912E0
2.906281872E1,1.637683988E0,1.053959751E1,3.170019865E0
2.911481231E1,1.798100352E0,1.173434067E1,1.644866824E0
2.916680587E1,1.101366401E0,1.010383987E1,2.818061352E0
2.921879900E1,1.034326673E0,1.089634418E1,1.838803053E0
2.927079239E1,7.398309112E-1,9.818921089E0,2.236252785E0
2.932278572E1,3.256213665E-1,9.289786339E0,2.336812258E0
2.937477897E1,-4.070267081E-1,9.246688843E0,2.504411459E0
2.942677240E1,-7.709565163E-1,9.179649353E0,2.832427025E0
2.947876658E1,-9.098244458E-2,8.956981659E0,4.221106529E0
2.953075994E1,-9.481328130E-1,9.122186661E0,3.016786337E0
2.958275347E1,-1.359948039E0,8.609811783E0,4.058295727E0
2.963474669E1,-8.763045669E-1,9.277814865E0,2.597788095E0
2.968674105E1,-1.637683988E0,8.494887352E0,3.028757572E0
2.973873984E1,-1.532335877E0,8.549955368E0,3.124528646E0
2.979073659E1,-1.441353440E0,7.944203854E0,2.674404860E0
2.984273015E1,-9.026415944E-1,5.966532707E0,2.767781734E0
2.989472348E1,-6.033572555E-1,4.331243038E0,2.241041183E0
2.994671667E1,-3.735068738E-1,3.670423269E0,2.138087511E0
2.999870997E1,7.853221297E-1,3.253819466E0,2.207521439E0
3.005070356E1,1.865140080E0,3.773377180E0,2.983266354E0
3.010269675E1,2.442160249E-1,4.470110893E0,3.069460392E0
3.015469031E1,-1.051086664E0,3.474092722E0,7.039167881E0
3.020668436E1,-6.136526108E0,2.968900800E-1,9.399923325E0
3.025867775E1,-8.825297356E0,-1.501210332E0,1.100648117E1
3.031067095E1,-2.985660791E0,-4.707144260E0,1.185405445E1
3.036266441E1,2.822849989E0,-8.755863190E0,1.423396397E1
3.041465773E1,5.985686779E-1,-9.629773140E0,1.003680038E1
3.046665102E1,-3.735068798E0,-1.132731438E1,8.025609016E0
3.051864445E1,-5.842030525E0,-1.069522572E1,4.608979225E0
3.057063857E1,-3.241847992E0,-1.009426212E1,4.031958580E0
3.062263213E1,-9.840469360E-1,-1.058508873E1,4.635315895E0
3.067462542E1,-1.453324795E0,-1.165054131E1,4.008016109E0
3.072661878E1,-2.185972929E0,-1.158110714E1,2.913832426E0
3.077861267E1,-2.365543604E0,-1.066409969E1,2.123721838E0
3.083060906E1,-2.360754967E0,-9.984126091E0,2.162030220E0
3.088260272E1,-2.142875910E0,-9.538790703E0,2.154847383E0
3.093459608E1,-1.788523316E0,-9.548367500E0,2.066259146E0
3.098658937E1,-1.422199249E0,-9.620196342E0,1.994430900E0
3.103858290E1,-1.326428294E0,-9.833286285E0,1.956122518E0
3.109057626E1,-1.075029373E0,-9.768641472E0,1.719089270E0
3.114256942E1,-1.051086664E0,-9.699207306E0,1.774157643E0
3.119456344E1,-8.356019258E-1,-9.553156853E0,1.848380208E0
3.124655716E1,-6.296942830E-1,-9.411893845E0,1.845985889E0
3.129855055E1,-5.770202279E-1,-9.280209541E0,1.879505754E0
3.135054378E1,-4.668835998E-1,-9.028810501E0,1.879505754E0
3.140253734E1,-6.057515144E-1,-9.095849991E0,1.834014535E0
3.145453040E1,-8.523618579E-1,-9.196409225E0,1.975276709E0
3.150652382E1,-1.125309110E0,-9.265843391E0,1.810071707E0
3.155851721E1,-1.304879785E0,-9.471751213E0,2.001613855E0
3.161051107E1,-1.489238977E0,-9.785401344E0,2.047105074E0
3.166250519E1,-1.656838179E0,-1.017087936E1,2.236252785E0
3.171449812E1,-1.613741279E0,-1.013017654E1,2.269772530E0
3.176649144E1,-2.370332003E0,-9.921875000E0,2.116539001E0
3.181848533E1,-2.413429022E0,-9.665687561E0,2.116539001E0
3.187048369E1,-2.968900681E0,-9.799766541E0,2.073441982E0
3.192248121E1,-3.275367975E0,-9.330489159E0,2.212309837E0
3.197447584E1,-3.083826065E0,-9.263449669E0,2.164424419E0
3.202646924E1,-2.724684715E0,-9.632167816E0,2.375120640E0
3.207846256E1,-2.743839025E0,-9.569916725E0,2.063864946E0
3.212850787E1,-3.019180536E0,-9.929058075E0,2.197944164E0
3.218050129E1,-3.249030828E0,-9.665687561E0,2.049499273E0
3.223249459E1,-3.682394743E0,-1.006792545E1,2.937775135E0
3.228448874E1,-3.957736254E0,-9.244295120E0,2.736656189E0
3.233648233E1,-5.609786034E0,-8.253065109E0,3.615355015E0
3.238847556E1,-6.598621368E0,-6.883540154E0,3.806896925E0
3.244046901E1,-7.611399651E0,-5.863578796E0,3.581835032E0
3.249246247E1,-7.769421577E0,-5.114171028E0,4.142095566E0
3.254445557E1,-8.219545364E0,-4.652075768E0,3.732674360E0
3.259644903E1,-7.711959362E0,-3.701548815E0,4.031958580E0
3.264844235E1,-8.018425941E0,-2.830032825E0,3.854782343E0
3.270043657E1,-8.147717476E0,-1.989642382E0,3.399870157E0
3.275242999E1,-7.424646378E0,-2.102173328E0,3.313676357E0
3.280442325E1,-6.854808807E0,-2.468497276E0,3.347196102E0
3.285641661E1,-7.192401409E0,-2.822849989E0,4.094210148E0
3.290841027E1,-7.893924236E0,-4.041535854E0,4.017592907E0
3.296040839E1,-7.690410614E0,-4.822069645E0,4.723904133E0
3.301240588E1,-7.680833817E0,-6.028783798E0,4.482082367E0
3.306439994E1,-6.562707424E0,-6.349617004E0,3.569863796E0
3.311639330E1,-4.582642078E0,-6.407079220E0,2.604970932E0
3.316838663E1,-5.396695614E0,-9.435836792E0,1.652049661E0
3.322037992E1,-4.927417755E0,-1.026425648E1,3.095797300E0
3.327237331E1,-8.083071709E0,-3.261002302E0,3.148471355E0
3.332436697E1,-8.877970695E0,2.640885115E0,5.487678051E0
3.337636046E1,-7.247469902E0,3.680000305E0,6.454965115E0
3.342835448E1,-8.616994858E0,5.770202279E-1,7.817307472E0
3.348034761E1,-1.240473747E1,5.195576549E-1,-2.190761566E0
3.353234100E1,-1.147575951E1,-1.056354046E1,-7.374366522E-1
3.358433442E1,-1.422199249E0,-9.239506721E0,2.296109438E0
3.363632765E1,-5.367964268E0,-4.726298332E0,8.882759809E-1
3.368832098E1,-8.109408379E0,-1.889082789E0,2.449343204E0
3.374031437E1,-8.312922478E0,-1.747820616E0,3.627326250E0
3.379230829E1,-1.477267551E1,-4.503631115E0,2.741444588E0
3.384430201E1,-1.258670235E1,-2.827638626E0,5.427821159E0
3.389629544E1,-1.234727478E1,-1.850774407E0,2.602576733E0
3.394828866E1,-1.089634418E1,-1.721483588E0,4.953754425E0
3.400028216E1,-1.185884285E1,-9.098244309E-1,2.827638626E0
3.405227831E1,-8.202785492E0,3.208328187E-1,7.714353561E0
3.410427270E1,-1.296739197E1,6.656084061E-1,6.131737709E0
3.415626600E1,-1.269205093E1,4.405465722E-1,8.415876389E0
3.420825939E1,-1.128182316E1,-5.530774593E-1,6.818894863E0
3.426025278E1,-8.260248184E0,-6.608198285E-1,5.243461609E0
3.431224601E1,-4.484476566E0,-6.249057055E-1,3.933793545E0
3.436423944E1,-6.656084061E-1,1.352765322E0,1.680780888E0
3.441623309E1,2.023162127E0,1.312062621E0,1.149251938E0
3.446822708E1,2.432583094E0,3.380716085E0,-1.915419817E0
3.452022044E1,3.373533249E0,5.593026161E0,-2.059076279E-1
3.457221370E1,6.198777676E0,9.936240196E0,1.326428294E0
3.462420702E1,1.243825722E1,1.938644218E1,2.059076279E-1
3.467620052E1,2.457962608E1,3.966834641E1,-2.257801056E0
3.472819374E1,1.093704700E1,1.462183666E1,1.356117249E1
3.478018707E1,1.103760719E0,-2.501059532E1,-1.509111404E1
3.483218099E1,-2.753894806E1,-1.949658012E1,-1.151646137E0
3.488417474E1,1.014454269E1,6.727912426E0,2.298503816E-1
3.493616810E1,1.867534399E0,1.624754906E1,-4.237866402E0
3.498816146E1,-4.180403709E0,2.387091875E0,3.948159218E0
3.504015502E1,-1.446141958E0,6.826077461E0,4.659258842E0
3.509215227E1,1.675992459E-2,9.064723969E0,5.276981831E0
3.514415029E1,1.527547359E0,6.723123550E0,5.786962032E0
3.519614482E1,2.004008055E0,7.695199013E0,3.404658794E0
3.524813805E1,2.995237827E0,6.869174480E0,3.890696526E0
3.530013147E1,1.637683988E0,8.073494911E0,2.226675510E0
3.535212477E1,1.877111435E0,9.098244667E0,2.145270348E0
3.540411806E1,2.133298874E0,9.443019867E0,1.697540879E0
3.545611149E1,3.040729046E0,1.008947372E1,1.807677507E0
3.550810494E1,3.545921087E0,1.067128277E1,1.443747759E0
3.556009896E1,4.565882206E0,1.023552513E1,8.667274714E-1
3.561209252E1,4.687990189E0,9.354432106E0,1.149251938E0
3.566408581E1,3.703943014E0,7.606611252E0,-2.609759569E-1
3.571607911E1,2.643279314E0,5.458946705E0,6.153286099E-1
3.576807250E1,3.802108288E0,5.344021320E0,-2.873129770E-2
3.582006579E1,3.598595142E0,4.120546818E0,7.230709791E-1
3.587205918E1,2.257801056E0,5.243461609E0,7.398309112E-1
3.592405251E1,-8.379961550E-2,3.543526649E0,4.072661400E0
3.597604666E1,-5.044736862E0,2.073441982E0,7.676044941E0
3.602804012E1,-9.294574738E0,3.064671755E-1,1.264655972E1
3.608003348E1,-9.081484795E0,-6.727912426E-1,1.174631214E1
3.613202690E1,-8.684034348E0,-2.346389294E0,1.292908382E1
3.618402256E1,-8.439818382E0,-2.942563772E0,1.092028713E1
3.623601748E1,-7.036773682E0,-3.442967176E0,1.107831001E1
3.628801081E1,-4.848406315E0,-3.138894320E0,9.775823593E0
3.634000414E1,-5.415849686E0,-2.324840784E0,7.494080067E0
3.639199746E1,-6.718335152E0,-3.301704884E0,7.144515991E0
3.644399092E1,-6.146103382E0,-3.754222870E0,6.964945316E0
3.649598408E1,-5.765413761E0,-4.302511692E0,6.950579643E0
3.654797754E1,-4.800520897E0,-3.574652195E0,6.909877300E0
3.659997166E1,-5.063891411E0,-3.270579338E0,6.380742550E0
3.665196515E1,-5.944984436E0,-4.142095566E0,6.510033131E0
3.670395858E1,-6.550735950E0,-4.575459003E0,6.469330311E0
3.675595187E1,-6.134131908E0,-4.814886570E0,6.648900986E0
3.680794519E1,-4.630527496E0,-4.130124092E0,6.284971237E0
3.685993852E1,-5.207547665E0,-4.060689926E0,6.694392204E0
3.691193184E1,-6.442993641E0,-3.579440832E0,6.457359314E0
3.696392537E1,-8.686429024E0,-3.471698523E0,6.251451492E0
3.701591952E1,-9.031204224E0,-2.432583094E0,5.844424725E0
3.706791301E1,-8.741497040E0,-1.235445857E0,5.032765865E0
3.711990634E1,-9.270631790E0,-1.051086664E0,6.167652130E0
3.717189947E1,-8.344047546E0,-1.460507631E0,6.809317589E0
3.722389595E1,-7.553936958E0,-6.344828010E-1,7.082264900E0
3.727589435E1,-8.978530884E0,-1.795706153E0,6.392713547E0
3.732789064E1,-7.225921154E0,-9.457385540E-1,5.511620522E0
3.737988386E1,-7.173247337E0,-1.369525194E0,4.984879971E0
3.743187722E1,-7.877163887E0,-1.189954638E0,3.744645834E0
3.748387048E1,-7.731113434E0,-2.511594296E0,3.828445435E0
3.753586407E1,-6.663266659E0,-4.103786945E0,3.713520288E0
3.758785720E1,-6.632141113E0,-5.257827282E0,3.026363373E0
3.763985135E1,-5.643305779E0,-6.229903221E0,3.105374336E0
3.769184508E1,-6.514821529E0,-9.273026466E0,2.365543604E0
3.774383857E1,-8.497281075E0,-1.257952023E1,1.762186289E0
3.779583156E1,-5.322473049E0,-9.543579102E0,1.380538845E1
3.784782502E1,-9.038387299E0,-1.855562925E0,8.030397415E0
3.789981814E1,-1.137041092E1,4.462928295E0,9.756669998E0
3.795181177E1,-1.670006752E1,3.148471355E0,1.025707340E1
3.800380493E1,-1.755961227E1,-7.613793612E-1,7.992089272E0
3.805579885E1,-1.208629894E1,-1.410227895E0,5.320078850E0
3.810779264E1,-4.178009510E0,-6.081457734E-1,1.527547359E0
3.815978590E1,-5.243461728E-1,1.719089270E0,7.039167881E-1
3.821177929E1,5.458946824E-1,3.347196102E0,-2.710319042E0
3.826377262E1,-2.849186957E-1,5.478100777E0,-3.952947617E0
3.831576884E1,2.329629421E0,8.071100235E0,-6.225114316E-2
3.836776743E1,8.945011139E0,1.392749691E1,4.175615311E0
3.841976249E1,1.610868073E1,3.407531738E1,4.321666241E0
3.847175591E1,1.844070435E1,3.091487694E1,-6.943397224E-2
3.852374937E1,2.602576733E0,5.499649048E0,2.837215614E1
3.857574256E1,2.576239586E0,-4.189262772E1,3.357730865E1
3.862773606E1,7.340846539E0,-1.128421688E1,-6.469330311E0
3.867972928E1,2.281744003E0,8.212362528E-1,-2.353572130E0
3.873172277E1,3.943370581E0,8.320104599E0,-6.387925148E0
3.878371676E1,4.934600353E0,1.194982529E1,-1.989642382E0
3.883571035E1,4.079844475E0,1.203123093E1,-3.969707727E0
3.888770368E1,4.733481407E0,1.147336483E1,-1.814860344E0
3.893969700E1,6.668055534E0,9.371191978E0,-4.632921696E0
3.899169030E1,5.506832123E0,8.444606781E0,-3.821262598E0
3.904368369E1,8.396721840E0,9.100638390E0,-4.970514297E0
3.909567725E1,1.051565456E1,8.432636261E0,-5.956955910E0
3.914767040E1,6.572284222E0,8.609811783E0,-2.087807655E0
3.919966459E1,7.664073467E0,7.630553722E0,-1.347976685E0
3.925165795E1,5.360781193E0,7.776604652E0,-3.950553536E-1
3.930365134E1,5.604997158E0,7.592245579E0,-5.746259689E-1
3.935564463E1,6.332856655E0,7.659285069E0,3.375927508E-1
3.940756511E1,6.117372036E0,7.642525196E0,-9.074301720E-1
3.945956064E1,6.802134514E0,7.314509392E0,-1.604164094E-1
3.951155390E1,6.308914185E0,6.931425571E0,2.011190802E-1
3.956354716E1,7.130150318E0,6.466936111E0,-1.197137356E0
3.961554065E1,5.968926907E0,5.590631485E0,2.705530524E-1
3.966753388E1,5.698374271E0,6.143709183E0,-2.130904645E-1
3.971952724E1,4.917840481E0,5.822876453E0,-5.387118459E-1
3.977152063E1,2.554691315E0,5.604997158E0,1.168406129E0
3.982351491E1,-1.587404251E0,6.040755272E0,1.498816013E0
3.987550834E1,-3.280156374E0,5.777385235E0,2.861158371E0
3.992750176E1,-4.158855438E0,6.023995399E0,4.369551659E0
3.997949492E1,-6.895511627E0,3.907456398E0,7.441406250E0
4.003148825E1,-1.120760059E1,6.249057055E-1,9.313729286E0
4.008348168E1,6.320885420E-1,-7.063110471E-1,7.295355320E0
4.013547504E1,8.648120880E0,-2.980872154E0,1.097774982E1
4.018746846E1,1.352765322E0,-4.996851444E0,7.781393051E0
4.023946271E1,-3.282550812E0,-8.334470749E0,9.816526413E0
4.029145600E1,-7.350423932E-1,-8.195602417E0,6.749460697E0
4.034344926E1,3.256213665E-1,-1.061142635E1,8.140534401E0
4.039544266E1,-1.352765322E0,-1.145421028E1,5.961744308E0
4.044743791E1,-9.289786220E-1,-1.197616291E1,5.140508175E0
4.049943673E1,-7.925049663E-1,-1.219883060E1,5.348809719E0
4.055143269E1,-6.416656375E-1,-1.136083412E1,3.816473961E0
4.060342598E1,-1.314456820E0,-1.059227180E1,3.507612705E0
4.065541927E1,-4.549122155E-1,-1.023552513E1,3.181991339E0
4.070741273E1,-6.296942830E-1,-9.694418907E0,2.834821463E0
4.075940599E1,-1.292908341E-1,-9.210775375E0,2.712713242E0
4.081139938E1,-1.843591630E-1,-9.095849991E0,2.743839025E0
4.086339271E1,-4.549122229E-2,-9.476539612E0,2.463708878E0
4.091538640E1,-7.996878028E-1,-9.862017632E0,2.078230619E0
4.096738042E1,-9.864411950E-1,-9.797372818E0,2.061470509E0
4.101937378E1,-6.416656375E-1,-9.706390381E0,2.071047783E0
4.107136697E1,-3.926610649E-1,-9.517242432E0,2.154847383E0
4.112336030E1,-5.650488734E-1,-9.397528648E0,2.085413456E0
4.117535382E1,-7.925049663E-1,-9.241900444E0,1.822043180E0
4.122734705E1,-8.403904438E-1,-9.402317047E0,1.755003452E0
4.127934028E1,-9.720755816E-1,-9.466962814E0,1.891477108E0
4.133133423E1,-1.063058019E0,-9.574705124E0,1.965699673E0
4.138332802E1,-1.075029373E0,-9.567522049E0,2.032739401E0
4.143532131E1,-9.313728809E-1,-9.469356537E0,2.133298874E0
4.148731477E1,-8.116591573E-1,-9.352037430E0,2.205127001E0
4.153930913E1,-8.571503758E-1,-9.550762177E0,2.157241583E0
4.159130522E1,-9.385557175E-1,-9.739910126E0,2.135693073E0
4.164329871E1,-8.978530765E-1,-9.615407944E0,2.085413456E0
4.169529210E1,-9.553156495E-1,-9.457385063E0,2.035133600E0
4.174728536E1,-8.140534163E-1,-9.466962814E0,1.948939681E0
4.179927882E1,-6.273000240E-1,-9.596253395E0,2.135693073E0
4.185127205E1,-4.620950520E-1,-9.505270958E0,2.104567528E0
4.190326547E1,-4.597007632E-1,-9.414288521E0,2.150058746E0
4.195525949E1,-4.309694767E-1,-9.438231468E0,2.063864946E0
4.200725305E1,-3.759011328E-1,-9.478934288E0,2.133298874E0
4.205924641E1,-8.403904438E-1,-9.737515450E0,3.435784340E0
4.211123987E1,-1.276148438E0,-1.102084732E1,5.025582790E0
4.216323306E1,-4.019987583E0,-1.188518047E1,4.788549423E0
4.221522639E1,-1.570644259E0,-1.144463348E1,3.732674360E0
4.226721975E1,1.453324795E0,-1.043664360E1,6.421444893E0
4.231921314E1,5.698373914E-1,-7.465348721E0,5.559505939E0
4.237120736E1,-6.560313106E-1,-4.470110893E0,3.344801903E0
4.242320071E1,5.746259540E-2,-4.592218876E0,4.649681568E0
4.247519414E1,5.746259689E-1,-4.012804508E0,4.134912491E0
4.252718736E1,-1.541913033E0,-6.067092419E0,7.778998852E0
4.257918189E1,8.140534163E-2,-8.899519920E0,1.243586349E1
4.263118078E1,-5.985686779E-1,-7.635342598E0,1.230417824E1
4.268317723E1,-2.322446555E-1,-5.135719299E0,1.021397591E1
4.273517076E1,1.671203852E0,-1.790917516E0,5.813299179E0
4.278716415E1,1.300091267E0,-1.968093872E0,6.584255695E0
4.283915744E1,2.001613855E0,-8.571503758E-1,6.141314983E0
4.289115077E1,9.624984860E-1,-1.652049661E0,7.067899227E0
4.294314413E1,1.194743156E0,-1.096577883E0,7.455771923E0
4.299513749E1,1.096577883E0,-1.956122518E0,8.269824982E0
4.304713091E1,1.017566800E0,-2.442160368E0,8.810931206E0
4.309912493E1,1.491633177E0,-2.545114040E0,9.256266594E0
4.315111852E1,1.860351562E0,-2.679193497E0,9.433443069E0
4.320311172E1,1.438959122E0,-2.439765930E0,6.675238132E0
4.325510511E1,6.464542150E-1,-2.650462151E0,5.518803596E0
4.330709850E1,-1.891477108E-1,-4.939388752E0,6.768614769E0
4.335909183E1,-8.403904438E-1,-6.012023926E0,9.208380699E0
4.341108512E1,-8.739103079E-1,-6.615381241E0,1.120281219E1
4.346307861E1,-1.199531674E0,-6.751854897E0,1.259628010E1
4.351507273E1,-3.148471355E0,-5.396695614E0,1.102802944E1
4.356706622E1,-3.196356773E0,-3.148471355E0,1.114534950E1
4.361905955E1,-3.241847992E0,-1.426987767E0,1.027383327E1
4.367105348E1,-5.446975231E0,-2.662433624E0,8.727131844E0
4.372304976E1,-6.397502422E0,-3.028757572E0,8.363202095E0
4.377504339E1,-8.442213058E0,-3.349590540E0,6.117372036E0
4.382703688E1,-7.280989647E0,-1.889082789E0,4.944177628E0
4.387903031E1,-5.839636326E0,-1.462901950E0,4.623344421E0
4.393102344E1,-6.802134514E0,-3.205934048E0,2.389486313E0
4.398301686E1,-5.858790398E0,-4.877137661E0,3.404658794E0
4.403501026E1,-7.788576126E0,-9.373585701E0,3.004814863E0
4.408700365E1,-9.217958450E0,-8.078283310E0,-3.088614643E-1
4.413899783E1,-8.245882034E0,-6.007235527E0,4.189980984E0
4.419099119E1,-8.277008057E0,3.828445435E0,3.605777979E0
4.424298458E1,-9.251478195E0,2.087807655E0,4.336031914E0
4.429497801E1,-9.907508850E0,4.582642078E0,3.668029070E0
4.434697123E1,-8.195602417E0,3.526766777E0,2.317657948E0
4.439896456E1,-2.612153769E0,3.404658794E0,3.287339211E0
4.445095802E1,2.583422422E0,1.048692346E0,5.102199554E0
4.450295151E1,-9.526819229E0,2.197944164E0,9.821314812E0
4.455494560E1,-1.704484177E1,-5.743865490E0,1.073114014E1
4.460693886E1,-2.160114670E1,-7.467742920E0,1.667851830E1
4.465893225E1,-1.969769859E1,-3.840416908E0,1.275669575E1
4.471092604E1,-7.702382088E0,-4.666441441E0,3.641691923E0
4.476292459E1,-2.025556564E0,-2.808484316E0,3.452544212E0
4.481492202E1,-2.952140808E0,1.642472506E0,-2.976083517E0
4.486691652E1,5.523591995E0,3.100585938E0,-1.709512234E0
4.491891004E1,1.210545349E1,1.400411320E1,-2.147664547E0
4.497090323E1,2.060512924E1,4.468674469E1,-1.687963724E0
4.502289656E1,1.184208298E1,1.686527252E1,7.194795609E0
4.507488995E1,-3.191328812E1,-3.534428406E1,-3.606735611E1
4.512688321E1,-2.721093369E1,-2.738332176E1,7.228315830E0
4.517887740E1,1.319484806E1,-1.149251908E-1,-5.906675816E0
4.523087105E1,3.452544212E0,1.189475727E1,-6.138920784E0
4.528286415E1,7.589851022E-1,8.382355690E0,-2.001613855E0
4.533485777E1,2.870735407E0,8.913885117E0,5.099805593E-1
4.538685097E1,4.750241280E0,1.038875866E1,-3.902668059E-1
4.543884419E1,5.236279011E0,1.024031353E1,-2.497228622E0
4.549083755E1,7.697593689E0,9.639349937E0,-3.742251635E0
4.554283101E1,1.270162773E1,9.091061592E0,-5.288952827E0
4.559482523E1,1.304161453E1,8.092648506E0,-4.764606953E0
4.564681865E1,8.533195496E0,7.702382088E0,-2.126116037E0
4.569881188E1,7.340846539E0,6.442993641E0,-4.381522834E-1
4.575080534E1,2.327235222E0,6.823683262E0,1.743032098E0
4.580279903E1,5.624151707E0,6.488484859E0,2.645673752E0
4.585479775E1,4.877137661E0,7.309720993E0,1.968093872E0
4.590679471E1,7.213950157E0,6.888328552E0,3.435784340E0
4.595878860E1,7.671256542E0,6.974522591E0,1.733454943E0
4.601078196E1,7.678439140E0,6.562707424E0,2.334417820E0
4.606277529E1,7.537177086E0,6.289760113E0,1.982459545E0
4.611476898E1,6.878751755E0,5.578660488E0,1.776551962E0
4.616676197E1,5.772596359E0,5.921041489E0,2.695953369E0
4.621875523E1,5.454157829E0,5.746259689E0,1.601769805E0
4.627074866E1,4.477293968E0,5.114171028E0,2.200338602E0
4.632274291E1,3.402264595E0,5.188393593E0,1.843591571E0
4.637473643E1,7.948992252E-1,5.502043724E0,3.107768774E0
4.642672966E1,-1.108549237E0,6.124555111E0,5.332049847E0
4.647872305E1,-1.460507661E-1,5.573871613E0,4.836435318E0
4.653071638E1,-1.331216812E0,3.217905283E0,7.211555958E0
4.658270970E1,-1.386285067E0,1.896265626E0,3.907456398E0
4.663272986E1,-3.912245035E0,-2.363149166E0,7.774210453E0
4.668472332E1,-1.908236980E0,-3.689577579E0,5.068679810E0
4.673671760E1,-4.395888329E0,-1.101366425E1,7.628159523E0
4.678871086E1,-5.480494976E0,-1.358990383E1,7.170853138E0
4.684070425E1,-4.745452881E0,-1.446142006E1,6.000052452E0
4.689269781E1,-3.428601503E0,-1.533533001E1,7.192401409E0
4.694469393E1,-2.511594296E0,-1.384609127E1,8.643332481E0
4.699668836E1,-3.981678963E0,-1.110464668E1,7.810124397E0
4.704868152E1,-5.578660488E0,-9.383162498E0,7.113390446E0
4.710067494E1,-7.149304390E0,-8.873182297E0,5.396695614E0
4.715266827E1,-9.062330246E0,-8.968953133E0,5.514014721E0
4.720466153E1,-7.051139355E0,-7.841249943E0,5.334444046E0
4.725665499E1,-7.094236374E0,-6.548341751E0,4.474899769E0
4.730864871E1,-5.901887417E0,-6.605803967E0,4.266597748E0
4.736064256E1,-4.673624516E0,-5.463735104E0,3.586623669E0
4.741263596E1,-4.369551659E0,-5.135719299E0,4.194769382E0
4.746462921E1,-4.747847080E0,-4.285751820E0,3.038334846E0
4.751662264E1,-5.123748302E0,-4.216318130E0,4.434196949E0
4.756861603E1,-5.181210518E0,-4.053507328E0,4.216318130E0
4.762060923E1,-5.712739468E0,-3.790137053E0,5.360781193E0
4.767260258E1,-5.351204395E0,-3.395081758E0,5.037554264E0
4.772459657E1,-7.345634937E0,-3.962524891E0,5.133325100E0
4.777659033E1,-6.842837334E0,-4.075055599E0,5.123748302E0
4.782858389E1,-6.454965115E0,-4.716721535E0,4.417437077E0
4.788057691E1,-7.688016415E0,-5.030371189E0,2.832427025E0
4.793257040E1,-7.975329399E0,-5.573871613E0,1.922602654E0
4.798456799E1,-8.736708641E0,-7.304932594E0,1.266571403E0
4.803656591E1,-9.524425507E0,-6.057515144E0,-2.727078915E0
4.808856041E1,-1.368088627E1,-1.395862222E0,5.178816319E0
4.814055357E1,-1.639360046E1,1.051086664E0,9.093455315E0
4.819254706E1,-1.221798420E1,1.374313712E0,1.289316940E1
4.824454052E1,-1.043185520E1,1.671203852E0,8.130957603E0
4.829653361E1,-5.482889175E0,3.351984620E-1,5.961744308E0
4.834852700E1,1.695146561E0,6.081457734E-1,6.057515144E-1
4.840052033E1,-5.458946824E-1,2.011190802E-1,1.319245458E0
4.845251435E1,2.801301479E0,4.292934895E0,3.328042030E-1
4.850450807E1,7.814912796E0,9.359220505E0,4.692778587E-1
4.855650130E1,1.704963112E1,2.460356712E1,2.717501879E0
4.860849462E1,2.642800522E1,3.825811768E1,2.585816860E0
4.866048835E1,1.212700176E1,1.247417164E1,2.549663162E1
4.871248161E1,2.584859085E1,-7.800786591E1,-1.029059315E1
4.876447467E1,-2.013585091E1,-1.282134151E1,-1.071677399E1
4.881646813E1,1.226826382E1,4.206740856E0,-3.052700281E0
4.886846195E1,1.910631299E0,1.352046967E1,-2.988054991E0
4.892045567E1,-1.975276709E0,9.694418907E0,-2.260195494E0
4.897244910E1,-1.829225898E0,1.135125732E1,-5.865973234E-1
4.902444245E1,-1.053480953E-1,1.059945488E1,2.027950764E0
4.907643821E1,-1.666415215E0,5.870761871E0,3.861965179E0
4.912843307E1,9.241901040E-1,6.287365437E0,4.355185986E0
4.918042640E1,3.854782581E-1,6.395108223E0,5.384724140E0
4.923241966E1,4.668835998E-1,7.288172722E0,5.525986195E0
4.928441311E1,5.099805593E-1,6.548341751E0,4.920234680E0
4.933640664E1,2.561874092E-1,3.996044636E0,6.213143349E0
4.938839970E1,-6.656084061E-1,3.998438835E0,5.487678051E0
4.944039309E1,-1.292908341E-1,3.193962574E0,4.944177628E0
4.949238701E1,-2.394274808E-3,3.241847992E0,4.925023079E0
4.954438064E1,-1.292908430E0,4.170826912E0,5.842030525E0
4.959637416E1,-5.315290093E-1,6.328068256E0,6.747066498E0
4.964836742E1,-2.049499273E0,6.644112587E0,8.200390816E0
4.970036071E1,-3.890696526E0,7.644919395E0,8.047157288E0
4.975235410E1,-6.189200401E0,6.833260536E0,8.626572609E0
4.980434736E1,-9.320911407E0,4.755029678E0,9.332882881E0
4.985634076E1,-9.167677879E0,3.869148016E0,8.985713005E0
4.990833484E1,-1.108309841E1,2.458920240E0,8.751074791E0
4.996032840E1,-7.434223175E0,1.956122518E0,7.721536160E0
5.001232176E1,-9.328094482E0,6.871568561E-1,7.853221416E0
5.006431505E1,-9.373585701E0,5.075862408E-1,6.464541912E0
5.011631170E1,-8.516435623E0,3.591412306E-2,5.224307537E0
5.016831006E1,-8.375173569E0,3.351984918E-2,3.816473961E0
5.022030599E1,-6.723123550E0,7.063110471E-1,3.957736254E0
5.027229952E1,-9.069513321E0,4.788549617E-3,4.125335693E0
5.032429271E1,-8.284191132E0,7.781392932E-1,5.813299179E0
5.037628607E1,-1.052044392E1,-7.182824612E-1,5.109382629E0
5.042827946E1,-7.920260906E0,-1.177983165E0,7.575485706E0
5.048027275E1,-9.205986977E0,-2.846792698E0,7.201978683E0
5.053226658E1,-7.685622215E0,-2.372726440E0,8.080677032E0
5.058426050E1,-7.683228016E0,-2.597788095E0,7.348029613E0
5.063625376E1,-6.565101624E0,-1.994430900E0,7.273807049E0
5.068824708E1,-5.858790398E0,-1.094183564E0,6.780586243E0
5.074024051E1,-5.265010357E0,-1.180377483E0,6.550735950E0
5.079223377E1,-6.344828129E0,-1.333611012E0,6.428627968E0
5.084422716E1,-6.366376877E0,-1.309668303E0,5.995264053E0
5.089622048E1,-6.047938347E0,-1.261782765E0,6.577073097E0
5.094821421E1,-6.790163517E0,-8.356019258E-1,5.880339146E0
5.100020833E1,-6.107795238E0,-7.374366522E-1,6.356799603E0
5.105220165E1,-6.691998005E0,-1.003201127E0,5.832453251E0
5.110419481E1,-5.988081455E0,-9.888355136E-1,5.930618763E0
5.115618811E1,-7.338452339E0,-1.144463301E0,5.317684174E0
5.120818473E1,-7.367183685E0,-1.228263021E0,4.800520897E0
5.126018315E1,-8.035185814E0,-1.834014535E0,5.784567833E0
5.131217811E1,-8.458972931E0,-3.091008663E0,5.123748302E0
5.136417150E1,-7.786181450E0,-3.495641232E0,4.714327335E0
5.141616479E1,-6.629746914E0,-4.058295727E0,3.569863796E0
5.146815822E1,-9.474145889E0,-6.687209606E0,1.556278616E-1
5.152015168E1,-7.994483471E0,-1.029298782E1,9.270631790E0
5.157214484E1,-1.103281784E1,6.347222328E0,3.857176781E0
5.162413813E1,-1.072156239E1,4.563488007E0,9.634561539E0
5.167613215E1,-1.316611671E1,7.235498428E0,9.423865318E0
5.172812584E1,-1.376229191E1,2.015979290E0,5.614574432E0
5.178011930E1,-1.368806934E1,-8.284190893E-1,2.722290516E0
5.183211259E1,-5.645699978E0,-1.743032098E0,5.104593754E0
5.188410582E1,-3.577046633E0,1.204320192E0,3.670423269E0
5.193609918E1,2.657644987E0,1.280937076E0,3.203539610E0
5.198809260E1,2.226675510E0,3.596200705E0,1.146857619E0
5.204008586E1,2.937775135E0,5.571477413E0,7.015225291E-1
5.209207995E1,4.201952457E0,8.739103317E0,3.337619066E0
5.214407357E1,3.450150013E0,8.255459785E0,6.158074856E0
5.219606690E1,5.226701736E0,9.292180061E0,5.660065651E0
5.224806029E1,8.181237221E0,1.102324104E1,4.039141655E0
5.230005538E1,1.245262337E1,1.897223282E1,3.636903524E0
5.235205094E1,2.338488197E1,3.848078537E1,-2.437371731E0
5.240404413E1,1.318766594E1,1.473915577E1,1.291950703E1
5.245603746E1,1.562024879E1,-2.147664452E1,-1.112380123E1
5.250803088E1,-4.061169052E1,-2.311432838E1,2.020767927E0
5.256002417E1,1.254360580E1,-3.150865555E0,-3.301704884E0
5.261201756E1,5.408666611E0,4.204346657E0,-1.007989645E0
5.266401086E1,1.249811411E0,8.734314919E0,-8.739103079E-1
5.271600488E1,7.630553722E0,1.147097015E1,-6.596227169E0
5.276799867E1,4.237866402E0,1.394665051E1,-6.031178474E0
5.281999193E1,8.296162605E0,1.270881081E1,-7.599428177E0
5.287198525E1,4.819674969E0,1.007271385E1,-4.778972626E0
5.292397891E1,6.363982677E0,8.322499275E0,-3.919427872E0
5.297597190E1,4.429408550E0,8.107014656E0,-3.172414064E0
5.302796533E1,2.770175934E0,8.648120880E0,-1.790917516E0
5.307995859E1,3.565075159E0,8.916279793E0,-2.130904645E-1
5.313195314E1,3.512401104E0,8.758256912E0,9.816526771E-1
5.318394623E1,4.166038036E0,8.320104599E0,2.640885115E0
5.323593956E1,3.624932051E0,8.181237221E0,2.628913641E0
5.328793298E1,3.478881359E0,7.810124397E0,3.153259993E0
5.333992850E1,2.672010660E0,8.358413696E0,3.948159218E0
5.339192716E1,3.162837029E0,8.375173569E0,3.270579338E0
5.344392365E1,2.293715239E0,7.218738556E0,3.344801903E0
5.349591724E1,1.460507631E0,7.197190285E0,3.193962574E0
5.354791064E1,2.123721838E0,7.568302631E0,3.553103924E0
5.359990410E1,2.324840784E0,7.953781128E0,3.732674360E0
5.365189725E1,1.922602654E0,8.569109917E0,4.757423878E0
5.370389061E1,9.624984860E-1,7.805335999E0,5.281770229E0
5.375588427E1,1.268965602E0,6.742278099E0,4.383917332E0
5.380787846E1,6.967339516E-1,4.807703972E0,4.221106529E0
5.385987178E1,-1.245022863E-1,4.812492371E0,3.122134447E0
5.390988651E1,5.506832153E-2,4.412648678E0,2.521171331E0
5.396187983E1,-8.715160489E-1,4.458139896E0,3.268185139E0
5.401387326E1,-2.023162127E0,3.526766777E0,2.176395893E0
5.406586652E1,-5.509226322E0,-4.549122155E-1,5.889915943E0
5.411785988E1,-6.282577038E0,-2.791724443E0,7.822095871E0
5.416985357E1,-5.844424725E0,-8.200390816E0,1.229220676E1
5.422184762E1,-3.486064196E0,-9.890748978E0,1.189715195E1
5.427384092E1,-1.101366401E0,-1.108788681E1,1.218206978E1
5.432583417E1,-4.764606953E-1,-9.931451797E0,8.224333763E0
5.437782757E1,-1.156434774E0,-1.099211597E1,6.064698219E0
5.442982262E1,-2.142875910E0,-1.218925285E1,4.683201313E0
5.448182151E1,-2.892283916E0,-1.206953907E1,3.323253393E0
5.453381760E1,-2.628913641E0,-1.090592194E1,2.238646984E0
5.458581086E1,-1.407833576E0,-1.036481571E1,2.324840784E0
5.463780422E1,-9.146129489E-1,-1.047495270E1,2.353572130E0
5.468979771E1,-4.908263385E-1,-1.006792545E1,2.102173328E0
5.474179094E1,-4.213923812E-1,-9.596253395E0,1.462901950E0
5.479378426E1,-7.781392932E-1,-9.866806030E0,1.312062621E0
5.484577756E1,-1.295302629E0,-9.713572502E0,1.537124395E0
5.489777174E1,-9.385557175E-1,-9.957788467E0,1.491633177E0
5.494976530E1,-5.363175869E-1,-9.929058075E0,1.470084786E0
5.500175856E1,-2.944957912E-1,-9.842864037E0,1.537124395E0
5.505375192E1,-2.011190802E-1,-9.251478195E0,1.810071707E0
5.510574524E1,-4.070267081E-1,-8.933039665E0,1.728666425E0
5.515773850E1,-2.825244367E-1,-8.873182297E0,1.893871427E0
5.520973200E1,-2.944957912E-1,-9.234718323E0,2.126116037E0
5.526172535E1,-5.027977228E-1,-9.526819229E0,2.018373728E0
5.531371957E1,-9.289786220E-1,-9.950606346E0,1.968093872E0
5.536571303E1,-1.132491946E0,-1.002961731E1,2.212309837E0
5.541770629E1,-1.163617611E0,-9.945817947E0,1.980065227E0
5.546969958E1,-1.345582485E0,-9.948211670E0,2.147664547E0
5.552169398E1,-1.371919513E0,-9.842864037E0,1.975276709E0
5.557369010E1,-1.321639657E0,-9.699207306E0,2.011190891E0
5.562568366E1,-1.307274103E0,-9.579493523E0,2.006402254E0
5.567767695E1,-1.338399649E0,-9.543579102E0,2.037527800E0
5.572967028E1,-1.206714511E0,-9.675264359E0,1.889082789E0
5.578166360E1,-9.960182905E-1,-9.809344292E0,2.035133600E0
5.583365693E1,-8.619389534E-1,-9.732727051E0,2.027950764E0
5.588565032E1,-7.350423932E-1,-9.605830193E0,2.073441982E0
5.593764431E1,-5.219519138E-1,-9.581888199E0,2.111750364E0
5.598963796E1,-4.932205975E-1,-9.488511086E0,2.051893473E0
5.604163129E1,-4.501236677E-1,-9.457385063E0,2.068653345E0
5.609362455E1,-4.884320498E-1,-9.328094482E0,1.972882390E0
5.614561801E1,-5.219519138E-1,-9.354432106E0,2.020767927E0
5.619761137E1,-5.818088055E-1,-9.256266594E0,2.025556564E0
5.624960463E1,-7.637736797E-1,-9.330489159E0,1.975276709E0
5.630159805E1,-8.810931444E-1,-9.493299484E0,1.982459545E0
5.635359220E1,-9.098244309E-1,-9.629773140E0,2.152452946E0
5.640558563E1,-9.624984860E-1,-9.744698524E0,2.130904675E0
5.645757906E1,-1.087000728E0,-9.921875000E0,2.133298874E0
5.650957228E1,-1.146857619E0,-9.854835510E0,2.162030220E0
5.656156670E1,-1.063058019E0,-9.737515450E0,2.312869549E0
5.661356546E1,-9.146129489E-1,-9.545973778E0,2.343995094E0
5.666556201E1,-8.595446348E-1,-9.498087883E0,2.341600657E0
5.671755564E1,-7.948992252E-1,-9.536396980E0,2.298503876E0
5.676954903E1,-6.009629965E-1,-9.596253395E0,2.621730804E0
5.682154236E1,-7.039167881E-1,-9.718361855E0,3.263396502E0
5.687353568E1,-1.321639657E0,-9.771035194E0,3.129317284E0
5.692552904E1,-1.865140080E0,-9.354432106E0,2.932986736E0
5.697752234E1,-3.086220264E0,-9.275420189E0,3.335224867E0
5.702951609E1,-2.264983892E0,-9.201197624E0,3.670423269E0
5.708151008E1,-2.353572130E0,-9.366402626E0,4.223500729E0
5.713350334E1,-2.774964571E0,-9.000079155E0,4.395888329E0
5.718549660E1,-3.272973776E0,-9.047964096E0,4.980091572E0
5.723749002E1,-3.919427872E0,-8.628966331E0,4.944177628E0
5.728948345E1,-4.506025314E0,-7.664073467E0,5.154873848E0
5.734147668E1,-4.223500729E0,-6.531581879E0,5.717528343E0
5.739347010E1,-4.738269806E0,-5.602602959E0,6.569890022E0
5.744546372E1,-5.418243885E0,-4.484476566E0,6.177228928E0
5.749745771E1,-5.700768471E0,-4.168432236E0,6.574678421E0
5.754945117E1,-5.401484013E0,-4.077449799E0,6.031178474E0
5.760144436E1,-5.588237286E0,-4.381523132E0,6.203566074E0
5.765343832E1,-5.777385235E0,-5.068679810E0,6.150891781E0
5.770543464E1,-6.572284222E0,-4.738269806E0,5.906675816E0
5.775742847E1,-6.445387840E0,-4.424619675E0,5.336838722E0
5.780942173E1,-7.055927753E0,-3.742251635E0,5.126142502E0
5.786141512E1,-7.496474266E0,-3.917033672E0,4.367157459E0
5.791340838E1,-6.220325947E0,-4.055901527E0,2.839609861E0
5.796540177E1,-7.448588848E0,-5.700768471E0,2.027950764E0
5.801739503E1,-9.191620827E0,-6.100612164E0,3.902668059E-1
5.806938879E1,-5.777385235E0,-8.423058510E0,8.305739403E0
5.812138274E1,-8.928250313E0,1.664021015E0,4.984879971E0
5.817337600E1,-1.591235065E1,6.723123550E0,1.094183540E1
5.822536943E1,-1.590516758E1,3.735068798E0,6.912271500E0
5.827736278E1,-9.289786339E0,-7.470137477E-1,8.894730568E0
5.832935611E1,-9.100638390E0,-2.662433624E0,6.409473896E0
5.838134944E1,-1.240234375E0,5.506832153E-2,3.210722446E0
5.843334270E1,2.846792698E0,3.301704884E0,2.154847234E-2
5.848533681E1,3.275367975E0,6.294548512E0,-8.619389534E-1
5.853733047E1,1.249811411E0,7.577879906E0,-6.751855016E-1
5.858932373E1,2.190761566E0,8.696005821E0,3.457332850E0
5.864131709E1,3.079037428E0,1.000806904E1,5.765413761E0
5.869331085E1,2.861158371E0,9.012050629E0,6.174834728E0
5.874530930E1,1.122914910E0,8.152505875E0,6.780586243E0
5.879730673E1,5.147690773E0,6.023995399E0,6.433416367E0
5.884930148E1,1.965699673E0,5.655277252E0,6.320885658E0
5.890129478E1,3.153259993E0,6.318490982E0,4.168432236E0
5.895328807E1,5.535563469E0,8.075888634E0,3.835628271E0
5.900528143E1,7.556331158E0,1.126266861E1,3.979284763E0
5.905727486E1,1.632895470E1,2.466102982E1,1.529941559E0
5.910926805E1,1.912067795E1,3.290451813E1,-1.580221415E0
5.916126243E1,9.553156853E0,8.298556328E0,2.347347069E1
5.921325582E1,2.910240936E1,-7.786900330E1,2.332981300E1
5.926524915E1,-1.170082092E1,-8.638543129E0,-6.972128391E0
5.931724248E1,1.522998238E1,5.083045483E0,-4.750241280E0
5.936923583E1,5.564294815E0,2.291560364E1,-7.352818012E0
5.942122913E1,-1.316851079E-1,1.327625370E1,-1.309668303E0
5.947322275E1,-5.537957668E0,5.794145107E0,6.847625971E-1
5.952521621E1,-1.903448462E0,6.727912426E0,4.470110893E0
5.957721016E1,-4.573064744E-1,6.711152077E0,3.026363373E0
5.962920349E1,-2.418217510E-1,5.439792156E0,4.704750061E0
5.968119678E1,3.261002302E0,8.351230621E0,2.842004299E0
5.973319017E1,2.542719841E0,8.973741531E0,3.172414064E0
5.978518390E1,2.334417820E0,1.000088596E1,2.803695917E0
5.983718212E1,2.236252785E0,9.505270958E0,2.959323645E0
5.988917954E1,2.030344963E0,9.747093201E0,1.618529797E0
5.994117357E1,1.690358043E0,1.003919411E1,1.412622094E0
5.999316693E1,2.078230619E0,9.993702888E0,9.624984860E-1
6.004516018E1,2.310475111E0,9.953000069E0,9.361614585E-1
6.009715351E1,1.855562925E0,9.541185379E0,3.567469418E-1
6.014914684E1,2.066259146E0,1.012059975E1,5.123748183E-1
6.020114013E1,2.262589693E0,9.608224869E0,-5.027977005E-2
6.025313389E1,3.258608103E0,9.246688843E0,9.194015265E-1
6.030512804E1,3.275367975E0,8.193208694E0,8.188419938E-1
6.035712116E1,2.988054991E0,6.646506786E0,7.972934842E-1
6.040911459E1,2.020767927E0,4.386311531E0,-8.619388938E-2
6.046110808E1,1.235445857E0,3.648874760E0,-2.059076279E-1
6.051310111E1,1.000806928E0,4.113364220E0,-1.652049571E-1
6.056509460E1,-4.381522834E-1,5.640911579E0,3.447755575E-1
6.061708789E1,-1.898659945E0,4.134912491E0,8.571503758E-1
6.066908162E1,-3.512401104E0,3.351984620E-1,5.727105141E0
6.072107554E1,-7.704776287E0,-1.628106833E0,6.816500187E0
6.077306893E1,-7.362394810E0,-5.413455486E0,1.095141315E1
6.082506219E1,-6.052726746E0,-1.064973450E1,1.267768478E1
6.087705584E1,-5.461340904E0,-1.203362560E1,1.240473747E1
6.092905207E1,-4.125335693E0,-1.179898643E1,9.498087883E0
6.098104626E1,-1.503604531E0,-1.132970810E1,7.788576126E0
6.103303962E1,-1.192348838E0,-1.091310501E1,5.875550270E0
6.108503301E1,-1.850774407E0,-1.084367085E1,4.398283005E0
6.113702624E1,-2.370332003E0,-1.076465988E1,3.323253393E0
6.118901960E1,-2.724684715E0,-1.024270725E1,2.063864946E0
6.123902024E1,-1.903448462E0,-1.003201103E1,2.023162127E0
6.129101396E1,-7.541965842E-1,-1.018285084E1,2.516382933E0
6.134300778E1,-7.206767201E-1,-1.011581135E1,2.238646984E0
6.139500121E1,-1.218685865E0,-1.004877090E1,2.011190891E0
6.144699447E1,-1.079817891E0,-9.368797302E0,1.620923996E0
6.149898786E1,-1.007989645E0,-9.541185379E0,1.757397652E0
6.155098129E1,-6.440598965E-1,-9.610619545E0,1.848380208E0
6.160297468E1,-4.644893110E-1,-9.383162498E0,1.819648862E0
6.165496787E1,-2.921015322E-1,-9.136552811E0,2.485257149E0
6.170696183E1,-7.637736797E-1,-8.930644989E0,3.284945011E0
6.175895555E1,-2.494834423E0,-9.105426788E0,3.146077156E0
6.181094891E1,-3.275367975E0,-9.450202942E0,2.533142805E0
6.186294217E1,-3.378321648E0,-9.469356537E0,3.569863796E0
6.191493566E1,-2.765387297E0,-9.282603264E0,4.597007751E0
6.196693305E1,-3.536343813E0,-8.796566010E0,3.955342054E0
6.201893110E1,-4.953754425E0,-9.040781975E0,5.118959427E0
6.207092560E1,-4.438985348E0,-8.454184532E0,5.590631485E0
6.212291886E1,-5.403878212E0,-8.243488312E0,5.827664852E0
6.217491228E1,-5.758230686E0,-8.004060745E0,6.107795238E0
6.222690567E1,-5.827664852E0,-7.383943558E0,5.837242126E0
6.227889887E1,-5.801327705E0,-6.682421207E0,5.468523502E0
6.233089226E1,-5.849213123E0,-5.442186832E0,5.305713177E0
6.238288555E1,-5.406272411E0,-4.048718929E0,4.800520897E0
6.243487957E1,-4.810098171E0,-3.150865555E0,4.848406315E0
6.248687330E1,-4.680807114E0,-3.380716085E0,5.001639843E0
6.253886655E1,-4.896292210E0,-3.462121487E0,5.083045483E0
6.259085991E1,-5.260221958E0,-3.811685562E0,5.854001999E0
6.264285327E1,-5.612180233E0,-3.577046633E0,5.782173634E0
6.269484663E1,-5.885127544E0,-3.122134447E0,6.366376877E0
6.274683992E1,-6.275394440E0,-2.351177931E0,5.588237286E0
6.279883348E1,-6.392713547E0,-1.776551962E0,6.203566074E0
6.285082763E1,-7.182824612E0,-1.913025618E0,6.177228928E0
6.290282099E1,-6.986494064E0,-1.896265626E0,6.241874218E0
6.295481422E1,-7.585062504E0,-2.911438227E0,6.622564316E0
6.300680771E1,-6.373559475E0,-2.837215662E0,6.471724987E0
6.305880333E1,-6.421444893E0,-3.146077156E0,6.004841328E0
6.311079826E1,-6.277788639E0,-3.366350412E0,5.224307537E0
6.316279165E1,-7.386337757E0,-7.039167881E0,4.300117493E0
6.321478518E1,-1.162899303E1,-7.237892628E0,-4.788549617E-3
6.326677827E1,9.955394745E0,-6.392713547E0,1.007032013E1
6.331877170E1,-2.207760811E1,6.929031372E0,6.742278099E0
6.337076495E1,-1.379341698E1,6.325674057E0,8.861210823E0
6.342275831E1,-1.280458164E1,1.874717116E0,7.776604652E0
6.347475253E1,-1.302006626E1,-3.854782581E-1,4.223500729E0
6.352674599E1,-1.278542757E0,-5.075862408E-1,3.100585938E0
6.357873935E1,2.195549965E0,-1.460507661E-1,3.720703125E0
6.363073258E1,1.398256540E0,2.964112282E0,4.549122155E-1
6.368272603E1,3.639297724E0,6.237085819E0,-6.488484740E-1
6.373471943E1,3.713520288E0,9.474145889E0,1.587404251E0
6.378671272E1,6.826077461E0,1.314696312E1,3.603383541E0
6.383870614E1,1.005116558E1,1.827549934E1,3.902667999E0
6.389070026E1,1.476549244E1,3.475289917E1,2.624125242E0
6.394269369E1,1.299612331E1,2.022204590E1,1.134886265E1
6.399468705E1,-1.475831032E1,-3.371139050E0,-1.254121113E1
6.404668040E1,-2.204408836E1,-1.382933140E1,5.619362831E0
6.409867672E1,1.531857014E1,3.280156374E0,-5.502043724E0
6.415067538E1,-7.422251701E-1,1.937686539E1,-5.557111740E0
6.420267037E1,-3.363956213E0,8.616994858E0,-1.151646137E0
6.425466376E1,0.000000000E0,8.229122162E0,1.862745762E0
6.430665699E1,-3.244242430E0,5.336838722E0,3.845205307E0
6.435865032E1,8.427847624E-1,5.789356709E0,5.856396198E0
6.441064368E1,3.634509087E0,6.165257454E0,7.721536160E0
6.446263697E1,2.868341208E0,8.214756966E0,5.923435688E0
6.451463033E1,1.127703428E0,8.597841263E0,6.457359314E0
6.456662425E1,-1.853168726E0,8.056735039E0,4.357580185E0
6.461861800E1,-3.141288519E0,7.668862343E0,5.394300938E0
6.467061136E1,-3.313676357E0,8.415876389E0,4.757423878E0
6.472260469E1,-2.470891714E0,8.214756966E0,5.595420361E0
6.477459808E1,-3.007209063E0,7.881952763E0,4.783761024E0
6.482659137E1,-2.401457548E0,8.662486076E0,5.128536701E0
6.487858470E1,-2.583422422E0,7.113390446E0,4.125335693E0
6.493057809E1,-1.958516836E0,4.757423878E0,4.197163582E0
6.498257208E1,-1.161223292E0,2.590605259E0,2.930592299E0
6.503456573E1,-1.005595446E0,3.016786277E-1,2.573845387E0
6.508655906E1,-1.529941559E0,1.855562925E0,1.951334000E0
6.513855232E1,-2.130904645E-1,2.645673752E0,3.131711483E0
6.519054757E1,4.956148863E-1,3.782954216E0,3.474092722E0
6.524254310E1,2.346389294E-1,6.761432171E0,5.956955910E0
6.529453646E1,-2.387091875E0,6.110189438E0,8.334470749E0
6.534652975E1,-7.951386452E0,-9.074301720E-1,9.881172180E0
6.539852308E1,-1.107112694E1,-6.632141113E0,1.267289639E1
6.545051634E1,-7.992089272E0,-6.943397045E0,1.232572651E1
6.550250983E1,-5.061496735E0,-8.763046265E0,1.027143860E1
6.555450305E1,-5.171633363E-1,-9.160495758E0,1.032411289E1
6.560649707E1,-5.985686928E-2,-8.952193260E0,8.190814018E0
6.565849076E1,-2.212309837E0,-9.830892563E0,6.785374641E0
6.571048406E1,-2.243435383E0,-9.531607628E0,4.182797909E0
6.576247742E1,-2.770175934E0,-1.057311726E1,3.770982742E0
6.581447071E1,-2.217098475E0,-1.065452290E1,3.196356773E0
6.586646410E1,-1.474873304E0,-1.046298122E1,2.705530643E0
6.591845743E1,-1.041509509E0,-1.045819283E1,2.724684715E0
6.597045072E1,-1.400650740E0,-1.050128937E1,2.746233225E0
6.602244477E1,-9.720755816E-1,-1.011341667E1,2.703136206E0
6.607443843E1,-8.571503758E-1,-9.715967178E0,2.308080912E0
6.612643169E1,-6.560313106E-1,-9.744698524E0,2.154847383E0
6.617842525E1,-4.956148863E-1,-9.680052757E0,2.231464148E0
6.623042060E1,-3.782954216E-1,-9.601041794E0,2.178790092E0
6.628241913E1,-4.118152559E-1,-9.450202942E0,1.944151163E0
6.633441585E1,-4.525179267E-1,-9.380768776E0,1.932179809E0
6.638640941E1,-3.974496126E-1,-9.352037430E0,1.920208454E0
6.643840277E1,-2.346389294E-1,-9.268238068E0,2.056682110E0
6.649039616E1,-2.801301479E-1,-9.119792938E0,1.814860344E0
6.654238952E1,-3.759011328E-1,-9.280209541E0,2.094990492E0
6.659438282E1,-3.806896806E-1,-9.471751213E0,2.051893473E0
6.664637617E1,-6.416656375E-1,-9.579493523E0,1.960911036E0
6.669837039E1,-7.996878028E-1,-9.732727051E0,1.999219418E0
6.675036385E1,-8.499675393E-1,-9.806949615E0,2.025556564E0
6.680235711E1,-7.972934842E-1,-9.524425507E0,2.011190891E0
6.685435057E1,-7.206767201E-1,-9.730332375E0,2.035133600E0
6.690634379E1,-8.858816624E-1,-9.941028595E0,1.948939681E0
6.695833739E1,-8.260248303E-1,-9.821314812E0,1.877111435E0
6.701033068E1,-7.948992252E-1,-9.624984741E0,1.841197371E0
6.706232420E1,-5.985686779E-1,-9.577098846E0,1.879505754E0
6.711431836E1,-4.788549542E-1,-9.670475960E0,1.881899953E0
6.716631185E1,-4.237866402E-1,-9.687235832E0,1.860351562E0
6.721830477E1,-4.381522834E-1,-9.675264359E0,1.719089270E0
6.727029823E1,-4.764606953E-1,-9.639349937E0,1.759791970E0
6.732229345E1,-4.812492430E-1,-9.610619545E0,1.857957244E0
6.737429241E1,-4.692778587E-1,-9.553156853E0,1.834014535E0
6.742628820E1,-4.261809289E-1,-9.454991341E0,2.030344963E0
6.747828146E1,-4.381522834E-1,-9.416683197E0,1.992036581E0
6.753027492E1,-6.464542150E-1,-9.773429871E0,2.212309837E0
6.758226821E1,7.829278708E-1,-9.715967178E0,3.871542454E0
6.763426147E1,-1.091789365E0,-1.079817963E1,4.767001152E0
6.768625486E1,-3.828445435E0,-1.029777622E1,5.547534943E0
6.773824822E1,-3.019180536E0,-1.007032013E1,6.095823765E0
6.779024211E1,-3.076643229E0,-9.083878517E0,6.359193802E0
6.784223590E1,-3.019180536E0,-8.403904915E0,5.202759266E0
6.789422916E1,-3.696760416E0,-7.326480865E0,5.451763630E0
6.794622245E1,-3.794925690E0,-6.292154312E0,5.200365067E0
6.799821584E1,-4.460534096E0,-5.104593754E0,4.862771988E0
6.805020920E1,-4.850800991E0,-4.113364220E0,5.415849686E0
6.810220253E1,-6.012023926E0,-3.680000305E0,4.063084126E0
6.815419598E1,-6.380742550E0,-4.003227711E0,5.166844845E0
6.820618981E1,-7.472531796E0,-3.189173937E0,4.367157459E0
6.825818363E1,-7.429434776E0,-3.280156374E0,4.367157459E0
6.831017695E1,-8.221940041E0,-3.840416908E0,3.450150013E0
6.836217038E1,-9.033598900E0,-4.515602112E0,1.036720991E0
6.841416464E1,-9.031204224E0,-4.185192585E0,-1.556278616E-1
6.846616079E1,-9.009655952E0,-6.567495823E0,-1.479661822E0
6.851815435E1,-7.477320194E0,-6.605803967E0,5.106987953E0
6.857013937E1,-1.009186840E1,4.446168423E0,2.597788095E0
6.862213263E1,-6.651295185E0,-3.567469418E-1,3.055094719E0
6.867412606E1,-9.038387299E0,3.258608103E0,-9.577099234E-3
6.872611938E1,-9.967366219E0,3.768588543E0,3.395081758E0
6.877811267E1,-4.891503334E0,3.126922846E0,8.940221786E0
6.883010653E1,-2.504411507E1,-3.007209063E0,1.211981869E1
6.888210032E1,-1.456197929E1,-6.790163517E0,1.582376194E1
6.893409368E1,-1.298415184E1,-2.940169573E0,1.070240879E1
6.898608694E1,-7.970541000E0,-1.992036581E0,5.628940105E0
6.903808043E1,-3.249030828E0,4.333637357E-1,1.213897347E0
6.909007369E1,8.379961848E-1,1.527547359E0,-2.341600657E0
6.914206701E1,4.769395351E0,-4.166038036E-1,1.774157643E0
6.919406041E1,2.897072554E0,8.332076073E-1,2.174001455E0
6.924605433E1,-3.878725171E-1,2.794118643E0,-4.597007632E-1
6.929804802E1,-2.394274808E-3,4.776578426E0,1.501210332E0
6.935004144E1,6.138920784E0,8.947404861E0,5.099805355E0
6.940203473E1,1.079099655E1,1.268726254E1,9.639349937E0
6.945402919E1,1.085564232E1,1.445902538E1,8.202785492E0
6.950602801E1,1.624036598E1,2.319812775E1,5.990475655E0
6.955802463E1,2.304968452E1,3.720224380E1,6.823683381E-1
6.961001809E1,1.440635109E1,1.487802410E1,1.335765934E1
6.966201149E1,2.625801277E1,-2.064104271E1,-1.782058716E1
6.971400471E1,-3.374969864E1,-1.798579216E1,-6.081458092E0
6.976599810E1,1.128182316E1,-3.237059593E0,-2.310475111E0
6.981799136E1,3.591412306E0,1.323794556E1,-5.391906738E0
6.986998476E1,-2.008796453E0,5.377541065E0,1.556278616E-1
6.992197802E1,-3.878725171E-1,5.631334305E0,1.192348838E0
6.997397220E1,1.776551962E0,8.260248184E0,4.352791786E0
7.002596572E1,2.456526041E0,1.026425648E1,7.996878028E-1
7.007795905E1,3.481275558E0,1.026665020E1,9.984126091E-1
7.012995244E1,4.501236439E0,1.059706020E1,-1.237840056E0
7.018194580E1,4.288146019E0,1.068564892E1,-1.920208454E0
7.023393903E1,4.031958580E0,1.075268841E1,-1.850774407E0
7.028593249E1,4.477293968E0,1.089395046E1,-1.410227895E0
7.033792614E1,4.297723293E0,9.672870636E0,-2.729473412E-1
7.038992010E1,3.993650436E0,8.892336845E0,-1.053480953E-1
7.044191346E1,3.708731651E0,8.535589218E0,7.685621977E-1
7.049390675E1,4.118152618E0,8.923461914E0,1.422199249E0
7.054590078E1,3.457332850E0,8.719948769E0,1.185166001E0
7.059789710E1,3.737462997E0,8.145322800E0,1.759791970E0
7.064989076E1,3.342407703E0,7.374366283E0,1.486844659E0
7.070188408E1,3.256213665E0,6.488484859E0,1.312062621E0
7.075387751E1,3.038334846E0,6.306519985E0,1.575432777E0
7.080587077E1,2.628913641E0,6.275394440E0,2.221887112E0
7.085786416E1,2.401457548E0,6.059909344E0,2.181184292E0
7.090985748E1,2.291321039E0,6.124555111E0,1.915419817E0
7.096185091E1,1.288119793E0,6.258634567E0,2.631308079E0
7.101384509E1,6.081457734E-1,6.380742550E0,4.869955063E0
7.106583849E1,-1.817254543E0,7.482108593E0,5.171633720E0
7.111783181E1,-2.502017260E0,7.185218811E0,6.107795238E0
7.116982504E1,-4.934600353E0,5.992869854E0,7.925049782E0
7.122181850E1,-7.738296032E0,4.386311531E0,7.944203854E0
7.127381192E1,-6.876357079E0,2.880312681E0,8.667274475E0
7.132580508E1,-5.379935265E0,1.592192769E0,7.752661705E0
7.137779884E1,-3.205934048E0,-2.394274771E-1,9.519637108E0
7.142979283E1,-2.025556564E0,-1.324033976E0,1.184926605E1
7.148178618E1,-3.002420664E0,-3.936187744E0,1.401368999E1
7.153377958E1,-4.798126698E0,-4.676018715E0,1.284288979E1
7.158577333E1,-4.884320736E0,-4.788549423E0,1.248614311E1
7.163777185E1,-3.833234072E0,-4.249837875E0,1.064255142E1
7.168976925E1,-3.205934048E0,-3.890696526E0,9.725543976E0
7.174176388E1,-3.979284763E0,-3.861965179E0,8.899519920E0
7.179375723E1,-3.469304085E0,-2.628913641E0,8.095043182E0
7.184575073E1,-3.469304085E0,-2.499622822E0,7.680833817E0
7.189774375E1,-4.628133297E0,-1.989642382E0,6.545947552E0
7.194973725E1,-4.482082367E0,-9.505270720E-1,6.555524349E0
7.200173044E1,-6.196382999E0,-1.484450340E0,5.992869854E0
7.205372443E1,-5.032765865E0,-1.319245458E0,5.973715782E0
7.210571818E1,-7.089447498E0,-6.943396926E-1,4.939388752E0
7.215771154E1,-6.993676662E0,-1.695146561E0,5.808510780E0
7.220970490E1,-8.140534401E0,-2.894678354E0,5.741470814E0
7.226169816E1,-8.655303001E0,-4.551516533E0,5.025582790E0
7.231369148E1,-8.454184532E0,-4.450956821E0,3.826051235E0
7.236568501E1,-1.131773663E1,-6.608198643E0,2.068653345E0
7.241767834E1,-1.208629894E1,-4.491659641E0,2.226675600E-1
7.246967252E1,-1.183250618E1,-1.124830341E1,8.013637543E0
7.252166604E1,-1.021637058E1,3.847599506E0,8.095043182E0
7.257365924E1,-1.303682613E1,4.556304932E0,8.777411461E0
7.262565256E1,-1.139674854E1,2.370332003E0,8.509252548E0
7.267764629E1,-1.069522572E1,1.048692346E0,3.074248791E0
7.272964467E1,1.508393168E0,-3.328042030E-1,6.435810566E0
7.278164203E1,-2.049499273E0,1.577827096E0,1.407833576E0
7.283363592E1,1.850774407E0,1.558672905E0,1.036720991E0
7.288562928E1,2.389486313E0,3.249030828E0,-2.801301479E-1
7.293762251E1,2.628913641E0,5.753442287E0,1.462901950E0
7.298961590E1,7.398309231E0,9.656110764E0,3.998438835E0
7.304160926E1,8.138139725E0,1.389397717E1,6.591438770E0
7.309360245E1,1.629782867E1,2.589887047E1,4.276175022E0
7.314559598E1,2.524762726E1,3.486303711E1,1.331216812E0
7.319759026E1,1.319963741E1,1.293387222E1,2.198662567E1
7.324958359E1,1.006553173E1,-1.410946178E1,-1.569207668E1
7.330157705E1,-2.960760307E1,-2.094750977E1,-2.308080912E0
7.335357024E1,9.225140572E0,-4.908263385E-1,-1.319245458E0
7.340556357E1,1.510787368E0,1.708794022E1,-5.947378635E0
7.345755699E1,-4.288146019E0,9.100638390E0,-4.427014351E0
7.350955025E1,-2.885101080E0,7.664073467E0,1.810071707E0
7.356154381E1,1.424593568E0,1.045340347E1,2.391880512E0
7.361353800E1,-1.762186289E0,5.016005516E0,5.789356709E0
7.366553132E1,-5.267404765E-2,5.854001999E0,6.359193802E0
7.371752485E1,4.022381604E-1,7.300143719E0,6.337645531E0
7.376951827E1,-1.007989645E0,9.629773140E0,5.588237286E0
7.382151429E1,-6.009629965E-1,8.765439987E0,6.270605564E0
7.387350862E1,-1.017566800E0,6.699181080E0,5.877944469E0
7.392550194E1,-1.781340480E0,5.514014721E0,5.468523502E0
7.397749534E1,-8.403904438E-1,5.765413761E0,5.320078850E0
7.402948886E1,2.992843390E-1,4.343214512E0,5.569083214E0
7.408148199E1,9.337671846E-2,3.490852594E0,5.815693378E0
7.413347538E1,-4.070267081E-2,4.434196949E0,4.948966026E0
7.418546874E1,-2.537931204E-1,4.115758419E0,4.685595989E0
7.423746296E1,-9.002473354E-1,4.348002911E0,4.343214512E0
7.428945632E1,-4.618556023E0,5.087833881E0,3.332830429E0
7.434144964E1,-4.336031914E0,6.522004604E0,1.834014535E0
7.439344310E1,-5.624151707E0,7.609005451E0,3.261002302E0
7.444543656E1,-7.259441376E0,5.856396198E0,5.217124939E0
7.449742992E1,-9.160495758E0,2.272166729E0,1.152843285E1
7.454942318E1,-9.457385063E0,1.592192769E0,1.259149075E1
7.460141673E1,-9.299363136E0,7.757450342E-1,1.298894119E1
7.465341065E1,-4.778972626E0,-9.337671995E-1,1.142308521E1
7.470540404E1,-1.568249941E0,-3.641691923E0,9.998491287E0
7.475739727E1,-8.260248303E-1,-5.214730740E0,9.146129608E0
7.480939083E1,-2.801301479E-1,-6.998465061E0,8.317710876E0
7.486138855E1,-1.620923996E0,-7.099024773E0,7.592245579E0
7.491338641E1,-4.053507328E0,-8.803748131E0,5.868367672E0
7.496538167E1,-3.320859194E0,-9.639349937E0,6.680026531E0
7.501737493E1,-3.069460392E0,-9.802161217E0,5.411061287E0
7.506936832E1,-1.496421814E0,-9.361614227E0,5.011217117E0
7.512136174E1,-2.008796453E0,-9.742303848E0,4.496448040E0
7.517335500E1,-1.450930476E0,-9.852440834E0,3.687183142E0
7.522534843E1,-8.475732803E-1,-1.040791225E1,4.036747456E0
7.527734238E1,-7.254652381E-1,-1.038157558E1,3.129317284E0
7.532933597E1,-9.433442950E-1,-1.029298782E1,3.086220264E0
7.538132943E1,-1.098972082E0,-9.897932053E0,2.894678354E0
7.543332273E1,-8.092648983E-1,-9.591464996E0,2.542719841E0
7.548531602E1,-8.906702399E-1,-9.543579102E0,2.178790092E0
7.553730938E1,-8.906702399E-1,-9.560338974E0,2.142875910E0
7.558930287E1,-7.853221297E-1,-9.488511086E0,1.982459545E0
7.564129623E1,-1.060663700E0,-9.488511086E0,1.893871427E0
7.569329038E1,-1.094183564E0,-9.567522049E0,1.893871427E0
7.574528370E1,-7.733507752E-1,-9.390345573E0,1.853168726E0
7.579729326E1,-5.961744189E-1,-9.481328011E0,2.059076309E0
7.584928658E1,-5.099805593E-1,-9.514847755E0,2.214704275E0
7.590128008E1,-3.998439014E-1,-9.476539612E0,2.174001455E0
7.595327756E1,-2.178790122E-1,-9.292180061E0,2.229069948E0
7.600527555E1,-6.943397224E-2,-9.340065956E0,2.214704275E0
7.605726991E1,-8.858817071E-2,-9.342460632E0,2.293715239E0
7.610926320E1,-5.075862408E-1,-9.392740250E0,2.004008055E0
7.616125686E1,-4.285751879E-1,-9.428654671E0,2.087807655E0
7.621325002E1,-5.506832004E-1,-9.653716087E0,2.109356165E0
7.626524322E1,-5.315290093E-1,-9.665687561E0,2.145270348E0
7.631723661E1,-7.948992252E-1,-9.617801666E0,2.128510237E0
7.636923004E1,-7.230709791E-1,-9.512454033E0,2.224281311E0
7.642122432E1,-4.046324492E-1,-9.665687561E0,2.375120640E0
7.647321764E1,-4.573064744E-1,-9.852440834E0,2.336812258E0
7.652521094E1,-7.637736797E-1,-9.773429871E0,2.176395893E0
7.657720433E1,-9.265843630E-1,-9.723150253E0,2.140481710E0
7.662919769E1,-7.661679387E-1,-9.545973778E0,2.200338602E0
7.668119095E1,-5.961744189E-1,-9.596253395E0,2.174001455E0
7.673318434E1,-5.913859010E-1,-9.763853073E0,2.102173328E0
7.678517823E1,-5.482889414E-1,-9.727938652E0,2.114144564E0
7.683717205E1,-4.932205975E-1,-9.543579102E0,2.023162127E0
7.688916531E1,-4.932205975E-1,-9.500482559E0,2.011190891E0
7.694115877E1,-4.573064744E-1,-9.447808266E0,1.977671027E0
7.699315213E1,-3.950553536E-1,-9.423865318E0,2.116539001E0
7.704514788E1,-4.381522834E-1,-9.474145889E0,2.059076309E0
7.709714268E1,-4.549122155E-1,-9.560338974E0,2.181184292E0
7.714913603E1,-4.884320498E-1,-9.536396980E0,2.109356165E0
7.720112926E1,-5.291347504E-1,-9.565128326E0,2.094990492E0
7.725312262E1,-5.267404318E-1,-9.555550575E0,2.135693073E0
7.730511608E1,-4.788549542E-1,-9.579493523E0,2.195549965E0
7.735710930E1,-5.291347504E-1,-9.629773140E0,2.150058746E0
7.740910296E1,-2.513988614E-1,-9.936240196E0,2.375120640E0
7.746109715E1,-8.212362528E-1,-1.004637718E1,4.869955063E0
7.751309041E1,-4.103786945E0,-1.201686573E1,5.631334305E0
7.756508377E1,-5.506832153E-2,-1.227544689E1,6.857203007E0
7.761707699E1,2.140481710E0,-1.261064529E1,9.387951851E0
7.766907035E1,-2.130904645E-1,-1.152125072E1,8.533195496E0
7.772106371E1,-1.134886265E0,-8.336864471E0,5.418243885E0
7.777305707E1,1.434170604E0,-5.336838722E0,6.818894863E0
7.782505076E1,1.166011810E0,-3.368744612E0,4.987274647E0
7.787704471E1,2.956929445E0,-1.300091267E0,4.630527496E0
7.792903801E1,2.717501879E0,-8.739103079E-1,6.038361073E0
7.798103140E1,3.155654192E0,-3.519583941E-1,5.839636326E0
7.803302466E1,3.095797300E0,-3.375927508E-1,7.302538395E0
7.808502135E1,3.584229469E0,-6.464541703E-2,8.135746002E0
7.813701987E1,3.380716085E0,4.285751879E-1,7.709564686E0
7.818901463E1,3.526766777E0,5.219519138E-1,8.315316200E0
7.824100812E1,3.905062199E0,7.996878028E-1,8.336864471E0
7.829300141E1,3.419024467E0,2.681587934E-1,8.305739403E0
7.834499484E1,3.909850836E0,2.513988614E-1,8.846845627E0
7.839698830E1,3.912245035E0,-1.484450400E-1,8.904308319E0
7.844898132E1,3.933793545E0,-2.705530524E-1,9.091061592E0
7.850097475E1,4.082238674E0,-2.609759569E-1,9.225140572E0
7.855296867E1,3.943370581E0,-1.029538140E-1,8.940221786E0
7.860496243E1,4.213923454E0,1.436564922E-1,9.613013268E0
7.865695575E1,4.316877365E0,3.519583941E-1,9.447808266E0
7.870894911E1,4.391099930E0,1.223474383E0,1.009665680E1
7.876094240E1,5.138113976E0,1.264177084E0,1.175349522E1
7.881293573E1,4.623344421E0,1.484450400E-1,1.058030033E1
7.886492909E1,4.465322495E0,8.619388938E-2,9.270631790E0
7.891692258E1,5.571477413E0,1.022355318E0,8.083071709E0
7.896891660E1,4.630527496E0,1.467690468E0,6.648900986E0
7.902091012E1,4.757423878E0,2.027950764E0,6.471724987E0
7.907290345E1,5.248250484E0,2.138087511E0,6.569890022E0
7.912489668E1,5.236279011E0,2.171607256E0,6.732700825E0
7.917689206E1,5.351204395E0,2.288926601E0,6.519610405E0
7.922888746E1,5.236279011E0,2.284138203E0,6.522004604E0
7.928088075E1,5.358386993E0,2.334417820E0,6.907482624E0
7.933287411E1,5.868367672E0,2.511594296E0,7.029590607E0
7.938486743E1,6.289760113E0,2.645673752E0,6.720729351E0
7.943686076E1,5.990475655E0,2.947352171E0,6.682421207E0
7.948885419E1,6.790163517E0,3.158048391E0,6.888328552E0
7.954084741E1,6.258634567E0,2.229069948E0,7.008042336E0
7.959284153E1,6.474119186E0,2.233858347E0,7.110996246E0
7.964483532E1,6.296942711E0,2.178790092E0,7.051139355E0
7.969682845E1,5.767807961E0,2.075836182E0,7.331269264E0
7.974882177E1,5.868367672E0,2.221887112E0,7.637736797E0
7.980081523E1,6.043149471E0,2.403851986E0,7.427040577E0
7.985280849E1,5.715134144E0,2.432583094E0,7.345634937E0
7.990480198E1,5.418243885E0,2.195549965E0,7.110996246E0
7.995679514E1,6.052726746E0,2.418217659E0,7.213950157E0
8.000878933E1,6.028783798E0,2.008796453E0,7.573091030E0
8.006078268E1,5.868367672E0,1.786128998E0,7.115784645E0
8.011277631E1,6.136526108E0,1.905842781E0,7.604216576E0
8.016476957E1,6.435810566E0,1.913025618E0,7.491685867E0
8.021676516E1,6.344828129E0,2.011190891E0,7.316903591E0
8.026876378E1,6.095823765E0,1.857957244E0,7.585062504E0
8.032076027E1,6.067092419E0,2.051893473E0,7.276201248E0
8.037275393E1,5.849213123E0,2.011190891E0,7.312115192E0
8.042474716E1,6.105400562E0,2.150058746E0,7.036773682E0
8.047674052E1,6.057515144E0,1.867534399E0,7.417463303E0
8.052873381E1,6.114977837E0,1.731060743E0,7.486897469E0
8.058072724E1,5.724710941E0,1.673598051E0,7.640130997E0
8.063272109E1,5.703162670E0,1.889082789E0,7.575485706E0
8.068471481E1,5.990475655E0,2.004008055E0,7.690410614E0
8.073670820E1,6.352011204E0,1.999219418E0,7.757450581E0
8.078870156E1,5.549929142E0,1.762186289E0,7.707170486E0
8.084069502E1,5.686402798E0,1.831620216E0,7.405491829E0
8.089268815E1,5.652883053E0,2.262589693E0,7.084659100E0
8.094468151E1,5.219519138E0,1.613741279E0,6.469330311E0
8.099667490E1,4.345608711E0,-3.256213665E-1,4.664047241E0
8.104866869E1,2.643279314E0,-1.534730196E0,3.138894320E0
8.110066261E1,1.455719113E0,-1.120520592E0,3.256213665E0
8.115265627E1,-4.788549542E-1,-2.130904645E-1,5.954561234E0
8.120464923E1,6.703969836E-2,-3.378321648E0,8.942616463E0
8.125664265E1,-2.729473412E-1,-4.273780346E0,9.440625191E0
8.130863797E1,3.830839694E-1,-8.715160370E0,1.307034588E1
8.136063696E1,3.232271075E-1,-8.947404861E0,1.197137451E1
8.141263255E1,-1.043903828E0,-8.485309601E0,1.104478931E1
8.146462581E1,3.064671755E-1,-7.252258301E0,9.687235832E0
8.151661917E1,7.661679387E-2,-7.015225410E0,8.676852226E0
8.156861276E1,2.753416002E-1,-6.215537548E0,7.137333393E0
8.162060589E1,1.211503029E0,-5.171633720E0,5.130930901E0
8.167259921E1,1.585009933E0,-6.043149471E0,3.873936653E0
8.172459264E1,9.337671846E-2,-1.048692322E1,3.289733648E0
8.177658663E1,-4.242654800E0,-1.593629265E1,3.988861799E0
8.182858018E1,-2.406246185E0,-1.274472523E1,1.297696948E0
8.188057348E1,1.987248063E-1,-1.098253822E1,3.083826065E0
8.193256684E1,-2.657645047E-1,-9.833286285E0,2.525959969E0
8.198456029E1,-5.794144869E-1,-9.019232750E0,2.288926601E0
8.203655365E1,-8.715160489E-1,-8.202785492E0,1.585009933E0
8.208854691E1,-1.211503029E0,-8.468549728E0,1.601769805E0
8.214054027E1,-1.252205729E0,-9.134158134E0,2.123721838E0
8.219253452E1,-7.278595567E-1,-9.943423271E0,2.561874151E0
8.224452798E1,-7.422251999E-2,-9.787795067E0,2.329629421E0
8.229652121E1,4.573064744E-1,-9.684841156E0,2.552296877E0
8.234851470E1,6.488484740E-1,-9.512454033E0,2.892283916E0
8.240050909E1,4.213923812E-1,-9.146129608E0,2.923409462E0
8.245250515E1,2.250618339E-1,-8.985713005E0,2.971295118E0
8.250449867E1,2.897072434E-1,-9.043175697E0,3.007209063E0
8.255649197E1,-1.029538140E-1,-9.220352173E0,3.138894320E0
8.260848526E1,-1.606558442E0,-8.949799538E0,1.807677507E0
8.266047872E1,-2.861158371E0,-9.797372818E0,3.672817469E0
8.271247201E1,-8.116591573E-1,-9.761458397E0,5.502043724E0
8.276446527E1,-1.077423692E-1,-9.256266594E0,6.007235527E0
8.281645949E1,-2.533142805E0,-9.057541847E0,6.268211365E0
8.286845298E1,-3.579440832E0,-8.401510239E0,5.068679810E0
8.292044634E1,-4.391099930E0,-7.563514233E0,5.734288216E0
8.297243967E1,-4.826858044E0,-6.411868095E0,5.815693378E0
8.302443289E1,-5.851607800E0,-5.458946705E0,5.834847927E0
8.307444550E1,-5.952167034E0,-4.893897533E0,5.516408920E0
8.312643869E1,-5.774991035E0,-4.173221111E0,4.898686409E0
8.317843218E1,-6.488484859E0,-4.065478802E0,4.386311531E0
8.323042614E1,-7.307326794E0,-4.259414673E0,4.343214512E0
8.328241949E1,-7.723930359E0,-4.379128456E0,4.599401951E0
8.333441299E1,-8.104619980E0,-4.103786945E0,4.486870766E0
8.338640625E1,-9.189227104E0,-3.464515686E0,3.806896925E0
8.343840073E1,-7.429434776E0,-3.390293121E0,3.512401104E0
8.349039962E1,-6.251451492E0,-3.181991339E0,2.382303476E0
8.354239601E1,-8.226728439E0,-3.873936653E0,1.039115310E0
8.359438964E1,-8.458972931E0,-4.678412914E0,4.166038036E-1
8.364638293E1,-1.045579815E1,-6.433416367E0,-1.345582485E0
8.369837632E1,-1.125548553E1,-5.808510780E0,2.784541607E0
8.375036962E1,-1.273993587E1,1.355159521E0,5.942590237E0
8.380236298E1,-8.107014656E0,1.556278586E0,3.251425266E0
8.385435630E1,-7.383943558E0,2.264983892E0,2.743839025E0
8.390634982E1,-7.424646378E0,-3.854782581E-1,3.536343813E0
8.395834394E1,-4.110970020E0,1.125309110E0,2.212309837E0
8.401033737E1,-9.960183144E0,1.549095750E0,5.949772835E0
8.406233060E1,-1.520603943E1,-1.910631299E0,1.352286434E1
8.411432402E1,-2.219253349E1,-4.405465722E-1,1.502167988E1
8.416631732E1,-1.906321526E1,-2.243435383E0,9.320911407E0
8.421831054E1,-6.488484859E0,-2.815667152E0,5.559505939E0
8.427030403E1,-2.968900681E0,-6.608198285E-1,-1.675992459E-2
8.432229769E1,-2.226675600E-1,-1.221080124E-1,-3.591412306E-2
8.437429174E1,4.307300568E0,1.431776285E0,-9.840469360E-1
8.442628520E1,1.101366401E0,2.542719841E0,-1.927391171E0
8.447827826E1,1.048692346E0,3.696760416E0,1.144463301E0
8.453027229E1,2.619336605E0,5.894704342E0,4.216318130E0
8.458226867E1,6.421444893E0,8.885153770E0,3.375927448E0
8.463426230E1,4.340820312E0,1.151406765E1,5.504437923E0
8.468625563E1,1.201925945E1,1.692991638E1,5.219519138E0
8.473824902E1,1.967615128E1,3.617749405E1,1.470084786E0
8.479024235E1,1.455479622E1,2.518777084E1,5.279376030E0
8.484223567E1,-5.413455486E0,3.974496126E-1,4.326454544E1
8.489422900E1,-9.998491287E0,-3.420221710E1,2.010472488E1
8.494622272E1,-4.855589390E0,-8.904308319E0,-6.907482624E0
8.499821667E1,4.383917332E0,1.167927265E1,-7.410280704E0
8.505021007E1,5.650488734E-1,8.437424660E0,-7.901107073E-1
8.510220339E1,-4.271386147E0,1.204320192E0,3.838022470E0
8.515419665E1,1.060663700E0,8.303344727E0,3.320859194E0
8.520619011E1,4.496448040E0,6.567495823E0,4.359974384E0
8.525818347E1,2.849187136E0,8.322499275E0,3.093403101E0
8.531017666E1,5.020794392E0,8.865999222E0,7.805336118E-1
8.536217058E1,4.467716694E0,9.562733650E0,-7.613793612E-1
8.541416437E1,5.626545906E0,1.055635738E1,-1.331216812E0
8.546615770E1,6.086246490E0,9.907508850E0,-2.379909277E0
8.551815116E1,6.186806202E0,9.385557175E0,-2.964112282E0
8.557014495E1,7.874769688E0,9.261054993E0,-3.153259993E0
8.562214343E1,7.043956280E0,8.648120880E0,-1.898659945E0
8.567414083E1,6.967339516E0,7.939415455E0,1.118126392E0
8.572613539E1,7.218738556E0,7.843644142E0,1.048692346E0
8.577812878E1,8.109408379E0,6.991282463E0,2.748627424E0
8.583012227E1,7.609005451E0,6.634535313E0,2.238646984E0
8.588211540E1,6.988888264E0,6.519610405E0,1.939362645E0
8.593410876E1,6.043149471E0,6.227508545E0,2.300898075E0
8.598610208E1,5.470917702E0,6.320885658E0,1.757397652E0
8.603809624E1,4.846012115E0,5.712739468E0,2.085413456E0
8.609008976E1,4.951360226E0,5.090228081E0,1.316851139E0
8.614208305E1,4.237866402E0,4.731087208E0,1.685569525E0
8.619407648E1,2.303292274E0,4.877137661E0,1.666415215E0
8.624606971E1,-4.788549542E-1,4.903474808E0,1.805283189E0
8.629806306E1,-4.000833035E0,4.716721535E0,1.929785490E0
8.635005652E1,-5.648094177E0,2.827638626E0,6.572284222E0
8.640204988E1,-6.806923389E0,4.764606953E-1,6.569890022E0
8.645404410E1,-3.162837029E0,-2.980872154E0,1.141829681E1
8.650603746E1,5.080651283E0,-6.617775440E0,1.325231075E1
8.655803072E1,1.374313712E0,-8.961771011E0,1.190433407E1
8.661002411E1,-1.714300752E0,-9.344854355E0,9.443019867E0
8.666201787E1,-3.617749214E0,-9.541185379E0,8.899519920E0
8.671401625E1,-1.721483588E0,-8.956981659E0,8.241093636E0
8.676601357E1,-1.462901950E0,-8.602629662E0,7.613793850E0
8.681800747E1,-2.470891714E0,-8.681640625E0,7.108602047E0
8.687000089E1,-4.036747456E0,-8.909096718E0,5.980898380E0
8.692199405E1,-3.799714088E0,-8.763046265E0,4.841223717E0
8.697398748E1,-3.670423269E0,-9.155706406E0,5.403878212E0
8.702598084E1,-3.569863796E0,-8.741497040E0,4.446168423E0
8.707797410E1,-4.398283005E0,-8.545166969E0,4.767001152E0
8.712996779E1,-3.782954216E0,-8.351230621E0,5.092622280E0
8.718196187E1,-2.964112282E0,-8.312922478E0,5.674431324E0
8.723395507E1,-3.050306082E0,-8.207573891E0,5.650488377E0
8.728594869E1,-3.205934048E0,-7.826884270E0,5.008822918E0
8.733794179E1,-3.076643229E0,-7.570696831E0,4.829252243E0
8.738993515E1,-2.887495518E0,-7.106207848E0,4.673624516E0
8.744192854E1,-3.445361376E0,-6.917059898E0,4.235472202E0
8.749392180E1,-3.787742853E0,-6.363982677E0,4.371945858E0
8.754591565E1,-4.199557781E0,-6.059909344E0,4.963331699E0
8.759790954E1,-4.558699131E0,-5.992869854E0,5.243461609E0
8.764990283E1,-4.889109135E0,-5.693585396E0,5.863578796E0
8.770189632E1,-5.755836487E0,-5.612180233E0,6.071880817E0
8.775388981E1,-6.014418125E0,-5.437397957E0,6.620169640E0
8.780588600E1,-6.737489223E0,-4.958543301E0,6.220325947E0
8.785788016E1,-6.878751755E0,-4.963331699E0,6.402290821E0
8.790987382E1,-6.481301785E0,-4.496448040E0,6.117372036E0
8.796186678E1,-6.352011204E0,-4.364762783E0,5.880339146E0
8.801386017E1,-6.751854897E0,-4.213923454E0,5.516408920E0
8.806585363E1,-6.720729351E0,-3.593806505E0,5.169239521E0
8.811784686E1,-7.079870701E0,-2.992843628E0,5.229096413E0
8.816984055E1,-7.295355320E0,-2.458920240E0,5.224307537E0
8.822183460E1,-7.786181450E0,-2.039922237E0,5.482889175E0
8.827382803E1,-7.556331158E0,-2.375120640E0,6.088640690E0
8.832582122E1,-7.367183685E0,-2.054287672E0,4.956148624E0
8.837781461E1,-7.503657341E0,-3.004814863E0,5.133325100E0
8.842980790E1,-7.228315830E0,-3.991255999E0,1.982459545E0
8.848180126E1,-7.860404015E0,-4.774183750E0,1.218685865E0
8.853379459E1,-8.885153770E0,-7.934626579E0,7.350423932E-1
8.858578838E1,-1.049171257E1,-1.389397717E1,-1.438959122E0
8.863778216E1,-1.873041153E1,-2.310475111E0,8.492492676E0
8.868977556E1,-1.443508244E1,-2.849186957E-1,8.813325882E0
8.874176898E1,-1.623078918E1,2.796513081E0,9.823709488E0
8.879376241E1,-1.413101006E1,1.556278586E0,8.039975166E0
8.884576013E1,-2.585816681E-1,1.371919513E0,5.552323341E0
8.889775798E1,-3.873936653E0,-9.816526622E-2,4.300117493E0
8.894975228E1,3.950553536E-1,1.592192769E0,1.242628574E0
8.900174554E1,2.336812258E0,3.363956213E0,-6.775797606E-1
8.905373916E1,9.457385540E-1,3.435784340E0,-6.584255695E-1
8.910573242E1,2.624125242E0,5.734288216E0,2.760598898E0
8.915772555E1,4.599401951E0,9.033598900E0,4.326454639E0
8.920971908E1,6.402290821E0,1.232572651E1,5.961744308E0
8.926171223E1,1.294344997E1,2.106004143E1,5.185999393E0
8.931370622E1,2.314066696E1,4.165080643E1,1.455719113E0
8.936569998E1,1.394186211E1,2.285335350E1,1.092028713E1
8.941769324E1,-9.071907043E0,-3.986467600E0,-1.121957207E1
8.946968666E1,-2.956450462E1,-1.678865433E1,8.952193260E0
8.952167995E1,1.536884975E1,-1.472478986E0,-5.739076614E0
8.957367321E1,7.695199013E0,1.844309807E1,-8.660092354E0
8.962566660E1,-4.659258842E0,8.887548447E0,-4.944177628E0
8.967766006E1,6.249057055E-1,7.431828976E0,1.630501151E0
8.972965432E1,3.438178539E0,1.085564232E1,2.094990492E0
8.978164784E1,1.177983165E0,8.298556328E0,4.898686409E0
8.983364093E1,1.968093872E0,6.991282463E0,4.297723293E0
8.988563442E1,6.416656375E-1,7.944203854E0,3.756617069E0
8.993763028E1,5.243461728E-1,8.454184532E0,4.204346657E0
8.998962494E1,-2.681587934E-1,9.450202942E0,4.261809349E0
9.004161827E1,3.759011328E-1,9.284997940E0,4.532361984E0
9.009361156E1,-9.816526622E-2,7.937020779E0,4.242654800E0
9.014560498E1,-5.698373914E-1,6.246663094E0,5.394300938E0
9.019759831E1,-9.577099085E-1,7.376760483E0,4.953754425E0
9.024959160E1,-4.429408312E-1,6.845231533E0,5.104593754E0
9.030158506E1,-1.017566800E0,6.387925148E0,5.183605194E0
9.035357171E1,-6.344828010E-1,6.639324188E0,5.272192955E0
9.040556520E1,-7.158881426E-1,6.280182838E0,5.174027920E0
9.045755849E1,-2.365543604E0,6.016812801E0,4.230683804E0
9.050955178E1,-2.442160368E0,6.232297421E0,5.324867249E0
9.056154514E1,-1.862745762E0,5.794145107E0,5.408666611E0
9.061353857E1,-1.913025618E0,5.288952827E0,3.847599506E0
9.066553180E1,-2.621730804E0,4.881926537E0,3.828445435E0
9.071752532E1,-3.071854591E0,5.921041489E0,4.127729893E0
9.076951950E1,-4.120546818E0,6.754249096E0,5.753442287E0
9.082151283E1,-5.806116581E0,6.462147713E0,6.249057293E0
9.087350616E1,-1.038397026E1,3.246636629E0,6.584255695E0
9.092549955E1,-1.193306541E1,1.209108829E0,7.580274105E0
9.097749634E1,-1.221798420E1,-5.722316504E-1,5.796539307E0
9.102949466E1,-1.126985168E1,-1.431776285E0,4.755029678E0
9.108148952E1,-1.006313705E1,-2.633702278E0,4.130124092E0
9.113348288E1,-8.844450951E0,-2.406246185E0,3.170019865E0
9.118547610E1,-6.069486618E0,-3.553103924E0,3.909850836E0
9.123746959E1,-5.083045483E0,-6.062304020E0,5.880339146E0
9.128946289E1,-1.721483588E0,-5.636122704E0,7.328875065E0
9.134145615E1,-4.319271564E0,-8.487704277E0,8.573898315E0
9.139344954E1,-3.857176781E0,-7.649707794E0,6.119766235E0
9.144544323E1,-7.254652500E0,-8.221940041E0,5.389512539E0
9.149743718E1,-6.967339516E0,-7.008042336E0,4.716721535E0
9.154943057E1,-6.517216206E0,-7.194795609E0,5.784567833E0
9.160142383E1,-6.105400562E0,-7.115784645E0,6.646506786E0
9.165341723E1,-6.854808807E0,-6.833260536E0,6.387925148E0
9.170541055E1,-6.543552876E0,-6.593832970E0,6.340039730E0
9.175740388E1,-5.949772835E0,-6.107795238E0,5.751048088E0
9.180939720E1,-6.320885658E0,-5.806116581E0,5.044736862E0
9.186139102E1,-6.136526108E0,-5.147690773E0,4.477293968E0
9.191338485E1,-7.036773682E0,-4.477293968E0,4.738269806E0
9.196537824E1,-6.766220570E0,-3.687183142E0,4.982485771E0
9.201737150E1,-7.886741161E0,-3.189173937E0,4.676018715E0
9.206936692E1,-7.594639778E0,-2.466103077E0,4.920234680E0
9.212136221E1,-8.315316200E0,-2.308080912E0,3.471698523E0
9.217335547E1,-6.668055534E0,-2.351177931E0,4.608979225E0
9.222534893E1,-7.439012051E0,-3.641691923E0,2.861158371E0
9.227734226E1,-4.987274647E0,-4.072661400E0,4.896292210E0
9.232933555E1,-8.997684479E0,-5.595420361E0,2.226675600E-1
9.238132894E1,-1.167208958E1,-8.676852226E0,1.819648892E-1
9.243332223E1,-2.059076279E-1,-1.358511543E1,1.157153034E1
9.248531602E1,-1.635529137E1,2.353572130E0,7.886741161E0
9.253730994E1,-1.844309807E1,3.739857197E0,6.088640690E0
9.258930327E1,-1.284049606E1,1.546701550E0,6.445387840E0
9.264129656E1,-9.158101082E0,1.980065227E0,2.068653345E0
9.269328995E1,-6.100612164E0,1.309668303E0,4.400677204E0
9.274528325E1,-5.770202279E-1,7.302538157E-1,9.840469360E-1
9.279727661E1,1.321639657E0,2.291321039E0,-1.256994247E0
9.284926996E1,6.464541703E-2,2.616942406E0,-1.063058019E0
9.290126418E1,3.083826065E0,4.824463844E0,5.435003638E-1
9.295325754E1,2.992843628E0,5.944984436E0,2.063864946E0
9.300525097E1,2.360754967E0,8.789382935E0,4.905869007E0
9.305724429E1,8.387145042E0,1.168884945E1,6.905088425E0
9.310924005E1,1.234966946E1,1.854126358E1,5.315289974E0
9.316123864E1,1.850535011E1,3.519344711E1,2.688770533E0
9.321323510E1,1.995388603E1,2.662433624E1,5.111776829E0
9.326522866E1,-1.431776285E0,4.503631115E0,2.816385460E1
9.331722202E1,-1.572080803E1,-5.828622437E1,1.596263027E1
9.336921527E1,-5.789356709E0,-1.844070435E1,-1.755003452E0
9.342120857E1,1.246459484E1,2.710319042E0,-4.060689926E0
9.347320199E1,8.068706512E0,1.235685253E1,-5.236279011E0
9.352519562E1,5.123748183E-1,1.243346882E1,-4.984879971E0
9.357718974E1,-4.668835998E-1,8.609811783E0,-1.632895470E0
9.362918306E1,7.254652381E-1,1.037678719E1,1.278542757E0
9.368117626E1,4.213923812E-1,8.959376335E0,9.577099085E-1
9.373316965E1,2.178790122E-1,9.184437752E0,1.156434774E0
9.378516304E1,1.403045058E0,9.596253395E0,-5.435003638E-1
9.383715634E1,2.796513081E0,1.018524456E1,-7.901107073E-1
9.388914966E1,2.104567528E0,1.049410629E1,-2.418217510E-1
9.394114322E1,3.258608103E0,1.011341667E1,-2.154847234E-2
9.399313734E1,3.040729046E0,9.866806030E0,6.799740195E-1
9.404513066E1,2.389486313E0,9.900326729E0,4.573064744E-1
9.409712402E1,2.786935806E0,9.900326729E0,1.340793848E0
9.414911738E1,3.225088120E0,9.845257759E0,1.194743156E0
9.420111304E1,2.281744003E0,9.349642754E0,1.448536277E0
9.425311186E1,1.965699673E0,9.256266594E0,1.549095750E0
9.430510745E1,1.695146561E0,8.952193260E0,8.906702399E-1
9.435710068E1,1.618529797E0,8.111803055E0,9.601042271E-1
9.440909404E1,1.297696948E0,7.446194649E0,2.394274771E-1
9.446108736E1,2.693559170E0,7.046350956E0,9.194015265E-1
9.451308069E1,2.454131603E0,6.565101624E0,1.221080184E0
9.456507408E1,2.880312681E0,7.637736797E0,1.005595446E0
9.461706747E1,3.301704884E0,6.993676662E0,-2.370332032E-1
9.466906123E1,4.087027073E0,8.937828064E0,-5.291347504E-1
9.472105512E1,3.823656797E0,1.369764614E1,3.445361376E0
9.477304841E1,1.687963724E0,1.628106880E1,3.074248791E0
9.482504177E1,-3.184385598E-1,1.314456844E1,4.527573586E0
9.487703500E1,-2.494834423E0,6.670449734E0,4.960937500E0
9.492902835E1,-7.242681503E0,-2.856369734E0,-5.746259540E-2
9.498102178E1,-1.033847904E1,-5.068679810E0,8.044763207E-1
9.503301497E1,-7.118178844E0,-6.917059898E0,-2.777358890E-1
9.508500896E1,-2.588211060E0,-5.511620522E0,5.554717779E-1
9.513700271E1,-2.279349566E0,-5.092622280E0,5.099805593E-1
9.518899597E1,2.822849989E0,-1.637444496E1,-2.772570133E0
9.524098947E1,-1.843591690E1,-1.788283920E1,8.705583572E0
9.529298402E1,-1.420523262E1,-7.905895233E0,3.490852594E0
9.534498001E1,-1.525871372E1,-2.600182533E0,5.200365067E0
9.539697347E1,-1.114534950E1,-6.754249096E0,7.486897469E0
9.544896700E1,-1.235924625E1,-9.289786220E-1,2.365543604E0
9.550096006E1,-1.441592884E1,-6.689603806E0,3.430995703E0
9.555295348E1,-1.694907188E1,-6.445387840E0,9.502876282E0
9.560494671E1,-1.980544090E1,-4.127729893E0,9.289786339E0
9.565694010E1,-1.547419834E1,-4.862771988E0,7.625765324E0
9.570893396E1,-1.375271416E1,-5.073468208E0,7.491685867E0
9.576092785E1,-7.553936958E0,-5.612180233E0,4.958543301E0
9.581292127E1,-9.344854355E0,-4.364762783E0,3.009603500E0
9.586491443E1,-4.843617916E0,-2.892283916E0,1.501210332E0
9.591690776E1,4.740664065E-1,-1.877111435E0,1.278542757E0
9.596890105E1,7.230709791E-1,8.236305118E-1,-1.745426297E0
9.602089441E1,9.744698405E-1,3.646480560E0,4.525179267E-1
9.607288777E1,-3.181991339E0,5.542746067E0,-9.648927450E-1
9.612488179E1,4.671230316E0,8.126168251E0,-3.423812985E-1
9.617687545E1,1.307274055E1,1.169363785E1,1.347976685E0
9.622886880E1,1.323315716E1,1.688442612E1,1.066170597E1
9.628086210E1,4.276175022E0,1.139674854E1,1.074071693E1
9.633285698E1,-3.943370581E0,5.571477413E0,7.297749519E0
9.638485571E1,1.687963724E0,2.751021862E0,1.467690468E0
9.643685267E1,2.887495518E0,6.991282701E-1,2.463708878E0
9.648884646E1,2.250618219E0,1.881899953E0,8.523618579E-1
9.654083975E1,3.423812866E0,6.380742550E0,1.860351562E0
9.659283315E1,9.912297249E0,1.376947403E1,5.296135902E0
9.664482654E1,1.487323475E1,2.762035370E1,4.079844475E0
9.669681980E1,2.268575287E1,4.154066849E1,1.747820675E-1
9.674881339E1,1.756439972E1,1.684132957E1,1.527307892E1
9.680080758E1,3.143443489E1,-7.984906673E0,-2.001134872E1
9.685280077E1,-2.484778404E1,-1.389637089E1,-8.296162605E0
9.690479423E1,7.685621977E-1,-6.636929989E0,-2.317657948E0
9.695678758E1,1.288598728E1,7.118178844E0,-7.015225291E-1
9.700878084E1,-1.644866824E0,4.257020473E0,-7.781392932E-1
9.706077420E1,6.273000240E-1,5.312895775E0,1.723877788E-1
9.711276753E1,1.994430900E0,1.013735962E1,1.125309169E-1
9.716476115E1,3.356773376E0,1.215094471E1,-1.149251908E-1
9.721675514E1,4.755029678E0,1.275430202E1,-1.877111435E0
9.726874850E1,3.198751211E0,1.149730778E1,-1.822043180E0
9.732074232E1,3.845205307E0,1.165054131E1,-1.834014535E0
9.737273521E1,3.720703125E0,1.145421028E1,-1.484450340E0
9.742472994E1,3.359167576E0,1.084367085E1,-9.672870040E-1
9.747672866E1,3.021574736E0,9.902720451E0,3.016786277E-1
9.752872508E1,2.913832426E0,9.194015503E0,4.022381604E-1
9.758071864E1,3.026363373E0,9.014444351E0,1.199531674E0
9.763268878E1,2.490045786E0,9.004867554E0,1.520364523E0
9.768468207E1,2.391880512E0,8.710371971E0,2.032739401E0
9.773667550E1,2.238646984E0,8.719948769E0,2.284138203E0
9.778866879E1,2.121327400E0,8.490098000E0,2.051893473E0
9.784066218E1,1.699935079E0,8.636149406E0,2.420611858E0
9.789265620E1,1.601769805E0,8.255459785E0,1.666415215E0
9.794464976E1,6.057515144E-1,6.332856655E0,2.154847234E-2
9.799664315E1,3.830839694E-1,5.724710941E0,-3.064671755E-1
9.804863644E1,4.477293789E-1,5.566689014E0,9.217957854E-1
9.810062984E1,6.416656375E-1,6.129343510E0,2.312869549E0
9.815262313E1,-8.619388938E-2,5.214730740E0,4.628133297E0
9.820461642E1,-9.936240315E-1,5.406272411E0,5.310501575E0
9.825660988E1,-7.070293427E0,3.062277555E0,8.593051910E0
9.830860374E1,-1.199052811E1,2.772570133E0,7.817307472E0
9.836059749E1,-1.267050266E1,1.620923996E0,1.010383987E1
9.841259085E1,-1.062818623E1,1.491633177E0,7.678439140E0
9.846458408E1,-9.344854355E0,-8.858817071E-2,7.879558563E0
9.851657820E1,-8.042368889E0,3.926610649E-1,5.712739468E0
9.856857452E1,-7.362394810E0,8.379961550E-2,5.657671452E0
9.862056812E1,-7.108602047E0,4.333637357E-1,6.330462456E0
9.867256148E1,-6.428627968E0,-6.799740195E-1,8.391933441E0
9.872455497E1,-5.712739468E0,-1.333611012E0,7.158881664E0
9.877654830E1,-7.541965485E0,-3.723097324E0,8.674457550E0
9.882854152E1,-7.180429935E0,-5.583448887E0,6.797346115E0
9.888053488E1,-7.922655106E0,-6.399896622E0,6.782980442E0
9.893252887E1,-8.415876389E0,-5.983292580E0,5.937801361E0
9.898452246E1,-8.238699913E0,-5.509226322E0,5.650488377E0
9.903651582E1,-7.745479107E0,-3.756617069E0,5.071074009E0
9.908850918E1,-7.482108593E0,-2.741444588E0,5.451763630E0
9.914050240E1,-6.421444893E0,-2.049499273E0,5.032765865E0
9.919249589E1,-6.191594601E0,-2.628913641E0,5.549929142E0
9.924448922E1,-6.280182838E0,-2.707924843E0,4.750241280E0
9.929648254E1,-5.078257084E0,-3.691971779E0,5.078257084E0
9.934847670E1,-6.742278099E0,-4.917840481E0,2.279349566E0
9.940047019E1,-5.904281616E0,-8.265036583E0,3.624932051E0
9.945246352E1,-1.106633854E1,-9.981731415E0,3.902668059E-1
9.950445691E1,-1.374074268E1,-1.226108170E1,5.504437923E0
9.955645080E1,-1.427945518E1,1.024749637E0,7.740690231E0
9.960844949E1,-1.503365135E1,2.930592299E0,6.253845692E0
9.966044657E1,-1.525871372E1,3.011997700E0,6.043149471E0
9.971244024E1,-1.073114014E1,1.551490068E0,5.901887417E0
9.976443359E1,-7.788576126E0,-1.364736706E-1,5.755836487E0
9.981642699E1,-5.054314137E0,8.212362528E-1,1.704723716E0
9.986842025E1,-5.985686928E-2,1.424593568E0,1.067846537E0
9.992041357E1,-2.777358890E-1,2.073441982E0,5.171633363E-1
9.997240690E1,4.261809289E-1,3.122134447E0,-5.243461728E-1
1.000244003E2,3.239453793E0,4.443774223E0,1.453324795E0
1.000763945E2,4.395888329E0,6.689603806E0,1.996825218E0
1.001283879E2,4.910657406E0,9.191620827E0,2.734261751E0
1.001803813E2,9.086273193E0,1.323076248E1,3.557892323E0
1.002323745E2,1.385327435E1,2.265462875E1,4.075055599E0
1.002843679E2,2.039203835E1,3.608650970E1,1.862745762E0
1.003363613E2,1.680302048E1,2.084695053E1,8.162082672E0
1.003883546E2,-8.154899597E0,-3.026363373E0,-5.741470814E0
1.004403482E2,-1.590516758E1,-2.424203300E1,1.417410731E0
1.004923423E2,-1.415016413E0,-1.162420464E1,-2.308080912E0
1.005443357E2,7.304932594E0,2.066259146E0,-4.118152618E0
1.005963292E2,2.966506481E0,5.348809719E0,-3.347196102E0
1.006483227E2,1.472478986E0,7.122967720E0,-2.952140808E0
1.007003189E2,3.222693920E0,1.174152374E1,-6.543552876E0
1.007523130E2,3.816473961E0,1.228023529E1,-6.680026531E0
1.008043063E2,4.836435318E0,9.780612946E0,-5.391906738E0
1.008562996E2,9.483722687E0,9.933846474E0,-7.496474266E0
1.009082929E2,1.022355366E1,8.600234985E0,-7.790970325E0
1.009602863E2,9.289786339E0,7.750267506E0,-4.470110893E0
1.010122797E2,7.939415455E0,7.525205612E0,-2.786935806E0
1.010642735E2,6.179623127E0,7.046350956E0,-2.176395893E0
1.011162673E2,4.901080608E0,6.890722752E0,-1.515576005E0
1.011682606E2,4.618556023E0,7.381549358E0,-1.206714511E0
1.012202539E2,5.497254848E0,7.623371124E0,-4.956148863E-1
1.012722474E2,6.234691620E0,7.707170486E0,-3.806896806E-1
1.013242406E2,6.759037971E0,7.479714394E0,-4.046324492E-1
1.013762339E2,7.031985283E0,7.211555958E0,-2.921015322E-1
1.014282273E2,6.356799603E0,7.178035736E0,-6.751855016E-1
1.014802213E2,6.900300026E0,7.206767082E0,1.197137386E-1
1.015322150E2,5.968926907E0,7.060716629E0,3.088614643E-1
1.015842084E2,5.894704342E0,7.017619610E0,9.098244309E-1
1.016362017E2,4.975303173E0,7.659285069E0,1.690358043E0
1.016881953E2,4.252232075E0,7.881952763E0,2.645673752E0
1.017401934E2,3.948159218E0,7.798152924E0,3.648874760E0
1.017921909E2,3.280156374E0,8.008849144E0,4.807703972E0
1.018441850E2,2.837215662E0,7.989695072E0,4.587430477E0
1.018961784E2,2.130904675E0,7.122967720E0,4.494053841E0
1.019481718E2,5.147690773E-1,5.961744308E0,3.615355015E0
1.020001650E2,-1.134886265E0,4.752635479E0,4.549122334E0
1.020521584E2,-2.150058746E0,4.333637238E0,6.021601200E0
1.021041517E2,-4.573064804E0,4.034353256E0,7.364789486E0
1.021561449E2,-6.217931747E0,3.840416908E0,8.533195496E0
1.022081390E2,-6.668055534E0,3.778165579E0,8.324893951E0
1.022601327E2,-6.431022167E0,3.330436230E0,8.142929077E0
1.023121260E2,-6.184412003E0,3.407052994E0,7.510839939E0
1.023641194E2,-6.452570438E0,3.519583941E0,7.336058140E0
1.024161129E2,-6.486090660E0,2.492439985E0,6.270605564E0
1.024681062E2,-8.928250313E0,-5.027977005E-2,7.872375488E0
1.025200994E2,-7.060716629E0,-1.177983165E0,7.190007210E0
1.025720927E2,-6.500456333E0,-2.791724443E0,9.007262230E0
1.026240867E2,-5.731894016E0,-3.411841631E0,7.850827217E0
1.026760806E2,-6.586649895E0,-4.594613552E0,7.731113434E0
1.027280737E2,-5.851607800E0,-4.201952457E0,7.350423813E0
1.027800672E2,-5.612180233E0,-4.601796150E0,7.465348721E0
1.028320632E2,-5.729499817E0,-4.077449799E0,7.345634937E0
1.028840577E2,-6.601015568E0,-4.048718929E0,6.747066498E0
1.029360511E2,-5.856396198E0,-3.328042030E0,6.792557716E0
1.029880444E2,-5.822876453E0,-2.293715239E0,6.957762718E0
1.030400377E2,-5.185999393E0,-1.618529797E0,7.850827217E0
1.030920312E2,-6.612987041E0,-1.355159521E0,6.251451492E0
1.031440245E2,-6.428627968E0,-2.097384691E0,7.422251701E0
1.031960178E2,-8.346442223E0,-3.138894320E0,4.743058205E0
1.032480117E2,-7.302538395E0,-4.812492371E0,5.071074009E0
1.033000054E2,-5.482889175E0,-6.500456333E0,5.133325100E0
1.033519988E2,-1.061860847E1,-9.507665634E0,2.470891714E0
1.034039921E2,-1.368567467E1,-1.170321560E1,4.180403709E0
1.034559855E2,-8.755863190E0,-4.647287369E0,8.269824982E0
1.035079788E2,-1.351328659E1,2.861158371E0,5.535563469E0
1.035599721E2,-1.272078228E1,3.119740009E0,9.560338974E0
1.036119655E2,-1.193067169E1,3.883513689E0,6.311308384E0
1.036639598E2,-9.340065956E0,1.927391171E0,-8.858817071E-2
1.037159531E2,-1.685569525E0,-7.901107073E-1,5.310501575E0
1.037679465E2,-2.894678354E0,1.707117915E0,-4.620950520E-1
1.038199399E2,2.394274808E-3,2.657644987E0,-1.156434774E0
1.038719370E2,1.529941559E0,5.200365067E0,-1.027143836E0
1.039239354E2,4.477293968E0,8.846845627E0,2.729473412E-1
1.039759308E2,7.333663940E0,1.330498505E1,2.916226625E0
1.040279242E2,9.720755577E0,1.916856384E1,3.708731651E0
1.040799174E2,1.900814819E1,3.575609970E1,5.796539307E0
1.041319110E2,1.938404846E1,2.871453857E1,1.118126392E0
1.041839041E2,7.075081825E0,3.100585938E0,2.807766151E1
1.042358976E2,-8.569109917E0,-6.981465912E1,3.490134430E1
1.042878912E2,-1.472478986E0,-1.865140152E1,-6.476513386E0
1.043398852E2,1.002004051E1,6.225114465E-1,-6.012023926E0
1.043918784E2,1.304879785E0,5.403878212E0,-6.818894863E0
1.044438719E2,3.019180536E0,1.200968266E1,-7.422251701E0
1.044958651E2,3.854782343E0,1.209587669E1,-6.814105988E0
1.045478585E2,4.941783428E0,1.252684593E1,-6.763826370E0
1.045998519E2,6.967339516E0,9.610619545E0,-5.715134144E0
1.046518451E2,9.727938652E0,8.152505875E0,-7.915472507E0
1.047038390E2,8.389538765E0,7.582668304E0,-6.033572674E0
1.047558329E2,7.101418972E0,7.515628815E0,-3.385504484E0
1.048078262E2,5.796539307E0,7.757450581E0,-2.329629421E0
1.048598196E2,5.190787792E0,7.383943558E0,-1.932179809E0
1.049118130E2,5.367964268E0,7.357606411E0,-1.956122518E0
1.049638082E2,5.736682415E0,7.582668304E0,-1.738243461E0
1.050158064E2,6.272999763E0,7.781393051E0,-2.389486313E0
1.050678012E2,6.141314983E0,7.757450581E0,-1.841197371E0
1.051197945E2,6.014418125E0,8.011243820E0,-1.877111435E0
1.051717878E2,6.038361073E0,7.975329399E0,-2.157241583E0
1.052237812E2,5.600208759E0,7.778998852E0,-1.922602654E0
1.052757745E2,5.535563469E0,7.640130997E0,-1.874717116E0
1.053277679E2,5.492466450E0,7.300143719E0,-1.735849261E0
1.053797612E2,5.102199554E0,6.407079220E0,-1.790917516E0
1.054317551E2,5.339232922E0,5.418243885E0,-1.577827096E0
1.054837489E2,4.486870766E0,5.892310143E0,-9.241901040E-1
1.055357422E2,3.792531252E0,6.002447128E0,8.068706393E-1
1.055877355E2,1.606558442E0,6.670449734E0,7.661679387E-1
1.056397288E2,1.158828974E0,6.792557716E0,1.896265626E0
1.056917223E2,-4.189980924E-1,6.759037971E0,3.131711483E0
1.057437156E2,-2.253012657E0,5.657671452E0,3.979284763E0
1.057957088E2,-1.958516836E0,2.111750364E0,7.209161282E0
1.058477031E2,1.465296149E0,-4.525179267E-1,7.419857502E0
1.058996966E2,1.764580488E0,-4.422225475E0,1.055635738E1
1.059516899E2,-1.795706153E0,-6.471724987E0,9.273026466E0
1.060036832E2,-2.921015263E0,-1.006313705E1,1.216530991E1
1.060556787E2,-4.573064744E-1,-8.834874153E0,9.747093201E0
1.061076739E2,-2.087807655E0,-1.078620815E1,8.887548447E0
1.061596673E2,-1.695146561E0,-9.835680962E0,6.488484859E0
1.062116606E2,-2.497228622E0,-1.051565456E1,5.648094177E0
1.062636539E2,-8.044763207E-1,-9.897932053E0,4.503631115E0
1.063156473E2,-7.685621977E-1,-1.036242104E1,4.185192585E0
1.063676406E2,-5.913859010E-1,-1.041030693E1,3.677606106E0
1.064196340E2,-3.567469418E-1,-1.041749001E1,3.153259993E0
1.064716283E2,-4.189980924E-1,-1.023073673E1,2.719896078E0
1.065236216E2,-7.877163887E-1,-1.017327404E1,2.310475111E0
1.065756148E2,-1.110943556E0,-1.001046276E1,2.073441982E0
1.066276084E2,-1.266571403E0,-9.737515450E0,1.786128998E0
1.066796015E2,-1.336005330E0,-9.445414543E0,1.664021015E0
1.067315949E2,-9.074301720E-1,-9.390345573E0,1.929785490E0
1.067835883E2,-5.889915824E-1,-9.268238068E0,1.793311834E0
1.068355817E2,-6.081457734E-1,-9.490905762E0,1.941756845E0
1.068875759E2,-5.985686779E-1,-9.510059357E0,1.834014535E0
1.069395693E2,-5.195576549E-1,-9.512454033E0,1.939362645E0
1.069915626E2,-3.495641351E-1,-9.471751213E0,1.994430900E0
1.070435560E2,-3.519583941E-1,-9.399923325E0,2.004008055E0
1.070955520E2,7.182824612E-2,-9.725543976E0,2.370332003E0
1.071475505E2,-1.580221355E-1,-9.574705124E0,2.336812258E0
1.071995469E2,-4.764606953E-1,-9.759063721E0,2.552296877E0
1.072515402E2,-7.206767201E-1,-9.677659035E0,2.595393896E0
1.073035337E2,-9.816526622E-2,-9.897932053E0,2.861158371E0
1.073555269E2,-3.256213665E-1,-1.032890129E1,3.146077156E0
1.074075203E2,-8.379961550E-2,-9.739910126E0,2.968900681E0
1.074595137E2,-1.580221355E-1,-9.574705124E0,2.600182533E0
1.075115076E2,-5.650488734E-1,-9.292180061E0,2.480468750E0
1.075635013E2,-7.470137477E-1,-9.220352173E0,3.165231228E0
1.076154947E2,-1.618529797E0,-9.632167816E0,3.442967176E0
1.076674880E2,-1.697540879E0,-9.313729286E0,3.883513689E0
1.077194813E2,-2.406246185E0,-9.026415825E0,4.082238674E0
1.077714747E2,-2.473285913E0,-8.679245949E0,4.144489765E0
1.078234679E2,-3.665634632E0,-8.308133125E0,4.302511692E0
1.078754613E2,-3.529160976E0,-7.649707794E0,5.128536701E0
1.079274552E2,-4.194769382E0,-7.091842175E0,5.243461609E0
