"Time (s)","Gyroscope x (rad/s)","Gyroscope y (rad/s)","Gyroscope z (rad/s)"
5.199304800E-2,3.721696511E-2,1.149465069E-1,3.587184101E-2
1.039862150E-1,4.699081182E-2,2.859887779E-1,1.388069056E-2
1.559795740E-1,1.522581559E-2,8.095002770E-1,-1.605170593E-2
2.079730000E-1,-4.032168984E-1,2.785649300E0,-1.779309958E-1
2.599662260E-1,-9.829279780E-1,4.940170765E0,-1.296726316E-1
3.119601490E-1,-2.025674820E0,6.510705471E0,-6.446320415E-1
3.639539030E-1,-2.134408951E0,7.632865429E0,-1.289705634E0
4.159472290E-1,-9.719324112E-1,5.350061417E0,-1.804665208E0
4.679404890E-1,-1.655903012E-1,1.159526110E0,-1.749687314E0
5.199341140E-1,-5.589874983E-1,2.441121340E0,-1.492513061E0
5.719274060E-1,-3.256369829E-1,4.147268295E0,-1.263438463E0
6.239204990E-1,3.542560339E-1,1.650661707E0,-1.314140439E0
6.759140580E-1,9.394649267E-1,-6.064853668E-1,3.248111010E-1
7.279081770E-1,1.348133802E0,-2.066557109E-2,2.261864662E0
7.799016340E-1,2.474569321E0,-1.960162759E0,3.934413910E0
8.318949610E-1,3.134303808E0,-2.863632441E0,5.065736294E0
8.838882870E-1,3.312065363E0,-4.176382065E0,4.624691486E0
9.358815460E-1,3.315730810E0,-4.520298958E0,2.735285282E0
9.878777010E-1,1.454424262E0,-3.090874195E0,1.544098139E0
1.039876488E0,2.397646196E-3,-7.188845277E-1,1.197737575E0
1.091871614E0,-7.892836928E-1,1.384324431E0,1.252715468E0
1.143865007E0,-4.321871791E-3,-1.794618249E0,1.250882864E0
1.195858233E0,1.354242444E0,-4.211812019E0,9.460610151E-1
1.247851692E0,1.313925266E0,-3.390198231E0,7.188192010E-1
1.299844951E0,4.623791873E-1,-1.323030233E0,7.188192010E-1
1.351838310E0,-1.747532785E-1,8.534826040E-1,6.827781200E-1
1.403831768E0,-2.718808651E-1,1.295749068E0,2.099684328E-1
1.455826020E0,-3.730859235E-2,1.003755450E0,8.290845901E-2
1.507819413E0,5.737552047E-2,3.880032599E-1,-5.026016012E-2
1.559812672E0,-2.352289259E-1,-9.702372551E-2,-5.636881292E-2
1.611805898E0,-5.327203274E-1,4.955155551E-1,1.843120903E-1
1.663799424E0,-4.465883076E-1,-4.937623441E-2,-6.888727192E-3
1.715792617E0,-1.619251072E-1,2.084088922E-1,1.891990155E-1
1.767785976E0,1.819920391E-1,-2.943331897E-1,2.289052606E-1
1.819779633E0,6.358649135E-1,-1.224070072E0,1.268907636E-1
1.871773586E0,7.195534706E-1,-9.119179845E-1,3.706260026E-1
1.923767111E0,4.458858073E-1,-1.104951382E0,3.296980262E-1
1.975760471E0,4.821253940E-2,-2.136702776E0,-5.829346180E-1
2.027753697E0,-5.938068032E-1,-3.746943712E0,-1.983037829E0
2.079748620E0,-2.806971788E0,-1.980321288E0,-3.676967144E0
2.131744478E0,-3.501525402E0,3.491198778E0,-5.368453026E0
2.183737671E0,-2.226038933E0,2.676304340E0,-5.432283878E-1
2.235730997E0,2.937605143E0,5.223936439E-1,2.696800709E0
2.287724323E0,2.108050108E0,-2.414646387E0,1.988808036E0
2.339717649E0,-1.020190835E0,5.197956085E0,1.659861356E-1
2.391710941E0,-1.637164712E0,3.146994710E-1,-1.373394251E0
2.443704665E0,-1.771555066E0,3.379123211E-1,1.632415131E-2
2.495698651E0,-1.172907114E0,-5.655573606E-1,8.904722929E-1
2.547692009E0,-9.407783151E-1,-1.878306746E0,1.721248984E0
2.599685335E0,-1.134422660E0,-1.873419762E0,1.772561789E0
2.651678695E0,-1.430081248E0,-1.618078232E0,2.217271805E0
2.703671987E0,-1.144196391E0,-1.918013096E0,2.184895754E0
2.755665380E0,-9.481087327E-1,-9.119179845E-1,2.264308453E0
2.807658739E0,-4.349818826E-1,-8.471662402E-1,2.257588625E0
2.859652427E0,5.065600201E-2,8.379238844E-2,1.816544056E0
2.911646415E0,1.404531896E-1,5.211718678E-1,1.323575854E0
2.963639608E0,2.271960676E-1,7.710158229E-1,5.703788996E-1
3.015633033E0,3.365409374E-1,8.082785606E-1,-1.266183108E-1
3.067626526E0,1.483944356E-1,1.642720461E0,-6.873926520E-1
3.119621714E0,-5.394397974E-1,3.833283186E0,-1.172419548E0
3.171620570E0,-8.583114743E-1,5.270038128E0,-2.132699728E0
3.223616629E0,-4.136016071E-1,4.654285908E0,-1.659279227E0
3.274501257E0,-5.571548939E-1,3.443551302E0,-2.569468498E0
3.326494549E0,-8.784700036E-1,3.711721182E0,-2.078943491E0
3.378487874E0,-8.864113092E-1,2.489990473E0,-1.563984275E0
3.430481266E0,-8.027226925E-1,9.915381670E-1,-1.111333132E0
3.482474526E0,-7.630164623E-1,5.547694564E-1,-6.275278330E-1
3.534467785E0,-7.220885754E-1,-1.000780538E-1,-8.822585940E-1
3.586461542E0,-4.270406067E-1,-1.289432764E0,-1.341629267E0
3.638455494E0,-4.129907191E-1,-1.321197629E0,-1.446698070E0
3.690448820E0,-5.858656168E-1,-6.205351949E-1,-1.584142804E0
3.742442279E0,-8.271573782E-1,2.652193606E-1,-1.644618392E0
3.794435638E0,-1.049512386E0,1.234662533E0,-1.835208416E0
3.846428997E0,-8.216595650E-1,1.354392052E0,-2.165075779E0
3.898422357E0,-6.176305413E-1,2.010785043E-1,-1.684324741E0
3.950415582E0,-5.638744235E-1,-1.947621554E-1,-1.295814395E0
4.002409601E0,-4.643034041E-1,-4.537690282E-1,-1.017259836E0
4.054403258E0,-4.044385850E-1,-2.686768472E-1,-7.350401282E-1
4.106396551E0,-4.765206873E-1,2.817127407E-1,-7.570312619E-1
4.158389910E0,-4.545295835E-1,9.805425406E-1,-7.466465235E-1
4.210384168E0,-4.942358136E-1,1.360500693E0,-7.289314866E-1
4.262380391E0,-4.948466420E-1,1.187015057E0,-6.183648705E-1
4.314373884E0,-3.470172584E-1,5.529369116E-1,-2.909410596E-1
4.366367244E0,-1.484860629E-1,-1.434494853E-1,5.908472091E-2
4.418360603E0,2.438879572E-2,-2.760072351E-1,2.026380450E-1
4.470353829E0,1.734399050E-1,7.434229832E-3,2.038597912E-1
4.522347289E0,1.545030922E-1,2.591107190E-1,1.000126898E-1
4.574340615E0,3.477350250E-2,3.580708802E-1,2.487626486E-2
4.626334370E0,-3.119994141E-2,3.116451204E-1,-4.781670123E-2
4.678328325E0,-6.724099070E-2,-5.731748417E-2,-8.996640146E-2
4.730321652E0,-2.631301992E-2,-4.158953726E-1,-7.408390939E-2
4.782314911E0,6.104071066E-2,-3.548088670E-1,3.709357232E-2
4.834308504E0,1.086882055E-1,-1.028086152E-2,1.323885471E-1
4.886301596E0,1.190729067E-1,2.157392800E-1,1.873664260E-1
4.938294889E0,-2.570215613E-2,-8.724988252E-2,5.358693376E-2
4.990288415E0,-9.819659404E-3,-1.214583367E-1,2.670885995E-2
5.042282499E0,-2.386956103E-2,-5.792835355E-2,3.587184101E-2
5.094275990E0,-4.830417037E-2,-9.669996798E-3,-5.820140988E-2
5.146269349E0,-5.196936056E-2,1.131139174E-1,-1.113466844E-1
5.198262708E0,-7.762569934E-2,1.344942003E-1,-1.504420638E-1
5.250256896E0,-5.807801336E-2,1.638157368E-1,-1.479986012E-1
5.302255683E0,-5.746714771E-2,-6.615670864E-3,-1.137901470E-1
5.354252340E0,-1.409571525E-2,9.662055224E-2,-5.270362273E-2
5.406245967E0,-9.208793752E-3,1.748113036E-1,-5.026016012E-2
5.458239327E0,4.230241757E-3,1.619831324E-1,-8.263601363E-2
5.510232686E0,4.230241757E-3,1.143356487E-1,-7.164043933E-2
5.562225945E0,2.377793007E-2,9.295536578E-2,-3.315593302E-2
5.614219304E0,3.538436815E-2,1.528201550E-1,2.243280411E-2
5.666212697E0,1.217149012E-2,1.662591994E-1,6.641510129E-2
5.718206154E0,-5.135849491E-2,8.501411229E-2,8.229760081E-2
5.770200373E0,-9.961685538E-2,-1.452820748E-1,2.426539920E-2
5.822193699E0,-7.823656499E-2,-3.590849340E-1,2.243280411E-2
5.874186925E0,-1.898263767E-2,-3.487001956E-1,6.824769825E-2
5.926180384E0,5.187772959E-2,-2.069794834E-1,6.091731787E-2
5.978173743E0,1.233489588E-1,3.769038711E-3,7.161173504E-3
6.030167002E0,1.569465548E-1,2.542237937E-1,-1.238651481E-2
6.082160362E0,2.662914395E-1,4.411485493E-1,-1.390940160E-3
6.134153720E0,2.797304690E-1,8.479847908E-1,3.709357232E-2
6.186148106E0,1.007469445E-1,7.972829938E-1,7.252375782E-2
6.238141464E0,2.381916344E-1,2.413956076E-1,-1.657136828E-1
6.290134656E0,2.730109692E-1,1.659720764E-2,-7.591649890E-2
6.342128714E0,8.669704944E-2,4.900177717E-1,9.879095852E-2
6.394124835E0,3.049744852E-2,1.100272059E0,-6.614265591E-2
6.446118762E0,-2.448042482E-2,4.851308465E-1,-2.768911719E-1
6.498112021E0,-1.435991526E-1,-4.998710379E-2,-3.801273704E-1
6.550105247E0,-8.862127364E-2,3.702881634E-1,-4.247205555E-1
6.602098740E0,-3.303254023E-2,5.975300074E-1,-2.848324180E-1
6.654091965E0,-2.814561687E-2,8.516499996E-1,-1.479986012E-1
6.706085324E0,-2.203696407E-2,8.595912457E-1,-1.150118783E-1
6.758078816E0,-7.987063378E-3,4.026640356E-1,-1.657136828E-1
6.810072900E0,6.531676650E-2,2.762149274E-1,-1.486094594E-1
6.862066425E0,5.248859897E-2,6.372363567E-1,-9.302072972E-2
6.914059785E0,6.042984501E-2,5.926431417E-1,-6.675352156E-2
6.966053077E0,6.042984501E-2,2.084088922E-1,-4.170804471E-2
7.018046336E0,1.031904146E-1,1.259420812E-1,8.535192162E-2
7.070039829E0,1.325119436E-1,3.000386953E-1,1.940859407E-1
7.122033055E0,1.373988688E-1,4.026640356E-1,2.044706494E-1
7.174026877E0,1.502270401E-1,4.985698760E-1,1.794251651E-1
7.226020698E0,1.899332702E-1,9.127365351E-1,1.775925756E-1
7.278014124E0,3.872427344E-1,1.720911264E0,3.877302110E-1
7.330007383E0,7.372685671E-1,2.153403759E0,5.899266601E-1
7.382001139E0,9.785603285E-1,2.422184467E0,8.299966455E-1
7.433999493E0,1.231458545E0,1.780165195E0,8.959701061E-1
7.485997021E0,1.333472967E0,1.331790090E0,8.128924370E-1
7.537991814E0,1.355464101E0,8.278262615E-1,7.896795869E-1
7.589985074E0,1.329807878E0,6.024169922E-1,8.611507416E-1
7.641978366E0,1.222295523E0,9.292298555E-1,9.069656730E-1
7.693971725E0,1.067746639E0,1.276201248E0,9.827129245E-1
7.745965116E0,9.834471941E-1,9.774882197E-1,1.083505750E0
7.797958375E0,8.967043161E-1,6.079148054E-1,9.552240372E-1
7.849952263E0,6.297562122E-1,7.117618322E-1,8.929157853E-1
7.901946017E0,5.857739449E-1,8.461522460E-1,6.552891731E-1
7.953939376E0,5.051397681E-1,7.850656509E-1,6.442936659E-1
8.005932835E0,3.854101598E-1,6.873272657E-1,6.455153823E-1
8.057926028E0,2.552958429E-1,3.073690832E-1,4.714187682E-1
8.109919520E0,9.158396721E-2,-1.801013947E-1,4.940207899E-1
8.161912913E0,-1.124450192E-1,-3.688587546E-1,4.048344493E-1
8.213906006E0,-2.120160460E-1,-5.111903548E-1,5.373921990E-1
8.265900226E0,-1.802510619E-1,-2.265271544E-1,6.778912544E-1
8.317894016E0,-7.212791592E-2,4.270986617E-1,7.682992816E-1
8.369887043E0,-2.028530687E-1,1.033400744E-1,9.149069190E-1
8.421880435E0,-3.311347663E-1,-1.446712166E-1,8.623725176E-1
8.473874092E0,-2.498897016E-1,5.828692913E-1,1.013867140E0
8.525872380E0,-2.895959616E-1,1.548647165E0,1.233167768E0
8.577869768E0,-2.517222762E-1,1.081946135E0,1.221561313E0
8.629863795E0,-4.814076126E-1,2.749931812E-1,1.899010897E0
8.681857221E0,-1.091661930E0,-1.829437613E0,7.487515807E-1
8.733850480E0,-1.954814553E0,-2.216402441E-1,7.597471476E-1
8.785843873E0,-2.848510504E0,-9.730045199E-1,-6.003400311E-2
8.837837166E0,-3.507023096E0,-4.891992211E-1,-5.206264257E-1
8.889830459E0,-4.069630146E0,-1.067975685E-1,-1.068572521E0
8.941824317E0,-4.469746590E0,1.124706745E0,-1.573147178E0
8.993818437E0,-4.158816338E0,1.169910789E0,-1.778397918E0
9.045811630E0,-3.059869766E0,-7.408756614E-1,-1.229230046E0
9.097804856E0,-1.139309406E0,-2.057901144E0,1.071899295E0
9.149798248E0,1.395781279E0,-2.418922663E0,3.199542999E0
9.201791607E0,2.573529482E0,-3.268025160E0,4.572768211E0
9.253784965E0,3.381704092E0,-4.256405354E0,5.010147572E0
9.305778258E0,3.480664253E0,-3.855066538E0,4.206249237E0
9.357771649E0,3.043284893E0,-3.004131317E0,3.633257389E0
9.409765800E0,2.327961683E0,-4.501362324E0,2.541030169E0
9.461759259E0,1.862482309E0,-2.949153662E0,1.620456338E0
9.513752519E0,4.837594628E-1,-1.453755498E0,1.494618058E0
9.565746008E0,-6.561151147E-1,-1.365179896E0,1.040134311E0
9.617742397E0,-1.224219680E0,-1.624797702E0,3.535217643E-1
9.669736491E0,-1.108155370E0,-3.352324724E0,-5.603326559E-1
9.721729883E0,-2.225427866E0,-9.962173700E-1,-3.303117752E0
9.773723177E0,-3.673789263E0,3.149725199E0,-6.342172146E0
9.825716502E0,-3.402977586E-1,5.362889767E0,1.783557296E0
9.877709862E0,4.851445675E0,-5.093290329E0,2.577682018E0
9.929703221E0,2.098276377E0,6.137466908E0,2.832412958E0
9.981696645E0,4.312250316E-1,6.796590328E0,9.698848128E-1
1.003369090E1,2.601827681E-1,2.358978242E-1,2.282943875E-1
1.008568422E1,-2.572200894E-1,-1.379840732E0,3.797889650E-1
1.013767768E1,-8.522028327E-1,-7.634777427E-1,3.095394671E-1
1.018967087E1,-1.008584380E0,-1.151377201E0,-1.840396374E-1
1.024166420E1,-1.228495836E0,-2.442422509E-1,-1.666257158E-2
1.029365749E1,-1.011027813E0,-3.346503079E-1,-8.691207319E-2
1.034565085E1,-8.827461004E-1,-6.577980518E-1,-1.455551386E-1
1.039764454E1,-1.000032187E0,5.431630015E-1,8.718451858E-2
1.044963863E1,-1.012249470E0,1.913046688E-1,-3.483623862E-1
1.050163179E1,-1.262704253E0,8.424869776E-1,-5.658304691E-1
1.055362534E1,-1.161300659E0,-7.075652480E-2,-9.189105034E-1
1.060556642E1,-1.254152179E0,1.283531785E0,-1.331244588E0
1.065756368E1,-9.279501438E-1,2.389197826E0,-1.672107458E0
1.070956177E1,-4.630816579E-1,2.358043671E0,-2.221885920E0
1.076155713E1,-2.260659486E-1,2.642096043E0,-2.136364937E0
1.081355042E1,-5.247790813E-1,3.238300562E0,-2.027020216E0
1.086554378E1,-8.900764585E-1,1.056289792E0,-1.570703745E0
1.091753707E1,-1.488724351E0,1.980528951E0,-1.049635768E0
1.096953043E1,-1.464900613E0,1.408759117E0,-7.949048877E-1
1.102152393E1,-1.453294158E0,1.031244397E0,-6.996099353E-1
1.107351775E1,-1.320736408E0,7.569658756E-1,-6.715101600E-1
1.112551147E1,-1.190622211E0,7.783461809E-1,-6.055366993E-1
1.117750493E1,-1.023855925E0,4.564201832E-1,-2.579543591E-1
1.122949815E1,-9.157328010E-1,-8.663901687E-2,-1.644919515E-1
1.128149168E1,-7.960032225E-1,3.043147326E-1,8.535192162E-2
1.133348481E1,-6.445086598E-1,-3.144917488E-1,7.802154869E-2
1.138547813E1,-3.085327744E-1,-1.251235306E-1,1.998934336E-2
1.143747146E1,1.294576079E-1,2.942537889E-2,-1.498311907E-1
1.148946558E1,5.711131692E-1,-9.522350430E-1,-8.401089311E-1
1.154145920E1,6.835123897E-1,-3.239314556E0,-2.063672066E0
1.159345243E1,3.904956207E-2,-3.412800312E0,-2.583518267E0
1.164544585E1,-7.141472697E-1,-1.986429930E0,-2.790601492E0
1.169743928E1,-9.102350473E-1,1.955807209E-1,-2.083830595E0
1.174943656E1,-8.179943562E-1,7.306986451E-1,-1.678826928E0
1.180143465E1,-6.249609590E-1,3.837272227E-1,-1.163867593E0
1.185342918E1,-4.569730163E-1,-4.326758534E-2,-8.126199841E-1
1.190542244E1,-3.824474514E-1,6.180123612E-2,-4.149467051E-1
1.195741613E1,-1.961335540E-1,8.073806018E-2,-1.431116760E-1
1.200940916E1,-5.807801336E-2,7.157508284E-2,1.326982584E-2
1.206140252E1,5.065600201E-2,1.662591994E-1,1.055104733E-1
1.211339591E1,9.952522069E-2,-1.226800680E-1,9.818009287E-2
1.216538920E1,6.104071066E-2,-2.198076546E-1,1.388069056E-2
1.221738345E1,-6.765332539E-3,4.408614337E-2,-1.681571454E-1
1.226937704E1,-8.190175891E-2,2.682736814E-1,-4.351052642E-1
1.232137024E1,-1.478752047E-1,2.853779197E-1,-6.922795177E-1
1.237336360E1,-2.608852983E-1,3.122559786E-1,-9.237974882E-1
1.242535682E1,-3.445738256E-1,4.008314610E-1,-1.088731050E0
1.247735022E1,-4.887380004E-1,5.620998740E-1,-1.263438463E0
1.252934361E1,-5.626527071E-1,7.197031379E-1,-1.345905423E0
1.258133703E1,-4.783532917E-1,5.743172169E-1,-1.264049411E0
1.263333125E1,-2.834872603E-1,1.363268048E-1,-9.622820020E-1
1.268532444E1,-1.545947194E-1,-7.991950214E-2,-5.817129612E-1
1.273731780E1,-4.158465192E-2,1.094487235E-1,-2.164155096E-1
1.278931129E1,4.576907679E-2,4.863525629E-1,3.159578145E-2
1.284130688E1,1.373988688E-1,6.250189543E-1,1.946968138E-1
1.289330191E1,2.491872162E-1,1.060565948E0,2.056923807E-1
1.294529527E1,1.673312634E-1,1.441745877E0,2.142444849E-1
1.299728849E1,8.852964640E-2,1.171743393E0,1.464384496E-1
1.304928185E1,5.859724805E-2,2.933191657E-1,4.870000854E-2
1.310127528E1,1.679421216E-1,3.983879983E-1,1.103973985E-1
1.315326867E1,2.601827681E-1,1.760006547E0,4.133865535E-1
1.320526236E1,6.792363524E-1,2.949361324E0,7.854034901E-1
1.325725621E1,9.608452320E-1,3.206535339E0,9.845455885E-1
1.330924954E1,1.193584800E0,2.543746710E0,1.227059126E0
1.336124283E1,1.357907534E0,1.941433549E0,1.450024843E0
1.341323636E1,1.428767920E0,1.233440757E0,1.639393091E0
1.346522962E1,1.359740257E0,6.384580135E-1,1.495228887E0
1.351722291E1,1.266277790E0,4.130487740E-1,1.318688869E0
1.356921640E1,1.123946309E0,8.834149837E-1,1.347399592E0
1.362121026E1,9.357997179E-1,6.781642437E-1,1.430477142E0
1.367320391E1,7.299381495E-1,5.541586280E-1,1.413372874E0
1.372519727E1,4.794833958E-1,4.955155551E-1,1.347399592E0
1.377719063E1,1.838246286E-1,4.408614337E-2,1.040745139E0
1.382918393E1,1.156062540E-2,-4.531581700E-1,6.424610019E-1
1.388118038E1,-1.326035708E-1,-4.360539317E-1,3.388609886E-1
1.393317884E1,-2.260659486E-1,1.082269996E-1,3.284762800E-1
1.398517396E1,1.703855842E-1,6.121907830E-1,3.022090793E-1
1.403716736E1,1.031904146E-1,5.309457183E-1,2.869374752E-1
1.408916065E1,5.248859897E-2,2.255131155E-1,-8.324687928E-2
1.414115394E1,-6.052147225E-2,5.120089054E-1,1.122299954E-1
1.419314740E1,-2.847090065E-1,4.197682738E-1,6.479588151E-1
1.424514059E1,-8.479267359E-1,2.114632279E-1,1.454300880E0
1.429713399E1,-9.316152930E-1,-7.738624215E-1,1.315023661E0
1.434912784E1,-1.163744092E0,-9.986608028E-1,9.228482246E-1
1.440112166E1,-1.920606256E0,3.858835623E-2,5.575507879E-1
1.445311495E1,-2.233979940E0,3.922793269E-1,-3.660774827E-1
1.450510828E1,-3.144169092E0,-1.984273493E-1,-1.248166919E0
1.455710167E1,-3.698834896E0,-3.499219418E-1,-1.544436574E0
1.460909496E1,-3.571164131E0,7.279681414E-2,-1.502897739E0
1.466108833E1,-3.014665842E0,1.796982288E-1,-8.181177974E-1
1.471308182E1,-1.252319574E0,-1.208798409E0,7.970099449E-1
1.476507610E1,3.518125713E-1,-2.231386900E0,2.473224163E0
1.481706939E1,1.574153900E0,-3.799478054E0,3.816516876E0
1.486906272E1,2.906450987E0,-3.812306166E0,3.708393812E0
1.492105601E1,2.618122578E0,-2.207563162E0,4.195253372E0
1.497305123E1,2.952876806E0,-5.501348495E0,3.718167543E0
1.502504663E1,3.466614485E0,-4.834894657E0,2.520260811E0
1.507704015E1,2.533823252E0,-2.873406172E0,2.095709562E0
1.512903335E1,1.342635989E0,-1.544163465E0,1.735909820E0
1.518102664E1,2.259743214E-1,-1.982764721E0,1.434753299E0
1.523302003E1,-6.713867188E-1,-1.494072556E0,4.463732839E-1
1.528501336E1,-1.426416159E0,-1.133661985E0,-2.799454927E-1
1.533700672E1,-1.470398426E0,-2.395098925E0,-5.536131263E-1
1.538900090E1,-2.906542778E0,-1.242396116E0,-3.687962532E0
1.544099429E1,-3.702500105E0,3.291445732E0,-5.424652576E0
1.549298772E1,7.753407210E-2,9.123375893E0,-1.899349213E0
1.554498104E1,2.899731398E0,1.527877808E0,3.746878147E0
1.559697430E1,1.488632798E0,5.932540298E-1,9.582783580E-1
1.564896776E1,2.705674767E-1,1.340952992E0,8.135033250E-1
1.570096106E1,6.309779882E-1,-9.149723053E-1,1.153144360E0
1.575295478E1,1.026207805E0,-2.221002102E0,1.448192239E0
1.580494873E1,8.698263168E-1,-2.240549803E0,1.326630116E0
1.585694202E1,5.637827516E-1,-1.506900787E0,9.747717381E-1
1.590893542E1,2.155896127E-1,-6.272547841E-1,2.026380450E-1
1.596092871E1,-1.161102131E-1,-2.540161014E-1,-1.027945727E-1
1.601292413E1,-2.358397990E-1,-9.946718812E-2,-5.481153727E-1
1.606492282E1,-4.319275618E-1,1.564853489E-1,-7.234336734E-1
1.611691944E1,-6.048024297E-1,4.026640356E-1,-8.321676850E-1
1.616891307E1,-8.021118641E-1,7.496355176E-1,-7.148815393E-1
1.622090663E1,-6.414543390E-1,1.047737837E0,-5.719391108E-1
1.627289969E1,-4.337601364E-1,9.542753100E-1,-5.865998268E-1
1.632489305E1,-4.068820775E-1,1.163191319E0,-4.546529651E-1
1.637688637E1,-6.524499059E-1,1.584688187E0,-2.194698304E-1
1.642888020E1,-1.072114348E0,4.881851673E-1,-5.181829333E-1
1.648087405E1,-1.825311184E0,4.112161696E-1,-6.916686296E-1
1.653286737E1,-3.264509678E0,2.080710888E0,-9.537298679E-1
1.658486077E1,-4.135603428E0,3.933465004E0,-1.590862274E0
1.663685413E1,-3.792297363E0,5.246825218E0,-1.909734011E0
1.668884739E1,-2.345157385E0,3.606041431E0,-1.990978956E0
1.674084084E1,-1.235826135E0,5.798149705E-1,-2.088106632E0
1.679283420E1,-6.231283545E-1,-1.320586801E0,-2.077721834E0
1.684482806E1,-1.238269687E0,-1.664503932E0,-1.512671471E0
1.689682198E1,-1.833252430E0,-1.254002452E0,-1.386833429E0
1.694881507E1,-1.734292269E0,-1.217961431E0,-1.380724669E0
1.700080840E1,-1.825922012E0,-1.108616590E0,-1.450363278E0
1.705280193E1,-1.736735702E0,-1.516063690E0,-1.408824444E0
1.710479735E1,-1.595015049E0,-1.448257685E0,-1.424706936E0
1.715679597E1,-1.405035853E0,-2.625682056E-1,-1.370950818E0
1.720879176E1,-1.463068128E0,9.719904661E-1,-1.412489653E0
1.726078512E1,-1.584019423E0,1.827812672E0,-1.628125072E0
1.731277848E1,-1.394040227E0,2.239535809E0,-1.786950111E0
1.736477181E1,-8.412072659E-1,1.420976400E0,-1.808330297E0
1.741676510E1,-4.997335672E-1,1.735895723E-1,-1.413711429E0
1.746875846E1,-2.761569023E-1,-1.446712166E-1,-6.415777206E-1
1.752075175E1,9.219484031E-2,9.539882839E-2,9.756922722E-2
1.757274610E1,1.496161669E-1,4.979590178E-1,5.245640278E-1
1.762473946E1,2.369698882E-1,4.912394881E-1,4.628666341E-1
1.767673289E1,3.457039297E-1,4.588636458E-1,4.146082997E-1
1.772872618E1,2.510198057E-1,5.993626714E-1,3.999475539E-1
1.778071954E1,1.990962476E-1,5.223936439E-1,3.981149197E-1
1.783269823E1,1.832137555E-1,3.018712699E-1,4.488167465E-1
1.788469156E1,1.813811660E-1,3.158173291E-3,4.365994334E-1
1.793668491E1,3.904956207E-2,-7.442171127E-2,4.054453075E-1
1.798867913E1,-3.425426781E-2,-2.521834970E-1,2.631137073E-1
1.804067252E1,-1.252731979E-1,-4.036780596E-1,6.458250433E-2
1.809266585E1,-1.619251072E-1,-2.637899518E-1,-1.712114662E-1
1.814465928E1,-1.808619201E-1,-3.043941408E-2,-3.459189534E-1
1.819665357E1,-1.307709813E-1,2.698191814E-2,-3.459189534E-1
1.824864976E1,-8.006916195E-2,-8.969334513E-2,-3.263712525E-1
1.830064325E1,-1.081689596E-1,-4.265671968E-2,-2.658956051E-1
1.835263654E1,-1.607033759E-1,-7.075652480E-2,-2.701716721E-1
1.840462990E1,-1.796402037E-1,-2.925006151E-1,-2.677281797E-1
1.845662319E1,-1.289383918E-1,-5.063034296E-1,-2.109177262E-1
1.850861659E1,-6.235406920E-2,-4.220040143E-1,-6.797525287E-2
1.856060994E1,-3.100140952E-3,-2.198076546E-1,5.236519873E-2
1.861260393E1,6.531676650E-2,-3.105027974E-2,1.525471061E-1
1.866459755E1,9.952522069E-2,-4.387845099E-2,2.625028491E-1
1.871659091E1,1.557248235E-1,-1.617754400E-1,3.034308255E-1
1.876858424E1,1.600008905E-1,-1.904861182E-1,3.003765047E-1
1.882057760E1,1.654986739E-1,-1.153496876E-1,2.588376403E-1
1.887257086E1,1.612226069E-1,-3.532633558E-2,2.166879624E-1
1.892456428E1,1.392314583E-1,3.158173291E-3,1.610992104E-1
1.897655794E1,7.386887819E-2,-7.837400772E-3,8.779538423E-2
1.902855196E1,-1.226312015E-2,-9.396939725E-2,3.281751275E-2
1.908054525E1,-1.356578916E-1,1.992459148E-1,8.168672770E-2
1.913253861E1,-1.344361752E-1,4.704701006E-1,1.183386445E-1
1.918453194E1,-8.556694537E-2,8.045095019E-3,1.482710391E-1
1.923652632E1,-1.191645339E-1,-1.648297757E-1,2.796070874E-1
1.928852515E1,-1.686446220E-1,-2.735637724E-1,4.359885752E-1
1.934052180E1,-1.570381820E-1,-6.651284099E-1,4.873012602E-1
1.939251526E1,-7.212791592E-2,-1.050584316E0,4.885229766E-1
1.944450866E1,1.278235577E-2,-1.020651937E0,4.964642227E-1
1.949650192E1,6.226243824E-2,-7.787493467E-1,5.654920340E-1
1.954849521E1,1.826028973E-1,-6.492459178E-1,6.375740767E-1
1.960048864E1,1.294576079E-1,-2.295814753E-1,7.475298643E-1
1.965248199E1,2.259743214E-1,-4.397191107E-1,1.024251819E0
1.970447545E1,3.114954531E-1,-4.953078628E-1,1.125044584E0
1.975646967E1,3.854101598E-1,-4.293344021E-1,1.285091281E0
1.980846300E1,4.135099351E-1,-1.892643720E-1,1.348010421E0
1.986045622E1,3.847992718E-1,-1.263452619E-1,1.424979329E0
1.991244968E1,3.206584454E-1,-2.124772668E-1,1.373666763E0
1.996444294E1,2.082592249E-1,-2.821159065E-1,1.204457045E0
2.001643630E1,1.245706975E-1,-3.560305834E-1,1.057849407E0
2.006842973E1,1.215163693E-1,-3.114374280E-1,9.222372770E-1
2.012042335E1,1.312902123E-1,-2.130881250E-1,8.458791375E-1
2.017241730E1,7.692319900E-2,1.659720764E-2,7.298147678E-1
2.022441076E1,-2.325869352E-2,9.051190317E-2,5.716006756E-1
2.027640395E1,-1.100015566E-1,-1.306213289E-1,4.268255830E-1
2.032839798E1,-5.196936056E-2,-4.281127155E-1,4.372102916E-1
2.038039423E1,5.493205786E-2,-4.158953726E-1,5.251749158E-1
2.043238799E1,2.076483667E-1,-3.780217171E-1,6.705608368E-1
2.048438132E1,2.491872162E-1,-3.804652095E-1,6.827781200E-1
2.053637465E1,2.467437387E-1,-4.556016326E-1,5.722115636E-1
2.058836804E1,1.508379132E-1,-6.278656125E-1,4.732513428E-1
2.064036126E1,2.622138895E-2,-5.313489437E-1,3.645173311E-1
2.069235472E1,-6.296493858E-2,-4.006237388E-1,3.858976066E-1
2.074434835E1,-1.124450192E-1,-4.378865361E-1,2.655571699E-1
2.079634230E1,-1.344361752E-1,-5.777746439E-1,8.229760081E-2
2.084833573E1,-1.472643465E-1,-3.835195303E-1,1.262799054E-1
2.090032908E1,-7.396051288E-2,-1.507798582E-1,2.796070874E-1
2.095232231E1,-3.238043785E-1,-1.910969764E-1,4.439298213E-1
2.100431587E1,-1.936900914E-1,-1.333415031E0,1.598774940E-1
2.105630910E1,-7.762569934E-2,-5.692225099E-1,-2.762803137E-1
2.110830242E1,-5.013676360E-2,1.138145804E0,-2.982714474E-1
2.116029651E1,-7.884743810E-2,2.835129499E0,-1.913700253E-1
2.121229006E1,-1.326035708E-1,2.516868591E0,3.590195477E-1
2.126428342E1,-2.682156563E-1,1.705028653E0,1.326630116E0
2.131627668E1,6.609104276E-1,7.966721058E-1,1.224615574E0
2.136827057E1,9.938319325E-1,5.132306814E-1,9.039113522E-1
2.142026906E1,7.158882618E-1,-8.355597854E-1,-4.720583186E-2
2.147226649E1,3.499799669E-1,-7.518712878E-1,-1.854145288E0
2.152426108E1,6.409504265E-2,7.123727202E-1,-3.369091034E0
2.157625447E1,5.668371320E-1,1.880957842E0,-3.560902834E0
2.162824770E1,1.842934608E0,1.220001698E0,-2.056952477E0
2.168024109E1,3.129416704E0,-4.238366485E-1,3.504674435E-1
2.173223438E1,3.890554905E0,-7.573691010E-1,2.622886181E0
2.178422778E1,4.371916294E0,-2.270482063E0,3.693732977E0
2.183622196E1,4.450718403E0,-3.315061808E0,3.975952625E0
2.188821542E1,3.976686954E0,-4.701115131E0,2.977798939E0
2.194020871E1,3.022515297E0,-2.800102472E0,2.099985600E0
2.199220217E1,1.900966763E0,-2.377994537E0,1.760955334E0
2.204419550E1,1.577819109E0,-2.717635632E0,1.143981457E0
2.209618869E1,6.395300627E-1,-1.570430636E0,1.142759681E0
2.214818208E1,-1.961335540E-1,-1.236287355E0,7.811274529E-1
2.220017587E1,-5.272225142E-1,-1.195359468E0,5.361704826E-1
2.225216976E1,-7.196450830E-1,-2.170300245E0,-1.125684157E-1
2.230416315E1,-8.674744964E-1,-2.342564344E0,-5.560565591E-1
2.235615648E1,-2.417239428E0,-1.207576752E0,-3.044110775E0
2.240814971E1,-3.087358713E0,3.489977121E0,-5.499789238E0
2.246014356E1,-9.957561493E-1,1.126079369E1,-9.240985662E-2
2.251214202E1,2.431197643E0,-2.128150702E0,3.017505169E0
2.256413917E1,1.888138652E0,-2.713970423E0,5.263966322E-1
2.261613306E1,6.554126143E-1,2.515646935E0,9.967628717E-1
2.266812656E1,2.180330753E-1,1.975031137E0,8.840624988E-2
2.272011975E1,3.261562288E-1,-9.137505293E-1,4.121648371E-1
2.277211314E1,-4.722446501E-1,3.782294393E-1,1.452167183E-1
2.282410647E1,-1.167210788E-1,-5.246294141E-1,-8.752293885E-2
2.287609976E1,-8.617781103E-2,2.908757031E-1,-3.315593302E-2
2.292809362E1,-1.014494449E-1,1.085000515E0,-3.172082901E-1
2.298008744E1,-4.001625478E-1,4.399268329E-1,-2.023656070E-1
2.303208076E1,-4.905706048E-1,-1.666623652E-1,-1.351704299E-1
2.308407422E1,-4.154341817E-1,-1.654406339E-1,-1.400573552E-1
2.313606758E1,-3.555693924E-1,-5.649465322E-1,-2.231350243E-1
2.318806081E1,-3.030349612E-1,-6.620740891E-1,-3.049909770E-1
2.324005417E1,-4.820185006E-1,-1.348973662E-1,-1.913700253E-1
2.329204766E1,-2.211790383E-1,-3.157134652E-1,-2.707825005E-1
2.334404125E1,-2.676047981E-1,-2.005470730E-2,-2.035873383E-1
2.339603514E1,-3.317456245E-1,4.118270278E-1,-5.636881292E-2
2.344802843E1,-1.091051102E0,1.054457307E0,-1.205096692E-1
2.350002182E1,-2.319501162E0,6.341819167E-1,3.327523470E-1
2.355201534E1,-3.678065538E0,1.448465347E0,6.580423564E-2
2.360401160E1,-4.274270058E0,2.389808655E0,-5.548348427E-1
2.365600579E1,-3.724491119E0,2.937754869E0,-1.560929894E0
2.370799915E1,-2.505815029E0,3.121625185E0,-2.607342005E0
2.375999255E1,-1.336619020E0,8.562498540E-2,-3.742329597E0
2.381198584E1,-1.623725533E0,-2.079892397E0,-3.851674557E0
2.386397920E1,-2.266355991E0,-6.449698210E-1,-3.064880133E0
2.391597256E1,-2.337827206E0,2.102701902E0,-2.003807306E0
2.396796648E1,-2.108752728E0,1.491836786E0,-1.475408792E0
2.401996020E1,-1.568747759E0,-1.310812950E0,-1.934779406E0
2.407195376E1,-1.025077581E0,-2.982140303E0,-1.712424397E0
2.412394688E1,-9.175654054E-1,-7.445408702E-1,-1.345905423E0
2.417594024E1,-7.740120888E-1,1.565751433E0,-1.006264329E0
2.422793367E1,-4.655251503E-1,3.143005610E0,-5.646086931E-1
2.427992689E1,-1.662011594E-1,2.541913986E0,-2.365740687E-1
2.433192015E1,-4.830417037E-2,8.204958439E-1,1.183386445E-1
2.438391434E1,-3.547599912E-2,-4.470494986E-1,3.895628154E-1
2.443590800E1,4.943427071E-2,-8.312837481E-1,5.850396752E-1
2.448790116E1,7.875579596E-2,-4.091758728E-1,7.664666772E-1
2.453989461E1,1.245706975E-1,-1.532233208E-1,7.835709453E-1
2.459188804E1,2.015397251E-1,-4.733166993E-1,6.827781200E-1
2.464388566E1,2.052049041E-1,-5.716660023E-1,4.982968569E-1
2.469588345E1,1.294576079E-1,-3.780217171E-1,1.727056652E-1
2.474787784E1,3.477350250E-2,1.155573800E-1,-1.718223393E-1
2.479987117E1,-8.617781103E-2,5.443847775E-1,-4.522095025E-1
2.485186456E1,-1.350470334E-1,6.842729449E-1,-6.470754743E-1
2.490385808E1,-1.393230855E-1,5.932540298E-1,-6.935012937E-1
2.495585128E1,-1.307709813E-1,4.380942285E-1,-6.018714309E-1
2.500784464E1,-1.429882795E-1,2.029111087E-1,-4.748114944E-1
2.505983790E1,-1.289383918E-1,-1.516778395E-2,-3.086561561E-1
2.511177520E1,-1.124450192E-1,-6.159354374E-2,-1.614376307E-1
2.516376882E1,-7.701484114E-2,8.655959740E-3,-1.421911083E-2
2.521576195E1,-4.219551757E-2,3.247970715E-2,1.061213464E-1
2.526775528E1,-1.043052413E-2,-3.349373862E-2,2.099684328E-1
2.531974863E1,4.149302468E-2,-1.556667984E-1,2.832722664E-1
2.537174196E1,9.097310901E-2,-1.782688051E-1,3.639064729E-1
2.542373529E1,1.245706975E-1,-3.022744358E-1,4.011692405E-1
2.547572864E1,1.496161669E-1,-4.580450654E-1,3.577978313E-1
2.552772283E1,1.679421216E-1,-4.782036543E-1,2.673897743E-1
2.557971622E1,1.490053087E-1,-2.619573474E-1,1.519362330E-1
2.563170961E1,1.086882055E-1,6.485556066E-2,-3.834401025E-3
2.568370307E1,4.576907679E-2,3.678447306E-1,-1.327269673E-1
2.573569890E1,-1.165225450E-2,4.442028701E-1,-2.103068531E-1
2.578769369E1,-6.601926684E-2,3.989988267E-1,-2.744476795E-1
2.583968698E1,-7.823656499E-2,3.043147326E-1,-2.939953804E-1
2.589168027E1,-8.251262456E-2,4.515332580E-1,-2.756694257E-1
2.594367370E1,-3.669773042E-2,6.512861848E-1,-2.506239712E-1
2.599566699E1,3.660609946E-2,8.699759245E-1,-2.158046365E-1
2.604766032E1,9.647089243E-2,9.695469737E-1,-1.663245559E-1
2.609965374E1,1.557248235E-1,8.718085289E-1,-1.113466844E-1
2.615164779E1,2.223091274E-1,9.451123476E-1,-3.621025756E-2
2.620364132E1,3.090519905E-1,1.282309890E0,-2.582555078E-2
2.625563471E1,3.255453408E-1,1.353781223E0,-1.788430288E-2
2.630762804E1,4.868137836E-1,1.416089535E0,1.693501696E-2
2.635962136E1,6.541908383E-1,1.936546683E0,2.582267821E-1
2.641161472E1,8.062963486E-1,2.205327511E0,3.932279944E-1
2.646360795E1,9.693973660E-1,2.054443598E0,5.086815357E-1
2.651560151E1,1.032927394E0,2.133245468E0,7.029367089E-1
2.656759566E1,1.124557137E0,1.690367937E0,8.342726827E-1
2.661958908E1,1.107452869E0,1.422809005E0,9.436176419E-1
2.667158238E1,1.037814260E0,9.683252573E-1,1.024251819E0
2.672357570E1,1.043311954E0,7.820113301E-1,1.056016803E0
2.677557246E1,8.954825997E-1,9.390037060E-1,1.106107831E0
2.682757072E1,7.794182301E-1,7.734592557E-1,1.038912654E0
2.687956681E1,6.315888762E-1,6.347928643E-1,8.416031003E-1
2.693156013E1,4.293924570E-1,3.250841796E-1,7.078236341E-1
2.698355332E1,3.395952880E-1,-5.070181214E-4,4.634775221E-1
2.703554675E1,1.722181886E-1,1.815308183E-1,4.317125380E-1
2.708754034E1,1.233489588E-1,1.283855438E-1,3.535217643E-1
2.713953340E1,1.777159721E-1,7.462941110E-2,4.683644474E-1
2.719152759E1,2.168113440E-1,3.641795218E-1,5.984787345E-1
2.724352101E1,2.345264405E-1,2.743823528E-1,6.241350770E-1
2.729551440E1,1.917658746E-1,2.352869660E-1,6.552891731E-1
2.734750773E1,2.797304690E-1,-1.788796633E-1,5.172336698E-1
2.739950109E1,3.970166147E-1,-1.422277540E-1,6.143612266E-1
2.745149435E1,4.183968902E-1,-7.384322286E-1,5.880939960E-1
2.750348774E1,1.783268452E-1,-7.237715125E-1,4.622557759E-1
2.755548110E1,-6.846272200E-2,-2.799595520E-2,3.724585772E-1
2.760747512E1,-3.085327744E-1,5.553803444E-1,2.582267821E-1
2.765946868E1,-1.955226958E-1,3.537948430E-1,8.229760081E-2
2.771146207E1,-3.390760124E-1,8.321022987E-1,7.374548167E-2
2.776345540E1,-5.150051713E-1,5.217827559E-1,2.686115205E-1
2.781544876E1,-1.209558964E0,-1.654406339E-1,1.192850590E0
2.786744548E1,-1.000032187E0,-6.846761107E-1,8.739789724E-1
2.791944406E1,-2.250473499E0,-1.456198812E0,1.800360382E-1
2.797143869E1,-3.026883125E0,3.544057012E-1,-2.103068531E-1
2.802343218E1,-3.642635345E0,-3.288287669E-2,-1.028866291E0
2.807542541E1,-3.836279631E0,-1.367299706E-1,-1.583531976E0
2.812741887E1,-3.621254921E0,-3.163243532E-1,-9.543406963E-1
2.817941213E1,-2.618825197E0,-4.165062606E-1,-2.439044565E-1
2.823140539E1,-1.221165419E0,-2.200232744E0,1.206900477E0
2.828339898E1,7.020369172E-2,-2.503221989E0,2.359603167E0
2.833539309E1,1.214354277E0,-3.385311365E0,2.922821045E0
2.838738642E1,2.116602182E0,-2.920442820E0,3.538573265E0
2.843937978E1,2.798327923E0,-3.285129309E0,3.814073563E0
2.849137314E1,3.210051060E0,-3.379813433E0,4.063917160E0
2.854336650E1,3.432405949E0,-3.815360546E0,3.543459892E0
2.859535972E1,3.244259596E0,-4.613761425E0,2.041342497E0
2.864735335E1,2.070787430E0,-2.227110863E0,1.967427731E0
2.869934684E1,1.235123634E0,-1.728644729E0,1.373666763E0
2.875134076E1,2.614045143E-1,-1.747581720E0,7.444755435E-1
2.880333418E1,-6.860474944E-1,-2.640055656E0,-3.947881460E-1
2.885532764E1,-1.792324424E0,-2.705418110E0,-2.238990307E0
2.890732074E1,-4.208907127E0,1.487560630E0,-4.842497826E0
2.895931606E1,-3.440438986E0,3.012280226E0,-2.230438232E0
2.901131145E1,1.251617074E0,5.210173130E0,2.618610144E0
2.906330484E1,2.374998331E0,-2.395098925E0,1.176968098E0
2.911529817E1,7.397119999E-1,1.935935736E0,1.196515799E0
2.916729143E1,4.886463881E-1,7.630745173E-1,5.997004509E-1
2.921928485E1,4.074012935E-1,-1.065245152E0,8.776441813E-1
2.927127835E1,4.862029254E-1,-1.608304262E0,8.806985021E-1
2.932327157E1,7.317707539E-1,-1.260722041E0,6.742259860E-1
2.937526586E1,4.538270533E-1,7.218594104E-2,3.749020398E-1
2.942725932E1,2.803413272E-1,2.383412868E-1,-3.559939563E-2
2.947925281E1,2.497980595E-1,3.330253959E-1,-1.076814979E-1
2.953124590E1,6.042984501E-2,1.784764975E-1,-4.564855397E-1
2.958323929E1,-1.851379871E-1,6.182994843E-1,-3.508058488E-1
2.963523255E1,-2.413375825E-1,4.472571909E-1,-4.247205555E-1
2.968722581E1,-2.816546857E-1,1.778656244E-1,-4.253314137E-1
2.973921947E1,-2.205681652E-1,-3.334285915E-1,-4.314400554E-1
2.979121352E1,-1.613142341E-1,2.026239969E-2,-3.556927741E-1
2.984320678E1,-1.784184724E-1,2.163501382E-1,-2.909410596E-1
2.989520030E1,4.027128965E-2,-7.442171127E-2,-1.779309958E-1
2.994719356E1,-1.796402037E-1,1.131139174E-1,-1.168444753E-1
2.999918912E1,-2.804329395E-1,-1.516778395E-2,1.079539433E-1
3.005118804E1,-4.209319651E-1,-4.323887229E-1,1.446058452E-1
3.010318370E1,-6.475629807E-1,-6.217569709E-1,3.797889650E-1
3.015517699E1,-9.432217479E-1,-8.997007012E-1,5.435008407E-1
3.020717032E1,-1.363497019E0,-1.171535611E0,8.635942340E-1
3.025916351E1,-1.579132438E0,-1.345021367E0,9.124634266E-1
3.031115680E1,-2.076987505E0,-3.499219418E-1,9.564457536E-1
3.036315039E1,-2.655477047E0,1.867518902E0,6.400175691E-1
3.041514355E1,-3.670124292E0,4.076407909E0,-2.460381947E-2
3.046713738E1,-3.821007729E0,4.951166630E0,-1.320249081E0
3.051913120E1,-2.896768808E0,3.553507090E0,-2.295800686E0
3.057112459E1,-2.249862432E0,-1.651675820E0,-3.791809797E0
3.062311788E1,-2.958466291E0,-3.194721460E0,-3.479046822E0
3.067511121E1,-3.558336020E0,5.358326435E-1,-2.034961224E0
3.072710457E1,-3.503357887E0,3.877265692E0,-1.020314097E0
3.077909793E1,-2.840569019E0,3.008004427E0,-1.156537056E0
3.083109139E1,-2.045222759E0,-6.953479350E-2,-1.835819244E0
3.088308550E1,-1.716577172E0,-1.524615884E0,-1.989146471E0
3.093507900E1,-1.584630251E0,-1.135170907E-1,-1.680048585E0
3.098707219E1,-1.071503401E0,8.278262615E-1,-1.368507266E0
3.103906568E1,-4.710229039E-1,1.176019430E0,-7.832984328E-1
3.109106024E1,-1.148884818E-1,8.492065668E-1,-1.834287941E-1
3.114305630E1,7.570147514E-2,4.362616241E-1,1.995837241E-1
3.119504966E1,1.667204052E-1,1.308290064E-1,3.840650320E-1
3.124704292E1,2.351372987E-1,8.379238844E-2,5.068489313E-1
3.129903634E1,2.632370889E-1,7.951632887E-2,5.880939960E-1
3.135102990E1,2.919477820E-1,6.974248588E-2,6.772803068E-1
3.140302309E1,2.711783350E-1,-2.950479044E-3,7.456972599E-1
3.145501632E1,2.681240141E-1,-2.760072351E-1,7.047693133E-1
3.150701044E1,2.198656797E-1,-4.055106938E-1,5.844288468E-1
3.155900400E1,1.184620410E-1,-4.116193354E-1,3.852867782E-1
3.161099735E1,3.416264057E-2,-2.943331897E-1,1.739273816E-1
3.166299061E1,-5.074762926E-2,-1.098518968E-1,-5.148189142E-2
3.171498424E1,-1.497077942E-1,5.385999009E-2,-2.671173215E-1
3.176697726E1,-2.388941199E-1,1.357159317E-1,-4.619833231E-1
3.181897069E1,-3.225826621E-1,3.919922188E-2,-6.324147582E-1
3.187096412E1,-3.549585342E-1,-9.335853904E-2,-6.880034804E-1
3.192295830E1,-3.506824672E-1,-1.874317825E-1,-6.232517958E-1
3.197495183E1,-3.024241030E-1,-1.028086152E-2,-4.106706679E-1
3.202694495E1,-2.083508670E-1,4.411485493E-1,-1.351704299E-1
3.207893828E1,-1.307709813E-1,4.295421243E-1,7.741067559E-2
3.213093317E1,-1.002277136E-1,5.162850022E-1,3.461913764E-1
3.218293176E1,-5.563455075E-2,8.134892583E-2,4.854686558E-1
3.223492875E1,4.882340506E-2,-5.240185261E-1,6.607869864E-1
3.228692281E1,1.832137555E-1,-9.290221930E-1,8.031185865E-1
3.233891607E1,3.689167798E-1,-7.127758861E-1,9.191829562E-1
3.239090940E1,4.293924570E-1,-2.931114733E-1,1.045021296E0
3.244095470E1,5.008636713E-1,-8.297382295E-2,1.142759681E0
3.249294813E1,4.831486046E-1,-3.227201104E-2,1.178189874E0
3.254494165E1,6.639647484E-1,1.448789090E-1,1.333960414E0
3.259693574E1,6.609104276E-1,5.535477400E-1,1.465296507E0
3.264892917E1,5.393481851E-1,7.374182343E-1,1.626564980E0
3.270092239E1,6.267018914E-1,-9.059132077E-3,1.441472769E0
3.275291578E1,4.843703210E-1,-3.175460696E-1,1.487287760E0
3.280490928E1,4.587139785E-1,-5.496748686E-1,1.423757672E0
3.285690240E1,3.585320711E-1,-4.397191107E-1,1.484233260E0
3.290889580E1,2.913369238E-1,-2.717311978E-1,1.406653404E0
3.296088945E1,2.601827681E-1,-5.853921548E-2,1.321743131E0
3.301288347E1,5.187772959E-2,-5.670661852E-2,1.073731899E0
3.306487676E1,-1.038929075E-1,-1.904861182E-1,8.635942340E-1
3.311687016E1,-2.120160460E-1,-3.755782843E-1,5.196771026E-1
3.316886348E1,-1.271057874E-1,-1.721601635E-1,3.944497406E-1
3.322085790E1,-5.441282317E-2,-1.709384173E-1,2.771635950E-1
3.327285673E1,2.133446932E-2,1.454897821E-1,1.586557478E-1
3.332485325E1,1.416749209E-1,2.884322405E-1,2.185205519E-1
3.337684678E1,1.502270401E-1,4.044966400E-1,2.649463117E-1
3.342884014E1,-1.503186673E-1,9.121256471E-1,9.023884684E-2
3.348083350E1,-1.484860629E-1,1.102715611E0,4.567579925E-1
3.353282679E1,7.386887819E-2,1.450297952E0,9.271242023E-1
3.358482015E1,1.630552113E-1,6.958793402E-1,5.227314234E-1
3.363681387E1,1.441183835E-1,-9.363526106E-1,-4.442682564E-1
3.368880753E1,2.278069109E-1,-3.969585598E-1,-1.303755641E0
3.374080132E1,6.951188445E-1,8.809715509E-1,-1.728307009E0
3.379279451E1,-2.718808651E-1,8.595912457E-1,-1.052079082E0
3.384478784E1,1.899332702E-1,-3.476941109E0,-7.515334487E-1
3.389678126E1,2.998889983E-1,1.458850145E0,3.443588018E-1
3.394877449E1,7.922464013E-1,1.232115179E-2,-7.356509566E-1
3.400076781E1,3.255453408E-1,5.486608148E-1,-7.032750845E-1
3.405276127E1,6.804580688E-1,1.479008555E0,-1.021535873E0
3.410475539E1,8.710480332E-1,3.238624334E-1,-4.974135160E-1
3.415674885E1,1.018877387E0,2.578889728E-1,3.461913764E-1
3.420874234E1,9.345780015E-1,5.080566555E-2,9.906542301E-1
3.426073547E1,1.361572862E0,-9.021440744E-1,1.125044584E0
3.431272946E1,1.392116070E0,-1.037756205E0,1.098777294E0
3.436472581E1,1.533836842E0,-6.296982169E-1,1.101831675E0
3.441671954E1,1.081796527E0,-1.520016044E-1,1.699868798E0
3.446871290E1,1.559493184E0,-2.223445654E0,2.171456814E0
3.452070623E1,2.084837198E0,-2.772002697E0,2.931373119E0
3.457269959E1,2.571696758E0,-2.746957302E0,3.327213764E0
3.462469285E1,2.839255810E0,-3.168454170E0,2.840354204E0
3.467668627E1,2.800160408E0,-3.924705267E0,2.159850359E0
3.472868023E1,2.358504772E0,-3.035896540E0,1.519663572E0
3.478067391E1,1.083629131E0,-1.533778787E0,1.544708967E0
3.483266727E1,1.697747260E-1,-1.910071731E0,1.192239761E0
3.488466060E1,-4.154341817E-1,-1.878306746E0,6.687282324E-1
3.493665386E1,-1.162522316E0,-2.370664120E0,-3.025475144E-1
3.498864735E1,-2.377533436E0,-2.164191723E0,-2.804040670E0
3.504064058E1,-3.489918947E0,2.664697886E0,-4.900530338E0
3.509263390E1,-3.160051823E0,2.592616081E0,7.762405276E-1
3.514462806E1,2.310857534E0,-2.637899518E-1,2.546528101E0
3.519662158E1,1.851486683E0,-8.355597854E-1,1.702621877E-1
3.524861490E1,-2.132377923E-1,3.725770950E0,-4.292977601E-2
3.530060840E1,4.006817937E-1,2.759278379E-2,-1.864831150E-1
3.535260225E1,4.739856124E-1,-5.124121308E-1,6.339089274E-1
3.540460067E1,4.831486046E-1,-1.663893104E0,8.538203835E-1
3.545659776E1,7.000057101E-1,-1.958940983E0,9.833238721E-1
3.550859166E1,6.364757419E-1,-1.839211464E0,6.681173444E-1
3.556058495E1,6.883993149E-1,-1.211852789E0,5.813745260E-1
3.561257824E1,4.263381362E-1,-7.506495118E-1,6.467370391E-1
3.566457160E1,3.011107445E-1,-1.176422596E0,4.860795140E-1
3.571656496E1,8.914051205E-2,-1.206354976E0,4.665318429E-1
3.576855826E1,-3.119994141E-2,-6.596305966E-1,5.654920340E-1
3.582055198E1,7.895433344E-3,-5.741094947E-1,5.288400650E-1
3.587254586E1,1.156062540E-2,-6.474133134E-1,2.655571699E-1
3.592453929E1,-1.313818395E-1,-6.403700262E-2,3.144263923E-1
3.597653272E1,-6.237392426E-1,5.095654726E-1,3.468022346E-1
3.602852594E1,-8.778591752E-1,1.344942003E-1,3.565760851E-1
3.608051927E1,-1.739790082E0,1.295138240E0,2.899917960E-1
3.613251269E1,-2.709844112E0,3.281671762E0,-1.174553409E-1
3.618450598E1,-3.940126657E0,4.789898396E0,-8.223938346E-1
3.623649954E1,-4.114223003E0,4.987207413E0,-1.909734011E0
3.628849363E1,-3.429443359E0,3.912695885E0,-2.515712500E0
3.634048695E1,-2.703124523E0,2.160734177E0,-2.337950468E0
3.639248031E1,-2.395859480E0,1.976863742E0,-1.637288094E0
3.644447400E1,-1.910221457E0,1.370274544E0,-1.005653381E0
3.649647019E1,-1.709246874E0,5.691431463E-2,-4.173901677E-1
3.654846429E1,-1.464900613E0,-5.050817132E-1,1.446058452E-1
3.660045765E1,-1.201617837E0,-2.576812804E-1,4.372102916E-1
3.665245104E1,-1.075779557E0,-9.946718812E-2,5.361704826E-1
3.670444436E1,-9.071807265E-1,-7.585907578E-1,6.241350770E-1
3.675643773E1,-6.475629807E-1,-9.736153483E-1,5.337269902E-1
3.680843098E1,-4.270406067E-1,-5.142446756E-1,5.288400650E-1
3.686042458E1,-2.175138444E-1,2.365086973E-1,4.256038368E-1
3.691241866E1,-1.973552853E-1,7.508572340E-1,3.907845318E-1
3.696441202E1,8.506298065E-3,4.771896005E-1,1.519362330E-1
3.701640541E1,6.287330389E-2,1.656483263E-1,1.690404713E-1
3.706839874E1,-1.592831127E-2,-1.330647767E-1,8.962798119E-2
3.712039203E1,-2.242333591E-1,3.629578054E-1,8.351932466E-2
3.717238535E1,-3.213609457E-1,1.034909487E0,6.152817979E-2
3.722437885E1,-1.888031811E-1,1.785663009E0,8.168672770E-2
3.727637240E1,1.905441433E-1,1.469234705E0,1.556014270E-1
3.732836642E1,4.923115969E-1,5.804258585E-1,8.901711553E-2
3.738035992E1,3.334866166E-1,-4.815450683E-2,2.771635950E-1
3.743235304E1,4.257272780E-1,-1.146490216E0,3.242002130E-1
3.748434653E1,6.114302874E-1,-1.206354976E0,3.339740932E-1
3.753634439E1,7.445989251E-1,-3.768000305E-1,3.474131227E-1
3.758834225E1,7.409337163E-1,-1.761124469E-2,4.103322327E-1
3.764033754E1,5.033071637E-1,2.548346519E-1,1.641535312E-1
3.769233070E1,1.648878008E-1,7.117618322E-1,-1.360824518E-2
3.774432406E1,-9.961685538E-2,3.513513505E-1,-2.768911719E-1
3.779631735E1,-1.955226958E-1,-5.716660023E-1,-6.794513464E-1
3.784831091E1,-3.402977586E-1,5.639324784E-1,-5.847672820E-1
3.790030427E1,-4.771315753E-1,5.083436966E-1,-5.939302444E-1
3.795229842E1,-5.070639849E-1,6.537296772E-1,-3.642449081E-1
3.800429191E1,-6.310696602E-1,5.572129488E-1,5.917592049E-1
3.805628527E1,-1.007362604E0,1.604846835E0,2.773769855E0
3.810827843E1,8.808218241E-1,-4.928644001E-1,1.935051918E0
3.816027179E1,7.598705292E-1,4.173248112E-1,1.384662390E0
3.821226491E1,1.043311954E0,-2.998310030E-1,5.398356915E-1
3.826425861E1,1.605919003E0,-1.188029051E0,1.007758379E0
3.831625177E1,2.407984972E0,-2.890510559E0,2.387092352E0
3.836824595E1,3.029845715E0,-4.993108749E0,2.889834166E0
3.842023947E1,3.525257587E0,-5.902076244E0,2.218493462E0
3.847223276E1,3.234485626E0,-4.843446732E0,1.168416023E0
3.852422623E1,2.002370596E0,-2.965036154E0,8.904722929E-1
3.857621975E1,3.542560339E-1,-1.393279791E0,9.857672453E-1
3.862821727E1,-4.117689729E-1,-1.844709277E0,9.827129245E-1
3.868021510E1,-5.699830651E-1,-2.510552168E0,-2.891084552E-1
3.873220936E1,-5.247790813E-1,-3.125082731E0,-8.621001244E-1
3.878420272E1,-2.866225481E0,-7.799710631E-1,-3.301895857E0
3.883619617E1,-3.196092844E0,1.306744576E0,-4.982386112E0
3.888818943E1,1.790400267E0,7.405622959E0,1.769817024E-1
3.894018279E1,5.091516018E0,-1.869143844E0,1.473848581E0
3.899217619E1,3.990125895E0,3.788402975E-1,2.374874830E0
3.904416974E1,2.908894539E0,-2.597295284E0,1.194072366E0
3.909616373E1,1.910129786E0,-7.054454684E-1,1.208733201E0
3.914815729E1,1.192973971E0,-8.251751065E-1,1.407264233E0
3.920015051E1,1.079352975E0,-1.348075747E0,1.190407157E0
3.925214384E1,4.159534276E-1,-7.837400772E-3,1.432309866E0
3.930413713E1,1.581682861E-1,-1.837665886E-1,1.109162092E0
3.935613052E1,-2.944828570E-1,3.812837601E-1,1.036469102E0
3.940812408E1,-8.460941911E-1,1.056900740E0,1.204809546E-2
3.946011747E1,-7.055951357E-1,6.485556066E-2,-3.214843273E-1
3.951211149E1,-5.754808784E-1,9.723142534E-2,-3.825708628E-1
3.956410478E1,-5.156160593E-1,5.022350550E-1,-4.537323862E-2
3.961609814E1,-2.181247175E-1,-5.435662270E-1,-1.382247657E-1
3.966809167E1,-1.051146388E-1,4.350398779E-1,2.032489181E-1
3.972001292E1,-3.730859235E-2,2.224587947E-1,9.695836902E-2
3.977200748E1,2.499966137E-2,3.495187759E-1,1.030670181E-1
3.982400080E1,3.538436815E-2,1.357159317E-1,-1.125684157E-1
3.987599399E1,-3.848909438E-1,7.135944963E-1,-2.860541344E-1
3.992798749E1,-8.210486770E-1,1.266427517E0,-3.874577582E-1
3.997998071E1,-1.344560146E0,1.827812672E0,-5.548348427E-1
4.003197407E1,-2.171060801E0,3.652467012E0,-4.968026280E-1
4.008396783E1,-2.692739725E0,5.606014252E0,-6.837274432E-1
4.013596188E1,-2.645703077E0,5.476510525E0,-8.816477656E-1
4.018795518E1,-2.467941523E0,5.253544807E0,-8.828694820E-1
4.023994867E1,-2.290179729E0,4.927953720E0,-1.319638133E0
4.029194176E1,-1.905945420E0,2.548022747E0,-2.042902470E0
4.034393515E1,-1.025077581E0,-4.826952934E0,-3.081373453E0
4.039592851E1,-2.452058792E0,-7.137245655E0,-2.970806837E0
4.044792190E1,-3.605372667E0,5.010133386E-1,-8.242264390E-1
4.049991569E1,-3.797794819E0,2.927370071E0,-9.335712790E-1
4.055190955E1,-3.246183872E0,2.377304286E-1,-1.904847026E0
4.060390284E1,-3.332315683E0,-1.310812950E0,-2.177293062E0
4.065589610E1,-3.266953230E0,1.015361905E0,-1.595138311E0
4.070788949E1,-2.935864210E0,6.256299019E-1,-1.476019621E0
4.075988624E1,-2.613327503E0,3.605143428E-1,-1.258551598E0
4.081188456E1,-1.739179254E0,7.771244645E-1,-8.077331185E-1
4.086387952E1,-9.035155177E-1,8.498173952E-1,-3.434754610E-1
4.091587288E1,-3.323565125E-1,4.057183862E-1,7.863240689E-2
4.096786611E1,4.943427071E-2,6.237972379E-1,4.084996283E-1
4.101985957E1,8.119926602E-2,7.636854053E-1,4.048344493E-1
4.107185286E1,8.058839291E-2,9.115147591E-1,2.887700498E-1
4.112384622E1,-1.104138978E-2,1.358057261E0,2.582267821E-1
4.117583955E1,-2.325869352E-2,1.753287077E0,3.217567801E-1
4.122783347E1,3.110831231E-2,1.391044021E0,3.626847565E-1
4.127982729E1,1.642769277E-1,5.248370767E-1,3.626847565E-1
4.133182062E1,2.516306639E-1,-8.602815121E-2,3.248111010E-1
4.138381381E1,2.418568283E-1,-1.935404390E-1,1.971402615E-1
4.143580717E1,1.801594347E-1,9.295536578E-2,6.885856390E-2
4.148780066E1,9.402743727E-2,2.420064807E-1,-7.774908841E-2
4.153979388E1,-1.878410578E-3,1.259420812E-1,-2.500130832E-1
4.159178718E1,-1.038929075E-1,-4.937623441E-2,-3.141539395E-1
4.164378123E1,-1.692554951E-1,-2.546269596E-1,-2.854432762E-1
4.169577485E1,-1.692554951E-1,-4.372756779E-1,-2.341306061E-1
4.174776821E1,-1.179428101E-1,-4.464386702E-1,-1.486094594E-1
4.179976151E1,-5.441282317E-2,-2.943331897E-1,-5.270362273E-2
4.185175689E1,-3.711006371E-3,-1.342865080E-1,2.060020901E-2
4.190375219E1,3.782783076E-2,-6.709133089E-2,1.097865403E-1
4.195574545E1,4.882340506E-2,-4.998710379E-2,2.191314101E-1
4.200773901E1,5.554292351E-2,-1.727710068E-1,2.881591916E-1
4.205973220E1,4.760167375E-2,-3.065505028E-1,2.973221838E-1
4.211172559E1,4.760167375E-2,-2.857810855E-1,2.734984159E-1
4.216371892E1,5.493205786E-2,-1.367299706E-1,2.704440951E-1
4.221571244E1,9.769262373E-2,-6.159354374E-2,2.362356484E-1
4.226770656E1,1.215163693E-1,6.241210178E-2,1.476601809E-1
4.231969992E1,1.404531896E-1,2.132958174E-1,5.847385526E-2
4.237169338E1,2.198656797E-1,-2.650116682E-1,5.541953072E-2
4.242368670E1,7.891920805E-1,-6.791782975E-1,7.130202651E-2
4.247567990E1,1.775128484E0,-2.100661516E0,5.215097070E-1
4.252767326E1,2.597353220E0,-4.087806225E0,2.710549533E-1
4.257966658E1,2.701811314E0,-1.329138875E0,5.160118937E-1
4.263166020E1,2.269318581E0,5.443847775E-1,4.188843369E-1
4.268365432E1,1.506347895E0,2.584998608E-1,1.275016218E-1
4.273564755E1,8.252331614E-1,-4.172209650E-3,-1.864831150E-1
4.278764098E1,1.679421216E-1,4.985698760E-1,-4.027293921E-1
4.283963427E1,2.622138895E-2,-6.138157248E-1,-5.297893882E-1
4.289163006E1,9.791711569E-1,-4.745384455E-1,-1.724332124E-1
4.294362888E1,1.905853748E0,-3.224330246E-1,3.437479138E-1
4.299562427E1,2.257712126E0,-6.681827307E-1,4.115539491E-1
4.304761756E1,1.735422373E0,-6.474133134E-1,3.046525717E-1
4.309961105E1,1.099511623E0,-4.665971994E-1,1.378863305E-1
4.315160428E1,4.849812090E-1,-1.794905365E-1,-7.041871548E-2
4.320359764E1,4.393647984E-2,-4.937623441E-2,-1.651028246E-1
4.325559100E1,-3.519042134E-1,-1.660514921E-1,-1.925917715E-1
4.330758432E1,-5.369963646E-1,7.707286626E-2,-1.382247657E-1
4.335957798E1,-5.504354239E-1,-1.623863131E-1,-1.589941680E-1
4.341157200E1,-4.649142623E-1,-2.472965717E-1,-4.149467051E-1
4.346356536E1,-4.032168984E-1,6.824402809E-1,-3.007149100E-1
4.351555862E1,-7.349166870E-1,1.199232340E0,-5.407849550E-1
4.356755195E1,-1.294469237E0,2.088652134E0,-7.014424801E-1
4.361954541E1,-1.383655667E0,1.928605437E0,-1.061853051E0
4.367153866E1,-1.126481295E0,1.680594087E0,-1.290316701E0
4.372353199E1,-7.355275750E-1,1.765504360E0,-1.459526300E0
4.377552565E1,1.874898225E-1,2.293902874E0,-1.374615908E0
4.382751960E1,7.562053800E-1,1.660435557E0,-1.024590254E0
4.387951303E1,9.675647616E-1,1.569416642E0,-4.534312189E-1
4.393150645E1,1.067746639E0,2.301843882E0,1.571328565E-2
4.398350111E1,1.175869703E0,2.964021921E0,5.386139750E-1
4.403549700E1,1.465419888E0,3.008004427E0,7.004932165E-1
4.408749033E1,1.736644030E0,1.819260478E0,7.212626338E-1
4.413948375E1,1.459311247E0,8.559260368E-1,6.412393451E-1
4.419147715E1,9.877232909E-1,5.944756866E-1,1.158951893E-1
4.424347027E1,4.416097701E-1,4.393159449E-1,-3.245386779E-1
4.429546376E1,1.416749209E-1,9.530536532E-1,-3.624123037E-1
4.434745709E1,5.981897563E-2,9.335058928E-1,3.015982509E-1
4.439945071E1,-9.792628288E-1,1.739237189E0,1.741407633E0
4.445144473E1,-6.915453076E-1,-8.355597854E-1,1.617401958E0
4.450343799E1,-8.344877362E-1,-7.042237520E-1,1.685207963E0
4.455543145E1,-1.183291793E0,-3.853521049E-1,1.807381153E0
4.460742491E1,-1.711690187E0,-2.979983687E-1,1.442694426E0
4.465941800E1,-1.876623869E0,-1.545385242E0,1.211176515E0
4.471141140E1,-2.213821650E0,-2.074394464E0,4.579797387E-1
4.476340492E1,-3.616368055E0,3.127733946E0,3.761237860E-1
4.481539851E1,-3.182043076E0,2.571235657E0,-8.394980431E-1
4.486739243E1,-1.612119198E0,5.474390984E-1,-3.132333606E-2
4.491938566E1,1.493519664E0,-2.945488214E0,2.407861471E0
4.497137902E1,3.560076952E0,-4.156834126E0,4.341249943E0
4.502337394E1,4.398795128E0,-5.445148945E0,4.175705433E0
4.507537273E1,4.398795128E0,-4.356586933E0,3.100582838E0
4.512736949E1,2.814210415E0,-4.359030724E0,2.260032177E0
4.517936352E1,1.056751132E0,-3.219156027E0,1.271652222E0
4.523135688E1,-8.943525553E-1,-3.425017595E0,-1.461659968E-1
4.528335007E1,-2.239477873E0,-2.822093487E0,-1.950662017E0
4.533534340E1,-4.047638893E0,1.435637236E0,-4.742926598E0
4.538733679E1,-1.574245572E0,-2.750011444E0,7.566928267E-1
4.543933025E1,5.338305473E0,-1.332193255E0,4.277720451E0
4.549132440E1,3.891776562E0,2.282296419E0,2.012020826E0
4.554331789E1,2.105606794E0,1.094774365E0,1.439640164E0
4.559531102E1,1.712209463E0,-2.828202248E0,9.894325137E-1
4.564730468E1,1.145326495E0,-1.835546255E0,2.030957699E0
4.569929790E1,8.130158186E-1,-9.711718559E-1,2.007744789E0
4.575129103E1,5.601176023E-1,-5.185207725E-1,2.099985600E0
4.580328442E1,6.531676650E-2,-1.333518792E-2,1.850141644E0
4.585527814E1,-5.962502956E-1,1.595683813E0,1.564256668E0
4.590727206E1,-8.717505336E-1,6.885489225E-1,-3.892903626E-1
4.595926549E1,-1.048901439E0,4.551984668E-1,-1.006875157E0
4.601125872E1,-1.122205377E0,2.401738912E-1,-8.895890117E-1
4.606325218E1,-9.450542927E-1,-3.297633827E-1,-1.706006229E-1
4.611524690E1,-5.437158942E-1,-2.234728336E-1,8.168672770E-2
4.616724602E1,-4.184885025E-1,6.286842227E-1,5.825962424E-1
4.621924201E1,9.158396721E-2,1.399919838E-1,2.038597912E-1
4.627123550E1,2.499966137E-2,6.848837733E-1,3.003765047E-1
4.632322876E1,2.247525901E-1,3.971662521E-1,-4.109717906E-2
4.637522246E1,6.104071066E-2,5.419413447E-1,-3.123213649E-1
4.642721548E1,-2.535548806E-1,9.005192518E-1,-4.204444885E-1
4.647920881E1,-5.143943429E-1,1.078281045E0,-3.953990042E-1
4.653120213E1,-8.033336401E-1,1.074615836E0,-5.621652007E-1
4.658319569E1,-1.263926029E0,2.200440407E0,-5.743825436E-1
4.663518988E1,-1.766057253E0,3.434998989E0,-9.024171829E-1
4.668718327E1,-1.894338965E0,3.001284838E0,-1.403326631E0
4.673917650E1,-1.937710285E0,2.662865400E0,-1.611020923E0
4.679116992E1,-2.166174173E0,2.725784779E0,-2.064282894E0
4.684316311E1,-2.124024153E0,2.289626598E0,-2.890172720E0
4.689515654E1,-2.571788549E0,7.887309194E-1,-3.833959579E0
4.694517673E1,-3.059869766E0,4.093835652E-1,-3.743551493E0
4.699717038E1,-3.940737486E0,7.001553774E-1,-3.936584949E0
4.704916437E1,-4.271215916E0,1.937157631E0,-2.968974352E0
4.710115776E1,-3.726323843E0,7.691831589E-1,-2.978748083E0
4.715315109E1,-3.229079485E0,-5.185207725E-1,-2.548698902E0
4.720514511E1,-2.252916813E0,-5.771638155E-1,-1.899349213E0
4.725714143E1,-7.239211202E-1,1.348894238E0,-6.660123467E-1
4.730913519E1,4.764290750E-1,2.544968605E0,5.636594296E-1
4.736112835E1,1.275440812E0,2.435623646E0,1.181854963E0
4.741312178E1,1.613249302E0,2.010461330E0,1.748738050E0
4.746511510E1,1.894247293E0,8.211067319E-1,2.196502209E0
4.751710836E1,1.922958016E0,4.307638407E-1,2.227656364E0
4.756910182E1,1.720150709E0,-9.641286731E-2,2.083492279E0
4.762109584E1,1.530171633E0,-4.623211324E-1,1.625954151E0
4.767308940E1,1.085461617E0,-2.851702273E-1,1.063347220E0
4.772508279E1,7.195534706E-1,2.664411068E-1,5.734332204E-1
4.777707612E1,3.799123466E-1,1.955807209E-1,2.148553580E-1
4.782906948E1,2.235308737E-1,-3.083830774E-1,-3.010160662E-2
4.788106284E1,6.470590085E-2,-3.273199201E-1,-1.504420638E-1
4.793305606E1,4.882340506E-2,-1.825448573E-1,-8.507947624E-2
4.798504942E1,9.708175808E-2,4.723026752E-1,-1.449442804E-1
4.803704371E1,7.631234080E-2,5.059002638E-1,6.030644849E-2
4.808903726E1,1.600008905E-1,6.109691262E-1,1.018452868E-1
4.814103072E1,1.044121385E-1,1.636611819E0,2.887700498E-1
4.819302381E1,-1.226312015E-2,1.526045322E0,4.378211796E-1
4.824501780E1,-2.254550904E-1,1.827525496E-1,6.772803068E-1
4.829701642E1,-6.164088845E-1,5.248370767E-1,1.286923885E0
4.834901348E1,-4.722446501E-1,-1.234454870E0,1.230113387E0
4.840100721E1,-4.862945676E-1,-7.097215652E-1,2.088379145E0
4.845300050E1,-4.215428531E-1,-2.218558788E0,2.762774467E0
4.850499406E1,9.241933227E-1,-2.619897127E0,3.243525028E0
4.855698735E1,2.153865099E0,-3.056665659E0,3.496423244E0
4.860898045E1,3.027402401E0,-4.004728794E0,3.134791374E0
4.866097384E1,2.669435263E0,-3.302844524E0,2.517817497E0
4.871296730E1,2.309024811E0,-3.847125530E0,1.919780254E0
4.876496142E1,1.342635989E0,-2.703585625E0,1.431087971E0
4.881695491E1,-1.643685549E-1,-1.596086979E0,8.080055118E-1
4.886894820E1,-5.602092147E-1,-3.870949268E0,-9.176887870E-1
4.892094146E1,-2.360429287E0,-1.237509131E0,-3.420403719E0
4.897293519E1,-3.344532967E0,3.409342766E0,-6.357443810E0
4.902492818E1,1.007271051E0,1.147276402E1,9.497262836E-1
4.907692154E1,3.079936743E0,-2.980918407E0,4.632632732E0
4.912891496E1,2.575972795E0,-1.778735757E0,3.278654218E-1
4.918090902E1,3.377626538E-1,4.893744946E0,1.007147551E0
4.923290254E1,2.571284473E-1,1.392265797E0,-1.571615785E-1
4.928489590E1,-1.674228907E-1,-3.138808906E-1,2.093575746E-1
4.933688959E1,-8.021118641E-1,7.600201964E-1,1.207821146E-1
4.938888585E1,-4.600273371E-1,-8.532748818E-1,-1.482997555E-2
4.944087984E1,-4.453665912E-1,-1.495581418E-1,-8.507947624E-2
4.949287323E1,-4.459774494E-1,-2.479074448E-1,-3.315593302E-2
4.954486659E1,-5.431050658E-1,-4.525473118E-1,2.304366790E-2
4.959686005E1,-7.141472697E-1,-1.072575569E0,-8.019255847E-2
4.964885331E1,-8.155509233E-1,-1.121444702E0,2.731972747E-2
4.970084654E1,-8.357094526E-1,-1.868533015E0,2.274251310E-3
4.975283986E1,-1.150305033E0,-1.527670145E0,1.629318148E-1
4.980483405E1,-1.522322059E0,-6.400829554E-1,-8.019255847E-2
4.985682750E1,-1.660377622E0,2.026239969E-2,-3.526384532E-1
4.990882093E1,-1.748952985E0,6.378471851E-1,-1.240836501E0
4.996081429E1,-1.573023796E0,2.465555906E0,-1.430204749E0
5.001280752E1,-1.359220982E0,2.454560280E0,-2.186455727E0
5.006480091E1,-1.419696689E0,3.019000053E0,-2.038626671E0
5.011679427E1,-1.257817388E0,3.005560875E0,-1.409435272E0
5.016878772E1,-1.051344872E0,2.774653912E0,-1.008096814E0
5.022078191E1,-6.084675789E-1,1.342174768E0,-6.751753092E-1
5.027277524E1,-7.245320082E-1,1.367831230E0,-6.708992124E-1
5.032476856E1,-5.724265575E-1,1.216336489E0,-2.408501059E-1
5.037676208E1,-4.404796362E-1,4.087727070E-1,-2.994931936E-1
5.042876017E1,-5.699830651E-1,5.071219802E-1,-1.021837071E-1
5.048075790E1,-6.280152798E-1,1.418245882E-1,-1.498311907E-1
5.053275283E1,-5.693722367E-1,1.045618057E-1,-4.589290023E-1
5.058474635E1,-4.710229039E-1,-2.454639673E-1,-3.605796993E-1
5.063673961E1,-7.640396804E-2,-1.187418222E0,-8.315567970E-1
5.068873290E1,-4.402811453E-2,-1.812333345E0,-5.316219330E-1
5.074072630E1,1.276250184E-1,-1.614413023E0,-5.297893882E-1
5.079271966E1,1.337336749E-1,-1.075019002E0,-4.109717906E-2
5.084471364E1,2.895042896E-1,-6.742913723E-1,2.270726562E-1
5.089670733E1,3.487582505E-1,-1.355082393E-1,4.671427011E-1
5.094870059E1,4.678769410E-1,-1.923187077E-1,4.262147248E-1
5.100069392E1,4.532161951E-1,-1.067975685E-1,2.423443049E-1
5.105268741E1,3.640298843E-1,2.884322405E-1,1.177277863E-1
5.110468064E1,2.962238193E-1,2.511694729E-1,-8.110457100E-3
5.115667400E1,1.923767328E-1,2.701062858E-1,-3.437766433E-2
5.120866739E1,2.265851945E-1,4.454246163E-1,-2.115285844E-1
5.126066127E1,1.343445480E-1,5.034568310E-1,-2.518456876E-1
5.131265520E1,1.172403097E-1,2.236805260E-1,-4.913048744E-1
5.136464846E1,7.997753471E-2,4.729135334E-1,-4.796984196E-1
5.141664168E1,4.637994245E-2,6.317385435E-1,-6.574602127E-1
5.146863517E1,-1.715004072E-2,5.822584033E-1,-6.568493843E-1
5.152063316E1,-1.258840561E-1,2.756040692E-1,-7.704702616E-1
5.157263075E1,-2.814561687E-2,1.161682457E-1,-6.959447265E-1
5.162462494E1,1.001360863E-1,2.621650398E-1,-4.607616067E-1
5.167661834E1,5.920811370E-2,1.011696696E0,-1.846505105E-1
5.172861170E1,2.438879572E-2,2.098426104E0,3.526097536E-2
5.178060505E1,-2.957046032E-1,8.595912457E-1,5.575507879E-1
5.183259848E1,-4.209319651E-1,9.512209892E-1,2.057224751E0
5.188459174E1,-7.251428962E-1,-1.183753014E0,2.205054522E0
5.193658496E1,-2.840981483E-1,-1.737196922E0,1.732855439E0
5.198857925E1,1.196837798E-1,-3.590849340E-1,1.936273575E0
5.204057268E1,5.014745593E-1,-9.772804976E-1,2.316842794E0
5.209256617E1,7.562053800E-1,-2.950375319E0,3.121963024E0
5.214455943E1,1.731757164E0,-2.987638235E0,3.141510725E0
5.219655262E1,2.053683043E0,-3.425628424E0,2.810421944E0
5.224854605E1,2.379274368E0,-4.022443771E0,1.747516274E0
5.230053944E1,1.593090653E0,-2.195345879E0,1.453690052E0
5.235253276E1,3.970166147E-1,-3.523653746E-1,1.043799400E0
5.240452701E1,-3.293021917E-1,-3.230438530E-1,9.943193793E-1
5.245652034E1,5.371032655E-2,-1.255835056E0,7.560819983E-1
5.250851383E1,3.560886085E-1,-2.005977631E0,5.850396752E-1
5.256050729E1,-1.759750098E-1,-1.592421889E0,2.527289987E-1
5.261250305E1,-6.365673542E-1,-3.140965223E0,-8.798151612E-1
5.266449777E1,-2.384863853E0,-2.192902327E0,-2.927435637E0
5.271649093E1,-3.989606619E0,2.050167799E0,-5.449087620E0
5.276848422E1,-3.456932068E0,3.822898388E0,-3.486377239E0
5.282047775E1,3.637656689E0,-1.123277307E0,4.972884655E0
5.287247097E1,4.021279812E0,-1.151377201E0,2.422522545E0
5.292446437E1,3.486773014E0,5.370543599E-1,1.982699394E0
5.297645783E1,3.368265152E0,-1.866089463E0,1.438418508E0
5.302845194E1,2.283368349E0,-6.797891855E-1,1.309525847E0
5.308044544E1,1.421437621E0,-3.105027974E-2,1.174524665E0
5.313243876E1,1.086882055E-1,1.705028653E0,9.515588284E-1
5.318443209E1,-4.924032092E-1,3.519622087E-1,1.696513146E-1
5.323642575E1,-1.018969059E0,2.896539569E-1,-5.658304691E-1
5.328841874E1,-1.485670090E0,8.730302453E-1,-4.833636284E-1
5.334041220E1,-1.400148869E0,-5.362358689E-1,-7.093837857E-1
5.339240579E1,-1.343949318E0,-8.697682619E-1,-5.163503289E-1
5.344439994E1,-1.350057960E0,-5.282946229E-1,-3.837925792E-1
5.349639310E1,-1.137476921E0,-8.908247948E-2,-3.361450732E-1
5.354838639E1,-9.664346576E-1,-2.555249445E-2,-3.996750712E-1
5.360037985E1,-7.599621415E-1,8.501411229E-2,-3.831817210E-1
5.365237691E1,-5.577657819E-1,1.259420812E-1,-3.465298116E-1
5.370437500E1,-4.698011875E-1,1.937481165E-1,-3.734078705E-1
5.375637082E1,-4.740772545E-1,3.678447306E-1,-2.017547488E-1
5.380836412E1,-5.840329528E-1,1.919155270E-1,-1.388356239E-1
5.386035744E1,-6.005263925E-1,-1.672732234E-1,-1.809853166E-1
5.391235093E1,-7.862293720E-1,-1.211345755E-2,-2.555108666E-1
5.396434412E1,-8.686961532E-1,4.790221751E-1,-8.935553581E-2
5.401633742E1,-7.471340299E-1,1.980241835E-1,-1.596050411E-1
5.406833140E1,-8.784700036E-1,7.612419724E-1,-2.704728208E-2
5.412032529E1,-1.027521133E0,1.183349848E0,-4.903842881E-2
5.417231845E1,-1.467954993E0,1.559642792E0,-2.402392626E-1
5.422233334E1,-2.081874609E0,2.177227497E0,-8.468284011E-1
5.427432667E1,-2.850953817E0,2.991510868E0,-1.697763681E0
5.432632016E1,-3.440438986E0,3.027551889E0,-2.893227100E0
5.437831329E1,-3.390958786E0,1.330568314E0,-3.894435167E0
5.443030671E1,-3.657907009E0,-4.574342370E-1,-4.463761806E0
5.448230073E1,-3.817953587E0,-1.348075747E0,-3.628098011E0
5.453429436E1,-4.048860550E0,-1.570430636E0,-2.402091265E0
5.458628775E1,-3.627974510E0,-2.717311978E-1,-1.401494145E0
5.463828101E1,-2.922425032E0,3.171429038E-1,-1.601247072E0
5.469027434E1,-2.433122158E0,1.046515942E0,-1.647061944E0
5.474227096E1,-1.592571497E0,5.865345001E-1,-1.597581744E0
5.479426941E1,-7.654599547E-1,-2.986092567E-1,-9.787753224E-1
5.484626437E1,-2.987589240E-1,-1.093344927E0,-2.054199427E-1
5.489825776E1,2.744312026E-2,-1.268052340E0,3.321414888E-1
5.495025109E1,2.778978646E-1,-7.903558016E-1,6.504023075E-1
5.500224455E1,4.660443664E-1,1.186117008E-1,8.868071437E-1
5.505423777E1,4.275598526E-1,8.192741871E-1,9.698848128E-1
5.510623106E1,2.992781699E-1,8.766955137E-1,8.037294149E-1
5.515822462E1,2.546849847E-1,4.069401026E-1,6.247459054E-1
5.521021874E1,2.113135457E-1,-1.422277540E-1,5.257857442E-1
5.526221213E1,2.235308737E-1,-4.244475067E-1,5.532746911E-1
5.531420539E1,1.606117338E-1,-5.044708848E-1,4.982968569E-1
5.536619875E1,2.377793007E-2,-4.812579751E-1,2.747201622E-1
5.541819208E1,-1.264949143E-1,-5.026382208E-1,-7.897082716E-2
5.547018534E1,-2.138486505E-1,-3.743565381E-1,-4.045620263E-1
5.552217883E1,-2.682156563E-1,1.293201745E-2,-6.043149233E-1
5.557417249E1,-3.512933254E-1,3.592925966E-1,-7.356509566E-1
5.562616641E1,-3.384651542E-1,3.134777248E-1,-8.223938346E-1
5.567815987E1,-2.602744102E-1,3.183646500E-1,-7.283205390E-1
5.573015309E1,-2.034639418E-1,3.116451204E-1,-5.487262011E-1
5.578214642E1,-8.373434842E-2,2.530020475E-1,-3.569145203E-1
5.583414178E1,-3.100140952E-3,2.395630181E-1,-1.669354290E-1
5.588613714E1,6.714936346E-2,2.444499582E-1,-3.834401025E-3
5.593813046E1,8.914051205E-2,2.609432936E-1,1.366646141E-1
5.599012385E1,1.257924289E-1,1.515984386E-1,2.313487232E-1
5.604211711E1,1.410640627E-1,8.655959740E-3,3.394718766E-1
5.609411044E1,1.722181886E-1,-5.853921548E-2,4.207169414E-1
5.614610383E1,1.801594347E-1,-1.318430454E-1,4.720296264E-1
5.619809726E1,1.801594347E-1,-2.179750502E-1,4.671427011E-1
5.625009144E1,1.758833826E-1,-2.124772668E-1,4.030018747E-1
5.630208480E1,1.404531896E-1,-1.379516870E-1,3.125938177E-1
5.635407813E1,9.647089243E-2,-7.503257692E-2,1.910316199E-1
5.640607145E1,4.027128965E-2,-5.915008113E-2,5.053260550E-2
5.645806484E1,-7.987063378E-3,-4.082412273E-2,-7.102958113E-2
5.651005820E1,-8.739954233E-2,3.125797585E-2,-1.919808984E-1
5.656205143E1,-1.692554951E-1,3.003624268E-2,-3.153756857E-1
5.661404512E1,-2.205681652E-1,4.990769085E-3,-4.186119139E-1
5.666603921E1,-2.126269192E-1,3.769038711E-3,-4.406030476E-1
5.671803250E1,-1.814727932E-1,9.234450012E-2,-3.618014157E-1
5.677002586E1,-1.264949143E-1,8.073806018E-2,-2.426827103E-1
5.682201918E1,-7.457137108E-2,-1.117883483E-3,-1.070706248E-1
5.687401480E1,-9.819659404E-3,-8.358469605E-2,-1.421911083E-2
5.692601362E1,3.843869269E-2,-5.731748417E-2,5.664125830E-2
5.697800912E1,8.852964640E-2,-4.754364118E-2,9.634749591E-2
5.703000248E1,1.355662644E-1,-3.654807061E-2,1.220038384E-1
5.708199587E1,2.039831728E-1,2.035219669E-1,1.806468964E-1
5.713398920E1,2.363590449E-1,8.870801926E-1,4.427081048E-1
5.718598252E1,4.538270533E-1,9.848185778E-1,5.544964671E-1
5.723797588E1,4.831486046E-1,8.650890589E-1,6.424610019E-1
5.728996917E1,6.120411158E-1,-1.367299706E-1,5.868723392E-1
5.734196323E1,7.281055450E-1,-4.262800813E-1,5.807636380E-1
5.739395685E1,8.710480332E-1,-6.159354374E-2,7.175974846E-1
5.744595014E1,9.431301355E-1,1.919155270E-1,7.792948484E-1
5.749794350E1,1.078742146E0,4.209899902E-1,9.161286354E-1
5.754993679E1,1.052474976E0,5.309457183E-1,1.137261868E0
5.760193029E1,1.095235586E0,1.118921861E-1,1.128709674E0
5.765392351E1,9.767277241E-1,1.503766924E-1,1.073731899E0
5.770591687E1,1.027429581E0,3.336362541E-1,9.656087756E-1
5.775791086E1,9.211390018E-1,4.912394881E-1,8.880288601E-1
5.780990451E1,9.327453971E-1,1.888612062E-1,6.937736869E-1
5.786189794E1,9.003695846E-1,2.285674512E-1,5.630485415E-1
5.791389127E1,8.551655412E-1,4.845199883E-1,5.832070708E-1
5.796588589E1,9.046456218E-1,7.630745173E-1,6.216915846E-1
5.801788195E1,8.179027438E-1,9.890946746E-1,7.579145432E-1
5.806987527E1,7.281055450E-1,1.272536159E0,6.754477620E-1
5.812186860E1,5.863848329E-1,8.852475882E-1,4.763056934E-1
5.817386192E1,4.770399332E-1,5.052893758E-1,3.944497406E-1
5.822585522E1,2.852282524E-1,8.565369248E-1,3.608521521E-1
5.827784861E1,-3.547599912E-2,9.597731233E-1,6.100851297E-1
5.832984190E1,-4.630816579E-1,1.573692799E0,1.607017159E0
5.838183586E1,-1.771967262E-1,-4.739275873E-1,1.112827301E0
5.843382958E1,-7.312515378E-1,-1.428386271E-1,1.440251112E0
5.848582284E1,-1.289383918E-1,-1.566154718E0,1.439029336E0
5.853781626E1,4.837594628E-1,-2.133037567E0,2.429241896E0
5.858980972E1,1.541167259E0,-2.371275187E0,2.888612509E0
5.864180291E1,2.246716499E0,-3.294903278E0,3.217868805E0
5.869379627E1,2.838644981E0,-4.296111107E0,2.408472300E0
5.874578973E1,2.424478292E0,-3.538638353E0,1.406042576E0
5.879778388E1,1.092181325E0,-4.745384455E-1,1.257602334E0
5.884977731E1,-4.524984211E-2,4.325964451E-1,1.085949183E0
5.890177057E1,-2.779895067E-1,-9.274767339E-2,3.669608235E-1
5.895376393E1,-1.729206890E-1,-6.413046718E-1,-2.524565458E-1
5.900575875E1,-2.456136495E-1,-1.883297600E-2,1.989728510E-1
5.905775740E1,-1.277166456E-1,-7.042237520E-1,3.822324276E-1
5.910975439E1,2.210873961E-1,-8.984789252E-1,5.664125830E-2
5.916174822E1,5.387372971E-1,-1.217961431E0,6.213904545E-2
5.921374165E1,5.998238325E-1,-1.366401792E0,1.366646141E-1
5.926573497E1,3.695276380E-1,-1.068910241E0,3.144263923E-1
5.931772827E1,-1.802510619E-1,-1.588145733E0,-1.119575500E-1
5.936972172E1,-7.489666343E-1,-2.514217615E0,-1.366063833E0
5.942171512E1,-3.254125118E0,-1.496515989E0,-3.333050013E0
5.947370947E1,-2.225427866E0,2.955470085E0,-5.728252411E0
5.952570266E1,7.097796202E-1,1.375801086E1,1.511722326E0
5.957769599E1,4.991944790E0,-7.164734364E0,1.905730367E0
5.962968931E1,3.189892530E0,1.809199452E-1,1.390160084E0
5.968168274E1,1.984854043E-1,4.683608055E0,2.215748727E-1
5.973367616E1,-4.313166738E-1,1.867518902E0,-1.085065961E0
5.978566959E1,-3.433520794E-1,5.504934192E-1,-1.522746533E-1
5.983766334E1,1.832137555E-1,-8.007404804E-1,1.696513146E-1
5.988965696E1,1.703855842E-1,5.874691159E-2,7.493624091E-1
5.994165033E1,5.497329235E-1,-1.225902677E0,8.648159504E-1
5.999364365E1,3.738037050E-1,-6.022092700E-1,9.069656730E-1
6.004563711E1,2.143678963E-1,-3.633609712E-1,8.018968701E-1
6.009763166E1,-4.321871791E-3,-6.351959705E-1,5.270075202E-1
6.014963042E1,2.149787396E-1,-1.129996777E0,2.484529465E-1
6.020162688E1,1.196837798E-1,-7.805818915E-1,1.843120903E-1
6.025362050E1,8.242098987E-2,-7.677537799E-1,8.474105597E-2
6.030561376E1,9.341656417E-2,-7.683646083E-1,1.876761205E-2
6.035760709E1,6.898195297E-2,-5.997658372E-1,-6.369919330E-2
6.040960028E1,-7.151705027E-2,-1.513907313E-1,1.000126898E-1
6.046159367E1,-8.373434842E-2,-4.824796915E-1,1.427732557E-1
6.051358703E1,-3.341891170E-1,-4.299452901E-1,2.539507151E-1
6.056558099E1,-3.396869004E-1,-2.020925432E-1,1.482710391E-1
6.061757488E1,-3.830583096E-1,-4.448931664E-2,4.564568400E-2
6.066956800E1,-5.382180810E-1,2.902648449E-1,-3.132333606E-2
6.072156156E1,-9.285609722E-1,5.956974626E-1,-6.797525287E-2
6.077355485E1,-1.560195684E0,1.121652484E0,-1.284509152E-1
6.082554795E1,-2.361650944E0,1.837586522E0,-7.796332240E-1
6.087754140E1,-3.613924503E0,2.703182697E0,-1.680659533E0
6.092953476E1,-4.540607452E0,3.243187428E0,-2.988522053E0
6.098152872E1,-4.731197357E0,3.414229631E0,-4.127174854E0
6.103352234E1,-4.536942005E0,1.507108450E0,-4.819285393E0
6.108551573E1,-4.591919899E0,1.167791039E-1,-4.193148613E0
6.113750902E1,-4.199744225E0,-2.982855029E-2,-3.187664032E0
6.118950312E1,-3.411117315E0,-4.482712448E-1,-2.289081335E0
6.124149954E1,-2.585227489E0,-1.110449195E0,-1.822991133E0
6.129349317E1,-1.763002872E0,-8.465553522E-1,-1.761904597E0
6.134548652E1,-1.397094607E0,5.956974626E-1,-1.386222363E0
6.139747978E1,-1.115485668E0,9.787099361E-1,-1.052690029E0
6.144947308E1,-6.054132581E-1,2.401738912E-1,-7.808550000E-1
6.149947372E1,-2.547766268E-1,-8.813747168E-1,-4.687028527E-1
6.155146711E1,2.866485156E-2,-1.370677710E0,-6.858611852E-2
6.160346103E1,2.333047092E-1,-5.105795264E-1,3.199241757E-1
6.165545462E1,2.467437387E-1,4.405376911E-1,5.160118937E-1
6.170744804E1,3.340974748E-1,5.859236717E-1,6.015330553E-1
6.175944137E1,3.597538173E-1,3.537948430E-1,6.919410825E-1
6.181143470E1,3.371517956E-1,-5.393940024E-3,7.206518054E-1
6.186342826E1,2.632370889E-1,-8.114122599E-2,6.711716652E-1
6.191542138E1,9.097310901E-2,-7.686517388E-2,5.331161618E-1
6.196741471E1,5.065600201E-2,5.263825879E-2,2.973221838E-1
6.201940889E1,-1.124450192E-1,8.143872023E-1,3.718477190E-1
6.207140239E1,7.142541558E-2,3.232515454E-1,3.700151443E-1
6.212339574E1,6.104071066E-2,-3.835195303E-1,2.496746778E-1
6.217538900E1,1.868789494E-1,-5.899919868E-1,2.411225587E-1
6.222738293E1,3.915188015E-1,-1.272432320E-2,3.773455322E-1
6.227938152E1,4.776508212E-1,5.083436966E-1,6.717825532E-1
6.233137857E1,7.476532459E-1,-1.440603435E-1,8.367161751E-1
6.238337243E1,9.687864184E-1,-2.005470730E-2,9.998171926E-1
6.243536576E1,1.083018303E0,1.467114985E-1,1.230724216E0
6.248735905E1,1.324310064E0,8.990103751E-2,1.328462601E0
6.253935251E1,1.437320113E0,2.450608015E-1,1.443916202E0
6.259134570E1,1.403722525E0,4.038857818E-1,1.468961716E0
6.264333903E1,1.364627242E0,6.668815762E-2,1.363281965E0
6.269533249E1,1.152656913E0,-3.957368433E-1,1.026695371E0
6.274732664E1,8.679937124E-1,-7.549256086E-1,4.848577976E-1
6.279932006E1,5.814979076E-1,-5.337923765E-1,1.904207468E-1
6.285131349E1,3.328757286E-1,-3.309850991E-1,3.770443797E-2
6.290330672E1,2.119244188E-1,6.823364645E-3,9.818009287E-2
6.295530011E1,1.483944356E-1,2.340652347E-1,2.289052606E-1
6.300729347E1,1.490053087E-1,6.201320887E-1,3.284762800E-1
6.305928676E1,2.805398591E-2,5.889779925E-1,2.991547585E-1
6.311128055E1,-3.853032738E-2,5.285022855E-1,2.081358284E-1
6.316327450E1,-1.287398487E-2,5.236153603E-1,1.684295982E-1
6.321526783E1,1.400408521E-2,3.947228193E-1,9.695836902E-2
6.326726105E1,1.795485616E-1,3.733424842E-1,1.323885471E-1
6.331925481E1,2.595719099E-1,7.313095927E-1,6.946942955E-2
6.337125100E1,3.829666972E-1,1.241382122E0,7.374548167E-2
6.342324509E1,4.409989119E-1,1.068507195E0,-1.131792814E-1
6.347523849E1,4.281707108E-1,1.926772833E0,3.437479138E-1
6.352723208E1,-5.196936056E-2,2.249309540E0,1.983921170E0
6.357922511E1,9.443518519E-1,-9.051984549E-1,5.599942207E-1
6.363121853E1,-2.028530687E-1,-1.323641062E0,2.220325947E0
6.368321179E1,2.901151776E-1,-1.859369993E0,1.968649507E0
6.373520535E1,8.417264819E-1,-1.985208273E0,2.661370516E0
6.378719957E1,1.621801376E0,-4.076810837E0,3.209927797E0
6.383919279E1,2.219227552E0,-4.363917351E0,2.660148859E0
6.389118618E1,2.448302031E0,-3.096982956E0,2.112202883E0
6.394317955E1,2.292531490E0,-3.756717443E0,1.209344029E0
6.399517290E1,1.071411848E0,-1.943669319E0,1.096333861E0
6.404716630E1,2.174222171E-1,-1.335247517E0,9.240698814E-1
6.409915956E1,-5.196936056E-2,-1.458642364E0,3.526097536E-2
6.415115321E1,-4.966792464E-1,-1.870976448E0,-5.310111046E-1
6.420314716E1,-1.196120024E0,-2.590575695E0,-1.563984275E0
6.425514052E1,-3.443493128E0,1.867518902E0,-4.460096359E0
6.430713395E1,-1.820424199E0,2.125303984E0,-2.314737558E0
6.435912737E1,3.665145636E0,-4.916426837E-1,1.883739233E0
6.441112516E1,2.139815092E0,8.418761492E-1,8.935266733E-1
6.446312301E1,1.135751158E-1,2.528475046E0,-1.510529369E-1
6.451511714E1,-5.376072526E-1,2.193721056E0,1.830903590E-1
6.456711057E1,-6.329022050E-1,2.286572456E0,2.484529465E-1
6.461910389E1,-6.304587126E-1,1.277746856E-1,5.300618410E-1
6.467109715E1,-4.233754277E-1,-1.444592357E0,2.380682379E-1
6.472309054E1,-7.376197726E-3,-1.527670145E0,-8.752293885E-2
6.477508390E1,-1.271057874E-1,-4.458277822E-1,-3.049909770E-1
6.482707716E1,-8.312349021E-2,-5.215750933E-1,-7.924614549E-1
6.487907132E1,-2.480570972E-1,-2.375227362E-1,-7.839093208E-1
6.493106487E1,7.895433344E-3,-2.308032215E-1,-6.855599880E-1
6.498305820E1,7.142541558E-2,-1.214583367E-1,-4.100597799E-1
6.503505152E1,1.514487565E-1,5.569258332E-2,-3.110996187E-1
6.508704492E1,7.875579596E-2,1.601505429E-1,-6.308832765E-2
6.513903821E1,1.526705027E-1,-2.686768472E-1,-2.011438757E-1
6.519103154E1,-8.801040798E-2,-1.098518968E-1,8.351932466E-2
6.524302499E1,-1.820836663E-1,-9.479590058E-1,3.773455322E-1
6.529501921E1,-5.705939531E-1,-9.497916102E-1,1.109162092E0
6.534701250E1,-1.284695387E0,-6.296982169E-1,1.591134787E0
6.539900590E1,-2.084318161E0,-7.341561913E-1,1.701701403E0
6.545099935E1,-2.876610279E0,1.919155270E-1,1.451246619E0
6.550299527E1,-3.319487572E0,2.011682987E0,5.044054985E-1
6.555498994E1,-3.806347132E0,4.334192753E0,-8.425523639E-1
6.560698329E1,-3.764197588E0,5.656105042E0,-2.263425112E0
6.565897652E1,-2.414796114E0,3.408731937E0,-3.235922337E0
6.571096998E1,-1.658544898E0,4.765787423E-1,-3.430788279E0
6.576296324E1,-1.605399609E0,-8.343380690E-1,-3.140016556E0
6.581495656E1,-1.883343339E0,-2.429307222E0,-2.716076136E0
6.586695002E1,-2.005516291E0,-1.079295039E0,-1.672107458E0
6.591894411E1,-2.073322535E0,7.887309194E-1,-1.134546041E0
6.597093760E1,-1.883954167E0,1.419143796E0,-9.451777339E-1
6.602293089E1,-1.726961970E0,9.927598834E-1,-1.151039362E0
6.607492422E1,-1.337840676E0,3.446318507E-1,-1.309864283E0
6.612691754E1,-9.303935766E-1,-1.355082393E-1,-1.255497336E0
6.617891094E1,-6.994864941E-1,-1.312321723E-1,-8.969193697E-1
6.623090423E1,-4.661359787E-1,5.080566555E-2,-4.625942111E-1
6.628289759E1,-1.368796229E-1,4.836220294E-2,-3.621025756E-2
6.633489181E1,9.036224335E-2,1.008966118E-1,2.350139171E-1
6.638688530E1,1.874898225E-1,2.071871608E-1,3.889519572E-1
6.643887852E1,3.004998863E-1,1.393811256E-1,4.274364710E-1
6.649087212E1,3.438712955E-1,2.194044590E-1,4.665318429E-1
6.654286894E1,3.249345124E-1,3.544057012E-1,4.836360812E-1
6.659486710E1,2.620153725E-1,3.116451204E-1,4.384320378E-1
6.664686302E1,1.881006807E-1,8.073806018E-2,3.083177507E-1
6.669885625E1,9.708175808E-2,-1.092410386E-1,1.537688226E-1
6.675084961E1,1.786780776E-3,-9.763459116E-2,6.550308317E-3
6.680284303E1,-1.161102131E-1,-2.555249445E-2,-1.577724516E-1
6.685483636E1,-1.625359654E-1,-4.571104795E-2,-3.214843273E-1
6.690682962E1,-2.303420156E-1,1.070052609E-1,-4.063946009E-1
6.695882334E1,-2.798220813E-1,1.454897821E-1,-4.320509434E-1
6.701081733E1,-2.688265145E-1,5.813604221E-2,-4.271639884E-1
6.706281069E1,-2.333963364E-1,-2.339613857E-3,-3.892903626E-1
6.711480401E1,-1.503186673E-1,5.630345270E-2,-2.518456876E-1
6.716679740E1,-7.823656499E-2,2.230696529E-1,-8.141428232E-2
6.721879070E1,-1.837177202E-2,2.817127407E-1,6.458250433E-2
6.727078422E1,1.461495087E-2,2.383412868E-1,1.647644043E-1
6.732277745E1,4.760167375E-2,9.478796273E-2,2.337921709E-1
6.737477127E1,9.524916112E-2,-1.117883483E-3,2.728875279E-1
6.742676519E1,1.135751158E-1,5.080566555E-2,2.753310204E-1
6.747875848E1,1.202946380E-1,1.118921861E-1,2.405117005E-1
6.753075158E1,1.001360863E-1,1.125030518E-1,1.812577695E-1
6.758274507E1,6.104071066E-2,4.225354642E-2,1.116191298E-1
6.763474182E1,1.278235577E-2,-3.715893254E-2,1.265896019E-2
6.768674024E1,-2.020436898E-2,-9.641286731E-2,-8.446861058E-2
6.773873500E1,-9.819659404E-3,-5.181969702E-2,-1.479986012E-1
6.779072843E1,-1.287398487E-2,9.234450012E-2,-1.760984063E-1
6.784272169E1,4.027128965E-2,1.638157368E-1,-1.980895549E-1
6.789471508E1,3.377626538E-1,1.742902398E0,-8.996640146E-2
6.794670830E1,8.624958992E-1,3.133842468E0,5.618268251E-1
6.799870166E1,1.660285830E0,1.565751433E0,6.785020828E-1
6.805069506E1,2.128208637E0,1.531543016E0,1.054795027E0
6.810268918E1,2.471514940E0,1.408759117E0,1.057238579E0
6.815468277E1,2.433641434E0,1.723965526E0,1.055405855E0
6.820667599E1,2.170358419E0,1.544371247E0,1.047464728E0
6.825866935E1,1.725037575E0,1.291473031E0,8.550421000E-1
6.831066274E1,1.268721342E0,1.111878514E0,8.067837358E-1
6.836265597E1,1.170371890E0,8.699759245E-1,5.233423114E-1
6.841464936E1,9.058673978E-1,6.958793402E-1,2.838831246E-1
6.846664289E1,9.455736279E-1,6.525079608E-1,2.276835293E-1
6.851863681E1,7.623140216E-1,1.000090241E0,3.639064729E-1
6.857063043E1,6.236475706E-1,1.100883007E0,3.296980262E-1
6.862262379E1,3.780797720E-1,1.603625178E0,4.799708724E-1
6.867461705E1,1.361771375E-1,1.014751077E0,6.974388957E-1
6.872661247E1,-5.602092147E-1,4.347528145E-2,9.094091058E-1
6.877860776E1,-1.119761825E0,5.523260236E-1,1.704755783E0
6.883059291E1,-7.208667994E-1,-1.276604533E0,1.391381860E0
6.888258624E1,-1.161911488E0,-9.113071561E-1,1.685207963E0
6.893457950E1,-1.337229848E0,-1.929295659E-1,1.136651039E0
6.898657289E1,-2.417239428E0,-1.110736281E-1,9.643869996E-1
6.903856622E1,-2.849121332E0,-1.217961431E0,8.770332932E-1
6.909055951E1,-2.919370890E0,1.158915162E0,8.434356451E-1
6.914255360E1,-1.477117896E0,-1.654730082E0,2.136026621E0
6.919454715E1,1.393948674E0,-2.252767086E0,3.135402203E0
6.924654051E1,2.812988520E0,-2.217336893E0,3.814684391E0
6.929853384E1,3.315730810E0,-2.896008253E0,3.745045662E0
6.935052727E1,2.592466354E0,-2.383492470E0,3.403572083E0
6.940252059E1,1.522841215E0,-2.872795343E0,2.515984535E0
6.945451385E1,1.648068547E0,-3.927148819E0,3.590195477E-1
6.950650728E1,4.312250316E-1,-5.853921548E-2,1.074342728E0
6.955850149E1,-8.558680415E-1,3.892250061E-1,1.211787462E0
6.961049485E1,-1.115485668E0,-1.192305088E0,1.233167768E0
6.966248828E1,-8.961851001E-1,-1.290043592E0,1.238665581E0
6.971448157E1,-2.541657686E-1,-1.283934951E0,1.910316199E-1
6.976647736E1,-4.952589795E-2,-1.065245152E0,-3.440863490E-1
6.981847628E1,-2.016313523E-1,-2.145865679E0,-9.372364879E-1
6.987047150E1,-1.657934070E0,-2.161137342E0,-2.870625019E0
6.992246503E1,-3.211364508E0,1.948764086E0,-5.025757790E0
6.997445829E1,-4.528389454E0,8.485632896E0,-1.782063127E0
7.002645158E1,2.878962040E0,-1.370066881E0,3.014450788E0
7.007844491E1,3.734784126E0,-2.361501217E0,8.538203835E-1
7.013043827E1,9.651212692E-1,4.824717999E0,1.798828959E0
7.018243159E1,1.227793336E0,-1.042643070E0,4.799708724E-1
7.023442508E1,1.216797709E0,-1.721925259E0,1.451246619E0
7.028641923E1,1.490465283E0,-1.602806568E0,1.352286458E0
7.033841263E1,1.168539405E0,-1.147711873E0,1.406653404E0
7.039040592E1,9.205281138E-1,-5.453988314E-1,1.089614391E0
7.044239928E1,4.745964706E-1,4.136596024E-1,7.731862068E-1
7.049439264E1,1.471727192E-1,3.055364788E-1,5.465551615E-1
7.054638586E1,-1.898263767E-2,-1.403951496E-1,2.545616031E-1
7.059837932E1,-2.254550904E-1,-1.825448573E-1,5.297606811E-2
7.065037328E1,-3.433520794E-1,-8.724988252E-2,-1.815961897E-1
7.070236690E1,-4.807967544E-1,-8.297382295E-2,-2.127503157E-1
7.075436029E1,-4.930140674E-1,-2.527943552E-1,-1.895374358E-1
7.080635365E1,-5.260007977E-1,-2.950479044E-3,-1.724332124E-1
7.085834838E1,-5.675396323E-1,5.601634271E-3,-1.327269673E-1
7.091034433E1,-4.875162542E-1,-2.039251477E-1,-1.260074526E-1
7.096233759E1,-6.365673542E-1,-1.379516870E-1,-9.179899842E-2
7.101433095E1,-8.216595650E-1,-2.497400343E-1,8.993769065E-3
7.106632428E1,-1.068449140E0,-4.317778945E-1,-8.721322753E-3
7.111831764E1,-1.246821761E0,-1.629971713E-1,2.915232256E-2
7.117031100E1,-1.445963860E0,2.639976144E-1,-1.034054309E-1
7.122230432E1,-1.651214600E0,8.614238501E-1,-5.853781104E-1
7.127429794E1,-1.899836659E0,1.972587824E0,-7.826875448E-1
7.132629203E1,-1.943818927E0,3.339704037E0,-1.229840994E0
7.137828526E1,-1.596847534E0,3.405066729E0,-1.700817943E0
7.143027865E1,-1.595625877E0,3.420338392E0,-2.138808250E0
7.148227191E1,-1.540037155E0,2.551077127E0,-2.629333258E0
7.153426530E1,-1.538815260E0,5.285022855E-1,-2.551142693E0
7.158625873E1,-1.770944238E0,-1.233844042E0,-2.424082518E0
7.163825195E1,-2.252916813E0,-2.640055656E0,-2.213944912E0
7.169024584E1,-2.439230680E0,-2.237495661E0,-1.626292467E0
7.174223973E1,-2.226038933E0,-1.126331687E0,-1.266492963E0
7.179423302E1,-1.511326432E0,1.308290064E-1,-7.692485452E-1
7.184622631E1,-7.349166870E-1,3.623469174E-1,-3.624123037E-1
7.189822124E1,2.499966137E-2,1.537547819E-2,-8.813380450E-2
7.195021996E1,4.440532327E-1,1.968024671E-1,1.812577695E-1
7.200221685E1,6.267018914E-1,9.945924878E-1,5.117358565E-1
7.205421064E1,7.067252994E-1,9.952033162E-1,5.502203703E-1
7.210620407E1,6.413626671E-1,1.217558265E0,5.880939960E-1
7.215819753E1,5.711131692E-1,1.373939872E0,3.443588018E-1
7.221019062E1,4.501618743E-1,1.278644800E0,2.380682379E-1
7.226218408E1,3.176041245E-1,1.020859718E0,-5.881227553E-2
7.231417727E1,1.838246286E-1,8.351566195E-1,-1.971689798E-2
7.236617149E1,1.367879957E-1,1.139978409E0,-7.652736455E-2
7.241816512E1,9.524916112E-2,6.299059391E-1,-1.693788767E-1
7.247015834E1,6.348416954E-2,6.470101476E-1,-3.984533250E-1
7.252215174E1,6.714936346E-2,6.854946017E-1,-3.929555714E-1
7.257414506E1,7.570147514E-2,1.642109632E0,-7.499592844E-3
7.262613835E1,4.271475226E-2,2.086819649E0,2.588376403E-1
7.267813185E1,-1.387122124E-1,8.125545979E-1,7.860143185E-1
7.273012540E1,-9.181762934E-1,-4.922535419E-1,1.699257970E0
7.278211946E1,-2.498897016E-1,-1.598530531E0,2.181230545E0
7.283411278E1,-5.563455075E-2,-7.524821162E-1,2.358992338E0
7.288610604E1,4.403880239E-1,-2.600349665E0,2.362657547E0
7.293809940E1,1.142883062E0,-2.655327320E0,2.761552572E0
7.299009412E1,1.411052823E0,-3.701739550E0,3.182438612E0
7.304209294E1,2.295585632E0,-3.260083914E0,1.969871163E0
7.309408933E1,2.369500399E0,-3.653481245E0,1.492785454E0
7.314608283E1,1.841712832E0,-2.489783049E0,1.607628226E0
7.319807612E1,1.094624758E0,-1.680386424E0,1.192850590E0
7.325006941E1,5.216330886E-1,-1.649843097E0,1.142148852E0
7.330206277E1,3.782783076E-2,-1.003547788E0,5.746549964E-1
7.335405603E1,9.830348939E-2,-1.506900787E0,-1.168444753E-1
7.340604936E1,-3.470172584E-1,-2.504443645E0,-5.725499392E-1
7.345804305E1,-1.938321233E0,-1.390225410E0,-2.926213741E0
7.351003720E1,-2.727559090E0,2.706236839E0,-5.291483879E0
7.356203036E1,-3.720825911E0,3.183322668E0,-1.201741099E0
7.361402392E1,3.300458908E0,-9.894978404E-1,1.867856741E0
7.366601714E1,2.481288910E0,5.935777724E-2,1.305860758E0
7.371801040E1,4.122882485E-1,2.504040480E0,-8.691207319E-2
7.377000383E1,-8.302116990E-1,2.889496326E0,-5.575794727E-2
7.382199712E1,-2.034639418E-1,-1.739927530E-1,2.716658413E-1
7.387399088E1,-1.042181849E0,1.279866576E0,2.753310204E-1
7.392598483E1,-5.541005731E-1,-6.822326183E-1,6.091731787E-2
7.397797829E1,-3.940539062E-1,4.225354642E-2,2.783853412E-1
7.402997165E1,-1.484860629E-1,2.548346519E-1,6.519337744E-2
7.408196554E1,-3.659541011E-1,1.125030518E-1,-2.384066582E-1
7.413396176E1,-2.169029713E-1,-6.370286345E-1,-5.010787249E-1
7.418595545E1,-1.179428101E-1,2.942537889E-2,-4.210553467E-1
7.423794878E1,-2.142609842E-2,-4.360539317E-1,-1.968678087E-1
7.428994220E1,-1.161102131E-1,-1.159318328E0,-8.935553581E-2
7.434193570E1,-2.211790383E-1,-1.535611272E0,7.802154869E-2
7.439392879E1,-3.592346013E-1,-1.366401792E0,2.808288038E-1
7.444592222E1,-5.528788567E-1,-1.425044775E0,1.403298080E-1
7.449791590E1,-8.106639981E-1,-9.754479527E-1,1.012344211E-1
7.454990972E1,-1.087996840E0,1.790873557E-1,-2.231350243E-1
7.460190315E1,-1.417863965E0,5.120089054E-1,-1.504420638E-1
7.465389658E1,-2.289568901E0,1.397152662E0,-6.373016238E-1
7.470588987E1,-3.142947435E0,3.185155392E0,-4.662593901E-1
7.475788349E1,-3.351252556E0,4.044642448E0,-7.313748598E-1
7.480987652E1,-2.505204201E0,3.100855827E0,-1.067961693E0
7.486186994E1,-1.532095790E0,1.812541008E0,-1.388055086E0
7.491386373E1,-7.837859392E-1,-7.592016459E-1,-1.647061944E0
7.496585749E1,-1.179626584E0,-2.125707388E0,-1.897516608E0
7.501785085E1,-1.531484962E0,-2.845306396E0,-1.783284903E0
7.506984410E1,-1.961534023E0,-2.159915686E0,-1.616518736E0
7.512183836E1,-2.310949087E0,-4.232257605E-1,-1.358733535E0
7.517383698E1,-2.458167553E0,1.221223474E0,-1.176084876E0
7.522583411E1,-2.153345585E0,3.250841796E-1,-1.353846550E0
7.527782850E1,-1.893728018E0,3.092016578E-1,-1.121106982E0
7.532982176E1,-1.583408594E0,2.148413099E-2,-9.219648242E-1
7.538181516E1,-1.568136811E0,9.897055626E-1,-5.701065063E-1
7.543380855E1,-1.329899430E0,7.435268760E-1,-6.727318764E-1
7.548580187E1,-1.158857226E0,4.228225946E-1,-7.778006792E-1
7.553779537E1,-8.326551318E-1,5.944756866E-1,-6.715101600E-1
7.558978952E1,-5.052313805E-1,5.639324784E-1,-5.493370295E-1
7.564178281E1,-1.277166456E-1,4.619179666E-1,-2.933845222E-1
7.569377627E1,1.459509730E-1,2.401738912E-1,-1.467768699E-1
7.574576956E1,2.485763431E-1,2.914865613E-1,-7.041871548E-2
7.579776282E1,3.096628785E-1,2.829344571E-1,-3.010160662E-2
7.584975635E1,3.457039297E-1,2.890431285E-1,7.252375782E-2
7.590174974E1,2.943912446E-1,3.415775001E-1,1.989728510E-1
7.595374330E1,2.443002760E-1,8.929017931E-2,2.771635950E-1
7.600573728E1,1.935984641E-1,-3.083830774E-1,3.138155341E-1
7.605773057E1,1.184620410E-1,-5.289054513E-1,3.138155341E-1
7.610774036E1,5.859724805E-2,-6.046527624E-1,3.199241757E-1
7.615973372E1,3.416264057E-2,-6.370286345E-1,3.009873629E-1
7.621172758E1,1.950187236E-2,-6.351959705E-1,2.472312152E-1
7.626372607E1,2.438879572E-2,-5.191316009E-1,1.824794859E-1
7.631572316E1,-1.837177202E-2,-1.752144843E-1,1.299450845E-1
7.636771705E1,-8.251262456E-2,1.711461246E-1,6.397163868E-2
7.641971054E1,-1.552055776E-1,1.204442978E-1,-5.820140988E-2
7.647170373E1,-2.193464339E-1,9.539882839E-2,-1.620484889E-1
7.652369709E1,-2.700482607E-1,1.155573800E-1,-2.206915617E-1
7.657569032E1,-3.274695873E-1,2.126849592E-1,-2.158046365E-1
7.662768365E1,-2.987589240E-1,4.714047164E-2,-2.634521127E-1
7.667967750E1,-2.059074044E-1,-1.526124626E-1,-2.713933587E-1
7.673167146E1,-1.234406009E-1,8.440325409E-2,-1.925917715E-1
7.678366468E1,-4.952589795E-2,4.020531774E-1,-8.752293885E-2
7.683565814E1,1.156062540E-2,3.867815435E-1,-3.987545148E-2
7.688765143E1,4.760167375E-2,1.320507377E-1,-6.277862005E-3
7.693964473E1,6.348416954E-2,-3.105027974E-2,1.693501696E-2
7.699163808E1,8.914051205E-2,-2.339613857E-3,5.725212395E-2
7.704363144E1,1.282358915E-1,1.720807515E-2,8.718451858E-2
7.709562546E1,1.514487565E-1,1.048855577E-2,1.134517267E-1
7.714761912E1,1.453401148E-1,-5.393940024E-3,1.372754723E-1
7.719961255E1,1.129642576E-1,-6.525873393E-2,1.134517267E-1
7.725160570E1,6.470590085E-2,-1.177931428E-1,5.114347115E-2
7.730359946E1,2.194533311E-2,-1.061867028E-1,1.937847957E-2
7.735559565E1,-9.819659404E-3,-9.458027035E-2,-1.421911083E-2
7.740758971E1,-5.543602165E-3,-8.602815121E-2,-2.154949307E-2
7.745958314E1,-2.386956103E-2,-4.204585776E-2,-1.544084027E-2
7.751157640E1,-2.081523277E-2,-4.571104795E-2,-2.460381947E-2
7.756356972E1,-1.776090637E-2,-4.754364118E-2,-1.849516667E-2
7.761556318E1,-1.348484959E-2,1.936442801E-3,9.604634717E-3
7.766755641E1,-4.581489338E-5,-1.333518792E-2,1.204809546E-2
7.771955026E1,-1.226312015E-2,-2.738508955E-2,1.663386123E-3
7.777154428E1,3.591429591E-1,-5.508965850E-1,4.320222139E-2
7.782353744E1,1.619968891E0,-3.274133682E0,2.661680281E-1
7.787553080E1,2.671267748E0,-4.541068554E0,1.641535312E-1
7.792752416E1,3.475777388E0,-2.046905756E0,5.544964671E-1
7.797951746E1,3.917433023E0,-1.007823825E0,1.026695371E0
7.803151085E1,3.764716864E0,-1.944891095E0,9.845455885E-1
7.808350414E1,3.443401575E0,-1.506289840E0,8.409922719E-1
7.813549806E1,2.877129316E0,-1.195970297E0,7.359234095E-1
7.818749182E1,2.155086756E0,-1.191083431E0,2.405117005E-1
7.823948511E1,1.551551938E0,-5.582270026E-1,-7.499592844E-3
7.829147850E1,1.031705618E0,-1.605537087E-1,-1.999221444E-1
7.834347196E1,6.896210313E-1,-2.906680107E-1,-3.245386779E-1
7.839546982E1,4.049578607E-1,-3.561344463E-3,-2.542891502E-1
7.844746764E1,1.532813609E-1,1.051726714E-1,-1.791527271E-1
7.849946173E1,5.650503444E-4,-9.213680029E-2,-1.198987961E-1
7.855145522E1,-1.906357706E-1,6.974248588E-2,-4.720583186E-2
7.860344855E1,-2.749351859E-1,-6.464786828E-2,9.604634717E-3
7.865544194E1,-3.574019670E-1,-1.129062176E-1,1.449155621E-2
7.870743523E1,-3.354108334E-1,8.501411229E-2,1.265896019E-2
7.875942849E1,-2.602744102E-1,-7.747603953E-2,-7.102958113E-2
7.881142185E1,-1.857488602E-1,4.836220294E-2,-1.009619758E-1
7.886341604E1,-1.466534734E-1,-3.960239515E-2,-1.345595717E-1
7.891540953E1,-8.190175891E-2,-8.236295730E-2,-1.858722419E-1
7.896740286E1,1.705841348E-2,-2.616335824E-2,-1.803744435E-1
7.901939621E1,1.844354868E-1,-4.592668116E-1,-1.040163040E-1
7.907138951E1,4.538270533E-1,-8.575509787E-1,-1.089032218E-1
7.912338283E1,8.056854010E-1,-2.228619754E-1,-6.277862005E-3
7.917537623E1,1.120280981E0,-9.271895885E-1,-1.950352192E-1
7.922736975E1,1.105620265E0,-5.362358689E-1,-1.663245559E-1
7.927936397E1,8.563872576E-1,-3.682478964E-1,-1.479986012E-1
7.933135716E1,5.949369669E-1,-5.747203231E-1,-1.577724516E-1
7.938335052E1,3.560886085E-1,-3.108265698E-1,-9.485332668E-2
7.943534398E1,2.100918293E-1,-2.112555206E-1,-1.290617883E-1
7.948733990E1,1.111316606E-1,-1.226800680E-1,-1.211205274E-1
7.953933456E1,5.451972596E-3,-7.747603953E-2,-6.186660007E-2
7.959132785E1,-1.898263767E-2,-1.947621554E-1,3.526097536E-2
7.964332114E1,-4.097378626E-2,-2.326358259E-1,1.036778763E-1
7.969531464E1,-1.362687647E-1,-1.171822846E-1,8.840624988E-2
7.974730786E1,-2.028530687E-1,-2.937223315E-1,3.403924406E-2
7.979930122E1,-2.633287311E-1,-1.177931428E-1,-9.179899842E-2
7.985129465E1,-2.010204792E-1,4.652960598E-2,-1.302835047E-1
7.990328887E1,-1.545947194E-1,8.806844056E-2,-1.852613837E-1
7.995528232E1,-1.869705766E-1,1.955807209E-1,-1.657136828E-1
8.000727555E1,-1.875814497E-1,3.370143473E-2,-9.607505053E-2
8.005926894E1,-1.264949143E-1,6.057950482E-2,-2.765814587E-2
8.011126220E1,-8.068002760E-2,7.524026930E-2,-3.071247041E-2
8.016325576E1,-8.129089326E-2,6.424469501E-2,-5.087102577E-2
8.021524892E1,-7.640396804E-2,-1.752144843E-1,1.632415131E-2
8.026724238E1,-1.356578916E-1,-1.794905365E-1,-3.834401025E-3
8.031923656E1,-1.387122124E-1,-1.196257398E-1,6.519337744E-2
8.037122996E1,-1.643685549E-1,-9.152594209E-2,1.006235555E-1
8.042322325E1,-1.161102131E-1,-1.159605458E-1,4.992173985E-2
8.047521671E1,-7.579310238E-2,4.958393052E-2,5.939442664E-3
8.052721359E1,-8.251262456E-2,9.877691045E-3,-8.080342412E-2
8.057921182E1,-3.730859235E-2,3.431230038E-2,-6.247746199E-2
8.063120764E1,-3.975205496E-2,7.829460502E-2,-7.530563325E-2
8.068320104E1,-8.434522152E-2,-2.677422389E-2,-5.087102577E-2
8.073519419E1,-1.582599133E-1,-3.227201104E-2,-2.277122252E-2
8.078718765E1,-1.307709813E-1,1.232115179E-2,-1.788430288E-2
8.083918088E1,-6.785185635E-2,7.768373191E-2,-6.980784237E-2
8.089117427E1,-2.570215613E-2,1.088378578E-1,-8.935553581E-2
8.094316846E1,-2.020436898E-2,1.070052609E-1,-3.315593302E-2
8.099516192E1,-5.543602165E-3,1.070052609E-1,-6.888727192E-3
8.104715531E1,-3.711006371E-3,6.974248588E-2,-2.093862742E-2
8.109914877E1,5.451972596E-3,2.194044590E-1,-3.926458210E-2
8.115114199E1,6.959282607E-2,6.119037420E-2,-5.514708161E-2
8.120313522E1,-3.853032738E-2,1.070052609E-1,-5.759054050E-2
8.125512861E1,-1.252731979E-1,3.580708802E-1,-5.942313746E-2
8.130712200E1,-2.914285362E-1,1.276812315E0,-1.400573552E-1
8.135911599E1,-8.405963778E-1,2.087430477E0,-2.506239712E-1
8.141110991E1,-1.710468531E0,2.534583807E0,-3.453080654E-1
8.146310317E1,-2.802695513E0,1.919442534E0,-6.507407427E-1
8.151509633E1,-3.223581791E0,1.369663715E0,-4.980243742E-1
8.156708969E1,-3.659739494E0,1.158915162E0,-4.919157326E-1
8.161908638E1,-3.133173466E0,9.671035409E-1,-3.990642130E-1
8.167108486E1,-2.530860662E0,1.087443948E0,-2.848324180E-1
8.172307962E1,-2.000018597E0,3.293601871E-1,-3.621025756E-2
8.177507298E1,-1.631666899E0,1.314398795E-1,-3.223536070E-3
8.182706627E1,-1.273699880E0,1.619831324E-1,-2.756694257E-1
8.187905987E1,-1.190011382E0,4.179356694E-1,-5.224589705E-1
8.193105299E1,-1.665264487E0,1.408148170E0,-7.283205390E-1
8.198304632E1,-2.269410133E0,3.510135412E0,-9.066932201E-1
8.203503978E1,-2.226038933E0,4.880306244E0,-1.516947627E0
8.208703386E1,-5.595983863E-1,2.109421730E0,-2.096658707E0
8.213902729E1,1.184620410E-1,-2.509617507E-1,-5.646086931E-1
8.219102058E1,4.843703210E-1,-4.989730418E-1,3.767346442E-1
8.224301397E1,7.458207011E-1,-3.328177333E-1,6.161938310E-1
8.229500753E1,6.120411158E-1,6.134125590E-1,6.241350770E-1
8.234700066E1,3.560886085E-1,5.303348899E-1,2.063032389E-1
8.239899401E1,8.364272118E-2,4.990769085E-3,-1.596050411E-1
8.245098757E1,-8.006916195E-2,-5.362358689E-1,-1.852613837E-1
8.250298179E1,4.149302468E-2,-8.184555769E-1,3.403924406E-2
8.255497508E1,1.111316606E-1,-7.335453033E-1,3.046525717E-1
8.260696831E1,2.119244188E-1,-3.572523296E-1,4.616449177E-1
8.265896177E1,2.534632683E-1,2.377304286E-1,5.068489313E-1
8.271095709E1,2.265851945E-1,5.034568310E-1,3.920062780E-1
8.276295235E1,1.661095321E-1,4.887960553E-1,2.075249851E-1
8.281494578E1,1.435075253E-1,3.989988267E-1,4.136962444E-2
8.286693910E1,8.547531813E-2,1.006809711E0,9.695836902E-2
8.291893233E1,-1.759750098E-1,9.713795781E-1,1.171169207E-1
8.297092582E1,2.131461501E-1,-4.342213571E-1,1.971402615E-1
8.302291911E1,8.032420278E-1,-7.136738300E-2,1.977511346E-1
8.307491251E1,1.055529356E0,1.859577656E0,3.541326225E-1
8.312690669E1,1.286436439E0,2.501596928E0,6.278002262E-1
8.317890008E1,1.444039702E0,2.123471498E0,8.251097202E-1
8.323089344E1,1.552162766E0,1.601181626E0,9.631652832E-1
8.328288667E1,1.494130611E0,1.262762308E0,9.546131492E-1
8.333487996E1,1.430600643E0,9.023517966E-1,1.040745139E0
8.338489270E1,1.425713658E0,5.877562165E-1,9.118525982E-1
8.343688569E1,1.216797709E0,6.317385435E-1,8.281640410E-1
8.348887948E1,9.382432103E-1,4.161030948E-1,6.406283975E-1
8.354087337E1,7.024492025E-1,3.904467523E-1,5.557181239E-1
8.359286660E1,5.912717581E-1,7.142053246E-1,5.618268251E-1
8.364486009E1,4.660443664E-1,9.964250326E-1,6.821672916E-1
8.369685335E1,3.609755635E-1,6.097473502E-1,6.687282324E-1
8.374884900E1,1.422857791E-1,4.832982421E-1,5.538855791E-1
8.380084789E1,-3.189174831E-1,1.447243690E0,5.233423114E-1
8.385284332E1,-4.710229039E-1,8.498173952E-1,4.579797387E-1
8.390483671E1,-8.607549667E-1,3.916684687E-1,5.147902369E-1
8.395683007E1,-1.390375137E0,4.820765257E-1,1.589302182E0
8.400882343E1,-1.272478104E0,-5.906028152E-1,2.015075207E0
8.406081675E1,-8.259356022E-1,-3.810760677E-1,1.792109370E0
8.411281001E1,-9.841496944E-1,-3.105027974E-2,1.550206780E0
8.416480344E1,-1.187567830E0,-1.001104355E0,6.778912544E-1
8.421679719E1,-1.792324424E0,-7.127758861E-1,3.669608235E-1
8.426879098E1,-2.666472673E0,5.935777724E-2,5.297606811E-2
8.432078447E1,-2.684798479E0,-1.220691949E-1,-1.840396374E-1
8.437277773E1,-1.048901439E0,-3.297633827E-1,9.973737001E-1
8.442477106E1,1.085461617E0,-1.111670852E0,2.928929806E0
8.447676442E1,2.591855526E0,-3.878890276E0,4.465255737E0
8.452875764E1,3.618109226E0,-3.925316095E0,3.783529997E0
8.458075107E1,3.164236069E0,-3.075602770E0,3.289950848E0
8.463274502E1,2.559479475E0,-3.944252968E0,1.918558478E0
8.468473891E1,1.451370001E0,-2.225278378E0,1.098777294E0
8.473673210E1,2.397646196E-3,-8.960354328E-1,1.072510123E0
8.478872543E1,-5.009553432E-1,-1.291876078E0,1.072510123E0
8.484072009E1,-3.696192801E-1,-1.229567885E0,9.747717381E-1
8.489271611E1,-4.960683882E-1,-5.545617938E-1,4.866904020E-1
8.494470941E1,-1.527621299E-1,-1.318754315E0,1.818686426E-1
8.499670273E1,-4.410905242E-1,-1.910071731E0,-6.983881593E-1
8.504869606E1,-1.152137637E0,-3.205106258E0,-1.429593921E0
8.510068945E1,-4.150875092E0,9.121256471E-1,-3.138794899E0
8.515268278E1,-5.403759956E0,2.906600475E0,-4.336091042E0
8.520467604E1,1.376844525E0,8.800228119E0,9.723282456E-1
8.525667002E1,3.856957197E0,-2.494669914E0,2.829358578E0
8.530866388E1,1.444650531E0,6.054713130E-1,8.409922719E-1
8.536065710E1,5.961586833E-1,1.381270170E0,4.231604040E-1
8.541265053E1,9.999406338E-1,-1.192305088E0,1.384051442E0
8.546464379E1,9.229715466E-1,-3.298568249E0,1.641836524E0
8.551663715E1,8.673828244E-1,-2.379827261E0,1.670547247E0
8.556863057E1,6.560234427E-1,-1.110449195E0,1.744461894E0
8.562062380E1,5.307961106E-1,-9.467372894E-1,1.307693243E0
8.567261778E1,4.190077484E-1,-1.161151052E0,1.063958049E0
8.572461154E1,3.157715201E-1,-1.161761880E0,9.087982774E-1
8.577660480E1,-1.267545391E-3,-7.225497365E-1,7.230952382E-1
8.582859823E1,-2.101834565E-1,-5.014165044E-1,7.120996714E-1
8.588059288E1,-8.124966025E-1,4.881851673E-1,5.025728941E-1
8.593259160E1,-9.047372341E-1,7.062640786E-1,4.628666341E-1
8.598458853E1,-6.066350341E-1,2.835453153E-1,2.215748727E-1
8.603658249E1,-5.418832898E-1,-3.260982037E-1,3.953703493E-2
8.608857588E1,-3.763388097E-1,4.103181884E-2,-7.164043933E-2
8.614056938E1,-2.859307528E-1,3.873924315E-1,-2.445152998E-1
8.619256247E1,-3.225826621E-1,3.360797465E-1,-3.349233568E-1
8.624455586E1,-4.081037939E-1,6.555622816E-1,-2.439044565E-1
8.629654935E1,-5.388289690E-1,5.480499864E-1,-1.541072577E-1
8.634854350E1,-6.958213449E-1,8.828041553E-1,-4.354064167E-2
8.640053693E1,-1.109987974E0,1.792993307E0,-1.742658019E-1
8.645253016E1,-1.533317685E0,3.284115553E0,-3.709644079E-1
8.650452358E1,-1.968864560E0,4.936505795E0,-6.647905707E-1
8.655651688E1,-2.297509909E0,6.095317364E0,-1.074681163E0
8.660851020E1,-2.535747528E0,5.237051964E0,-1.890797138E0
8.666050359E1,-2.450226307E0,2.327500582E0,-3.048386812E0
8.671249718E1,-2.240699530E0,-2.431750774E0,-3.596943855E0
8.676449120E1,-3.297496319E0,-5.008991241E0,-3.074043274E0
8.681648456E1,-3.849718571E0,-8.581618071E-1,-9.622820020E-1
8.686847782E1,-3.624920130E0,2.506483793E0,-4.351052642E-1
8.692047121E1,-2.813691139E0,1.375772357E0,-1.168754339E0
8.697246577E1,-2.153956890E0,1.289964169E-1,-1.235949636E0
8.702446465E1,-1.701305509E0,-2.234728336E-1,-1.062463880E0
8.707646108E1,-1.267591238E0,9.518319368E-1,-9.085258245E-1
8.712845457E1,-8.289899230E-1,1.904781699E0,-7.258771658E-1
8.718044793E1,-3.036458492E-1,1.721522093E0,-5.084090829E-1
8.723244122E1,-2.570215613E-2,1.183960676E0,-2.487913668E-1
8.728443451E1,2.675131559E-1,1.221834302E0,1.354428679E-1
8.733642794E1,4.745964706E-1,1.035520434E0,3.315306008E-1
8.738842120E1,5.503437519E-1,4.130487740E-1,5.294509530E-1
8.744041502E1,6.370866299E-1,-2.075903267E-1,6.003113389E-1
8.749240898E1,6.731277108E-1,-7.075652480E-2,6.797237992E-1
8.754440230E1,7.696443796E-1,1.283855438E-1,7.511950731E-1
8.759639573E1,7.855269313E-1,6.607729197E-2,7.212626338E-1
8.764838892E1,7.574270368E-1,8.623585105E-2,6.485697031E-1
8.770038225E1,6.407518387E-1,3.348580003E-1,5.398356915E-1
8.775237561E1,4.654335082E-1,6.409015059E-1,5.343378782E-1
8.780436897E1,2.662914395E-1,5.358326435E-1,4.280473292E-1
8.785636292E1,1.129642576E-1,3.666229844E-1,2.802179158E-1
8.790835658E1,7.386887819E-2,3.324145377E-1,1.904207468E-1
8.796034990E1,8.730791509E-2,4.435920119E-1,8.107586950E-2
8.801234343E1,8.303186297E-2,4.906286299E-1,1.751491129E-1
8.806433722E1,2.913369238E-1,2.988169491E-1,1.812577695E-1
8.811633364E1,3.267670870E-1,1.864177436E-1,3.156481385E-1
8.816832726E1,4.947550297E-1,-2.185859084E-1,3.541326225E-1
8.822032086E1,5.295743346E-1,-1.129062176E-1,4.286582172E-1
8.827231388E1,5.338504314E-1,1.522092968E-1,5.074598193E-1
8.832430738E1,5.259091854E-1,2.719388604E-1,6.241350770E-1
8.837630064E1,4.220620692E-1,3.660121262E-1,6.693391204E-1
8.842829399E1,2.644588351E-1,4.912394881E-1,7.316473126E-1
8.848028791E1,1.398423314E-1,5.596564412E-1,6.516240239E-1
8.853228164E1,1.331228018E-1,6.030278206E-1,6.485697031E-1
8.858427513E1,2.290286571E-1,7.930069566E-1,5.398356915E-1
8.863626822E1,2.180330753E-1,1.488171577E0,4.213278294E-1
8.868826168E1,3.108845949E-1,1.750232816E0,1.647644043E-1
8.874025507E1,1.856572330E-1,1.274979591E0,-1.913700253E-1
8.879224837E1,3.416264057E-2,-4.439951777E-1,-3.972316384E-1
8.884424163E1,-4.478100240E-1,-3.432024121E-1,1.812577695E-1
8.889623574E1,-6.316804886E-1,-1.127553344E0,1.704144716E0
8.894822927E1,-2.712699771E-1,-8.337272406E-1,2.340666533E0
8.900022269E1,9.097310901E-2,-8.856507540E-1,2.217882633E0
8.905221609E1,9.791711569E-1,-2.356003523E0,2.883114815E0
8.910421001E1,2.021307230E0,-3.665698528E0,3.517803669E0
8.915620870E1,2.673711538E0,-3.166621685E0,2.891055822E0
8.920820569E1,2.615068436E0,-3.689522266E0,2.513541222E0
8.926019935E1,2.393324137E0,-3.644928932E0,1.812267900E0
8.931219264E1,1.581484199E0,-2.093331337E0,1.384662390E0
8.936418623E1,4.599356949E-1,-8.037948012E-1,1.341901779E0
8.941617939E1,4.271475226E-2,-1.095788479E0,8.739789724E-1
8.946817265E1,9.036224335E-2,-1.310812950E0,4.030018747E-1
8.952016618E1,9.728029370E-3,-1.385949373E0,-7.800749154E-4
8.957215947E1,-3.641214967E-1,-2.830034971E0,-9.091367126E-1
8.962415352E1,-1.583408594E0,-2.596073389E0,-2.414919376E0
8.967614711E1,-3.500914574E0,1.798491120E0,-4.643966675E0
8.972814034E1,-3.623698473E0,2.348269701E0,-9.561733603E-1
8.978013373E1,4.825789452E0,-2.916777611E0,1.235000372E0
8.983212702E1,3.704241037E0,1.281699061E0,1.609460711E0
8.988412032E1,3.542560339E-1,7.271233082E0,1.144592285E0
8.993611371E1,8.364272118E-2,6.115799546E-1,-1.009619758E-1
8.998810736E1,-6.907358766E-2,7.890546322E-2,4.866904020E-1
9.004010172E1,-4.319275618E-1,6.488426924E-1,4.756948352E-1
9.009209494E1,-3.146414161E-1,-3.969585598E-1,1.855338216E-1
9.014408800E1,-2.346180677E-1,1.766439080E-1,-9.302072972E-2
9.019608189E1,-2.114052027E-1,3.800620437E-1,-2.139720470E-1
9.024807805E1,-1.857488602E-1,3.684555888E-1,-2.237458974E-1
9.030007198E1,-3.109762371E-1,2.304000407E-1,-1.699897498E-1
9.035206540E1,-3.176957369E-1,2.026239969E-2,-3.899012506E-1
9.040405873E1,-4.453665912E-1,-1.489472687E-1,-5.053547621E-1
9.045605202E1,-4.673577249E-1,-2.534052134E-1,-4.222770929E-1
9.050804541E1,-4.160450399E-1,-3.890173137E-1,-3.294255733E-1
9.056003877E1,-4.252080321E-1,-4.672080576E-1,-3.184300065E-1
9.061203216E1,-4.728555381E-1,-6.309199333E-1,-1.962569654E-1
9.066401898E1,-4.887380004E-1,-6.327525377E-1,-2.536782920E-1
9.071601220E1,-6.561151147E-1,-1.330647767E-1,-2.390175164E-1
9.076800553E1,-8.167726398E-1,1.412137151E-1,3.770443797E-2
9.081999895E1,-6.341239810E-1,-1.067975685E-1,-7.591649890E-2
9.087199225E1,-6.341239810E-1,9.726012945E-1,4.014789686E-2
9.092398560E1,-8.491485119E-1,1.431971908E0,-2.188589573E-1
9.097597890E1,-1.015914679E0,1.733128548E0,-6.476863623E-1
9.102797262E1,-1.386098981E0,2.322002649E0,-1.227397442E0
9.107996654E1,-1.637775540E0,2.803975344E0,-2.160799503E0
9.113195993E1,-1.681757808E0,3.431334019E0,-2.536481619E0
9.118395326E1,-1.426416159E0,3.469207525E0,-2.377045870E0
9.123594678E1,-8.234921694E-1,2.035506725E0,-2.356276274E0
9.128794480E1,-7.850076556E-1,1.195567131E0,-1.864529848E0
9.133994246E1,-7.819533348E-1,-4.293344021E-1,-1.798556566E0
9.139193655E1,-9.053480625E-1,-1.236287355E0,-1.428982973E0
9.144392998E1,-7.501883507E-1,-3.276577473E0,-1.783895731E0
9.149592327E1,-9.065698385E-1,-4.134842873E0,-1.876747251E0
9.154791663E1,-9.646020532E-1,-3.791536570E0,-1.602468729E0
9.159990999E1,-1.311573505E0,-1.132440329E0,-1.259773374E0
9.165190325E1,-1.182680964E0,1.574303627E0,-4.882505536E-1
9.170389658E1,-9.853714705E-1,3.075810194E0,-2.115285844E-1
9.175589060E1,-3.745062053E-1,1.946320534E0,-2.817780674E-1
9.180788428E1,-2.511114478E-1,2.352869660E-1,-1.644919515E-1
9.185987761E1,-2.376723886E-1,-1.959839016E-1,9.634749591E-2
9.191187100E1,1.178511828E-1,-5.365229398E-2,3.168698549E-1
9.196386430E1,4.642117620E-1,1.424354613E-1,5.208988786E-1
9.201585762E1,7.946898937E-1,-1.910969764E-1,6.161938310E-1
9.206785098E1,8.569980860E-1,3.635686636E-1,8.342726827E-1
9.211984431E1,8.887631297E-1,2.823235691E-1,8.978026509E-1
9.217183833E1,7.922464013E-1,2.859887779E-1,8.440465927E-1
9.222383195E1,6.657972932E-1,2.438390851E-1,8.324401379E-1
9.227582534E1,4.892572463E-1,4.533658326E-1,7.890686393E-1
9.232781873E1,3.725819588E-1,3.385231793E-1,7.854034901E-1
9.237981482E1,3.689167798E-1,6.402906775E-1,7.628014684E-1
9.243180932E1,2.100918293E-1,1.687026471E-1,6.595652699E-1
9.248380257E1,1.722181886E-1,4.576418996E-1,4.695861638E-1
9.253579603E1,2.088700980E-1,4.796330631E-1,2.631137073E-1
9.258778943E1,1.960419267E-1,2.285961628E0,1.849229634E-1
9.263978262E1,-1.319927126E-1,2.039171934E0,5.117358565E-1
9.269177605E1,-3.531259298E-1,4.839091301E-1,1.032804012E0
9.274376934E1,-3.975205496E-2,-1.184363842E0,1.366947293E0
9.279576332E1,3.171917796E-2,-3.230438530E-1,2.164737225E0
9.284775705E1,4.458858073E-1,-3.224042892E0,2.551414967E0
9.289975037E1,1.217408538E0,-3.865451336E0,3.092641592E0
9.295174366E1,2.031081200E0,-4.138508320E0,3.224588394E0
9.300373706E1,2.860025167E0,-4.003507137E0,2.750556946E0
9.305573035E1,2.930885792E0,-4.142784119E0,1.679099321E0
9.310772374E1,1.979157567E0,-2.580801725E0,1.331516981E0
9.315971727E1,9.058673978E-1,-1.553937435E0,1.248439312E0
9.321171138E1,-8.434522152E-2,-6.309199333E-1,9.821020961E-1
9.326370471E1,-5.455484390E-1,-1.300104558E-1,8.501552343E-1
9.331569800E1,-3.457955420E-1,-1.992538571E0,4.836360812E-1
9.336769143E1,-2.199573070E-1,-1.251559138E0,3.187024593E-1
9.341968855E1,-4.643034041E-1,-2.258264780E0,-6.550167203E-1
9.347168668E1,-8.167726398E-1,-2.793993950E0,-9.940469265E-1
9.352368243E1,-2.967018366E0,1.289964169E-1,-4.129007339E0
9.357567576E1,-3.697613001E0,3.129566431E0,-5.130215168E0
9.362766905E1,1.707322478E0,7.639584541E0,2.283855915E0
9.367966244E1,5.324255943E0,-4.087195396E0,2.855014801E0
9.373165567E1,3.594896317E0,1.436248064E0,1.413983941E0
9.378364903E1,1.581484199E0,3.970117092E0,1.099999189E0
9.383564298E1,5.216330886E-1,2.546801090E0,5.746549964E-1
9.388763684E1,4.648226202E-1,-1.343799710E0,1.265896019E-2
9.393963007E1,3.377626538E-1,-1.460474968E0,3.315306008E-1
9.399162339E1,1.398423314E-1,-8.013513684E-1,4.402646124E-1
9.404361675E1,1.606117338E-1,-3.236547112E-1,4.885229766E-1
9.409561008E1,2.271960676E-1,-6.199243665E-1,3.052634299E-1
9.414760344E1,7.753407210E-2,-5.337923765E-1,3.681825399E-1
9.419959673E1,-7.029531896E-2,-7.848579884E-1,2.166879624E-1
9.425159049E1,-3.097544909E-1,-5.344032645E-1,8.840624988E-2
9.430358451E1,-4.166559279E-1,-1.239017919E-1,1.177277863E-1
9.435557783E1,-4.417013824E-1,-8.053036779E-2,7.313462347E-2
9.440757109E1,-1.820836663E-1,-5.056925416E-1,-1.608267725E-1
9.445956455E1,-1.784184724E-1,1.803091019E-1,-1.687680185E-1
9.451156150E1,-1.552055776E-1,4.356507659E-1,-1.223422587E-1
9.456355966E1,-5.624542013E-2,1.754221618E-1,-1.284509152E-1
9.461555455E1,-1.881923079E-1,2.859887779E-1,1.238364354E-1
9.466754775E1,-2.022422254E-1,-2.711203396E-1,1.275016218E-1
9.471954107E1,-5.418832898E-1,-4.317778945E-1,3.254219592E-1
9.477153453E1,-5.980829000E-1,-7.188845277E-1,1.940859407E-1
9.482352782E1,-8.686961532E-1,-1.996490955E-1,2.863265872E-1
9.487552115E1,-1.130757332E0,2.560563982E-1,1.898098737E-1
9.492751464E1,-1.553476095E0,1.694033146E0,-2.561217248E-1
9.497950840E1,-1.899836659E0,3.281060934E0,-1.223121405E0
9.503150219E1,-1.574245572E0,3.430112362E0,-2.097880363E0
9.508349548E1,-1.686033964E0,4.843043327E0,-2.370326519E0
9.513548887E1,-1.141142130E0,4.816165447E0,-3.278072119E0
9.518748210E1,-2.608852983E-1,5.045239925E0,-3.914593697E0
9.523947552E1,5.246874094E-1,3.669571400E0,-4.296995163E0
9.529146882E1,1.156322122E0,8.681433797E-1,-3.538911581E0
9.534346208E1,2.168113440E-1,1.169910789E0,-2.783882141E0
9.539545626E1,-1.197754070E-1,-7.503257692E-2,-1.925005674E0
9.544744982E1,-9.228646755E-2,-7.934101224E-1,-1.159591436E0
9.549944308E1,-2.111196041E0,-1.960773587E0,7.008029521E-2
9.555143657E1,-1.657323241E0,-5.924354196E-1,8.568747640E-1
9.560343199E1,-1.049512386E0,2.884322405E-1,3.101503253E-1
9.565542712E1,-1.209558964E0,-1.072575569E0,-2.573434711E-1
9.570742058E1,-9.340587854E-1,8.895236254E-1,-3.416428864E-1
9.575941407E1,-1.277364969E0,-7.347670197E-1,-1.440589428E0
9.581140720E1,-1.235215306E0,1.176019430E0,-8.376654387E-1
9.586340055E1,-2.144595236E-1,-4.018454850E-1,2.680006325E-1
9.591539385E1,5.265200138E-1,-6.303091049E-1,2.191004276E0
9.596738721E1,1.411663771E0,-2.002312422E0,3.176940918E0
9.601938133E1,2.067121983E0,-2.592408180E0,3.817738533E0
9.607137505E1,2.423256636E0,-2.187404633E0,3.795136452E0
9.612336834E1,2.881405592E0,-3.692576647E0,3.471988678E0
9.617536150E1,3.187448978E0,-4.334595680E0,3.046215773E0
9.622735486E1,2.847807884E0,-3.431126118E0,2.133583069E0
9.627934822E1,2.027415991E0,-2.104326963E0,1.484844208E0
9.633134144E1,1.034759879E0,9.310625196E-1,1.503780961E0
9.638333494E1,2.516306639E-1,1.986350566E-1,1.827539563E0
9.643532916E1,-5.712048411E-1,-1.286989212E0,1.256991506E0
9.648732248E1,-7.630164623E-1,-2.993135691E0,-4.381595850E-1
9.653931591E1,-6.732193232E-1,3.599034846E-1,-1.651028246E-1
9.659130923E1,-5.319108814E-2,1.005588055E0,-2.310762852E-1
9.664330519E1,1.011547089E0,-7.475951910E-1,5.416682959E-1
9.669530374E1,1.137996078E0,-2.428085566E0,4.970751107E-1
9.674730020E1,6.731277108E-1,-1.597919703E0,4.469841719E-1
9.679929350E1,-6.968445331E-2,-9.772804976E-1,3.162589669E-1
9.685128692E1,-9.029046893E-1,-1.132440329E0,1.128408611E-1
9.690328025E1,-8.515920043E-1,-1.252780795E0,-6.818948388E-1
9.695527358E1,-8.387637734E-1,-2.192291498E0,-9.812188148E-1
9.700726693E1,-2.225427866E0,-1.511176705E0,-2.046567678E0
9.705926066E1,-3.601707220E0,1.852247357E0,-4.568219662E0
9.711125464E1,-5.298079967E0,6.590117931E0,-4.005001545E0
9.716324787E1,1.982822776E0,4.055027485E0,1.739574909E0
9.721524136E1,3.788540602E0,-3.994954824E0,2.794539213E0
9.726723455E1,2.341400623E0,2.099647760E0,8.379379511E-1
9.731922791E1,1.770241737E0,7.728483677E-1,1.660162449E0
9.737122137E1,1.701213837E0,-2.189848185E0,1.355951667E0
9.742321453E1,1.285214663E0,-2.070729256E0,1.453690052E0
9.747520845E1,7.354359031E-1,-9.668958187E-1,9.711065292E-1
9.752720231E1,1.783268452E-1,4.283203781E-1,6.974388957E-1
9.757919557E1,-8.129089326E-2,3.977771401E-1,4.139974415E-1
9.763118939E1,1.705841348E-2,-9.396939725E-2,-4.964929447E-2
9.768318225E1,-2.761569023E-1,2.780475318E-1,-8.996640146E-2
9.773517817E1,-4.496426284E-1,2.609432936E-1,-1.797636002E-1
9.778717689E1,-5.443267226E-1,1.803091019E-1,-2.182481140E-1
9.783917232E1,-5.632635355E-1,2.212370634E-1,-2.041981965E-1
9.789116568E1,-5.125617385E-1,1.015074775E-1,-2.750585675E-1
9.794313592E1,-5.999154449E-1,4.103181884E-2,-2.909410596E-1
9.799512918E1,-5.437158942E-1,-1.727710068E-1,-2.377957851E-1
9.804712260E1,-4.044385850E-1,-2.277488858E-1,-2.506239712E-1
9.809911589E1,-3.201391995E-1,7.434229832E-3,-1.699897498E-1
9.815110939E1,-3.042567074E-1,7.462941110E-2,-8.935553581E-2
9.820310350E1,-4.337601364E-1,1.955807209E-1,-7.408390939E-2
9.825509686E1,-1.005530000E0,1.925264001E-1,3.220665082E-2
9.830709026E1,-1.796600461E0,-1.758253425E-1,-5.636881292E-2
9.835908358E1,-2.492986917E0,4.417594373E-1,7.374548167E-2
9.841107694E1,-3.114236832E0,1.643942237E0,-1.773201227E-1
9.846307027E1,-3.282835722E0,3.682399750E0,-4.900831282E-1
9.851506352E1,-3.070254564E0,5.354948521E0,-1.169976234E0
9.856705699E1,-2.124635220E0,5.690313339E0,-1.601247072E0
9.861905114E1,-1.319514751E0,3.570611000E0,-1.793669581E0
9.867104459E1,-1.045847178E0,1.907836080E0,-1.269547224E0
9.872303792E1,-1.428859591E0,1.435026407E0,-8.120090961E-1
9.877503125E1,-1.491778731E0,8.583695292E-1,-6.537950635E-1
9.882702604E1,-1.345171094E0,-2.723420262E-1,-8.767608404E-1
9.887902196E1,-1.138698578E0,-7.201062441E-1,-9.347930551E-1
9.893101519E1,-5.333311558E-1,-1.795229077E0,-1.417376637E0
9.898300858E1,-1.881923079E-1,-1.091512322E0,-1.274434090E0
9.903500207E1,2.377793007E-2,-7.598124743E-1,-1.502897739E0
9.908699527E1,9.341656417E-2,4.469700903E-2,-1.214569330E0
9.913898866E1,2.052049041E-1,3.440209627E-1,-1.221899629E0
9.919098195E1,2.033723146E-1,1.106991649E0,-6.085910201E-1
9.924297617E1,4.263381362E-1,3.055364788E-1,-3.917338252E-1
9.929496959E1,3.976274729E-1,5.107871890E-1,2.179096788E-1
9.934696285E1,2.864499688E-1,1.161682457E-1,4.164408743E-1
9.939895628E1,2.754544020E-1,-5.136338472E-1,3.480239809E-1
9.945094960E1,6.287330389E-2,-3.071613908E-1,1.201712415E-1
9.950294293E1,-1.715004072E-2,-8.847161382E-2,9.451489896E-2
9.955493636E1,-1.283275187E-1,6.207429171E-1,4.320222139E-2
9.960692978E1,-1.087798327E-1,2.088041306E0,3.953703493E-2
9.965892390E1,-1.216080040E-1,1.989691854E0,7.069116086E-2
9.971091736E1,4.699081182E-2,2.951804638E0,6.821672916E-1
9.976291062E1,-2.162921131E-1,2.028176546E0,1.773783445E0
9.981490394E1,2.950021029E-1,-1.758577108E0,1.982088447E0
9.986689883E1,3.976274729E-1,-3.780217171E-1,2.357770681E0
9.991889779E1,5.240765214E-1,-1.871587276E0,2.090822458E0
9.997089401E1,7.519293427E-1,-2.998022795E0,2.687638044E0
1.000228874E2,1.345690250E0,-3.858731985E0,2.857458591E0
1.000748807E2,2.115380526E0,-3.709069729E0,2.730398417E0
1.001268740E2,2.414704561E0,-4.731047153E0,2.278969049E0
1.001788673E2,2.034135580E0,-3.696241617E0,1.536156893E0
1.002308607E2,1.499628425E0,-2.275369167E0,1.232556939E0
1.002828539E2,7.421554327E-1,-2.009032011E0,1.109162092E0
1.003348477E2,4.006817937E-1,-1.726201296E0,8.599290848E-1
1.003868417E2,6.653849781E-2,-1.230178714E0,5.532746911E-1
1.004388350E2,-2.303420156E-1,-1.316310763E0,3.968932033E-1
1.004908284E2,-4.545295835E-1,-1.447035909E0,-1.718223393E-1
1.005428217E2,-6.646671891E-1,-2.718857527E0,-9.635037184E-1
1.005948149E2,-1.368383884E0,-2.250934601E0,-1.607966542E0
1.006468084E2,-3.430665016E0,9.683252573E-1,-4.449711323E0
1.006988017E2,-4.545494080E0,1.959148645E0,-4.185206890E0
1.007507955E2,3.073828220E0,5.748956680E0,1.992473245E0
1.008027894E2,4.441555023E0,-1.549661279E0,3.674796104E0
1.008547828E2,3.590620041E0,2.487259954E-1,2.007133961E0
1.009067761E2,3.081158400E0,-4.220040143E-1,1.836091638E0
1.009587703E2,2.845975399E0,-1.958330035E0,1.434142351E0
1.010107664E2,1.897912502E0,-1.657173634E0,1.728579521E0
1.010627600E2,1.100733399E0,-1.079905868E0,1.987586260E0
1.011147534E2,6.175389290E-1,-8.691574335E-1,1.966816902E0
1.011667467E2,-3.793931305E-1,8.162198067E-1,1.876408815E0
1.012187401E2,-7.092604041E-1,9.561079741E-1,8.495443463E-1
1.012707333E2,-8.509810567E-1,3.153102994E-1,-1.993112862E-1
1.013227268E2,-7.697360516E-1,7.524026930E-2,-6.128670573E-1
1.013747208E2,-7.807316184E-1,5.449956656E-1,-5.230698586E-1
1.014267144E2,-6.536716223E-1,4.270986617E-1,-2.756694257E-1
1.014787077E2,-5.278334022E-1,9.478796273E-2,-2.460381947E-2
1.015307010E2,-3.543476462E-1,-1.208474711E-1,9.451489896E-2
1.015826945E2,-3.176957369E-1,6.607729197E-2,2.551724613E-1
1.016346878E2,-3.018132448E-1,4.600853920E-1,2.698332071E-1
1.016866810E2,-3.488498926E-1,5.370543599E-1,5.297606811E-2
1.017386744E2,-5.247790813E-1,4.790221751E-1,-1.131792814E-1
1.017906687E2,-7.257537246E-1,6.940467358E-1,-2.695607841E-1
1.018426621E2,-9.273392558E-1,8.186632395E-1,-5.352871418E-1
1.018946555E2,-1.001253963E0,9.341168404E-1,-7.942939997E-1
1.019466488E2,-1.123427033E0,1.489393353E0,-8.346111178E-1
1.019986432E2,-1.066005588E0,1.030022740E0,-1.045359612E0
1.020506417E2,-1.071503401E0,1.064231038E0,-9.390690923E-1
1.021026385E2,-9.994212985E-1,1.171132565E0,-8.853129148E-1
1.021546321E2,-9.865931869E-1,1.378826618E0,-9.867165685E-1
1.022066256E2,-1.122205377E0,1.847360373E0,-1.027033687E0
1.022586189E2,-1.335397243E0,1.830256104E0,-1.300701261E0
1.023106122E2,-1.534539342E0,1.659824729E0,-1.484571815E0
1.023626054E2,-1.782550693E0,1.991524577E0,-1.552377820E0
1.024145988E2,-1.876012921E0,2.150349617E0,-1.422263503E0
1.024665921E2,-1.769722462E0,1.925551176E0,-1.104613543E0
1.025185862E2,-1.856465340E0,1.544371247E0,-8.260590434E-1
1.025705798E2,-1.912054062E0,1.697087526E0,-5.468935966E-1
1.026225731E2,-1.783772349E0,9.164017439E-1,-7.613072991E-1
1.026745665E2,-1.703138113E0,1.069118023E0,-6.330255866E-1
1.027265601E2,-1.481394053E0,2.523911893E-1,-1.000155687E0
1.027785531E2,-1.046458006E0,-6.327525377E-1,-8.004027009E-1
1.028305464E2,-6.952104568E-1,-1.675499558E0,-1.160202265E0
1.028825399E2,-5.455484390E-1,-9.400177598E-1,-8.022353053E-1
1.029345341E2,-3.745062053E-1,-7.311018705E-1,-8.205612302E-1
1.029865276E2,-2.584418058E-1,-1.202366054E-1,-3.355342448E-1
1.030385208E2,-2.663830519E-1,-4.061215520E-1,-3.563036621E-1
1.030905147E2,-3.830583096E-1,4.246551692E-1,5.297606811E-2
1.031425109E2,-3.335782588E-1,5.859236717E-1,2.264617980E-1
1.031945049E2,-2.395049930E-1,5.263825879E-2,2.515072823E-1
1.032464982E2,-1.588707715E-1,1.485441029E-1,4.524819255E-1
1.032984914E2,-1.026711762E-1,4.209899902E-1,4.958533645E-1
1.033504848E2,7.142541558E-2,1.052624583E0,4.341559708E-1
1.034024784E2,4.760167375E-2,1.270092607E0,3.852867782E-1
1.034544715E2,1.899332702E-1,1.414256811E0,2.716658413E-1
1.035064649E2,1.862680763E-1,1.257264495E0,3.095394671E-1
1.035584591E2,3.420387208E-1,9.964250326E-1,2.044706494E-1
1.036104524E2,3.847992718E-1,2.427682400E0,2.423443049E-1
1.036624459E2,3.157715201E-1,1.947542191E0,1.102442503E0
1.037144392E2,-1.447796345E0,-1.096399307E0,2.729787588E0
1.037664325E2,5.393481851E-1,-5.270728469E-1,1.817154884E0
1.038184259E2,3.994600475E-1,-1.728033900E0,1.608849883E0
1.038704192E2,1.334083915E0,-2.917388678E0,1.803104997E0
1.039224128E2,1.749472260E0,-3.168454170E0,2.345553160E0
1.039744071E2,2.100108862E0,-5.702323437E0,2.283855915E0
1.040264002E2,2.817264557E0,-3.445176125E0,1.638782263E0
1.040783935E2,2.396989584E0,-3.883777380E0,9.326220155E-1
1.041303872E2,1.665172815E0,-3.341329098E0,1.058460236E0
1.041823855E2,8.130158186E-1,-2.652884007E0,6.387958527E-1
1.042343833E2,2.583501935E-1,-1.975434303E0,4.897447228E-1
1.042863779E2,-5.441282317E-2,-1.272939324E0,2.731972747E-2
1.043383712E2,-4.148232937E-1,-1.967493176E0,-4.308291972E-1
1.043903645E2,-2.572200894E-1,-2.534375906E0,-6.904469728E-1
1.044423581E2,-2.618825197E0,-8.667139411E-1,-3.333050013E0
1.044943513E2,-2.429456711E0,4.366569042E0,-4.956729889E0
1.045463447E2,2.626064062E0,6.936478615E0,2.698633432E0
1.045983385E2,6.200847149E0,-5.858093739E0,1.727357626E0
1.046503323E2,4.529520035E0,1.240160227E0,1.824485183E0
1.047023255E2,3.382925987E0,5.278913975E-1,1.476902962E0
1.047543190E2,2.519773483E0,-1.553937435E0,8.923049569E-1
1.048063123E2,1.580873370E0,-2.961657941E-1,1.542265534E0
1.048583056E2,1.017655730E0,-4.965296090E-1,1.669325590E0
1.049102990E2,4.849812090E-1,3.919922188E-2,1.707810044E0
