"Time (s)","Linear Acceleration x (m/s^2)","Linear Acceleration y (m/s^2)","Linear Acceleration z (m/s^2)"
5.999748200E-2,2.181358337E-1,-5.834811211E0,-6.942834854E0
1.199922970E-1,-5.580396652E-1,-5.895380974E0,-7.214285851E0
1.799874140E-1,-1.321692944E0,-6.018367767E0,-7.416647911E0
2.399824980E-1,-3.351380110E0,-6.462256908E0,-7.645320892E0
2.999769030E-1,-5.527444363E0,-6.962856770E0,-7.394626617E0
3.599706010E-1,-6.605973244E0,-7.235602379E0,-7.068257332E0
4.199640650E-1,3.962740898E-1,-2.134352922E-1,-2.969615936E0
4.799568970E-1,-7.642892599E-1,-1.715736628E0,-5.432674885E0
5.399492280E-1,-7.250550985E-1,-1.502048731E0,-6.276809692E0
5.999417580E-1,-1.947447777E0,-7.084140778E-1,-2.629414082E0
6.599342880E-1,-3.950944901E0,2.530931473E0,-3.900132179E-1
7.199268180E-1,-4.135601521E0,8.254632950E-1,3.131913662E0
7.799192820E-1,2.098880768E0,1.010454655E0,4.882789135E0
8.399117460E-1,-4.357237816E0,4.820203781E-2,1.471087933E-1
8.999040440E-1,-8.478727341E0,-9.641900063E-1,2.371581554E0
9.598965410E-1,-1.199732208E1,-3.526529312E0,3.623865604E0
1.019889205E0,-1.095850277E1,-4.294232845E0,3.801524639E0
1.079881669E0,-6.910474777E0,-7.606546879E0,-2.322470903E0
1.139874233E0,1.035845757E0,-9.164441109E0,-5.081858158E0
1.199866865E0,5.526587963E0,-5.950319290E0,-9.519384384E0
1.259860530E0,5.711218357E0,-6.340910912E0,-6.866149426E0
1.319854660E0,1.985870361E0,-4.706260204E0,-4.193152428E0
1.379849056E0,-2.808458805E0,-2.283294916E0,-7.718815804E-1
1.439843286E0,3.441544533E0,-5.744647980E-1,4.669594765E-1
1.499837549E0,3.651419878E0,1.553089619E0,-3.715395927E0
1.559830514E0,2.130387783E0,3.255683422E0,-2.797980785E0
1.619822912E0,7.064471245E-1,2.375585079E0,-2.863416672E-1
1.679815343E0,2.346684933E0,1.746991634E0,1.040928841E0
1.739807973E0,3.493884802E-1,-1.161284447E-1,-5.948495865E-1
1.799800437E0,4.998649359E-1,-7.718286514E-1,-1.413330078E0
1.859792967E0,1.061319590E0,-2.120094299E-1,-1.357321739E0
1.919785431E0,6.925774813E-1,-2.500982285E-1,5.889344215E-1
1.979777862E0,-9.888220429E-1,1.741786003E-1,2.640104294E-1
2.039770093E0,-5.940330029E-2,-3.990144730E-1,-1.662206650E-2
2.099762623E0,1.478467226E0,-9.392681122E-1,-9.644713402E-1
2.159755153E0,9.136791229E-1,9.557309151E-1,-8.593602180E-1
2.219747683E0,7.731901169E0,7.634233475E0,1.245778084E0
2.279740280E0,1.614215088E1,2.865927887E1,-3.389792919E0
2.339733446E0,1.478076935E1,5.348993301E0,-3.289995193E-1
2.399726576E0,-1.532170677E1,-3.506448364E1,-1.900073242E1
2.459719706E0,-1.365313244E1,-2.599523354E1,-2.182217121E0
2.519712836E0,2.987424850E0,-1.535200119E0,-1.529377079E1
2.579705767E0,-1.710999608E-1,1.733924103E1,-1.087103081E1
2.639698265E0,-5.595846653E0,1.382499218E0,-3.852921724E0
2.699690729E0,-4.524009705E0,-4.072556973E0,-8.143329620E-1
2.759683259E0,3.521211147E-1,-6.323828697E0,8.364253044E-1
2.819675723E0,4.095301628E0,-3.154865026E0,-1.310654163E0
2.879668319E0,1.714069486E0,-3.721322298E0,-2.021090508E0
2.939660783E0,1.552042603E0,-1.948780417E0,-1.056756973E-1
2.999653180E0,2.429390430E0,-2.588618279E0,1.769351959E0
3.059645444E0,3.166351795E0,-4.336414337E0,1.004396439E0
3.119638007E0,2.844621658E0,-2.833063126E0,-1.094484329E-1
3.179630471E0,1.100195885E0,-2.077134371E0,-2.195188999E0
3.239623067E0,-6.540400982E-1,-1.470786333E0,-3.799137592E0
3.299615531E0,-1.649652481E0,2.149890423E0,-5.397132874E0
3.359608529E0,-2.757533312E0,6.209394932E0,-4.147028446E0
3.419602460E0,-4.389277458E0,3.155676603E0,-9.296264648E-1
3.470486564E0,-2.374943733E0,3.827732086E0,-5.193624496E-1
3.530480828E0,2.066006660E-1,6.308538318E-1,4.189705849E0
3.590475224E0,-2.871225834E0,-2.181870937E0,6.050837994E0
3.650469288E0,-2.153887272E0,-2.865046024E0,3.670130253E0
3.710462154E0,-6.184868813E-1,-1.392126083E0,1.465061665E0
3.770454485E0,4.071807861E-2,-1.908535957E-1,-1.275789261E0
3.830446882E0,-5.267281532E-1,-8.297922611E-1,-1.659220695E0
3.890439346E0,1.665631771E0,-8.229064941E-2,-2.887854338E0
3.950431876E0,1.282904625E0,-7.993593216E-1,-2.260600090E0
4.010424373E0,1.546433926E0,-7.758474350E-1,-1.171895027E0
4.070416903E0,6.901803017E-1,-3.223964691E0,4.701709747E-2
4.130409367E0,-6.281576157E-1,-3.537261009E0,-4.275569916E-1
4.190401664E0,6.370491982E-1,-2.063153267E0,-9.846010208E-1
4.250394161E0,-4.282174110E-1,-1.651188850E0,-7.734107971E-1
4.310386691E0,3.495788574E-2,-3.518209457E-1,-9.175469875E-1
4.370379221E0,-1.164946556E-1,2.961235046E-1,-4.580981731E-1
4.430371752E0,-4.109613895E-1,-2.687931061E-2,-5.888013840E-1
4.490364984E0,-9.474953413E-1,-6.237277985E-1,-2.029061317E-1
4.550358081E0,-1.004677415E0,-5.296859741E-1,3.251438141E-1
4.610351211E0,-3.839194775E-1,-2.686271667E-1,5.252012014E-1
4.670344275E0,6.713586450E-1,-3.046493530E-1,6.557457447E-1
4.730337405E0,9.952066541E-1,-1.536989212E-1,2.806918621E-1
4.790329803E0,7.379560471E-1,9.917354584E-2,-5.846149921E-1
4.850322234E0,4.128228426E-1,-8.405494690E-2,-4.098923206E-1
4.910314698E0,5.103266239E-2,-3.656864166E-2,-4.931981564E-1
4.970307228E0,9.818994999E-2,-3.877992630E-1,-3.414095640E-1
5.030299692E0,5.064041615E-1,-7.289953232E-1,-3.414299488E-1
5.090292288E0,5.871648788E-1,-7.717876434E-1,-3.324599266E-1
5.150284719E0,5.699175596E-1,-1.051340103E-1,-7.667092085E-1
5.210277083E0,7.368311882E-1,8.422470093E-2,-3.102315664E-1
5.270269547E0,4.153703451E-1,2.785463333E-1,-3.122230768E-1
5.330262077E0,6.155424714E-1,2.717332840E-1,-3.190375566E-1
5.390254541E0,2.663258314E-1,-3.405399323E-1,-2.667522430E-1
5.450247071E0,2.180359364E-1,-3.553495407E-1,-4.574453831E-2
5.510240169E0,2.947509289E-2,1.463699341E-2,-2.410953045E-1
5.570234333E0,1.580703259E-1,-2.608489990E-2,4.042685032E-2
5.630228663E0,6.279242039E-2,1.902866364E-2,-3.161799908E-2
5.690222927E0,-8.848571777E-2,7.622623444E-2,9.286475182E-2
5.750217290E0,-9.617817402E-2,-6.736755371E-3,-5.800676346E-2
5.810211020E0,-4.854571819E-2,-1.726436615E-2,-4.921519756E-2
5.870203585E0,-1.110851765E-2,-2.282714844E-2,-1.975346804E-1
5.930195849E0,-6.799697876E-4,-8.109569550E-2,-2.663580179E-1
5.990188379E0,-4.004240036E-3,-3.768272400E-1,-1.382089853E-1
6.050180810E0,1.538836360E-1,-1.778144836E-1,1.019008160E-1
6.110173340E0,4.112187624E-1,2.310180664E-2,1.965897083E-1
6.170165804E0,5.253584981E-1,2.050590515E-2,1.533050537E-1
6.230158400E0,5.665395260E-1,-1.396217346E-1,3.827047348E-2
6.290150764E0,4.070221782E-1,-2.800397873E-1,8.667337894E-2
6.350143162E0,7.808456421E-1,-5.962276459E-2,-2.328135967E-1
6.410135559E0,3.565252423E-1,4.387817383E-1,-5.170419216E-1
6.470128089E0,-1.993795633E-1,-7.394475937E-1,1.475547552E-1
6.530120553E0,2.910293341E-1,2.858324051E-1,-1.055172205E0
6.590113284E0,1.123052001E0,-1.380729675E-1,-3.299826384E-1
6.650106583E0,1.628530025E-2,1.234455109E-1,-3.283401728E-1
6.710099813E0,-2.198767662E-1,9.006719589E-1,-9.214686155E-1
6.770092943E0,2.520499229E-1,-3.476839066E-1,4.226342440E-1
6.830086073E0,-2.140836716E-1,-2.666978836E-1,-2.056076527E-1
6.890078971E0,-1.332361102E-1,-2.441740036E-1,2.425471544E-1
6.950071269E0,-6.224796176E-1,-8.140754700E-2,3.135335445E-1
7.010063634E0,-7.380018234E-1,2.078752518E-1,3.900151253E-1
7.070056164E0,-1.223335266E-1,8.605957031E-2,3.832055330E-1
7.130048694E0,-5.541099906E-1,1.165008545E-2,2.939587831E-1
7.190041192E0,-8.669162393E-1,5.793094635E-2,8.075404167E-2
7.250033722E0,-3.305240870E-1,1.716518402E-2,1.177263260E-1
7.310026220E0,-4.474514723E-2,2.380180359E-2,7.087695599E-2
7.370018551E0,8.641993999E-2,9.454727173E-2,-5.927884579E-2
7.430010982E0,5.597451925E-1,-1.494789124E-2,2.157448530E-1
7.490003545E0,6.383616924E-1,-3.655929565E-1,8.839470148E-1
7.549996009E0,-5.392205715E-2,-4.318208694E-1,1.756112814E0
7.609988539E0,-8.889586926E-1,-3.983917236E-1,1.648175240E0
7.669982071E0,-1.335689306E0,-5.294418335E-2,1.903621674E0
7.729976503E0,-1.057984829E0,2.053203583E-1,1.150906086E0
7.789970969E0,-1.205293655E0,3.107128143E-1,8.406085968E-1
7.849965569E0,-2.340254784E-1,2.894883156E-1,2.237784863E-1
7.909960001E0,-4.316143990E-1,1.060538292E-1,-4.990482330E-1
7.969953466E0,-6.717758179E-1,-5.234599113E-1,-1.000468493E0
8.029945931E0,2.598319054E-1,-2.197518349E-1,-1.415048122E0
8.089938428E0,8.893933296E-1,1.049041748E-3,-9.122264385E-1
8.149930892E0,1.094743252E0,1.208286285E-1,-9.077832699E-1
8.209923422E0,3.965377808E-1,1.958770752E-1,-6.860020161E-1
8.269915952E0,-1.059045792E-1,4.482538700E-1,-8.713312149E-1
8.329908482E0,-4.162607193E-1,4.881455898E-1,-8.230867386E-1
8.389900846E0,1.207675934E-1,1.595568657E-2,-1.186097026E0
8.449893177E0,-1.025664330E0,-5.405480862E-1,-6.454157829E-1
8.509885674E0,-6.239118576E-1,2.572813034E-1,-1.641578674E-1
8.569878204E0,-9.495716095E-1,2.633516788E-1,-6.107480526E-1
8.629870734E0,-1.140258789E0,-2.481365204E-2,-9.122023582E-1
8.689863264E0,-4.300403595E-2,-1.010448217E0,-7.093660831E-1
8.749856496E0,1.576722145E0,-1.450940251E0,-7.350996733E-1
8.809850694E0,1.897581100E0,-2.980644226E0,-1.137757063E0
8.869845024E0,3.163567543E0,-6.339279175E0,-4.450161457E0
8.929839388E0,-1.863856316E0,5.433806419E0,-7.505452633E-2
8.989833718E0,1.987901211E0,1.895209551E0,-1.348217487E0
9.049827282E0,2.473235607E0,2.034790516E0,-1.049250126E0
9.109819780E0,3.339654922E0,2.719836712E0,-4.826581478E-2
9.169812111E0,3.564194679E0,2.146412134E0,1.818304062E-1
9.229804607E0,-5.822772980E-1,6.641294956E-1,3.161392927E0
9.289797071E0,-1.085301208E1,-7.240197659E0,6.552679062E0
9.349789667E0,-1.294739628E1,-8.416769981E0,1.395394039E1
9.409782131E0,-1.242508411E1,-6.290097713E0,6.690395355E0
9.469774661E0,-8.252348900E0,-1.059000015E1,3.102824688E-1
9.529766925E0,9.845046997E-1,-1.169699097E1,-4.768432140E0
9.589759323E0,-6.227421761E-1,-1.005706024E1,-6.185479164E0
9.649751787E0,1.817833662E0,-1.007617474E1,-7.857738495E0
9.709744383E0,6.082814217E0,-8.962470055E0,-6.535296917E0
9.769736847E0,3.636885643E0,-4.731900692E0,-6.722094059E0
9.829729813E0,6.946395874E0,1.714426041E0,-3.151582956E0
9.889723079E0,1.550932026E1,1.881160736E1,-9.698133469E-1
9.949716275E0,2.477325058E1,2.961548615E1,-1.291753292E0
1.000970934E1,1.112974262E1,3.009003639E0,9.368788719E0
1.006970247E1,-7.624820709E0,-5.164225769E1,8.192038536E0
1.012969517E1,2.338374138E1,-1.449677658E1,-5.703175545E0
1.018968750E1,1.529032326E1,6.228951931E0,-1.268703842E1
1.024967990E1,-5.051757336E0,4.640141487E0,-1.058673859E1
1.030967242E1,1.117121935E0,2.093111038E0,-4.007173061E0
1.036966496E1,3.569385529E0,1.177373886E0,6.864383221E-1
1.042965748E1,4.619223595E0,-2.389579296E0,3.045830965E0
1.048965002E1,1.848663807E0,-3.915166378E0,1.485365391E0
1.054964235E1,-5.743694901E-1,-5.139448166E0,2.036180496E-1
1.060963468E1,5.070574284E-1,-4.921171188E0,6.915512085E-1
1.066962721E1,-1.005270243E0,-2.535240650E0,-1.637202263E0
1.072961977E1,-4.147499800E-1,-1.683894157E0,-1.258830547E0
1.078961224E1,-3.170637608E0,8.825941086E-1,-2.205801010E-2
1.084954546E1,1.350088120E-1,2.769817352E0,1.410489082E-1
1.090953913E1,-1.901397705E-1,1.848026276E0,7.139182091E-1
1.096953349E1,-6.883330345E-1,1.856536865E0,-7.783083916E-1
1.102952792E1,-3.749184608E-1,1.652479410E0,-6.296744347E-1
1.108952256E1,-3.543680668E0,1.127832890E0,-8.541297913E-2
1.114951699E1,-2.714996338E-1,4.799697399E-1,1.392342567E0
1.120951042E1,-1.994788170E0,-7.025022507E-1,-2.157332897E-1
1.126950285E1,-3.106737137E-1,-6.557276249E-1,4.585373402E-1
1.132949538E1,-7.572956085E-1,-8.858010173E-1,-1.289714813E0
1.138948781E1,-1.249626160E0,-1.947287798E0,-3.066534996E-1
1.144948041E1,-1.559519768E0,-1.219815254E0,-9.514878988E-1
1.150947284E1,-4.225759506E-1,-8.981837034E-1,1.395679712E-1
1.156946537E1,-4.994907379E-1,-6.252764463E-1,-4.757871628E-1
1.162945770E1,6.258754730E-1,-1.165708184E0,1.893418789E0
1.168945006E1,1.534686089E0,-7.841981649E-1,7.409102917E-1
1.174944253E1,1.783619881E0,-1.354336739E-2,-1.727937341E0
1.180943506E1,3.074812889E0,-3.996214867E-1,-2.572744370E0
1.186942759E1,3.649061680E0,-6.260652542E-1,-2.204821348E0
1.192942012E1,5.865240097E-1,-3.055433750E0,2.084970474E-1
1.198941348E1,-1.743012905E0,-3.227993011E0,-4.075803757E-1
1.204940761E1,-2.412064075E0,-1.916803360E0,3.481893539E-1
1.210940194E1,-1.158834934E0,-6.201910973E-1,-9.832906723E-2
1.216939627E1,-1.409176350E0,-4.419569969E-1,5.987119675E-1
1.222939060E1,-4.983530045E-1,1.677374840E-1,2.953724861E-1
1.228938404E1,-1.141767502E-1,3.638811111E-1,3.654959202E-1
1.234937657E1,3.346176147E-1,1.977000237E-1,7.935810089E-2
1.240936886E1,1.495805502E0,-1.358995438E-1,1.317327023E-1
1.246936139E1,1.656071901E0,-2.138319016E-1,-1.779963970E-1
1.252935386E1,9.842979908E-1,4.281806946E-2,-4.201171398E-1
1.258934642E1,9.209372997E-1,3.158836365E-1,-9.721963406E-1
1.264933888E1,6.693279743E-1,2.016735077E-2,-8.559372425E-1
1.270933145E1,6.265407801E-1,-3.369894028E-1,-9.494540691E-1
1.276932378E1,3.127372265E-1,-9.196310043E-1,-6.983706951E-1
1.282931618E1,-4.669606686E-1,-1.356723785E0,-3.680655956E-1
1.288930864E1,-8.469249606E-1,-7.653331757E-1,-4.704890251E-1
1.294930124E1,-7.155017853E-1,-6.307077408E-1,-3.855575323E-1
1.300929370E1,-6.013036370E-1,-5.601444244E-1,-3.936504126E-1
1.306928650E1,-6.249756217E-1,1.085662842E-2,-2.588762045E-1
1.312927980E1,3.530754745E-1,2.970943451E-1,-2.516269684E-3
1.318927293E1,1.952579618E-1,1.357965469E-1,1.143953800E-1
1.324926599E1,-1.396930218E-1,-7.786941528E-2,1.001846790E-1
1.330925912E1,1.617021561E-1,1.168403625E-1,7.750213146E-1
1.336925192E1,8.037635684E-1,2.241916656E-1,1.245391130E0
1.342924425E1,6.983518600E-2,-5.190010071E-1,1.904211760E0
1.348923678E1,-1.871469975E0,-9.102468491E-1,1.658071756E0
1.354922924E1,-2.242119789E0,-2.549743652E-2,1.952695131E0
1.360922177E1,-1.772448540E0,-1.147003174E-1,1.083837748E0
1.366921434E1,-1.519438744E0,1.705775261E-1,6.539573669E-1
1.372920687E1,-8.568763733E-1,2.688736916E-1,8.127355576E-2
1.378919913E1,-1.433453560E-1,-1.569778442E0,-2.298905849E-1
1.384919163E1,-4.373745918E-1,-1.791145325E0,-1.124785423E0
1.390918409E1,8.649735451E-1,-1.496008396E0,-1.863339663E0
1.396917659E1,1.754673004E0,-1.836705208E-1,-1.338394046E0
1.402916909E1,1.677983284E0,2.465126514E-1,-1.509423494E0
1.408916175E1,1.760088444E0,5.261116028E-1,-1.148991942E0
1.414915545E1,8.702435493E-1,5.468273163E-2,-1.089599967E0
1.420914988E1,1.950473785E-1,-7.557153702E-1,8.371350765E-1
1.426914414E1,1.148395538E-1,3.070054054E-1,-4.332327843E-1
1.432913851E1,1.679682255E0,-7.624497414E-1,4.111406803E-1
1.438913270E1,8.988294601E-1,-1.128244638E0,-1.807254314E0
1.444912577E1,8.624935150E-2,-5.558562279E0,-2.978055954E0
1.450911800E1,-3.371276855E0,-3.825925589E0,-8.865448952E0
1.456911043E1,-1.686717987E0,2.438739538E0,-1.377503872E-1
1.462910286E1,2.073307037E0,5.564141750E0,1.490595222E0
1.468909539E1,1.792019844E0,2.085042953E0,-1.102217555E0
1.474908786E1,8.557920456E-1,3.558654785E0,-7.817525864E-1
1.480908045E1,1.244760513E0,1.971916080E0,1.147170663E0
1.486907288E1,-2.747101784E0,1.362709522E0,3.734639168E0
1.492906521E1,-9.600443840E0,-4.126373291E0,9.009243965E0
1.498905768E1,-1.097227859E1,-2.245266676E0,1.223326778E1
1.504905021E1,-1.244799519E1,-3.818507433E0,4.670272350E0
1.510904267E1,-4.602146149E-2,-9.226350784E0,1.664623976E0
1.516903520E1,-4.674875259E0,-8.242401123E0,-6.959658146E0
1.522902830E1,3.863604069E0,-1.033388901E1,-6.326013565E0
1.528902157E1,6.351305962E0,-7.919633865E0,-6.793467999E0
1.534901470E1,4.695100784E0,-6.968764305E0,-6.911348343E0
1.540900776E1,2.489648819E0,-4.746158600E0,-6.371725082E0
1.546900089E1,7.210886955E0,9.428110123E-1,-3.934426308E0
1.552899346E1,1.002345276E1,8.312882423E0,-2.908579350E0
1.558898579E1,1.818462944E1,3.393878937E1,8.959927559E-1
1.564897822E1,1.493410397E1,1.120056152E1,1.126581192E0
1.570897081E1,1.065731907E1,-3.842245102E1,-3.143696404E1
1.576896331E1,-1.464698887E1,-2.098847580E1,-3.639925480E0
1.582895584E1,8.407696724E0,2.909942627E0,-7.988731861E0
1.588894824E1,2.301239014E0,-6.550154686E-1,-4.781298161E0
1.594894067E1,1.479677916E0,-3.415078878E0,-7.339158058E-1
1.600893323E1,4.126559258E0,-2.108561039E0,2.696223259E-1
1.606892580E1,3.960413218E0,-1.628456116E-1,-2.501947403E0
1.612891826E1,3.892419338E0,1.248291016E0,-1.448281765E0
1.618891079E1,2.074821949E0,1.921537399E0,-3.202917576E0
1.624890362E1,1.466879129E0,1.884202957E0,-2.318562746E0
1.630889749E1,5.180251598E-1,9.966735840E-1,-2.432484150E0
1.636889195E1,1.845339537E-1,1.952714920E-1,-7.164499760E-1
1.642888655E1,4.459768534E-2,8.450098038E-1,-9.753959179E-1
1.648888109E1,-3.656543195E-1,-2.262725830E-1,9.051518440E-1
1.654887525E1,-1.820196211E-1,1.601409912E-2,-7.503099442E-1
1.660886815E1,-7.589968443E-1,-5.899615288E-1,-9.893050194E-1
1.666886058E1,-7.077153921E-1,-1.763431072E0,-3.660058498E0
1.672885308E1,-1.255285740E-2,-3.449913025E0,-4.950812817E0
1.678884561E1,1.344722629E0,-1.954554081E0,-4.958209515E0
1.684883814E1,7.771978378E-1,-1.274676323E0,-2.118370533E0
1.690883060E1,-4.421028614E0,-2.604863167E0,9.545083046E-1
1.696882303E1,-5.324591637E0,-1.466527581E0,1.724547386E0
1.702881533E1,-9.113283157E-1,-1.501366973E0,3.490783215E0
1.708880779E1,1.572031975E0,-1.709534883E0,7.224259377E-1
1.714880026E1,1.826889515E0,-4.767351151E0,2.763767242E0
1.720879289E1,2.227288723E0,-3.543630362E0,7.141780853E-2
1.726878535E1,1.179549217E0,-2.863477230E0,-8.436183929E-1
1.732877805E1,1.233060360E0,-2.461057186E0,-6.443686485E-1
1.738877181E1,1.502064705E0,-2.048831463E0,-1.510710716E-1
1.744876621E1,9.777607918E-1,-9.706625938E-1,-8.030476570E-1
1.750876044E1,8.744025230E-1,-6.443128586E-1,-7.158720493E-1
1.756875484E1,-8.950600624E-1,-1.794587135E0,-4.215741158E-2
1.762874893E1,-2.313501358E0,-2.517340660E0,-2.660120726E-1
1.768874183E1,-1.695768476E0,-2.189821243E0,2.159091234E-1
1.774873410E1,-8.587516546E-1,-3.494501114E-1,5.371316671E-1
1.780872673E1,-3.848633766E-1,-1.675319672E-1,-4.918669462E-1
1.786871919E1,-4.673106670E-1,-4.789552689E-1,-2.636283636E-1
1.792871172E1,-5.409598351E-2,2.479619980E-1,-5.850516558E-1
1.798870425E1,6.214723587E-1,2.747631073E-1,-7.176114321E-1
1.804869678E1,7.559791803E-1,2.656497955E-1,-6.156414747E-1
1.810867310E1,1.110661387E0,-6.229505539E-1,-9.731986523E-1
1.816866543E1,1.468948960E0,-7.163228989E-1,-6.190814972E-1
1.822865792E1,1.402077436E0,-1.731815338E-1,-4.520840645E-1
1.828865045E1,1.484018803E0,2.821111679E-1,-5.255305767E-1
1.834864298E1,1.295735717E0,3.328227997E-2,-2.032372952E-1
1.840863548E1,7.881828547E-1,-4.563808441E-2,-1.654051542E-1
1.846862865E1,3.427116871E-1,-3.258943558E-1,-4.298827648E-1
1.852862181E1,1.435214281E-1,-4.731121063E-1,-1.698226929E-1
1.858861494E1,-1.430772543E-1,-2.039575577E-1,-1.412229538E-1
1.864860804E1,-5.319238305E-1,7.578468323E-2,-8.467149734E-2
1.870860120E1,-4.954798818E-1,-5.462551117E-2,9.528601170E-2
1.876859363E1,-3.056833148E-1,-5.278367996E-1,4.387021065E-2
1.882858606E1,-2.413725853E-1,-5.006284714E-1,3.257976770E-1
1.888857853E1,-2.290693521E-1,2.923965454E-3,5.756866932E-2
1.894857109E1,-3.790754080E-2,1.813592911E-1,2.189314365E-2
1.900856356E1,2.710072994E-1,7.978439331E-2,-6.818246841E-2
1.906855615E1,4.765688777E-1,-1.130819321E-1,-2.532808781E-1
1.912854852E1,5.580420494E-1,3.898334503E-2,-3.591045141E-1
1.918854095E1,5.561683774E-1,2.157335281E-1,-5.677217245E-1
1.924853341E1,3.604431152E-1,3.165330887E-1,-6.045351028E-1
1.930852601E1,1.695326567E-1,1.210069656E-1,-1.756082773E-1
1.936851847E1,-3.811063766E-1,-6.517400742E-1,-1.469599009E-1
1.942851107E1,-8.072323799E-1,-2.362060547E-2,-1.600403786E-1
1.948850400E1,-7.590746880E-1,3.163700104E-1,1.170749664E-1
1.954849800E1,-9.576556683E-1,-2.373504639E-2,2.177910805E-1
1.960849226E1,-1.020978689E0,-3.219947815E-1,1.755006313E-1
1.966848666E1,-2.101337910E-1,-8.103847504E-2,2.037148476E-1
1.972848092E1,6.685018539E-3,-1.298971176E-1,3.709405661E-1
1.978847475E1,-5.443215370E-2,-4.347295761E-1,2.926018238E-1
1.984846742E1,-7.818057537E-1,-2.908029556E-1,4.332168102E-1
1.990845975E1,-1.317583799E0,-3.379325867E-1,6.689498425E-1
1.996845215E1,-9.827003479E-1,-2.049713135E-1,7.293741703E-1
2.002844468E1,-4.941692352E-1,-1.464204788E-1,5.560822487E-1
2.008843721E1,-4.969406128E-1,-6.515216827E-2,-9.692502022E-2
2.014842974E1,-2.953052521E-2,4.947471619E-2,-5.441460609E-1
2.020842227E1,1.525516510E-1,-7.355403900E-2,-8.151004314E-1
2.026841463E1,6.355314255E-1,-3.204765320E-1,-8.756341934E-1
2.032840696E1,6.958422661E-1,-7.880854607E-1,-7.050430775E-1
2.038839946E1,1.067461967E0,-4.508528709E-1,-4.119970798E-1
2.044839199E1,4.727478027E-1,3.232479095E-1,-2.558898926E-2
2.050838445E1,-3.251280785E-1,5.406956673E-1,7.621288300E-3
2.056837715E1,-6.796984673E-1,3.085474968E-1,8.554499149E-1
2.062837042E1,-7.531805038E-1,4.870724678E-1,7.155997753E-1
2.068836358E1,-2.469291687E-1,5.442652702E-1,5.550732613E-1
2.074835664E1,2.268514633E-1,8.874938488E-1,5.271720886E-1
2.080834984E1,6.189427376E-1,1.097716331E0,2.015104294E-1
2.086834277E1,9.094333649E-1,1.229431152E0,3.685379028E-2
2.092833517E1,6.211652756E-1,3.358390331E-1,-2.239899635E-1
2.098832753E1,4.330425262E-1,7.159976959E-1,-5.323963165E-1
2.104832006E1,3.908877373E-1,1.164038420E0,-2.828731537E-1
2.110831253E1,9.602403641E-2,9.838459492E-1,-3.537721634E-1
2.116830512E1,2.988514900E-1,1.604298472E0,-5.588526726E-1
2.122829759E1,-3.878278732E-1,-3.969340324E-1,-9.186658859E-1
2.128829005E1,1.797351837E0,-2.154408693E0,-5.760550499E-1
2.134828238E1,2.942672491E0,-3.288492441E0,-7.842078209E-1
2.140827491E1,2.523342609E0,-3.180566311E0,-2.103450537E0
2.146826738E1,4.459900856E-1,-5.475033760E0,-2.427871704E0
2.152825991E1,-2.453576088E0,-7.088747025E0,2.248547316E0
2.158825240E1,1.275311470E0,-4.534190178E0,2.275898457E0
2.164824587E1,2.218985081E0,-1.785738707E0,-4.665768147E-1
2.170824014E1,1.867913246E0,2.669715405E0,-2.411365032E0
2.176823460E1,-5.969824791E-1,4.556487083E0,-1.685923100E0
2.182822913E1,-7.530168056E0,3.697282076E0,2.135678530E0
2.188822367E1,-1.607638741E1,2.351402760E0,3.910298109E0
2.194821726E1,-1.406466389E1,6.335921288E-1,5.893596172E0
2.200820980E1,-1.098256969E1,-2.325758219E0,-2.019743919E-1
2.206820232E1,-5.412074566E0,-4.248710632E0,-4.739435196E0
2.212819486E1,1.221480370E-1,-4.068700790E0,-8.898730278E0
2.218818739E1,4.842258453E0,-4.187576771E0,-9.253553391E0
2.224817985E1,-1.286539435E0,-4.541920662E0,-8.994235039E0
2.230817245E1,1.032711029E0,-4.019243240E0,-7.233322144E0
2.236816478E1,1.051684141E0,-1.947841644E0,-7.733469963E0
2.242815711E1,2.012741089E0,2.953221321E0,-3.067275763E0
2.248814961E1,5.653242111E0,9.599067688E0,-1.295822144E0
2.254814214E1,1.557814026E1,3.289710236E1,1.568641663E-1
2.260813460E1,1.382761478E1,1.735145569E1,1.722223759E0
2.266812720E1,-5.529820919E0,-1.568449211E1,-3.436509323E1
2.272812026E1,-2.603437805E1,-2.926334000E1,-1.288623619E1
2.278811433E1,7.548322678E0,-3.572579384E0,-1.055709839E1
2.284810866E1,3.918247223E0,-3.620991707E-1,-4.890796661E0
2.290810299E1,3.039289474E0,1.519290924E0,-6.018678665E0
2.296809725E1,3.010572910E0,1.592394352E0,-8.420233727E-1
2.302809098E1,-1.046806335E0,-2.388000488E-2,-1.282660007E0
2.308808355E1,-6.069366932E-1,6.135902405E-1,-1.315155029E0
2.314807588E1,3.854523301E-1,1.635686398E0,-1.457351208E0
2.320806841E1,-1.136858106E0,6.703906059E-1,-1.737133741E0
2.326806087E1,9.356383085E-1,-1.310048103E0,2.781386375E-1
2.332805340E1,4.917155504E-1,-1.574434757E0,2.676763535E-1
2.338804593E1,5.516856909E-1,-8.972830772E-1,-6.931924820E-2
2.344803846E1,6.223522425E-1,-2.429299355E-1,-7.469654083E-1
2.350803072E1,-1.564207077E-1,-7.287111282E-1,4.237413406E-2
2.356802316E1,-1.036750078E-1,-1.135533333E0,-1.613984108E0
2.362801562E1,-1.949583292E-1,-2.043004036E0,-1.734246731E0
2.368800815E1,-8.502919674E-1,-4.050752640E0,-5.034473419E0
2.374800061E1,-3.186159372E0,-1.810678005E0,-6.664156914E0
2.380799338E1,-3.377473354E-1,-1.517266989E0,-6.856224060E0
2.386798661E1,1.829669952E0,-2.001696110E0,-2.404180527E0
2.392797981E1,6.129574776E-1,-2.061267853E0,3.560776234E0
2.398797287E1,-3.029167652E0,-2.173569679E0,4.158999920E0
2.404796600E1,1.730851173E0,-3.171823978E0,4.699295044E0
2.410795890E1,4.135893345E0,-3.672907352E0,5.018067360E0
2.416795130E1,2.515930653E0,-4.137080193E0,5.125627995E0
2.422794376E1,-8.003039360E-1,-1.799294949E0,-9.380257130E-1
2.428793632E1,-2.105214596E0,-2.499105453E0,-1.829316616E-1
2.434792885E1,1.008652210E0,-1.339381218E0,8.115861416E-1
2.440792138E1,6.603553295E-1,-8.615856171E-1,2.727684975E-1
2.446791385E1,-9.558373094E-1,-1.045143127E0,-3.288221359E-1
2.452790625E1,-2.706625938E0,-6.511135101E-1,-1.193357944E0
2.458789861E1,-2.167812586E0,-5.379772186E-1,-7.568255663E-1
2.464789118E1,-5.460206270E-1,-9.303541183E-1,-4.286634922E-2
2.470788367E1,8.775674105E-1,-6.600627899E-1,6.378960609E-2
2.476787620E1,1.594325066E0,-4.409179688E-1,-1.029448509E-1
2.482786870E1,1.939926386E0,-5.437574387E-1,-1.576511860E-1
2.488786220E1,2.485556364E0,-2.876510620E-1,-3.549411297E-1
2.494785643E1,2.558540106E0,-1.875591278E-2,-4.608831406E-1
2.500785079E1,1.944979906E0,2.801399231E-1,-5.685892105E-1
2.506784512E1,1.068656325E0,2.193746567E-1,-5.615490675E-1
2.512783938E1,1.787697077E-1,-1.733579636E-1,-6.248091459E-1
2.518783268E1,-4.648550749E-1,-3.926334381E-1,-5.200994015E-1
2.524782508E1,-8.589622974E-1,-3.955183029E-1,-4.621398449E-1
2.530781741E1,-1.071745396E0,-1.466016769E-1,-1.467336416E-1
2.536775120E1,-1.001486421E0,-4.862117767E-2,1.250672340E-2
2.542774376E1,-8.957601786E-1,7.812786102E-2,7.878220081E-2
2.548773623E1,-7.097508907E-1,1.324558258E-2,1.034007072E-1
2.554772876E1,-3.277254105E-1,-2.006731033E-1,1.352866888E-1
2.560772122E1,1.383934021E-1,-2.942256927E-1,1.800522804E-1
2.566771362E1,4.655754566E-1,-4.695348740E-1,4.749155045E-2
2.572770595E1,9.153068066E-1,-1.700744629E-1,-7.269036770E-2
2.578769855E1,1.316576958E0,8.660221100E-2,-1.745942831E-1
2.584769101E1,1.383911133E0,1.353607178E-1,-2.694240808E-1
2.590768354E1,1.132477999E0,6.108283997E-2,-4.530487061E-1
2.596767644E1,6.612583995E-1,1.069936752E-1,-5.347868204E-1
2.602766977E1,2.999734282E-1,-4.406452179E-2,-5.464823246E-1
2.608766283E1,1.669116020E-1,-1.909856796E-1,-2.647323608E-1
2.614765596E1,8.373683691E-2,-1.248426437E-1,-9.353971481E-2
2.620764909E1,-2.001410723E-2,-9.114551544E-2,1.757972240E-1
2.626764183E1,-7.684361935E-2,-2.099943161E-1,1.859114170E-1
2.632763412E1,-9.674012661E-2,-1.252202988E-1,2.420185804E-1
2.638762659E1,2.215743661E-1,-1.523818970E-1,4.167560339E-1
2.644761912E1,2.014312148E-1,-2.569580078E-2,3.761291504E-1
2.650761165E1,-2.415096760E-2,1.806631088E-1,5.025153160E-1
2.656760414E1,-8.679366112E-2,-7.302951813E-2,9.580833912E-1
2.662759658E1,-3.111019135E-1,-2.613439560E-1,9.890863895E-1
2.668758897E1,-9.115355015E-1,-1.523227692E-1,1.156872272E0
2.674758130E1,-9.904003143E-1,1.830663681E-1,1.294305086E0
2.680757383E1,-1.438692331E0,-1.215744019E-1,7.657868862E-1
2.686756630E1,-8.987197876E-1,-5.405416489E-1,-3.159966469E-1
2.692755889E1,-6.944284439E-1,-8.202033043E-1,-2.032034397E-1
2.698755156E1,2.638483047E-1,-5.586595535E-1,-7.230014801E-1
2.704754546E1,3.950462341E-1,-8.232593536E-3,-7.119519711E-1
2.710753986E1,1.203148365E0,3.105478287E-1,-8.368711472E-1
2.716753449E1,5.968623161E-1,4.470825195E-1,-1.220986605E0
2.722752896E1,1.186159611E0,8.310365677E-1,-2.861709595E-1
2.728752339E1,4.113340378E-1,6.355600357E-1,-5.855710506E-1
2.734751649E1,-5.376853943E-1,3.051805496E-1,-2.443296909E-1
2.740750895E1,-6.791253090E-1,6.684775352E-1,2.838728428E-1
2.746750138E1,-1.150693893E0,9.799664021E-1,-1.957130432E-2
2.752749398E1,-8.886013031E-1,9.801104069E-1,-3.425972462E-1
2.758748641E1,-4.914159775E-1,3.530962467E-1,3.836922646E-1
2.764747894E1,-1.281893730E0,2.709150314E-1,-2.245483398E-1
2.770747140E1,1.009178162E-1,1.879880428E-1,-5.707104206E-1
2.776746373E1,1.335515022E0,3.238582611E-1,-4.716284275E-1
2.782745606E1,1.502326965E0,-3.462975025E-1,-1.558970928E0
2.788744859E1,1.836680889E0,-7.511384487E-1,-1.176703691E0
2.794744112E1,2.524805546E0,-1.487094402E0,-2.062157869E0
2.800743365E1,9.506340027E-1,-3.464264393E0,-2.022014141E0
2.806742625E1,3.305212021E0,-1.013103008E1,8.405724525E0
2.812741985E1,-2.941768646E0,5.740428448E0,-4.368854523E0
2.818741414E1,3.468655586E0,2.946673393E0,9.686341286E-1
2.824740848E1,1.499502659E0,3.325626373E0,-1.696838617E0
2.830740281E1,2.980899811E-1,3.212949514E0,1.189573884E0
2.836739700E1,-3.567158699E0,7.118012905E-1,2.835510492E0
2.842739020E1,-8.742178917E0,-2.913992405E0,5.726616383E0
2.848738250E1,-8.452136993E0,-3.400937080E0,1.014159393E1
2.854737496E1,-8.563303947E0,-2.680335999E0,5.561583996E0
2.860736743E1,-6.714367867E0,-8.809316635E0,3.000983238E0
2.866736002E1,-3.946095467E0,-1.149565887E1,-1.929728270E0
2.872735249E1,-8.745160103E-1,-1.223389530E1,-4.323068142E0
2.878734512E1,2.835576534E0,-8.864844322E0,-5.958564758E0
2.884733745E1,6.146933079E0,-7.479274273E0,-6.199675083E0
2.890732978E1,3.526696205E0,-5.507725716E0,-5.871145248E0
2.896732221E1,3.873957634E0,-9.969434738E-1,-4.384915829E0
2.902731481E1,9.518461227E0,9.587695122E0,-4.256893158E0
2.908730724E1,2.057631493E1,3.311868286E1,-6.178734779E0
2.914729977E1,6.136587143E0,3.152517796E0,8.417827606E0
2.920729283E1,3.580935287E1,-5.696571350E1,-1.686347961E1
2.926728599E1,-1.462440681E1,-1.146971321E1,-6.072777271E0
2.932727906E1,7.955334663E0,1.593472004E0,-8.336781502E0
2.938727219E1,3.693883657E0,1.032216072E0,-3.014818907E0
2.944726532E1,1.820705652E0,-6.169686317E-1,-2.301519394E0
2.950725792E1,1.998046637E0,-1.999178886E0,-8.933169842E-1
2.956725028E1,3.644521952E0,-9.344921112E-1,2.301152229E0
2.962724281E1,1.249173641E0,2.599500656E0,-2.477632046E0
2.968723531E1,1.543104410E0,1.986730576E0,-1.265568256E0
2.974722787E1,9.705570340E-1,1.744997025E0,-1.915230870E0
2.980722047E1,8.148731589E-1,6.609773636E-1,-1.167935848E0
2.986721296E1,6.133465171E-1,6.722068787E-2,-1.008904696E0
2.992720530E1,-1.757237315E-1,2.134990692E-2,-1.124888182E0
2.998719769E1,2.148356736E-1,-7.486438751E-2,3.854513168E-2
3.004719019E1,6.010686159E-1,-2.491712570E-1,1.208996773E-2
3.010718265E1,-3.813211918E-1,-2.052507401E-1,-5.764961243E-4
3.016717518E1,5.295655727E-1,1.364412308E-1,-6.748547554E-1
3.022716795E1,-4.705604315E-1,-5.088157654E-1,-6.781728268E-1
3.028716195E1,-4.456160069E-1,-3.282928467E-1,-9.759654999E-1
3.034715621E1,-3.557425737E-1,-1.563558578E0,-9.792006016E-1
3.040715054E1,-4.056740403E-1,-3.636126995E0,-2.326661587E0
3.046714487E1,-3.949560225E-1,-4.560301304E0,-2.832513809E0
3.052713897E1,-3.599354029E-1,-4.675603867E0,-3.825546265E0
3.058713173E1,4.623041153E-1,-3.355918646E0,-3.644919872E0
3.064712413E1,-4.397509098E-1,-1.330029488E0,-4.517083168E0
3.070711650E1,-6.930911541E-2,-1.370552063E0,-8.003063202E-1
3.076710896E1,-4.000581264E0,-2.557503939E0,1.756056786E0
3.082710146E1,-9.204511642E-1,-3.535036087E0,2.580006599E0
3.088709405E1,4.512589931E0,-5.302995682E0,4.989654541E0
3.094708652E1,3.689571381E0,-4.872264385E0,2.580058098E0
3.100707892E1,-2.969760895E-1,-4.988360405E0,1.379745007E0
3.106707125E1,-2.321375608E0,-3.123040199E0,-8.353056908E-1
3.112706374E1,1.876289845E-1,-1.692477226E0,4.529523849E-2
3.118705624E1,2.459445000E-1,-2.079551697E0,6.977303028E-1
3.124704877E1,-1.321562290E0,-2.436435699E0,5.747039318E-1
3.130704140E1,-2.000967741E0,-1.378974915E0,-4.164509773E-1
3.136703473E1,-1.856521845E0,-5.633993149E-1,-2.977843285E-1
3.142702786E1,-1.260149837E0,-8.068847656E-2,-3.327207565E-1
3.148702090E1,-4.746062756E-1,-7.158374786E-2,-5.744322538E-1
3.154701403E1,1.641168594E-1,-4.739313126E-1,-6.251330376E-1
3.160700709E1,6.944495440E-1,-5.783748627E-1,-8.330547810E-1
3.166699942E1,1.121664524E0,-5.569438934E-1,-1.145312190E0
3.172699179E1,1.517888069E0,-4.933567047E-1,-1.043087721E0
3.178698442E1,1.841675520E0,-3.801593781E-1,-1.067819595E0
3.184697688E1,1.824944973E0,-1.915349960E-1,-1.019210815E0
3.190696941E1,1.681322336E0,4.785633087E-2,-8.756937981E-1
3.196696187E1,1.198469162E0,8.165836334E-2,-7.279307842E-1
3.202695437E1,6.292141676E-1,1.008014679E-1,-6.616061926E-1
3.208694660E1,1.274645329E-2,3.099918365E-2,-3.383903503E-1
3.214693910E1,-6.002924442E-1,-2.148160934E-1,-7.819652557E-2
3.220693156E1,-1.091959000E0,-5.381937027E-1,3.823724985E-1
3.226692409E1,-1.296425343E0,-4.720697403E-1,3.592255116E-1
3.232691656E1,-1.801240921E0,-1.907863617E-1,6.233822107E-1
3.238690975E1,-1.879613161E0,-2.618274689E-1,3.123699427E-1
3.244690392E1,-1.975544572E0,1.131410599E-1,6.441060305E-1
3.250689845E1,-1.333714724E0,3.081207275E-1,3.972970247E-1
3.256689298E1,-5.275864601E-1,-2.819509506E-1,3.961637020E-1
3.262688752E1,-1.331300735E-1,-4.573097229E-1,-1.614482403E-1
3.267693364E1,4.331135750E-2,-9.322299957E-1,-3.781781197E-1
3.273692647E1,4.461226463E-1,-9.740781784E-1,-4.881434441E-1
3.279691890E1,4.333546162E-1,-1.638827324E0,-2.791383266E-1
3.285691143E1,-2.258729935E-2,-6.698460579E-1,2.644436359E-1
3.291690396E1,-8.826112747E-1,1.387691498E-1,7.102568150E-1
3.297689643E1,-1.292023659E0,8.983960152E-1,1.717038155E-1
3.303688902E1,-1.043970108E0,1.020837784E0,4.696221352E-1
3.309688139E1,-1.179066181E0,9.243202209E-1,-4.181814194E-1
3.315687372E1,-2.949805260E-1,1.243745565E0,9.401559830E-2
3.321686615E1,-6.553573608E-1,1.823334932E0,-1.146361351E0
3.327685874E1,7.296071053E-1,1.315017223E0,-9.516224861E-1
3.333685121E1,1.142947197E0,5.187120438E-1,-1.150008202E0
3.339684380E1,1.067031384E0,-1.284601688E-1,-4.546499252E-1
3.345683647E1,3.762450218E-1,-1.746243477E0,-3.909921646E-1
3.351683030E1,8.584165573E-1,-2.366432905E0,8.563518524E-3
3.357682456E1,9.893631935E-1,-3.431378841E0,-5.435957909E-1
3.363681896E1,2.979912758E0,-3.526812077E0,-1.297373295E0
3.369681322E1,3.614672661E0,-4.902548313E0,-1.989695668E0
3.375680736E1,3.872913361E0,-6.810766220E0,7.770721912E-1
3.381680022E1,-1.358404160E-1,1.044986010E0,5.321958065E-1
3.387679262E1,-4.056015015E-1,8.226869583E0,3.268012762E0
3.393678505E1,-1.792826653E0,7.558516026E0,3.450900555E0
3.399677758E1,-2.822832108E0,2.641538620E0,-6.828651428E-1
3.405677011E1,-4.283813477E0,-8.493780136E0,-5.743849277E0
3.411676264E1,7.853835583E0,-4.574151039E0,-8.766152859E-1
3.417675510E1,2.601082802E0,-2.457623482E-1,-2.659885883E0
3.423674740E1,-1.586270332E-1,3.597505569E0,-6.139583588E-1
3.429673976E1,-3.839159489E0,2.204827309E0,-9.014534950E-2
3.435673229E1,-5.917857647E0,4.089331627E-1,1.996935844E0
3.441672482E1,-3.539782524E0,2.909648895E0,5.906729698E-1
3.447671729E1,-3.192082405E0,2.583516121E0,1.502577066E0
3.453670992E1,-3.265347481E0,1.540171623E0,-1.030264378E0
3.459670302E1,1.215609074E0,1.560637832E0,4.221370697E0
3.465669615E1,-5.597360611E0,1.229143143E0,1.067002773E0
3.471668924E1,-3.226663589E0,-6.335355043E-1,2.325315952E0
3.477668247E1,-1.992632389E0,-2.836834908E0,7.233386040E-1
3.483667550E1,-6.090579033E-1,-5.304505348E0,-2.707453012E0
3.489666804E1,3.131328583E0,-4.355083466E0,-5.072371960E0
3.495666040E1,3.986648083E0,-5.815726280E0,-5.293545246E0
3.501665296E1,2.623327494E0,-3.878787518E0,-7.802236080E0
3.507664539E1,2.359988213E0,-1.524062634E0,-4.771862984E0
3.513663799E1,5.655633450E0,4.857972145E0,-3.453256130E0
3.519663045E1,1.717799187E1,2.819410133E1,-4.880057335E0
3.525662298E1,1.348443699E1,1.333511066E1,6.235489845E-1
3.531661525E1,-4.565580368E0,-2.097638321E1,-3.175537872E1
3.537660771E1,-2.633982849E1,-2.352985764E1,-9.290813446E0
3.543660018E1,1.405633354E1,3.919679165E0,-9.925915718E0
3.549659277E1,-3.385433197E0,1.585435390E0,-6.913519382E0
3.555658520E1,-9.930498600E-1,-3.806030273E0,-1.450373173E0
3.561657827E1,1.602299452E0,1.995363235E0,6.973104477E-1
3.567657243E1,1.794165969E0,-2.127725124E0,7.632536888E-1
3.573656676E1,1.613545179E0,-8.469209671E-1,-1.396377087E0
3.579656103E1,1.553153515E0,-1.713937283E0,-3.964023590E-1
3.585655536E1,-6.461812258E-1,-4.523420334E-1,-1.951235056E0
3.591654919E1,-6.848269701E-1,2.479038239E-1,-1.234683514E0
3.597654175E1,-1.641354561E-1,1.538667679E0,-1.610025644E0
3.603653408E1,1.638827324E-1,1.739949226E0,-1.340430260E0
3.609652655E1,9.809005260E-1,1.592009544E0,-1.891228199E0
3.615651908E1,9.201819897E-1,5.906610489E-1,-1.348463535E0
3.621651157E1,-6.611111164E-1,-1.743615627E0,-2.388978004E0
3.627650410E1,-1.460084677E0,-3.051342964E0,-2.099626303E0
3.633649657E1,-3.140029907E-1,-3.800778866E0,-2.747537613E0
3.639648897E1,-1.074204683E0,-2.818292141E0,-4.537319660E0
3.645648123E1,-1.754409313E0,-2.997368336E0,-3.401555061E0
3.651647373E1,-4.021519661E0,-3.040025711E0,-7.134194374E-1
3.657646619E1,-5.774520397E0,-2.996156454E0,4.006375313E0
3.663645879E1,-4.089413643E0,-2.092165947E0,4.258725166E0
3.669645142E1,-2.343641758E0,-1.842405677E0,3.536012173E0
3.675644485E1,-1.973254681E0,-2.438874245E0,3.868473530E0
3.681643795E1,6.718597412E-1,-9.617314339E-1,2.457905293E0
3.687643108E1,2.971210480E-1,2.013399601E-1,-2.770042419E-2
3.693642414E1,-1.105481148E0,-5.475971699E-1,-3.565835953E-1
3.699641717E1,-5.816140175E-1,-7.473154068E-1,-1.033426285E0
3.705640940E1,-2.570428848E-1,-1.117413998E0,-5.112619400E-1
3.711640180E1,7.521595955E-1,1.954469681E-1,-1.464625359E0
3.717639433E1,-2.749624252E-1,-1.110819817E0,-8.731384277E-1
3.723638686E1,-6.598954201E-1,-1.355638027E0,-6.560621262E-1
3.729637933E1,-1.640963554E-1,-1.606453180E0,-4.387650490E-1
3.735637186E1,1.464075089E0,-6.698205471E-1,-8.717284203E-1
3.741636432E1,6.521730423E-1,-4.964072704E-1,1.374011040E-1
3.747635665E1,-4.994449615E-1,3.253116608E-1,-1.048755646E-2
3.753634911E1,-1.835217953E0,6.570732594E-1,5.944113731E-1
3.759634158E1,-1.112275600E0,1.970248938E0,-1.380472183E-1
3.765633411E1,-1.723347664E0,1.909827471E0,7.804102898E-1
3.771632664E1,-8.567171097E-1,1.137115717E0,9.849677086E-1
3.777632014E1,-5.268483162E-1,1.255765438E0,4.379925728E-1
3.783631444E1,-1.178407192E0,-1.509079933E-1,-5.671753883E-1
3.789630904E1,-2.339277267E-1,2.684688568E-2,-1.423142433E0
3.795630350E1,1.132815361E0,2.067720890E-2,-2.200546265E0
3.801629804E1,-5.597186089E-1,-1.220611930E0,-2.231980562E0
3.807629153E1,9.539380074E-1,-2.420318842E0,-2.229066133E0
3.813628416E1,1.492028713E0,-3.077477932E0,-2.426029921E0
3.819627663E1,2.077491760E0,-3.842610836E0,-2.665766954E0
3.825626923E1,1.102956295E0,-7.299699783E0,-1.839524508E0
3.831626172E1,1.093244934E1,-8.970439911E0,7.844299316E0
3.837625425E1,6.646480560E-1,-1.488540173E0,4.874567509E0
3.843624672E1,-3.091173172E0,6.549879551E0,5.369994640E0
3.849623911E1,-8.803937912E0,4.319859028E0,5.962180614E0
3.855623138E1,-8.397796631E0,-3.384720385E-1,8.995647430E-1
3.861622388E1,-3.227720737E0,-3.738612652E0,-2.428393841E0
3.867621644E1,2.965150118E0,-4.096745491E0,-6.299021721E0
3.873620900E1,8.467115164E-1,-2.792536974E0,-9.288256645E0
3.879620150E1,-7.357931137E-1,-1.295089245E0,-1.103436852E1
3.885619473E1,6.591229439E-1,1.161377430E0,-6.817653656E0
3.891618886E1,7.507367134E0,8.660336494E0,-2.064985275E0
3.897618316E1,1.418896198E1,3.368453979E1,-3.132843733E0
3.903617746E1,6.589924812E0,1.420066071E1,3.988373280E0
3.909617169E1,-1.086745501E0,-5.098350525E1,-2.411808777E1
3.915616532E1,-7.354109764E0,-2.276072121E1,-7.482118607E0
3.921615785E1,4.377106428E-1,-7.221435070E0,-7.939644814E0
3.927615022E1,8.102948666E-1,1.330278873E0,-1.049738407E1
3.933614268E1,-3.549938202E-1,3.357054710E0,-3.555995703E0
3.939613528E1,-1.227921009E0,4.429939270E0,-4.877715588E0
3.945612774E1,-6.129884720E-2,1.812961102E0,-2.513876438E0
3.951612027E1,-2.351579666E-1,1.710473537E0,-3.757165194E0
3.957611270E1,8.393092155E-1,1.903030872E0,-2.487366915E0
3.963610510E1,3.629338264E0,1.622303009E0,-4.418108940E0
3.969609743E1,-6.759138107E-1,1.825696945E0,-5.831924677E-1
3.975609003E1,8.014779091E-1,2.836251259E-1,3.756446242E-1
3.981608253E1,-2.078357697E0,6.799869537E-1,-4.584575891E-1
3.987607506E1,-1.858553886E-1,2.080473900E-1,1.409557939E0
3.993606779E1,-4.994153976E-1,5.363645554E-1,-3.927014470E-1
3.999598759E1,2.050147057E-1,9.060430527E-2,1.854188889E-1
4.005598065E1,-2.173676491E-1,-3.643231392E-1,3.956611156E-1
4.011597375E1,1.776790619E-2,-1.152754307E0,-1.172225118E0
4.017596688E1,-4.390192032E-1,-1.502615929E0,4.224210978E-3
4.023595974E1,-1.066404819E0,-1.554202557E0,-2.387908936E0
4.029595201E1,-2.245429039E0,-2.117393017E0,-2.636855125E0
4.035594460E1,-5.347063065E0,-9.936976433E-1,-4.037336826E0
4.041593713E1,-4.832435608E0,-9.560699463E-1,-4.097385406E0
4.047592966E1,-2.834427357E0,-7.470703125E-2,-2.823635101E0
4.053592219E1,-3.873229980E0,-2.137159109E0,1.151935577E0
4.059591472E1,-2.744385242E0,-4.065139771E0,-6.526932716E-1
4.065590699E1,8.921148300E0,-3.757996559E0,6.528530121E-1
4.071589932E1,4.268129349E0,-4.454312325E0,-8.640336990E-1
4.077589185E1,-1.199897170E0,-4.866724968E0,1.872873306E-1
4.083588438E1,1.110750198E0,-2.951312065E0,-1.935771942E0
4.089587691E1,-5.076109171E-1,-4.904078484E0,1.065681934E0
4.095586941E1,-1.248490810E0,-3.167973995E0,-7.322692871E-1
4.101586300E1,-1.214783430E0,-3.568008423E0,1.151485920E0
4.107585727E1,-1.310282946E0,-2.253472328E0,7.023863792E-1
4.113585160E1,-2.186323166E0,-1.425880432E0,5.787746906E-1
4.119584586E1,-9.211661816E-1,-8.621912003E-1,3.371152878E-1
4.125584022E1,-5.537005663E-1,-2.297048569E-1,-3.349351883E-2
4.131583342E1,2.161962390E-1,2.120628357E-1,-2.687220573E-1
4.137582585E1,6.771057844E-1,1.262817383E-1,-2.204310894E-1
4.143581815E1,6.212642789E-1,-4.704132080E-1,-6.399464607E-1
4.149581082E1,4.108989239E-1,-5.438251495E-1,-6.216003895E-1
4.155580328E1,9.742928147E-1,-4.438199997E-1,-5.919954777E-1
4.161579588E1,1.312726140E0,-2.730054855E-1,-6.154334545E-1
4.167578831E1,1.005104780E0,-1.191730499E-1,-8.211295605E-1
4.173578080E1,7.793645859E-1,-5.889892578E-2,-1.085811257E0
4.179577300E1,5.172054172E-1,-1.596136093E-1,-9.291499853E-1
4.185576546E1,2.050457001E-1,-1.865463257E-1,-7.099196911E-1
4.191575793E1,-4.168999195E-2,-1.728754044E-1,-5.228493214E-1
4.197575046E1,-7.482558489E-2,-1.245021820E-2,-3.169100285E-1
4.203574299E1,-8.224070072E-2,1.094179153E-1,-2.012393475E-1
4.209573599E1,-2.217752337E-1,-1.437311172E-1,-2.063701153E-1
4.215572919E1,-2.160201669E-1,-2.390508652E-1,-2.891240120E-1
4.221572232E1,-1.073114276E-1,-1.274013519E-2,-3.634920120E-1
4.227571544E1,9.898024797E-2,4.146671295E-2,-4.406080246E-1
4.233570861E1,4.322173595E-1,-1.607055664E-1,-3.080923557E-1
4.239570127E1,7.153835297E-1,-8.525180817E-2,-3.363907337E-1
4.245569360E1,8.426986933E-1,3.337383270E-2,-3.773045540E-1
4.251568613E1,8.992801309E-1,-8.868217468E-2,-4.049377441E-1
4.257567866E1,8.462883234E-1,1.857662201E-1,-2.808682919E-1
4.263567116E1,1.773822308E-1,-1.543361664E0,2.482737780E0
4.269566362E1,-2.156410217E0,-2.505519867E0,1.951256990E0
4.275565616E1,-5.886071324E-1,-2.673970222E0,-5.429723263E-1
4.281564849E1,1.775175810E0,-1.922233582E0,9.933986664E-1
4.287564088E1,3.652344942E-1,9.610242844E-1,-2.110085964E0
4.293563335E1,2.649804950E-2,2.368123531E0,-3.561067820E0
4.299562594E1,1.495549321E0,2.087744236E0,-2.723948479E0
4.305561841E1,-1.285349965E0,5.151033401E-1,-6.366338730E-1
4.311561114E1,1.566593200E-1,-2.304329872E0,4.736988068E0
4.317560504E1,-6.725786924E-1,-1.590874195E0,4.348689079E0
4.323559937E1,-1.090877205E-1,4.575338364E-1,4.716882706E-1
4.329559363E1,1.124300480E0,2.002387762E0,-3.488133430E0
4.335558803E1,7.668749690E-1,1.733720779E0,-2.676172733E0
4.341558209E1,4.559575319E-1,1.400421739E0,-2.933464050E0
4.347557496E1,-1.605532169E-1,1.452073932E0,-1.780392647E0
4.353556732E1,-2.047343254E-1,7.505093813E-1,-1.065651894E0
4.359555968E1,-8.867740631E-3,5.833969116E-1,-1.461343765E-1
4.365555215E1,3.651388884E-1,6.552448273E-1,1.671705246E-1
4.371554468E1,1.910123825E-1,6.306242943E-1,-8.476438522E-1
4.377553718E1,1.158357859E-1,1.054178238E0,-3.290734768E0
4.383552967E1,-8.049215078E-1,-8.117156029E-1,-1.872251511E0
4.389552217E1,-2.832221389E-1,-8.981432915E-1,4.028701782E-1
4.395551447E1,3.090258837E-1,-1.037765503E0,3.413321495E0
4.401550686E1,-7.146146297E-1,-1.250864983E0,4.644703865E0
4.407549939E1,-1.214935780E0,1.025234699E0,3.350463867E0
4.413549192E1,-9.487946033E-1,2.959104538E0,2.840583801E0
4.419548446E1,-1.405977964E0,2.203026533E0,8.910627365E-1
4.425547769E1,-1.646325111E0,3.308365345E-1,5.312166214E-1
4.431547088E1,-2.259545326E0,-7.845845222E-1,-1.049615860E0
4.437546405E1,-3.505887985E-1,-1.463890076E-4,-2.023370743E0
4.443545711E1,1.793631077E0,-7.964023352E-1,-2.467869759E0
4.449545021E1,1.459486485E0,-2.960419416E0,-3.267498493E0
4.455544261E1,2.159214020E-2,-6.388197899E0,-2.059169531E0
4.461543501E1,2.680797577E-1,-6.144018173E0,-4.755191803E0
4.467542744E1,4.436283112E-1,-4.890774250E0,-5.074193478E-1
4.473541997E1,4.150476456E-1,5.271192074E0,-4.016599655E-1
4.479541250E1,5.569181442E-1,3.983574152E0,6.386232376E-2
4.485540509E1,-8.803882599E-1,4.300494194E0,-1.092871428E0
4.491539756E1,3.839713573E0,2.907337189E0,-1.659555435E0
4.497538999E1,9.211961746E0,6.256828904E-1,-9.427366257E-1
4.503538235E1,1.114031315E0,2.731731415E0,3.775721073E0
4.509537485E1,-7.942783356E0,-4.962767124E0,7.165678978E0
4.515536731E1,-1.036825466E1,-5.639379025E0,1.323492622E1
4.521535984E1,-1.037187004E1,-4.987841606E0,4.121514320E0
4.527535288E1,4.619869232E0,-9.774865150E0,-3.603224516E0
4.533534711E1,-2.220736027E0,-6.938380718E0,-6.705324173E0
4.539534164E1,4.676011562E0,-5.598705292E0,-8.685764313E0
4.545533617E1,9.689798355E0,3.703746796E0,-6.994049072E0
4.551533071E1,1.868500519E1,3.659190750E1,-7.411607742E0
4.557532464E1,9.827008247E0,1.808126926E0,1.739429092E1
4.563531744E1,2.443864059E1,-7.172951508E1,1.043391895E1
4.569530987E1,9.925335884E0,-1.700369835E1,-1.052059460E1
4.575530243E1,7.902060032E0,2.809855461E0,-1.247631454E1
4.581529489E1,-2.836993694E0,-1.732034683E-1,-5.306291580E0
4.587528749E1,-6.748895645E-1,-1.911134720E-1,-3.252357841E-1
4.593528002E1,5.948319435E-1,1.687231064E0,-2.600064576E-1
4.599527245E1,1.242833138E-1,1.693615913E0,-2.214788914E0
4.605526468E1,3.857468128E0,2.309271336E0,-2.612470150E0
4.611525721E1,6.747432232E0,1.846727848E0,-6.221238613E0
4.617524961E1,2.634381294E0,9.981942177E-1,-1.969288945E0
4.623524214E1,9.199604988E-1,-6.064109802E-1,-9.289706945E-1
4.629523460E1,-3.705340624E0,-3.264036179E-1,9.962140322E-1
4.635522754E1,-3.329510689E-1,-8.247056007E-1,1.874320745E0
4.641522147E1,-5.407452583E-1,-1.163434982E-2,1.120936394E0
4.647521590E1,1.095609188E0,-3.177971840E-1,8.772602081E-1
4.653521016E1,1.282920837E0,-2.875490189E-1,2.542526722E-1
4.659520449E1,8.253016472E-1,-5.979199409E-1,2.956304550E-1
4.665519842E1,4.128241539E-1,-1.476450443E0,-3.652338982E-1
4.671519122E1,-5.152621269E-1,-1.130359173E0,-3.087425232E-2
4.677518345E1,-1.128654480E0,-1.390575409E0,-1.396806717E0
4.683517591E1,-1.307189465E0,-2.155284882E0,-1.977518082E0
4.689516844E1,-2.756236076E0,-1.634656906E0,-3.083695412E0
4.695516097E1,-3.577689886E0,-7.528057098E-1,-1.725000858E0
4.701515344E1,-1.223392010E0,-6.291475296E-1,-2.498756886E0
4.707514597E1,-6.373839378E-1,-2.556837082E0,-4.928631783E-1
4.713513836E1,1.919220686E0,-2.227617264E0,-4.904521942E0
4.718515623E1,-2.285265923E-1,-5.573087692E0,-1.816575527E0
4.724514866E1,6.354682446E-1,-5.516104698E0,-2.501758099E0
4.730514112E1,-1.377701283E0,-8.208047867E0,2.693972588E-1
4.736513372E1,-1.452515841E0,-7.989918709E0,-1.081185341E-1
4.742512622E1,-1.358151674E0,-6.918073654E0,2.405290127E0
4.748511942E1,-1.125049353E0,-4.854747772E0,4.982275009E0
4.754511258E1,-2.607549191E0,-1.597658157E0,4.368858337E0
4.760510578E1,-3.703757048E0,-3.372602463E-1,3.168845177E0
4.766509884E1,-4.530357361E0,-9.769802094E-1,1.417634964E0
4.772509200E1,-2.813301563E0,-1.375349522E0,9.809231758E-1
4.778508440E1,-8.705797195E-1,-9.549164772E-1,-4.507236481E-1
4.784507683E1,5.550274849E-1,-2.182704449E0,-1.213897705E0
4.790506930E1,2.296919346E0,-1.650186062E0,-2.182736874E0
4.796506192E1,2.796471119E0,-1.683152914E0,-1.832157612E0
4.802505439E1,1.734900951E0,-5.299108028E-1,-2.785136461E0
4.808504692E1,2.185150146E0,-5.421931744E-1,-1.004572868E0
4.814503932E1,1.140420914E0,8.682084084E-2,-1.319081783E0
4.820503165E1,1.187582970E0,3.740477562E-1,-8.756885529E-1
4.826502401E1,-4.232792854E-1,8.537149429E-2,-7.821459770E-1
4.832501658E1,4.180469513E-1,-2.558071613E-1,-1.714806557E-1
4.838500910E1,5.661621094E-1,-8.615067005E-1,-1.092956543E0
4.844500167E1,-9.512071609E-1,-2.145800829E0,-1.568587065E0
4.850499473E1,-5.354528427E-1,-2.718211651E0,-2.032060146E0
4.856498880E1,-5.704978943E0,-5.089470863E0,-4.554801941E0
4.862498310E1,-5.826567650E0,7.400529385E-1,2.055517673E0
4.868497742E1,-7.921521187E0,3.688120365E0,5.914561749E0
4.874497176E1,-2.966778755E0,2.748252392E0,7.429450989E0
4.880496549E1,-8.134264946E-1,-1.318189025E0,5.970273018E-1
4.886495815E1,4.946713448E0,-3.553454876E0,-4.145088196E0
4.892495045E1,1.111916542E0,-4.992301464E0,-6.781490803E0
4.898494291E1,3.716641665E0,-3.000645161E0,-6.496580124E0
4.904493538E1,7.035608292E0,2.140638828E0,-6.122767925E0
4.910492797E1,1.700292206E1,2.254310989E1,-2.434526205E0
4.916492044E1,1.816153336E1,2.039281464E1,-1.178798199E0
4.922491300E1,-5.634242058E0,-7.142317772E0,-8.271225929E0
4.928490533E1,-2.843455505E1,-2.599123573E1,-9.647385597E0
4.934489766E1,1.139120293E1,-6.570587158E0,-8.156012535E0
4.940489006E1,5.295546532E0,7.070689678E0,-9.221578598E0
4.946488266E1,-5.585281849E-1,1.637662888E0,-7.239042282E0
4.952487512E1,3.013607979E0,3.353026390E0,-2.748321533E0
4.958486778E1,-8.138012886E-1,-1.353518486E0,-1.949762702E0
4.964486112E1,2.369035006E0,-2.894011497E0,1.067869663E0
4.970485431E1,1.410513282E0,-2.357252121E0,1.141161919E-1
4.976484738E1,1.662660122E0,-1.416347027E0,1.217988491E0
4.982484051E1,1.285992622E0,-1.891015053E0,-1.385688782E-2
4.988483354E1,3.568094075E-1,-4.500958443E0,1.060446739E0
4.994482587E1,-3.245812356E-1,-3.412709713E0,-9.741144180E-1
5.000481823E1,-6.108722687E-1,-4.336468220E0,-1.534974575E0
5.006481070E1,-1.742392778E0,-2.475875139E0,-2.155392170E0
5.012480323E1,-1.945721149E0,2.072334290E-2,-1.761926174E0
5.018479572E1,-1.635156393E0,1.811085701E0,-2.789115906E-1
5.024478826E1,-2.113835335E0,3.735181332E0,-5.011901855E-1
5.030478069E1,-2.619275093E0,2.498024225E0,4.850387573E-1
5.036477308E1,-4.028101444E0,2.004200935E0,1.561885834E0
5.042476545E1,-3.225609779E0,1.134802580E0,2.011651993E0
5.048475798E1,-7.246985435E-1,8.087071180E-1,1.721258640E0
5.054475044E1,-8.764753342E-1,-3.000980616E-1,2.688878059E0
5.060474304E1,-1.058134079E0,-2.108966708E-1,1.316017628E0
5.066473647E1,6.299972534E-3,-3.558614850E-1,-1.464147568E-1
5.072473090E1,5.159397125E-1,-1.099265814E-1,-9.271681309E-1
5.078472537E1,2.335718155E0,1.160789847E0,-1.144476175E0
5.084471997E1,-8.696813583E-1,5.638180375E-1,5.862579346E-1
5.090471443E1,-1.982974052E0,4.737689495E-1,-3.322958946E-1
5.096470806E1,-3.864903450E-1,-2.092036009E-1,1.425619602E0
5.102470060E1,-2.221904278E0,-1.876974702E0,4.147133827E-1
5.108469312E1,-4.871912003E-1,-1.065670133E0,1.081727505E0
5.114468559E1,-7.484884262E-1,-1.685579419E0,1.091690063E-1
5.120467812E1,3.024520874E-1,-8.000899553E-1,-1.005702019E-1
5.126467062E1,1.468265533E0,-6.576943398E-1,-6.688098907E-1
5.132466321E1,2.651362419E-1,-1.115266204E0,-6.995296478E-1
5.138465558E1,3.754158020E-1,-1.011353374E0,-1.120177269E0
5.144464791E1,9.950408936E-1,-8.431400061E-1,-4.282383919E-1
5.150464037E1,-2.356534004E-1,-3.462443352E-1,-1.005913258E0
5.156463287E1,1.462356567E0,-3.389546275E-1,-3.954305649E-1
5.162462533E1,6.648688316E-1,-2.520949841E-1,-7.334580421E-1
5.168461783E1,6.835737228E-1,-5.439305305E-2,-9.157261848E-1
5.174461096E1,2.994675636E-1,1.382029057E-1,-1.131844044E0
5.180460513E1,-3.716559410E-1,-1.875131130E-1,9.163427353E-2
5.186459946E1,-8.710365295E-1,-1.284606099E0,-7.367091179E-1
5.192459372E1,8.090295792E-1,-1.700756550E0,-7.581963539E-1
5.198458808E1,2.709245682E-1,-2.186290026E0,-3.715018988E0
5.204458181E1,-1.633031845E0,-6.468964100E0,-5.145969391E0
5.210457438E1,-2.687438965E0,7.035575867E0,4.543731213E-1
5.216456664E1,-1.696022034E0,5.534100056E0,5.924087524E0
5.222455917E1,-5.246887207E0,5.623827457E0,4.411394596E0
5.228455160E1,-6.368053436E0,-1.257956028E-1,-1.433895826E0
5.234454417E1,-8.368577957E-1,-4.055091858E0,-9.683413506E-1
5.240453663E1,1.487636566E0,-4.721778870E0,-1.742688179E0
5.246452923E1,4.844652176E0,-3.797956944E0,-3.543521643E0
5.252452162E1,4.208089352E0,-3.394162178E0,-5.469392300E0
5.258451402E1,3.962079525E0,-1.537274361E0,-5.841664791E0
5.264450645E1,4.368455887E0,8.501043320E-1,-1.441976070E0
5.270449898E1,2.415430546E0,1.382222652E0,9.767866135E-2
5.276449145E1,5.433863640E0,2.511110783E0,-1.083818436E0
5.282448414E1,7.104003906E0,7.632033348E0,-9.076757431E-1
5.288447744E1,1.836447525E1,3.023640060E1,-5.964619637E0
5.294447057E1,1.023713303E1,7.302887440E0,7.247943878E0
5.300446367E1,6.054851151E1,-8.046264648E1,-2.890821838E1
5.306445680E1,-9.262851715E0,-1.759236908E1,-1.309655762E1
5.312444970E1,6.619402409E0,-4.808629990E0,-6.828704834E0
5.318444200E1,-3.436208963E-1,-3.068647861E0,-5.130026817E0
5.324443443E1,3.544030190E0,1.796384811E0,-8.622075081E0
5.330442699E1,8.850955963E-2,4.716410637E0,-5.400679111E0
5.336441952E1,3.747340679E0,3.901337624E0,-6.835316658E0
5.342441199E1,4.055113792E-1,1.009750366E0,-4.058183670E0
5.348440452E1,1.166411877E0,-3.436288834E-1,-3.497414589E0
5.354439695E1,-1.612957478E0,-4.328012466E-1,-2.069967031E0
5.360438928E1,-7.683944702E-1,9.908580780E-2,-9.709277153E-1
5.366438171E1,-4.753489494E-1,-1.180257797E-1,1.285750270E-1
5.372437430E1,4.095900059E-1,-6.576929092E-1,1.433215261E0
5.378436677E1,1.168580055E-1,-7.501859665E-1,7.997034788E-1
5.384435933E1,1.609773636E-1,-1.017995358E0,1.436516047E0
5.390435286E1,-3.272306919E-1,-4.103240967E-1,9.749050140E-1
5.396434726E1,-4.674959183E-1,-1.585440636E0,2.948720455E-1
5.402434173E1,-1.349253058E0,-1.317685127E0,-8.336520195E-2
5.408433633E1,-5.735886097E-1,-1.214631081E0,-2.394549847E-1
5.414433089E1,-1.911048889E-1,-5.865349770E-1,-3.963360786E-1
5.420432436E1,-9.023400545E-1,8.347988129E-2,4.732961655E-1
5.426431686E1,-1.284567595E0,-4.902448654E-1,-6.878280640E-2
5.432430942E1,-9.265992641E-1,-2.569006920E0,-8.983726501E-1
5.438430188E1,-1.557887077E0,-2.877601624E0,-2.379732847E0
5.444431541E1,-8.629756570E-1,-2.742187500E0,-4.077199936E0
5.450430794E1,-5.044384003E-1,-1.992832184E0,-4.123541355E0
5.456430047E1,-3.470110893E-2,-1.980437517E0,-5.667270184E0
5.462429277E1,-1.620916843E0,-4.148657799E0,-2.018379211E0
5.468428510E1,-1.386107445E0,-4.890249729E0,2.616766930E0
5.474427767E1,-7.770032883E-1,-6.476880074E0,3.516843796E0
5.480427026E1,1.807323933E0,-4.692030907E0,5.370227814E0
5.486426279E1,1.435384035E0,-2.324870586E0,2.409450531E0
5.492425526E1,-9.054970741E-2,-2.612818718E0,1.313375473E0
5.498424852E1,-1.903824687E0,-3.196173668E0,7.961473465E-1
5.504424265E1,-2.945556641E0,-2.180011749E0,-3.057367802E-1
5.510423692E1,-1.982110739E0,-9.980106354E-1,-5.055556297E-1
5.516423118E1,-1.044438958E0,-9.150466919E-1,-1.847691536E-1
5.522422558E1,-1.558769047E-1,-7.535715103E-1,-6.288685799E-1
5.528421911E1,4.837211668E-1,-3.022375107E-1,-1.539827228E0
5.534421161E1,6.034135818E-1,-6.346101761E-1,-1.639733911E0
5.540420394E1,6.392766237E-1,-5.903348923E-1,-1.458307028E0
5.546419653E1,1.365772009E0,-8.546886444E-1,-1.296391726E0
5.552418900E1,1.817205787E0,-7.947511673E-1,-1.383568645E0
5.558418159E1,1.950832367E0,-2.464599609E-1,-1.070525765E0
5.564417406E1,1.632518411E0,2.487115860E-1,-1.076783419E0
5.570416652E1,1.430647373E0,3.460550308E-1,-7.086534500E-1
5.576415878E1,1.009784818E0,1.039390564E-1,-3.592851162E-1
5.582415128E1,2.177200913E-1,-1.812543869E-1,-5.033787489E-1
5.588414378E1,-5.853661299E-1,-4.756946564E-1,6.933927536E-2
5.594413641E1,-9.950144291E-1,-2.673072815E-1,-8.680939674E-3
5.600412894E1,-1.391703725E0,-3.176460266E-1,3.041568995E-1
5.606412174E1,-1.497929811E0,-1.776285172E-1,1.531771421E-1
5.612411490E1,-1.348740458E0,-2.644729614E-2,2.328951359E-1
5.618410807E1,-1.202605605E0,8.821868896E-2,1.332204342E-1
5.624410110E1,-9.229924083E-1,9.087371826E-2,-8.466124535E-2
5.630409423E1,-4.622353911E-1,-1.898250580E-1,1.230621338E-2
5.636408709E1,-5.218446255E-2,-2.088451385E-1,-8.282375336E-2
5.642407942E1,3.439048529E-1,-1.070280075E-1,-1.424243450E-1
5.648407185E1,7.588632703E-1,-1.257791519E-1,-2.224221230E-1
5.654406438E1,9.477905631E-1,-3.859233856E-2,-3.332333565E-1
5.660405691E1,1.012386918E0,-3.374290466E-2,-4.046900272E-1
5.666404944E1,9.162441492E-1,-5.508422852E-3,-5.009013414E-1
5.672404197E1,7.520781159E-1,1.127910614E-1,-3.886594772E-1
5.678403427E1,2.859122157E-1,1.769847870E-1,-3.145405054E-1
5.684402667E1,-6.296420097E-2,3.667449951E-2,-1.786020994E-1
5.690401920E1,-3.236269951E-1,-9.689331055E-2,1.308875084E-1
5.696401173E1,-6.643217802E-1,-2.359743118E-1,1.930053234E-1
5.702400419E1,-9.071818590E-1,-2.862548828E-1,3.091983795E-1
5.708399682E1,-9.058971405E-1,-1.282882690E-1,4.367158413E-1
5.714399042E1,-6.728617549E-1,7.190322876E-2,5.074316263E-1
5.720398468E1,-4.354340732E-1,1.154994965E-1,3.665711880E-1
5.726397895E1,-2.069892287E-1,3.759956360E-2,2.583496571E-1
5.732397334E1,7.697343826E-3,-1.639242172E-1,5.029377937E-1
5.738396758E1,1.157491207E-1,-3.554468155E-1,9.330329895E-1
5.744396077E1,-3.031270504E-1,-1.576547623E-1,5.168914795E-1
5.750395310E1,-1.078545451E0,-1.181049347E-1,5.093514919E-1
5.756394550E1,-2.354443073E-1,-1.213750839E-1,5.841457844E-1
5.762393796E1,2.906131744E-2,-5.040931702E-1,7.462673187E-1
5.768393056E1,-5.542111397E-2,-4.242801666E-1,5.669701099E-1
5.774392302E1,-1.499361992E-1,-5.808792114E-1,4.438180923E-1
5.780391556E1,-4.564299583E-1,-7.151632309E-1,2.556071281E-1
5.786390802E1,1.455383301E-1,1.441297531E-1,3.004026413E-1
5.792390035E1,2.695984840E-1,7.722797394E-1,9.415593147E-1
5.798389268E1,-1.211495399E-1,1.322924614E0,3.150219917E-1
5.804388521E1,-2.035522461E-2,1.048110962E0,4.839072227E-1
5.810387774E1,5.205631256E-1,5.528607368E-1,-3.695569038E-1
5.816387027E1,6.349225044E-1,-3.819842339E-1,3.006873131E-1
5.822386334E1,2.033629417E-1,-1.266556978E0,-1.029599667E0
5.828385654E1,8.263320923E-1,-1.344552279E0,-1.342353821E-1
5.834384966E1,3.172917366E-1,-9.530899525E-1,-5.298171043E-1
5.840384283E1,2.859821320E-1,-1.318527699E0,-1.007767677E0
5.846383596E1,1.715065002E0,-1.578907251E0,-2.809619188E0
5.852382849E1,5.200085640E-1,-3.703447819E0,-3.044425011E0
5.858382089E1,-7.850496292E0,-3.771256685E0,-2.072559357E1
5.864381335E1,-1.967336655E0,2.789993763E0,2.697024345E0
5.870380585E1,-6.534729004E0,8.680789948E0,5.921171665E0
5.876379831E1,-7.259340286E0,4.656145573E0,2.270158291E0
5.882379094E1,-1.280571938E0,-2.210773468E0,2.166463852E0
5.888378344E1,-1.626729012E0,-4.240834236E0,-9.755363464E-1
5.894377584E1,5.079074860E0,-2.950416088E0,-5.798942089E0
5.900376820E1,5.747902393E0,3.921337128E-1,-8.548636436E0
5.906376073E1,2.152397394E0,8.342695236E-2,-8.393200874E0
5.912375316E1,2.761068344E0,1.645361423E0,-3.520584106E0
5.918374572E1,3.267954350E0,2.683672428E0,-7.528505325E-1
5.924373849E1,2.269513130E0,1.565279007E0,-6.584310532E-2
5.930373246E1,1.708761930E0,-3.766651154E-1,7.795724869E-1
5.936372699E1,8.573672771E-1,-1.058667183E0,4.737572670E-1
5.942372152E1,7.087507248E-1,-1.369073868E0,-1.384962559E0
5.948371599E1,2.642393827E0,-4.448843002E-2,-1.780562401E0
5.954371022E1,4.285900116E0,3.390201569E0,-1.142775536E0
5.960370322E1,1.367313957E1,2.068994713E1,-3.721811771E0
5.966369558E1,1.384549809E1,1.817872620E1,-8.291263580E-1
5.972368811E1,-1.807412720E1,-9.680193901E0,-1.754869270E1
5.978368057E1,-4.501480103E1,-3.208569717E1,-3.339855433E0
5.984367310E1,1.342810917E1,-9.747260094E0,-6.124936104E0
5.990366563E1,7.236648560E0,1.630001450E1,-1.119601250E1
5.996365813E1,-2.072366238E0,3.869419098E0,-4.771271706E0
6.002365043E1,-6.041036606E0,-3.354067326E0,-2.423556328E0
6.008364296E1,-8.656706810E-1,-2.582835197E0,1.476433516E0
6.014363542E1,-1.201685071E0,-3.094708920E0,-1.863338947E-1
6.020362795E1,1.474437475E0,-1.874683857E0,1.462838650E-1
6.026362045E1,1.051388621E0,-6.068544388E-1,5.437002182E-1
6.032361308E1,5.370692015E-1,8.070983887E-1,8.079338074E-2
6.038360671E1,4.049706459E-2,4.151391983E-1,2.614908218E-1
6.044360111E1,-6.561574936E-1,8.784837723E-1,-9.405894279E-1
6.050359541E1,-7.820223570E-1,7.906837463E-1,-1.139508367E0
6.056358970E1,-4.320819378E-1,7.968225479E-1,-1.072693348E0
6.062358390E1,-4.452226162E-1,4.060525894E-1,-1.094956994E0
6.068357700E1,-5.645389557E-1,8.375463486E-1,-1.021138668E0
6.074356926E1,-3.626282215E-1,2.969121933E-1,-1.516620517E0
6.080356166E1,5.142900944E-1,-1.183109283E-1,-7.211880088E-1
6.086355419E1,3.192651272E-1,-1.390894890E0,-7.602891922E-1
6.092354672E1,-6.152634621E-1,-3.614927769E0,-1.508114815E0
6.098353918E1,-1.351296186E0,-5.500548840E0,-2.297599554E0
6.104353171E1,-1.491713881E0,-4.715239525E0,-3.476565361E0
6.110352414E1,-2.321370840E0,-2.788200855E0,-4.296096325E0
6.116351647E1,-1.832187891E0,-3.361965179E0,-5.475812912E0
6.122350894E1,-2.327687025E0,-5.608369827E0,-1.964681625E0
6.128350147E1,-3.775668621E0,-4.669062614E0,9.421567917E-1
6.134349396E1,-1.790175438E0,-6.801764488E0,4.191504002E0
6.140348649E1,-2.240396023E0,-7.587746143E0,6.472477436E0
6.146347963E1,-8.042757511E-1,-4.742754459E0,3.947010994E0
6.152347282E1,9.120787382E-1,-3.052918434E0,2.956693649E0
6.158346595E1,8.559954166E-2,-1.882973671E0,1.394026756E0
6.164345905E1,-9.478992224E-1,-1.592528343E0,4.091153145E-1
6.170345218E1,-2.074073553E0,-1.164634705E0,-1.868247986E-1
6.176345018E1,-1.878716826E0,-7.143278122E-1,-1.001074314E0
6.182344258E1,-5.325270295E-1,-8.333492279E-1,-2.741456032E-1
6.188343504E1,-2.194322348E-1,-7.561693192E-1,-6.450877190E-1
6.194342764E1,-3.329375982E-1,-6.106729507E-1,-1.092604518E0
6.200342010E1,3.289840221E-1,-5.570602417E-2,-1.531450868E0
6.206341263E1,9.104825854E-1,-4.860754013E-1,-1.198751807E0
6.212340503E1,1.501452088E0,-2.926111221E-1,-1.404572248E0
6.218339743E1,1.864143610E0,-1.425571442E-1,-6.199738979E-1
6.224338979E1,1.389820933E0,1.700277328E-1,2.211306095E-1
6.230338239E1,-3.611502647E-1,6.814289093E-2,2.228155136E-1
6.236337489E1,-1.078307152E0,-4.381361008E-1,-1.849865913E-2
6.242336742E1,-7.177155018E-1,-3.191213608E-1,9.703502655E-1
6.248336028E1,-1.867396832E-1,2.692604065E-2,8.995368481E-1
6.254335438E1,-1.927427292E0,-2.396984100E-1,1.408509731E0
6.260334864E1,-9.146952629E-1,-1.551933289E-1,1.837656736E0
6.266334294E1,-1.429060221E0,-3.698496819E-1,1.540857315E0
6.272333727E1,-1.228992939E0,-6.907138824E-1,1.355629444E0
6.278333120E1,-6.572999954E-1,-8.083448410E-1,3.858518600E-1
6.284332386E1,-9.296321869E-2,-6.373949051E-1,-2.061929703E-1
6.290331620E1,7.612257004E-1,5.059146881E-2,-7.926793098E-1
6.296330863E1,1.439107418E0,7.267584801E-1,-1.598442078E0
6.302330116E1,1.485666752E0,1.466948986E-1,-1.714952946E0
6.308329369E1,1.131888390E0,-1.063282490E-1,-1.775911808E0
6.314328615E1,6.385879517E-1,-3.190610409E-1,-1.279974461E0
6.320327868E1,1.098008156E-1,-3.113286495E-1,-9.514980316E-1
6.326327111E1,1.727833748E-1,3.992617130E-1,-8.991627693E-1
6.332326344E1,2.126412392E-1,1.129041553E0,-7.894959450E-1
6.338325591E1,-1.884465218E-1,9.176349640E-1,-9.622097015E-3
6.344324850E1,7.632589340E-2,8.854504824E-1,3.310108185E-2
6.350324097E1,-1.581926346E-1,-1.625058651E-1,3.042449951E-1
6.356323360E1,1.381322861E0,-4.993908405E-1,1.080105782E0
6.362322680E1,8.298211098E-1,-6.590235233E-1,9.600925446E-2
6.368321999E1,1.166780949E0,-3.217639446E0,5.394220352E-2
6.374321306E1,-1.807741165E0,-4.478932858E0,-2.592964888E0
6.380320625E1,1.451214218E1,-5.926765442E0,1.311967278E1
6.386319922E1,-1.235361385E1,8.482770920E0,4.214844704E0
6.392319161E1,-5.542270660E0,6.866795063E0,3.464255810E0
6.398318398E1,-5.188358307E0,-1.027227402E0,1.222053051E0
6.404317657E1,-1.688924789E0,-3.131778002E0,-3.316184044E0
6.410316904E1,6.448958397E0,-4.531395912E0,-4.043193340E0
6.416316157E1,3.013097286E0,-2.766127825E0,-6.700613976E0
6.422315410E1,4.153300762E0,-5.291118622E-1,-7.728727818E0
6.428314653E1,3.376133442E0,2.813863277E0,-4.576791763E0
6.434313879E1,4.989366531E0,6.104185104E0,-1.741914272E0
6.440313126E1,1.003705788E1,2.027397537E1,-1.480238914E0
6.446312379E1,1.601467323E1,2.662060165E1,-5.087240696E0
6.452311632E1,-3.419895887E0,-9.772138596E0,2.056075287E1
6.458310885E1,-1.920221138E1,-2.110539246E1,-2.510389805E0
6.464310215E1,1.804927063E1,-1.832015991E0,-1.226610661E1
6.470309638E1,-1.468297243E0,7.134034157E0,-1.136828518E1
6.476309071E1,-1.047526598E-1,-1.093676090E0,-4.809058189E0
6.482308504E1,-7.139530182E-1,-2.955585003E0,-1.332237005E0
6.488307930E1,1.828482270E0,-2.919862270E0,1.729021549E0
6.494307286E1,4.600823402E0,-2.311950207E0,2.401762009E0
6.500306533E1,3.702253342E0,-9.653282166E-2,7.856044769E-1
6.506305766E1,1.538429499E0,2.556190491E-1,9.226117134E-1
6.512305009E1,-2.074295044E0,-5.535731316E-1,-4.639015198E-1
6.518304269E1,-2.918536186E0,-2.351202965E-1,-2.041845322E-1
6.524303515E1,-1.558849931E0,3.269176483E-1,-9.162950516E-2
6.530302771E1,-1.387099385E0,-5.016279221E-2,-5.835947990E-1
6.536302018E1,-7.140212059E-1,6.009740829E-1,-1.614584923E-1
6.542301254E1,-7.879389524E-1,-1.156997204E0,-1.137857437E0
6.548300484E1,-7.926881313E-2,-3.497524261E0,-1.459172487E0
6.554299744E1,1.944183111E-1,-6.638239384E0,-2.857329845E0
6.560298990E1,-1.274245739E0,-6.715544224E0,-4.019166946E0
6.566298243E1,-1.323609710E0,-4.401018620E0,-4.040384769E0
6.572297526E1,-8.030370474E-1,-1.903302431E0,-4.455343246E0
6.578296856E1,2.302366495E-2,2.899417877E0,-3.054728508E0
6.584296162E1,-6.335563660E-1,3.038571119E0,2.401828766E-2
6.590295476E1,-4.388073444E0,-2.797767162E0,1.408427238E0
6.596294788E1,-2.277440548E0,-5.034904480E0,5.982639313E0
6.602294072E1,-9.165844917E-1,-4.111042500E0,2.869434357E0
6.608293305E1,2.473531246E0,-3.910908222E0,2.826154232E0
6.614292544E1,2.405322552E0,-2.494642735E0,1.249679565E0
6.620291798E1,-1.289765835E-1,-2.456403732E0,3.563570976E-1
6.626291051E1,-2.185418606E-1,-1.637021065E0,-1.195091248E0
6.632290304E1,-8.055843115E-1,-1.887555122E0,-7.269804478E-1
6.638289556E1,-7.062598467E-1,-1.484982491E0,-8.255498409E-1
6.644288803E1,-5.198993087E-1,-1.155514717E0,-5.712029934E-1
6.650288033E1,-1.013478279E0,-1.163250923E0,-2.397296429E-1
6.656287279E1,-5.775340796E-1,-7.397603989E-1,-1.515359879E-1
6.662286532E1,-2.801539302E-1,-3.640642166E-1,-5.726277828E-1
6.668285785E1,2.172902226E-1,-4.525251389E-1,-7.678515911E-1
6.674285038E1,6.891410351E-1,-4.654655457E-1,-8.138215542E-1
6.680284418E1,1.024000645E0,-3.127584457E-1,-1.119450569E0
6.686283858E1,1.101487517E0,-2.293024063E-1,-1.221033812E0
6.692283311E1,1.214721680E0,-1.941347122E-1,-1.257623553E0
6.698282758E1,1.330032468E0,-3.211688995E-2,-1.011974573E0
6.704282211E1,1.045482874E0,1.184902191E-1,-1.114983439E0
6.710281534E1,7.162926793E-1,-4.479408264E-2,-6.589334011E-1
6.716280787E1,4.122636318E-1,-8.926582336E-2,-6.992371082E-1
6.722280027E1,-1.326833963E-1,-1.896076202E-1,-4.304430485E-1
6.728279280E1,-3.894365430E-1,-2.865991592E-1,-2.933413982E-1
6.734278526E1,-5.492898822E-1,4.034519196E-2,-1.390805244E-1
6.740277789E1,-5.850168467E-1,-2.149553299E-1,1.330375671E-3
6.746277039E1,-6.638586521E-1,-3.009204865E-1,-5.073082447E-2
6.752276282E1,-4.891065955E-1,-1.589384079E-1,-1.642289162E-1
6.758275516E1,-2.223043442E-1,-5.061435699E-2,-1.509004831E-1
6.764274768E1,1.552396417E-1,-1.104393005E-1,-1.566358805E-1
6.770274012E1,3.814917207E-1,-1.711511612E-1,-2.568479776E-1
6.776273261E1,5.215175152E-1,-1.313056946E-1,-4.331034422E-1
6.782272511E1,5.422816277E-1,-1.296606064E-1,-4.004726410E-1
6.788271857E1,5.769404173E-1,-1.258907318E-1,-3.819032907E-1
6.794271277E1,4.118262231E-1,9.991359711E-2,-1.480606794E-1
6.800270704E1,3.159033060E-1,1.457386017E-1,-1.099786758E-1
6.806270143E1,-5.778968334E-3,-9.744834900E-2,-9.431600571E-3
6.812269576E1,1.293191552E0,-1.584930420E-1,1.735046864E0
6.818268916E1,-1.371539354E0,-1.692179680E0,2.758012295E0
6.824268156E1,-1.593532443E0,-9.905309677E-1,2.588518143E0
6.830267399E1,-8.493747711E-1,-8.994073868E-1,2.365816116E0
6.836266639E1,3.147175312E-1,-1.110291958E0,1.183713913E0
6.842265892E1,4.521610737E-1,-6.052637100E-1,-3.113265038E-1
6.848265138E1,1.111981869E0,-2.882094383E-1,-6.824059486E-1
6.854264398E1,9.668068886E-1,4.657592773E-1,-1.089391232E0
6.860263638E1,1.027959824E0,9.643840790E-1,-9.008994102E-1
6.866262878E1,-3.422503471E-1,3.887910843E-1,-1.581544399E0
6.872262107E1,2.743678093E-1,3.550045490E-1,-9.782834053E-1
6.878261360E1,-5.062952042E-1,4.697811604E-1,-1.437261105E0
6.884260607E1,-6.370410919E-1,-5.024552345E-1,-2.179283381E0
6.890259870E1,-9.118118286E-1,-1.511243820E0,-3.565525770E0
6.896259156E1,-5.694427490E-1,-1.252577305E0,-3.788487434E0
6.902258486E1,-1.561544418E0,-4.306466103E0,-7.168750763E0
6.908257098E1,-9.151668549E-1,3.013309240E-1,1.417124510E0
6.914256411E1,2.286733627E0,1.866720915E0,-1.922740936E-1
6.920255717E1,4.093866348E-1,3.821138859E0,-2.787615538E0
6.926254990E1,-1.108833313E0,4.342312813E0,-2.934622765E-2
6.932254224E1,2.905662537E0,2.887247324E0,5.814425468E0
6.938253470E1,-1.494701195E1,-3.312379360E0,7.339683533E0
6.944252723E1,-6.797913551E0,-5.035729408E0,9.934715271E0
6.950251966E1,-2.169899940E0,-7.430880547E0,2.801251888E0
6.956251219E1,1.717448711E0,-6.284623623E0,-2.820455551E0
6.962250472E1,5.207388878E0,-5.297687054E0,-8.883049011E0
6.968249709E1,6.686392784E0,-8.473882675E0,-3.477096081E0
6.974248935E1,1.968524218E0,-6.991817474E0,-4.049121380E0
6.980248198E1,1.075466752E0,-5.565763950E0,-4.301735878E0
6.986247444E1,6.505959630E-1,-1.084098816E0,-7.859187126E-1
6.992246701E1,1.018968391E1,1.101834774E0,8.830256462E-1
6.998245964E1,6.779761314E0,6.262912750E0,3.255427361E0
7.004245354E1,1.256538391E1,1.423521900E1,1.096361637E0
7.010244783E1,2.045178986E1,2.838837433E1,-4.553200722E0
7.016244233E1,1.088433075E1,2.041190624E0,1.629391289E1
7.022243656E1,-9.372978210E0,-7.434594727E1,1.614262390E1
7.028243072E1,-3.423519373E0,-1.827061844E1,-2.699045658E0
7.034242369E1,1.242105484E1,2.829129696E0,-8.970501900E0
7.040241606E1,-9.876196384E-1,-1.743333817E0,-5.470221519E0
7.046240822E1,1.180357456E0,-3.329308510E0,-2.470674992E0
7.052240075E1,2.253471136E0,-1.137454987E0,1.487730503E0
7.058239328E1,1.987806559E0,1.036128044E0,-1.675784588E0
7.064238581E1,2.405841827E0,7.994003296E-1,-1.375583887E0
7.070237827E1,2.451662540E0,1.047664642E0,-2.899111271E0
7.076237080E1,1.409706831E0,1.411237717E0,-2.664928675E0
7.082236313E1,1.552239418E0,1.607211113E0,-2.005987644E0
7.088235556E1,1.194394112E0,3.335733414E-1,-7.259562612E-1
7.094234809E1,6.679394245E-1,-5.271453857E-1,-6.172907352E-1
7.100234056E1,7.462787628E-1,-5.911598206E-1,3.757946491E-1
7.106233312E1,4.975116253E-1,-3.916397095E-1,2.959855199E-1
7.112232629E1,6.884341240E-1,-8.200740814E-1,2.208839655E-1
7.118231952E1,3.283092976E-1,-1.779859543E0,1.202635765E-1
7.124231258E1,2.339775562E-1,-2.662500858E0,-5.033569336E-1
7.130230578E1,-1.899034977E-1,-2.564936161E0,-7.201015949E-1
7.136229881E1,-7.483353615E-1,-3.046124935E0,-4.409182072E-1
7.142229131E1,-9.665038586E-1,-1.889000893E0,-1.086793423E0
7.148228357E1,-1.709785700E0,-2.525619984E0,-2.254252911E0
7.154227617E1,-1.200090051E0,-1.529185295E0,-7.175831795E-1
7.160226863E1,-2.106816053E0,-8.290624619E-2,-1.135756016E0
7.166226123E1,-8.009613752E-1,2.387938499E-1,-4.900474548E-1
7.172225369E1,-2.278213024E0,-7.590985298E-1,1.707379818E0
7.178224629E1,-1.647015095E0,-3.922009468E-1,1.197532177E0
7.184223855E1,-1.082520962E0,-1.198715210E0,2.649970055E-1
7.190223095E1,1.084917068E0,-1.038362741E0,8.726806641E-1
7.196222342E1,1.933807731E0,-6.830269694E-1,1.646367073E0
7.202221601E1,1.141505241E-1,-2.274774551E0,4.865079880E0
7.208220848E1,-1.693657398E0,-2.248745680E0,3.464732170E0
7.214220141E1,-1.996692896E0,-2.485805273E0,3.462919235E0
7.220219550E1,9.718871117E-2,-1.088273764E0,1.136135101E0
7.226219010E1,-2.732324600E-1,-1.828264236E0,3.423118591E-1
7.232218457E1,6.170539856E-1,-8.037137985E-1,-5.148878098E-1
7.238217930E1,1.285206556E0,-8.512806892E-1,-7.148575783E-1
7.244217344E1,5.456628799E-1,-4.314141273E-1,-1.626271248E0
7.250216633E1,1.302608490E0,3.855407834E-1,-1.192203522E0
7.256215863E1,2.608013153E-1,-1.328982115E-1,-1.387692451E0
7.262215116E1,4.151530266E-1,1.436804533E-1,-1.926546097E0
7.268214349E1,6.330661774E-1,8.187389374E-2,-9.176692963E-1
7.274213602E1,-1.049724102E0,-1.499256730E0,-9.720683098E-1
7.280212855E1,-1.163926601E0,-2.946810722E0,-1.096059322E0
7.286212098E1,-6.203880310E-1,-2.624895573E0,-1.914821625E0
7.292211331E1,-2.691005707E0,-5.446487904E0,-3.087855577E0
7.298210578E1,-4.081103325E0,-2.788086414E0,-3.497408152E0
7.304209831E1,-4.354560852E0,-3.434152603E-1,7.652122021E0
7.310209077E1,-4.094997406E0,4.681415081E0,3.533376694E0
7.316208337E1,-3.802311897E0,1.296513677E0,2.878745079E0
7.322207603E1,-4.212084293E0,-1.476458788E0,-3.202654123E0
7.328206983E1,3.876874447E0,-4.571854591E0,-1.847559929E0
7.334206409E1,3.137672186E0,-4.127885342E0,-6.843320847E0
7.340205849E1,3.518626690E0,-4.042944431E0,-6.753735542E0
7.346205275E1,1.599474669E0,-2.711472034E0,-6.323218346E0
7.352204695E1,5.283787727E0,2.137272358E0,-3.054297686E0
7.358203985E1,5.415992737E0,6.467954159E0,7.936425209E-1
7.364203221E1,1.438925362E1,2.192770004E1,-5.990037918E-1
7.370202454E1,1.755066490E1,2.128225327E1,-2.469888449E0
7.376201714E1,1.740891457E0,-4.527755260E0,2.972259903E1
7.382200960E1,-1.185198402E1,-3.335878372E1,-1.524806023E-1
7.388200220E1,6.456572533E0,-1.149869442E1,-8.864195824E0
7.394199470E1,3.958676338E0,9.119316101E0,-1.241088486E1
7.400198716E1,-3.161588430E0,-4.361248016E-2,-9.119313240E0
7.406197943E1,2.687780619E0,5.922393799E-1,-2.141083241E0
7.412197189E1,1.397425652E0,-4.347772598E-1,-2.599098682E-1
7.418196432E1,2.129599571E0,-3.559024334E0,2.053485394E0
7.424195685E1,2.250063181E0,-1.648679256E0,2.019137383E0
7.430194941E1,1.599708557E0,1.448016167E0,6.967763901E-1
7.436194255E1,1.500710130E0,6.384201050E-1,1.200619698E0
7.442193574E1,8.752709627E-1,-1.586948872E0,6.861195564E-1
7.448192887E1,5.965684652E-1,-2.176393986E0,-6.227397919E-2
7.454192207E1,1.426960588E0,-2.905147552E0,-2.175068855E-1
7.460191510E1,1.616978526E0,-3.797500610E0,-5.197892189E-1
7.466190763E1,5.494458079E-1,-3.033295631E0,-1.110415459E0
7.472189993E1,-3.363927007E-1,-3.102206230E0,-2.095394135E0
7.478189246E1,-1.280042529E0,-2.284891605E0,-2.874808788E0
7.484188486E1,-4.725256920E0,-8.806548119E-1,-5.163804531E0
7.490187745E1,-4.089467049E0,1.257924557E0,-5.839622498E0
7.496186992E1,-3.276844740E0,1.336343288E0,-3.226040363E0
7.502186248E1,-3.301355362E0,1.276328564E-1,2.007357597E0
7.508185474E1,-2.387462616E0,-1.645565033E-3,5.715424538E0
7.514184714E1,-1.783169270E0,-5.167901516E-2,6.744541168E0
7.520183961E1,2.838997841E0,-1.306289077E0,4.014000416E0
7.526183220E1,4.342105865E0,-2.799001694E0,2.156148911E0
7.532182463E1,3.592445612E0,-2.952224255E0,5.046844482E-3
7.538181770E1,2.092247486E0,-2.553207397E0,-1.232360363E0
7.544181186E1,-1.751065016E0,-3.234584808E0,-8.469638824E-1
7.550180640E1,-8.147330284E-1,-2.446353436E0,1.179451942E-1
7.556180086E1,-8.057391644E-1,-1.871276379E0,-2.656612396E-1
7.562179543E1,1.552591324E-1,-9.661970139E-1,3.379864693E-1
7.568178943E1,2.153551579E-2,-7.642431259E-1,1.978833675E-1
7.574178226E1,2.943725586E-1,-1.044000626E0,7.398507595E-1
7.580177469E1,2.385017276E-1,-1.267264366E0,1.002571583E0
7.586176715E1,-8.534252644E-3,-9.024505615E-1,6.679034233E-1
7.592175968E1,-3.254102468E-1,-4.132938385E-1,5.254149437E-1
7.598175221E1,-8.174270391E-2,-1.575222015E-1,9.349298477E-2
7.604174474E1,-2.213699818E-1,-2.012271881E-1,-3.955836296E-1
7.610173711E1,-1.998001337E-2,-1.665077209E-1,-6.585359573E-1
7.616172951E1,-9.576380253E-3,-2.071828842E-1,-9.228398800E-1
7.622172197E1,1.342988014E-2,-2.585115433E-1,-1.063614607E0
7.628171447E1,4.360120893E-1,-1.325111389E-1,-1.156469464E0
7.634171890E1,6.897273660E-1,-2.325096130E-1,-9.439365864E-1
7.640171153E1,8.236624002E-1,-2.723779678E-1,-7.687330246E-1
7.646170429E1,9.357588291E-1,-1.995687485E-1,-8.594594002E-1
7.652169819E1,1.176690221E0,3.161716461E-2,-8.802402020E-1
7.658169249E1,1.116476655E0,-2.818202972E-2,-6.042039394E-1
7.664168678E1,6.512250900E-1,-4.984092712E-2,-8.435691595E-1
7.670168101E1,6.203052998E-1,-5.269908905E-2,-5.882771015E-1
7.676167511E1,4.076640606E-1,-1.840486526E-1,-3.730342388E-1
7.682166788E1,2.186533213E-1,-1.513547897E-1,-1.811401844E-1
7.688166021E1,-1.803313494E-1,-1.815891266E-2,5.505251884E-2
7.694165267E1,-1.770472527E-2,-1.069717407E-1,3.694128990E-1
7.700164520E1,-5.916982889E-3,-2.437572479E-1,4.100461006E-1
7.706163770E1,-3.260827065E-1,-1.761474609E-1,2.754353285E-1
7.712163029E1,-4.746430218E-1,-1.141700745E-1,2.458420992E-1
7.718162282E1,-2.386330366E-1,6.430625916E-2,2.210803032E-1
7.724161522E1,-1.055710316E-1,-6.722831726E-2,1.657009125E-1
7.730160759E1,-3.890782595E-2,-2.089490891E-1,5.298995972E-2
7.736160008E1,9.170597792E-2,-4.160976410E-2,-1.146597862E-1
7.742159255E1,1.794230044E-1,5.147075653E-2,-2.379482985E-1
7.748158508E1,2.369255126E-1,6.845569611E-2,-2.870520353E-1
7.754157767E1,2.856418192E-1,8.442306519E-2,-1.706619263E-1
7.760157091E1,1.518822312E-1,-4.475402832E-2,-1.706285477E-1
7.766156404E1,1.354393661E-1,-4.026985168E-2,-9.131956100E-2
7.772155710E1,4.783439636E-2,-1.976966858E-2,-5.593037605E-2
7.778155023E1,-9.875655174E-3,-4.339790344E-2,-6.791496277E-2
7.784154329E1,3.212693334E-2,-3.023529053E-2,8.664608002E-3
7.790153569E1,3.827810287E-3,-9.056091309E-2,-2.532172203E-2
7.796152812E1,3.348644376E-1,-2.704544067E-1,2.817070484E-1
7.802152072E1,-1.418926597E0,-1.520983696E0,3.074193001E0
7.808151318E1,-9.578328729E-1,-2.042281151E0,2.056215763E0
7.814150571E1,8.973391056E-1,-4.504947662E0,4.090785980E0
7.820149818E1,-7.864486575E-1,-4.383202076E0,2.713611603E0
7.826149061E1,-2.048780203E0,-2.217958927E0,-2.190574646E0
7.832148287E1,-5.794382095E-2,-5.665426254E-1,-1.598011017E0
7.838147540E1,-3.126587868E-1,1.323494911E0,-4.922924519E0
7.844146790E1,7.295510769E-1,1.258307576E0,-3.644650936E0
7.850146043E1,4.461061954E-1,1.296434879E0,-3.096084118E0
7.856145289E1,1.092431545E-1,8.269896507E-1,-2.424181938E0
7.862144609E1,1.220803261E-1,6.778165698E-1,-9.906759262E-1
7.868144019E1,-1.650869846E-1,8.764517307E-1,-1.452223301E0
7.874143449E1,1.385071278E-1,9.686218500E-1,-9.021968842E-1
7.880142882E1,3.042469025E-1,7.571930885E-1,-6.499776840E-1
7.886142315E1,2.057409286E-1,7.730085850E-1,-8.003320694E-1
7.892141681E1,4.811875820E-1,4.072035551E-1,-5.773353577E-2
7.898140938E1,2.828018665E-1,3.645701408E-1,2.242851257E-2
7.904140174E1,4.497377872E-1,4.800719023E-1,1.462554932E-1
7.910139424E1,2.932305336E-1,7.452883720E-1,-1.758527756E-1
7.916138677E1,4.907426834E-1,7.659385800E-1,6.467561722E-1
7.922137923E1,5.684540272E-1,1.309955716E0,5.382385254E-1
7.928137176E1,6.438281536E-1,1.995313644E0,1.966038704E0
7.934136426E1,9.012260437E-1,5.941317081E-1,2.390851974E0
7.940135662E1,-1.039609909E-1,-2.580154836E-1,5.650949478E-1
7.946134889E1,6.508240700E-1,2.275720239E-1,-5.704612732E-1
7.952134148E1,-6.702356339E-1,-1.830458641E-2,-1.653911114E0
7.958133398E1,-2.595539093E-1,1.668901443E-1,-1.460263252E0
7.964132651E1,-2.373981476E-1,3.063206673E-1,-1.251496792E0
7.970131924E1,-1.696405411E-1,-1.016278267E-1,-1.229471684E0
7.976131264E1,-3.514437675E-1,-7.140564919E-2,-1.104222298E0
7.982130570E1,-3.636035919E-1,-4.731988907E-2,-6.922850609E-1
7.988129887E1,1.171898842E-1,2.846658230E-1,-5.036067963E-1
7.994129193E1,9.005784988E-2,4.031009674E-1,-7.442884445E-1
8.000128480E1,-1.833806038E-1,9.546475410E-1,-5.936632156E-1
8.006127709E1,3.093438148E-1,9.639215469E-2,-1.908850670E-1
8.012126962E1,2.238526344E-1,-1.736760139E-2,-2.310357094E-1
8.018126209E1,2.228021622E-1,-7.321333885E-2,-2.843775749E-1
8.024125462E1,-1.880125999E-1,-9.866952896E-2,-2.387523651E-2
8.030124715E1,4.858016968E-3,1.005535126E-1,2.501606941E-1
8.036123964E1,1.067595482E-1,3.646888733E-1,-2.832183838E-1
8.042123197E1,-6.502156258E-1,1.674559116E-1,-1.723613739E-1
8.048122430E1,1.249837875E-1,4.125738144E-1,-5.986361504E-1
8.054121680E1,-5.257987976E-2,-1.544332504E-1,2.453732491E-1
8.060120933E1,-2.073850632E-1,-2.451968193E-1,-3.091235161E-1
8.066120186E1,1.255083084E-1,-9.957551956E-3,2.867474556E-1
8.072119436E1,2.668347359E-1,6.121826172E-2,-5.639696121E-2
8.078118796E1,2.008280754E-1,4.431509972E-2,1.770520210E-1
8.084118236E1,2.376246452E-1,2.707648277E-1,-1.289176941E-1
8.090117689E1,-2.382578850E-1,9.023201466E-2,-2.118940353E-1
8.096117136E1,-7.565021515E-3,2.716188431E-1,-4.069390297E-1
8.102116592E1,-1.064562798E-1,-3.524053097E-2,8.810186386E-2
8.108115932E1,-3.768157959E-2,-2.859997749E-2,7.215833664E-2
8.114115185E1,-2.084836960E-1,5.298197269E-2,3.776741028E-2
8.120114432E1,-6.781816483E-2,1.093482971E-2,3.594636917E-2
8.126113691E1,1.339340210E-1,1.084913015E-1,1.017446518E-1
8.132112938E1,-8.221006393E-2,-7.963240147E-2,1.087808609E-1
8.138112201E1,-1.152291298E-1,-5.176353455E-2,-2.733283043E-1
8.144111444E1,-1.645679474E-1,2.197827101E-1,-6.048703194E-1
8.150110677E1,-5.998797417E-1,-6.264542341E-1,-1.725039959E0
8.156109907E1,-2.112101793E0,-3.116647959E0,-4.427481174E0
8.162109166E1,-2.533508778E0,-2.973602295E0,-5.395440578E0
8.168108409E1,-3.405648232E0,-4.805055559E-1,-4.092995644E0
8.174107662E1,-2.152509212E0,-2.401009083E0,-4.639348984E-1
8.180106915E1,-1.750753760E0,-2.026353121E0,5.091161728E-1
8.186106242E1,-4.716007411E-1,-4.238871098E0,4.581693649E0
8.192105652E1,-1.032723069E0,-2.969072819E0,4.104086399E0
8.198105084E1,-4.401493073E-1,-7.877964973E-1,3.486166954E0
8.204104518E1,-5.019516125E-2,3.297348022E-1,2.717666626E0
8.210103950E1,8.920819312E-2,1.398737907E0,1.532312870E0
8.216103307E1,1.033710480E0,2.867156982E0,-4.830198288E-1
8.222102553E1,1.486008644E0,2.166027546E0,-1.204349995E0
8.228101790E1,-6.178071499E-1,-3.627020836E0,-4.499528408E-1
8.234101043E1,-4.522583008E0,-5.509715080E0,-9.400308132E-1
8.240100296E1,-2.859526575E-1,-1.556385994E0,-4.675767422E-1
8.246099549E1,-3.470181823E-1,-7.998790741E-1,-4.823322296E-1
8.252098805E1,-3.386246860E-1,1.059646606E-1,-1.059668779E0
8.258098052E1,-2.400434613E-1,9.234151840E-1,-2.041707277E0
8.264097285E1,-5.259795785E-1,5.426101685E-1,-1.866774917E0
8.270096524E1,-4.223715663E-1,-3.339872360E-1,-9.101901054E-1
8.276095777E1,1.928685009E-1,-5.968923569E-1,-9.747190475E-1
8.282095024E1,7.916370034E-1,-5.747337341E-1,-7.849881649E-1
8.288094280E1,1.301620960E0,-3.191862106E-1,-5.184381008E-1
8.294093557E1,1.268718004E0,1.260566711E-2,-4.780344963E-1
8.300092883E1,1.138365984E0,1.663551331E-1,-4.687836170E-1
8.306092190E1,1.489777207E0,2.388296127E-1,-4.235541821E-1
8.312091509E1,4.030674100E-1,1.334896088E-1,-8.928344250E-1
8.318090812E1,-1.722601175E0,-6.012668610E-1,-1.473226547E-1
8.324090102E1,2.066212893E-1,-8.057270050E-1,2.003371716E0
8.330089328E1,1.455778599E0,-3.615036011E-1,2.189436674E0
8.336088581E1,-5.570211411E-1,-4.606189728E-1,1.956650734E0
8.342087828E1,-7.956042290E-1,-1.325645447E-1,5.473456383E-1
8.348087094E1,-5.350234509E-1,3.199815750E-1,9.032282829E-1
8.354086341E1,-7.955589294E-1,9.866585732E-1,3.555269241E-1
8.360087551E1,-4.540038109E-1,9.268040657E-1,2.428183556E-1
8.366086784E1,1.087250710E-1,9.501132965E-1,-8.588728905E-1
8.372086020E1,-1.051864624E-1,4.406037331E-1,-1.504109859E0
8.378085263E1,-6.549944878E-1,-3.405482769E-1,-1.460017204E0
8.384084516E1,-1.072729111E0,-8.978536129E-1,-1.476518631E0
8.390083769E1,-4.871902466E-1,-3.560957909E-1,-1.162398338E0
8.396083026E1,-3.968300819E-1,-7.564554214E-1,-1.420481682E0
8.402082396E1,2.109237671E0,-3.512630463E-1,-1.869116545E0
8.408081822E1,3.885345459E-1,-1.242272615E0,-2.770488739E0
8.414081255E1,4.700260162E-1,-2.036565781E0,-2.528787374E0
8.420080688E1,-2.905218124E0,-4.985245228E0,-4.905879021E0
8.426080118E1,6.412592888E0,-7.552776337E-1,6.275561333E0
8.432079424E1,2.070779800E-1,2.188464165E0,1.093843937E0
8.438078664E1,2.069248676E0,3.365112305E0,-1.181569099E-1
8.444077894E1,1.471601009E0,-1.311486661E-1,3.176968098E-1
8.450077147E1,4.786837101E0,1.519726396E0,-1.330734015E0
8.456076396E1,-2.372109413E0,2.359796762E0,3.183583021E0
8.462075659E1,-3.895772934E0,-6.013436794E0,1.377205563E1
8.468074906E1,-1.301110649E1,8.594959974E-3,6.292168617E0
8.474074162E1,-2.130738258E0,-5.811917782E0,2.642158985E0
8.480073388E1,2.824066401E0,-7.081013680E0,-4.471117973E0
8.486072625E1,3.525449991E0,-6.883204937E0,-5.921940327E0
8.492071881E1,5.700370789E0,-6.732044220E0,-6.293286800E0
8.498071141E1,1.544019341E0,-5.346732140E0,-6.968278408E0
8.504070387E1,1.770898342E0,-3.451782703E0,-2.904690981E0
8.510069700E1,2.891283989E0,-5.828008652E-1,-1.592296600E0
8.516069027E1,2.280714035E0,3.450787544E0,-1.057815552E-2
8.522068327E1,8.496146202E0,7.658712387E0,1.829409599E-1
8.528067633E1,1.684166527E1,2.910433578E1,-4.223821640E0
8.534066946E1,9.117290497E0,1.428980827E1,2.508751869E0
8.540066199E1,-1.825650215E1,-8.813255310E0,-3.942753601E1
8.546065432E1,-2.396151733E1,-2.914831924E1,-3.382373810E0
8.552064685E1,1.233428574E1,-2.453936100E0,-1.296356106E1
8.558063935E1,4.023727417E0,4.365026474E0,-7.513584137E0
8.564063188E1,-3.402984381E0,-7.356294632E0,-9.730603695E-1
8.570062441E1,1.206770420E0,-2.895870209E-1,-9.943149090E-1
8.576061694E1,2.985711575E0,-2.125169277E0,1.154452562E0
8.582060921E1,4.249725342E-1,-7.018470764E-2,-1.758926868E0
8.588060160E1,9.399156570E-1,7.117681503E-1,-2.591079950E0
8.594059407E1,5.882191658E-1,1.991220474E0,-3.298563004E0
8.600058660E1,7.765889168E-1,1.979643822E0,-3.698373318E0
8.606057910E1,6.765532494E-1,1.485233307E0,-3.698025227E0
8.612057199E1,1.917984486E0,9.893293381E-1,-3.312940598E0
8.618056596E1,1.027862549E0,1.249769688E0,-1.368354559E0
8.624056056E1,7.274971008E-1,1.360054016E-1,-6.179404259E-2
8.630055502E1,1.622998714E0,-1.206374168E-1,7.638633251E-1
8.636054952E1,1.604139328E0,-6.902828217E-1,1.337852836E0
8.642054369E1,7.015519142E-1,-8.515706062E-1,2.456419468E-1
8.648053675E1,-1.835103035E-1,-1.057034016E0,1.270147562E-1
8.654052908E1,-7.258801460E-1,-1.229636192E0,-4.099612236E-1
8.660052161E1,-9.255576134E-1,-1.721399307E0,-1.325166225E0
8.666051414E1,-1.000576496E0,-2.468314648E0,-2.030788422E0
8.672050667E1,-1.830167770E0,-1.916676044E0,-3.376048803E0
8.678049914E1,-3.285181522E0,-1.715788364E0,-4.784642220E0
8.684049160E1,-4.172200203E0,-1.123569489E0,-5.916014194E0
8.690048393E1,-3.248012304E0,-3.054553032E0,5.343189240E-1
8.696047636E1,-1.173681259E0,-1.736422777E0,-2.469708920E0
8.702046889E1,4.084899902E0,-7.198786259E0,3.581728935E0
8.708046136E1,5.207914829E0,-5.495230675E0,2.927635193E0
8.714045389E1,6.116935015E-1,-5.206151009E0,1.118718147E0
8.720044648E1,-1.581210136E0,-3.585373878E0,1.364873886E0
8.726044022E1,5.970680714E-2,-2.023424625E0,1.591419697E0
8.732043448E1,-4.272936583E-1,-7.557740211E-1,1.200231075E0
8.738042888E1,-2.208947659E0,-1.270895958E0,1.396655083E0
8.744042314E1,-2.164950848E0,-4.212951660E-1,-1.081118584E-1
8.750041744E1,-1.518543482E0,-8.178176880E-1,4.445829391E-1
8.756041047E1,-9.368002415E-1,-7.190017700E-1,-4.484801292E-1
8.762040290E1,-1.410467386E0,-6.988387108E-1,-2.003154755E-1
8.768039526E1,-1.704721451E-1,-6.294016838E-1,-1.330809593E-1
8.774038786E1,6.019449234E-1,-1.047182560E0,2.830600739E-1
8.780038029E1,6.740787029E-1,-1.068274498E0,-4.761471748E-1
8.786037282E1,9.291884899E-1,-1.081417084E0,-1.083257675E0
8.792036525E1,1.383921146E0,-8.114957809E-1,-1.441313267E0
8.798035785E1,1.126321077E0,-7.315344810E-1,-1.876301765E0
8.804035015E1,1.016502619E0,-1.888470650E-1,-1.561775684E0
8.810034268E1,5.886530876E-1,1.120104790E-1,-9.555239677E-1
8.816033514E1,5.477213860E-1,1.723580360E-1,-5.222892761E-2
8.822032784E1,-5.087184906E-2,4.060010910E-1,2.089433670E-1
8.828032024E1,-4.123387337E-1,3.906621933E-1,1.203835487E0
8.834031337E1,-9.905099869E-1,7.752442360E-1,6.885976791E-1
8.840030650E1,-9.766058922E-1,5.602555275E-1,7.144274712E-1
8.846029966E1,-5.422291756E-1,6.667518616E-1,1.954083443E-1
8.852029263E1,-4.486732483E-1,3.980784416E-1,-1.995930672E-1
8.858028572E1,-5.389132500E-1,2.223224640E-1,-7.384815216E-1
8.864027822E1,-1.690840721E-1,8.246233463E-1,-1.025285721E0
8.870027062E1,-2.697124481E-1,1.025221109E0,-8.388891220E-1
8.876026311E1,-3.849544525E-1,1.175909758E0,-2.366642952E-1
8.882025564E1,1.864099503E-1,4.351687431E-1,6.852483749E-1
8.888024817E1,6.101908684E-1,3.114366531E-1,3.198456764E-1
8.894024067E1,1.375385284E0,-9.340496063E-1,-3.058860302E-1
8.900023314E1,3.611736298E-1,-2.198215723E0,-2.489451408E0
8.906022547E1,7.145552635E-1,-4.123954773E0,-2.417567015E0
8.912021790E1,-4.683666229E0,-1.123370075E1,-3.961895466E0
8.918021036E1,-1.038691711E1,1.710843444E0,5.292113304E0
8.924020292E1,-6.393746376E0,3.104552746E0,4.477364540E0
8.930019539E1,-5.712247849E0,2.095508575E0,4.573971748E0
8.936018835E1,-1.688708782E0,-2.753075361E-1,1.167768955E0
8.942018239E1,1.568575382E0,-2.551092148E0,-5.244818211E0
8.948017678E1,3.353225470E0,-3.264446974E0,-5.508251667E0
8.954017105E1,3.996725798E0,-3.062644005E0,-7.920757771E0
8.960016568E1,1.328802347E0,-3.304949522E0,-7.232644558E0
8.966015951E1,3.000050545E0,-4.694027901E-1,-3.139925957E0
8.972015217E1,3.798211575E0,3.214875698E0,-1.483437061E0
8.978014444E1,7.256270409E0,8.151636124E0,3.457565308E-1
8.984013693E1,1.768187523E1,3.266198730E1,-3.317523479E0
8.990012916E1,1.319126415E1,1.743661880E1,5.669887543E0
8.996012169E1,-7.985216379E-1,-1.714361191E1,-1.639690971E1
9.002011426E1,-1.751560020E1,-2.774709702E1,-4.671861649E0
9.008010679E1,1.506833649E1,5.846276283E-1,-1.379467583E1
9.014009915E1,-4.401174545E0,5.515542030E0,-1.383936977E1
9.020009148E1,8.857551217E-2,-2.346108437E0,-3.866461754E0
9.026008398E1,2.270354748E0,1.153745651E0,-1.289962530E0
9.032007648E1,3.137226701E-1,-6.783294678E-1,1.317554235E0
9.038006901E1,9.836028218E-1,-1.824300766E0,4.238955975E-1
9.044006161E1,-4.151438177E-1,-8.916854858E-1,-1.155505180E-1
9.050005487E1,-5.821606517E-1,-2.536478043E-1,3.198542595E-1
9.056004804E1,-2.953367829E-1,8.457450867E-1,3.056545258E-1
9.062004116E1,-2.419468313E-1,-8.485321999E-1,1.042923927E-1
9.068003423E1,-7.679226398E-1,-2.184220791E0,7.871475220E-1
9.074002729E1,-9.155901670E-1,-1.120095253E0,1.244525909E-1
9.080001966E1,-2.970196307E-1,-1.453461170E0,6.434059143E-2
9.086001206E1,-9.957143068E-1,-1.870316029E0,-2.509279251E-1
9.091999458E1,-2.684823871E-1,-1.282920361E0,-1.108942032E-1
9.097998718E1,-1.682739973E0,-1.876436234E0,-1.499135971E0
9.103997967E1,-2.104056597E0,-1.425689220E0,-9.163465500E-1
9.109997224E1,-1.198987484E0,-1.441000462E0,-1.135807991E0
9.115996464E1,-7.876764536E-1,-1.618488789E0,-3.140758276E0
9.121995697E1,-8.419077396E-1,-2.079533577E0,-2.900238276E0
9.127994936E1,-3.643035889E-2,6.380448341E-1,-2.726145744E0
9.133994193E1,-1.397299767E-1,9.952712059E-1,1.787433624E-1
9.139993439E1,-1.896232605E0,2.486689091E-1,1.122690201E0
9.145992692E1,-3.747667313E0,-1.089702368E0,2.878499985E0
9.151992029E1,-3.430717468E0,-1.843576789E0,1.807536840E0
9.157991455E1,-1.645197868E0,-1.609955430E0,8.602643013E-1
9.163990881E1,-1.458560944E0,-1.768191457E0,-1.007781029E-1
9.169990318E1,9.302701950E-1,-3.671073914E-1,-2.041843176E0
9.175989751E1,2.210679054E-1,-2.471928596E0,-6.795258522E-1
9.181989100E1,3.262195587E0,-9.318208694E-1,-8.423781395E-1
9.187988347E1,-1.847252846E-1,-3.184031010E0,1.457854748E0
9.193987573E1,7.633023262E-1,-1.732848167E0,-2.727642059E-1
9.199986817E1,-2.487841129E0,-1.441427231E0,1.900959015E-2
9.205986070E1,-7.959384918E-1,-5.474724770E-1,5.938692093E-1
9.211985322E1,-9.227914810E-1,-9.921903610E-1,2.109591961E0
9.217984572E1,-8.039956093E-1,-4.996137619E-1,1.718881607E0
9.223983835E1,-7.556619644E-1,-4.989662170E-1,1.408000946E0
9.229983068E1,1.106748581E-1,-4.591951370E-1,4.693126678E-1
9.235982302E1,2.152471542E-1,-6.523232460E-1,-4.083356857E-1
9.241981545E1,4.132161140E-1,-3.631176949E-1,-1.004575253E0
9.247980801E1,6.760740280E-2,-3.538417816E-2,-5.345711708E-1
9.253980044E1,-1.309394836E-1,5.253202915E-1,-9.399008751E-1
9.259979334E1,-5.167007446E-3,5.682840347E-1,-1.840090752E-1
9.265978660E1,-4.294457436E-1,4.130160809E-1,-1.674859524E0
9.271977977E1,1.411636353E0,5.821943283E-3,-6.329264641E-1
9.277977283E1,6.136236191E-1,-2.302187681E0,-9.179959297E-1
9.283976603E1,2.294390678E0,-2.254916668E0,-1.874955654E0
9.289975879E1,-7.088041306E-1,-4.573617935E0,-2.556777000E0
9.295975119E1,-8.933386803E0,-6.600761414E0,-2.206235504E1
9.301974362E1,-7.209965706E0,4.075123310E0,6.081864834E0
9.307973615E1,-9.032086372E0,4.434861183E0,3.496686220E0
9.313972865E1,-1.733992577E0,3.080419898E-1,1.965193272E0
9.319972121E1,4.469159126E0,-4.407853127E0,6.202483177E-1
9.325971368E1,1.234525442E0,-3.142560482E0,-4.645732880E0
9.331970611E1,3.230781555E0,-5.423659325E0,-6.866209030E0
9.337969844E1,1.495068073E0,-4.739002228E0,-7.914333344E0
9.343969093E1,3.110883951E0,-2.719051361E0,-5.869737625E0
9.349968343E1,1.174908161E0,-9.717626572E-1,-3.413244724E0
9.355967600E1,3.726067066E0,2.216044903E0,-3.842740059E-1
9.361966859E1,6.059338093E0,6.735641003E0,1.244382858E0
9.367966239E1,1.391596031E1,2.232702065E1,9.187984467E-2
9.373965679E1,1.817949295E1,2.590287018E1,-3.510120392E0
9.379965126E1,1.254868507E-1,-3.827300072E-1,1.770855141E1
9.385964576E1,-1.750313950E1,-5.517605209E1,4.529699326E0
9.391964022E1,1.221374273E-1,-2.316119003E1,-7.281341553E0
9.397963349E1,9.811956406E0,-1.374824047E0,-8.483242989E0
9.403962592E1,6.015041351E0,7.288169861E0,-1.122693443E1
9.409961851E1,-2.764125586E0,-1.647037029E0,-4.671330929E0
9.415961098E1,-1.275226116E0,1.355538368E0,-2.022378683E0
9.421960351E1,-1.744477749E0,-4.961433411E-1,-3.379626274E-1
9.427959597E1,-2.128211021E0,-2.055578232E-1,3.710775375E-1
9.433958853E1,-6.043145657E-1,2.114086151E-1,-1.618266821E0
9.439958080E1,3.144774437E-1,1.099688530E0,-4.787428975E-1
9.445957320E1,4.647791386E-1,1.346926689E0,-9.356749058E-1
9.451956569E1,3.382730484E-1,4.817056656E-1,4.782095551E-2
9.457955822E1,-3.102312088E-1,4.880714417E-1,-2.370471358E-1
9.463955069E1,8.197784424E-2,5.243473053E-1,5.614187717E-1
9.469954328E1,4.732863903E-1,5.048894882E-1,1.995535493E-1
9.475953672E1,-6.238912344E-1,-1.897897720E-1,6.104896069E-1
9.481953095E1,-8.588229418E-1,-1.943759918E-1,-5.094301701E-2
9.487952528E1,-6.854236126E-1,-1.005438805E0,-2.751657963E-1
9.493951961E1,-1.190781116E0,-1.755787373E0,-1.008438349E0
9.499951387E1,-4.072189331E-4,-2.254112244E0,-6.733931899E-1
9.505950724E1,-6.316642761E-1,-2.707971096E0,-6.126683950E-1
9.511949963E1,-1.775090694E-1,-1.362789631E0,-1.665030241E0
9.517949196E1,9.879913330E-1,-1.167968750E0,-2.560930967E0
9.523948449E1,1.604723454E0,2.586009026E0,-2.339565277E0
9.529947696E1,2.009018898E0,7.756512642E0,-1.503772259E0
9.535946949E1,1.998129129E0,5.597060204E0,-8.887996674E-1
9.541946202E1,2.050944328E0,-1.050627708E0,3.039579391E-1
9.547945455E1,-8.052973747E-1,-1.080585098E1,-3.180822611E0
9.553944681E1,1.001293659E0,-9.998077393E0,-9.920342565E-1
9.559943924E1,2.549006462E0,-1.178962994E1,2.685605764E0
9.565943171E1,6.081276894E0,-5.667978764E0,5.785305500E-1
9.571942424E1,3.333376694E1,-3.885224581E0,6.351347923E0
9.577941670E1,-1.051043892E1,-1.398008728E1,5.575879097E0
9.583940970E1,-6.071130276E0,-3.757227421E0,3.880608082E-1
9.589940293E1,-7.108325958E0,1.646220922E0,3.238307238E0
9.595939613E1,-4.938802719E0,2.290192366E0,-1.709267259E0
9.601938919E1,-3.646225929E0,6.899981499E-1,1.904546976E0
9.607938236E1,-1.068143654E1,6.603565216E-1,3.276828527E0
9.613937502E1,-1.222826195E1,2.021460533E0,6.983780861E0
9.619936742E1,-7.525650024E0,2.719392776E-1,4.615745544E0
9.625935985E1,-4.027739525E0,-2.705727339E0,3.382662296E0
9.631935238E1,-8.317604065E-1,-4.303331375E0,-1.632538795E0
9.637934488E1,1.137183666E0,-5.683238506E0,-4.946382523E0
9.643933741E1,4.862114429E0,-5.124029160E0,-7.499518394E0
9.649932987E1,4.144368172E0,-4.475659370E0,-7.542295456E0
9.655932223E1,2.896303892E0,-2.419454575E0,-7.127634048E0
9.661931460E1,-5.028336048E-1,-3.015942574E-1,-8.952212334E0
9.667930713E1,5.232927799E0,9.588928223E-1,-7.763929844E0
9.673929966E1,1.049530792E1,5.850132942E0,1.086788654E0
9.679929212E1,7.645960331E0,8.583190918E0,3.410594463E0
9.685928482E1,-4.563664436E0,-6.476221085E-1,2.831402779E0
9.691927865E1,-4.559814930E-2,-4.432857513E0,-4.456670761E0
9.697927315E1,3.248629570E-1,-6.620712757E0,-3.114601612E0
9.703926762E1,-1.045115948E0,-4.937731266E0,-4.255792141E0
9.709926222E1,2.242753506E0,1.613956928E0,-1.958493710E0
9.715925651E1,7.857285500E0,1.126385212E1,-2.824172974E-1
9.721924971E1,1.448456573E1,3.235097504E1,-4.041971684E0
9.727924204E1,1.398761940E1,1.431373215E1,2.447749615E0
9.733923464E1,1.813329887E1,-7.965022087E0,-3.205897141E1
9.739922714E1,-2.690462875E1,-1.818010139E1,-1.806162453E1
9.745921973E1,8.931028366E0,-1.015276432E1,-9.794193268E0
9.751921223E1,5.319433212E0,4.134750366E-2,-8.364753723E0
9.757920473E1,5.847932100E-1,-4.883719444E0,-3.778560162E0
9.763919699E1,2.617176533E0,1.591634750E-1,-4.159473896E0
9.769918942E1,2.567285061E0,2.759504318E0,-2.939462423E0
9.775918189E1,3.218667507E0,3.348997116E0,-4.168416977E0
9.781917438E1,1.237572908E0,1.950745583E0,-3.710538864E0
9.787916691E1,1.821863174E0,2.409201622E0,-3.381785870E0
9.793915948E1,1.372536182E0,1.769731522E0,-2.597136497E0
9.799915294E1,7.893216610E-1,7.431821823E-1,-1.235302329E0
9.805914734E1,5.217320919E-1,-1.743011475E-1,-1.007303834E0
9.811914167E1,8.734562397E-1,-4.210414886E-1,-4.119197130E-1
9.817911649E1,3.121559620E-1,-4.301757812E-1,-3.502522707E-1
9.823911078E1,3.851395845E-1,-8.666696548E-1,2.081406116E-1
9.829910405E1,2.895178795E-1,-7.610301971E-1,-6.249928474E-2
9.835909631E1,1.653286219E-1,-7.515449524E-1,-9.325385094E-2
9.841908878E1,2.454900742E-2,-9.024791718E-1,-6.015744209E-1
9.847908131E1,-1.038869500E0,-2.661109924E0,-2.611801624E0
9.853907384E1,-1.289917707E0,-3.371017933E0,-3.526407242E0
9.859906640E1,-1.129642487E0,-3.107615948E0,-2.675166130E0
9.865905886E1,-9.536761045E-1,-2.543532372E0,-2.281218767E0
9.871905126E1,-5.146530271E-1,-1.755888939E0,-2.005286694E0
9.877904359E1,-2.457734346E0,-1.936005116E0,4.500484467E-1
9.883903602E1,-6.157285213E0,-2.145351410E0,9.197783470E-1
9.889902845E1,-5.647575855E0,-1.799617290E0,4.264110565E0
9.895902105E1,-2.715575218E0,-1.305202127E0,2.462749958E0
9.901901351E1,-1.478236198E0,-1.544178128E0,2.338901043E0
9.907900648E1,1.441310883E0,-4.581664801E-1,5.867247581E-1
9.913899964E1,-4.138231277E-1,-6.921470165E-3,1.185717583E-1
9.919899284E1,1.602598190E0,7.874140143E-1,1.866327286E0
9.925898590E1,1.080234051E0,1.693385839E-1,2.161359787E-1
9.931897910E1,-1.118053913E0,-1.903189063E0,1.596345901E0
9.937897173E1,-7.660994530E-1,-3.428067923E0,-2.037043571E-1
9.943896410E1,-2.102479935E0,-3.430692673E0,-1.503987312E-1
9.949895656E1,-8.864178658E-1,-2.527383804E0,-5.577955246E-1
9.955894916E1,-8.465042114E-1,-1.069707394E0,-1.156573296E0
9.961894162E1,-6.262454987E-1,2.239518166E-1,-5.731263161E-1
9.967893415E1,5.966329575E-1,8.072307110E-1,-1.248218060E0
9.973892665E1,8.786106110E-1,1.533737183E-1,-7.893128395E-1
9.979891898E1,9.247970581E-1,-8.066296577E-2,-1.274145126E0
9.985891131E1,1.595688343E0,-1.271242380E0,-1.600932598E0
9.991890384E1,1.355865479E0,-4.300697327E0,-7.540190220E-1
9.997889637E1,-1.422594070E0,-5.376498222E0,-2.454440594E0
1.000388889E2,-9.513315201E0,-8.753961563E0,-1.132086992E0
1.000988816E2,-4.288089752E0,3.528915405E0,4.208386421E0
1.001588755E2,-6.476539612E0,3.834922314E0,3.110644817E0
1.002188699E2,-6.089514732E0,1.689854860E0,1.076180458E0
1.002788642E2,-4.797453880E-1,-1.568250656E0,1.203832626E-1
1.003388586E2,-1.025439262E0,-3.508039474E0,-4.185017586E0
1.003988526E2,2.093677521E0,-4.094356060E0,-6.146405697E0
1.004588455E2,1.409947157E0,-4.358228207E0,-6.707578182E0
1.005188377E2,1.048784733E0,-3.877314806E0,-7.319686413E0
1.005788302E2,2.672037125E0,-2.212886810E0,-4.835542679E0
1.006388226E2,2.462374449E0,3.117733002E-1,-3.908401728E0
1.006988152E2,3.563849688E0,3.884369373E0,-2.236130953E0
1.007588077E2,8.753667831E0,1.166182804E1,-1.444343328E0
1.008188003E2,1.523185635E1,2.776177216E1,-1.997092247E0
1.008787927E2,1.208575630E1,1.214422417E1,4.103564262E0
1.009387850E2,-6.260583878E0,-1.283394051E1,-2.800820541E1
1.009987774E2,-2.538206482E1,-2.469931412E1,-5.601968765E0
1.010587700E2,7.695745945E0,-1.272575951E1,-7.800984383E0
1.011187625E2,1.657839894E0,-3.388094902E0,-8.348633766E0
1.011787551E2,-1.557605267E0,-2.246612072E0,-6.243894100E0
1.012387483E2,-7.907209396E-1,2.569211006E0,-6.995142937E0
1.012987415E2,-1.010775566E0,3.349334717E0,-5.267908096E0
1.013587345E2,6.293272972E-1,1.802554131E0,-3.721123934E0
1.014187276E2,4.570831299E0,1.952737808E0,-5.214866638E0
1.014787207E2,3.261771202E0,1.354382038E0,-3.901496410E0
1.015387132E2,1.086031437E0,6.650738716E-1,-1.294045210E0
1.015987056E2,-1.582326889E-1,-1.115131378E-2,-7.022945881E-1
1.016586981E2,-1.527612209E0,-4.135322571E-1,-3.965454102E-1
1.017186906E2,-1.553153992E0,3.302335739E-2,-1.696807742E-1
1.017786832E2,-6.315889359E-1,9.931707382E-2,2.083308101E-1
1.018386757E2,2.562789917E-1,1.016297340E-1,3.291803598E-1
1.018986680E2,2.982954979E-1,-1.288638115E-1,-2.930314839E-1
1.019586604E2,-1.012649536E-1,-2.153072357E-1,-6.714161038E-1
1.020186528E2,4.519929886E-1,-1.907486916E-1,-4.035991430E-1
1.020786454E2,-4.839406013E-1,-3.814888000E-1,-7.104036212E-1
1.021386378E2,-1.358709335E-1,-4.667177200E-1,-4.385627508E-1
1.021986304E2,-1.192163944E0,-3.108882904E-2,-4.635682106E-1
1.022586235E2,-6.393795013E-1,-9.831190109E-2,8.400464058E-2
1.023186177E2,-7.717261314E-1,1.028900146E-1,6.254172325E-1
1.023786119E2,-5.486176014E-1,1.260118484E-1,1.753330231E-3
1.024386063E2,-4.744024277E-1,-6.992387772E-1,-9.330158234E-1
1.024986006E2,-1.235378385E0,-1.891627789E0,-2.277203321E0
1.025585944E2,-1.640139461E0,-2.555478573E0,-1.643178463E0
1.026185870E2,-1.880664349E0,-2.122860432E0,-4.119024277E-1
1.026785793E2,-2.820241213E0,-1.655457258E0,1.050314903E0
1.027385717E2,-2.668499470E0,-4.384896755E-1,4.365530014E-1
1.027985641E2,-1.343101025E0,1.927030087E-1,4.101657867E-1
1.028585566E2,7.213926315E-2,1.408505440E0,-1.047239304E-1
1.029185491E2,-6.122326851E-1,1.674104452E0,-9.912157059E-2
1.029785416E2,-1.083218575E0,8.773924112E-1,1.394934654E-1
1.030385341E2,-1.998295307E0,-7.310864925E-1,3.028774261E-2
1.030985264E2,-3.448214531E-1,-1.530518889E0,7.081346512E-1
1.031585188E2,-7.061862946E-1,-2.209975243E0,-4.862499237E-2
1.032185114E2,-1.483158112E0,-2.732106686E0,-3.850297928E-1
1.032785040E2,-3.342633247E-1,-1.762089968E0,-5.412826538E-1
1.033384967E2,-5.312557220E-1,-1.811512470E0,-6.071004868E-1
1.033984900E2,-8.576297760E-1,-1.423236847E0,-3.968224525E-1
1.034584832E2,-1.688637733E-1,-4.758474827E-1,-7.090663910E-1
1.035184762E2,-7.979440689E-2,4.520435333E-1,-4.158782959E-1
1.035784694E2,8.932089806E-1,1.240312934E0,7.256236076E-1
1.036384624E2,-2.829899788E-1,1.228945374E0,-5.505838394E-1
1.036984547E2,8.521313667E-1,5.003213882E-3,5.774564743E-1
1.037584471E2,-7.682194710E-1,-1.612864971E0,-9.183168411E-1
1.038184397E2,1.205918312E0,-4.010098457E0,-1.697812080E-1
1.038784321E2,-2.450370789E-2,-5.229372025E0,-2.282549858E0
1.039384246E2,-3.788954735E0,-1.025951385E1,-2.581063509E0
1.039984171E2,-1.773218155E0,-2.772058487E0,4.256647110E0
1.040584096E2,-6.945466042E0,4.070726395E0,3.244561672E0
1.041184019E2,-5.266425133E0,2.720556498E0,2.288816929E0
1.041783944E2,-6.731001854E0,3.192083836E-1,-2.503981113E0
1.042383868E2,8.816240311E0,-4.762354851E0,-2.896611214E0
1.042983794E2,-4.946959019E-1,-2.589407206E0,-7.903311729E0
1.043583719E2,5.568904877E-1,-3.349138498E0,-8.909993172E0
1.044183654E2,5.302727222E-1,-1.199329853E0,-8.009174347E0
1.044783598E2,2.630486250E0,3.574801445E0,-5.432053089E0
1.045383543E2,5.165728569E0,7.854600906E0,-2.502112389E0
1.045983488E2,1.116465569E1,2.067672348E1,9.243907928E-1
1.046583434E2,1.547619724E1,2.814358139E1,-4.742481232E0
1.047183369E2,7.039256096E0,-1.310057163E0,1.747975159E1
1.047783294E2,-1.679368591E1,-6.678179169E1,2.639882851E1
1.048383218E2,3.298655748E0,-2.459380150E1,-1.086430740E1
1.048983144E2,3.615884304E0,-4.844387531E0,-8.415351868E0
1.049583069E2,-3.519940853E0,4.791240692E-1,-9.747573853E0
1.050182994E2,-1.463545799E0,4.632113457E0,-3.994118690E0
1.050782919E2,-7.610964775E-1,5.855210781E0,-3.735399485E0
1.051382843E2,8.272271156E-1,3.123930931E0,-1.556224823E0
1.051982767E2,3.096918583E0,1.963202000E0,-3.940698624E0
1.052582691E2,1.483124733E0,1.568402290E0,-1.286967516E0
1.053182617E2,-4.459509850E-1,1.594484329E0,6.744706631E-1
1.053782541E2,-1.299372196E0,1.093997002E0,9.678883553E-1
1.054382466E2,-1.099945068E0,5.447654724E-1,9.842416048E-1
1.054982352E2,-7.327513695E-1,6.813526154E-1,1.116080046E0
1.055582294E2,-7.202529907E-2,8.255581856E-1,3.088331223E-1
1.056182237E2,-5.416870117E-2,7.509036064E-1,9.394470453E-1
1.056782180E2,-1.316847801E-1,8.025250435E-1,4.419713020E-1
1.057382124E2,-1.576170921E-1,6.068015099E-1,5.161697865E-1
1.057982060E2,-6.527256966E-1,3.321380615E-1,2.751849890E-1
1.058581985E2,-3.602180481E-1,-5.737209320E-2,3.810559511E-1
1.059181909E2,-9.028043747E-1,-1.101939678E0,6.132507324E-2
1.059781833E2,-6.678051949E-1,-2.256475449E0,-1.795578003E-1
1.060381758E2,-1.820732117E0,-1.676535606E0,-1.782538295E-1
1.060981684E2,-2.384389877E0,-2.192780018E0,-4.306475520E-1
1.061581609E2,-3.410803080E0,-7.702064514E-1,-2.148005486E0
1.062181533E2,-2.900382996E0,-1.264634132E0,-2.546884060E0
1.062781457E2,-2.976669550E0,-1.297049999E0,-2.625349522E0
1.063381380E2,-1.503662705E0,-4.303306103E0,3.622579575E-2
1.063981306E2,1.859833598E0,-4.725224495E0,-1.274190903E0
1.064581230E2,1.336240053E0,-5.842362404E0,-1.433753967E-2
1.065181155E2,-1.943137884E0,-7.965467453E0,1.555646896E0
1.065781083E2,5.616637468E-1,-4.104739189E0,1.098357201E0
1.066381016E2,-1.818146706E-1,-4.303681850E0,2.303978443E0
1.066980948E2,-3.614120483E-1,-2.436301231E0,2.433557510E-1
1.067580878E2,-1.298544049E0,-2.164931297E0,2.285175323E-1
1.068180810E2,2.930191159E-2,-1.213217735E0,-1.604242325E-1
1.068780738E2,-7.068883181E-1,-1.316605568E0,1.814692020E-1
1.069380662E2,-4.616672993E-1,-1.174789429E0,-1.616072655E-2
1.069980586E2,-5.722030997E-1,-1.024583817E0,-1.011230946E-1
1.070580512E2,-7.886865735E-1,-8.779649734E-1,-7.642538548E-1
1.071180437E2,-7.893911600E-1,-7.032203674E-1,-1.061195612E0
1.071780362E2,-5.588370562E-1,-3.938894272E-1,-1.421159983E0
1.072380287E2,-2.029951811E-1,-1.768665314E-1,-1.354248643E0
1.072980211E2,4.476841688E-1,-1.284933090E-1,-1.281812668E0
1.073580133E2,6.058456302E-1,-1.836557388E-1,-1.268709302E0
1.074180059E2,5.501105785E-1,-3.310899734E-1,-1.179185510E0
1.074779984E2,6.394670010E-1,-2.383661270E-1,-1.033597112E0
1.075379909E2,7.956410646E-1,-1.329898834E-1,-8.524744511E-1
1.075979835E2,7.283055782E-1,-6.289386749E-2,-5.313296318E-1
1.076579772E2,9.442119002E-1,-8.640289307E-2,-5.421941280E-1
1.077179715E2,4.115515947E-1,-2.505092621E-1,8.071923256E-2
1.077779660E2,-7.256853580E-2,-2.120332718E-1,1.834907532E-1
1.078379606E2,5.194671154E-1,-3.295841217E-1,2.677602768E-1
1.078979551E2,3.125803173E-1,-9.245462418E-1,4.257853031E-1
1.079579485E2,6.576436162E-1,-3.599815369E-1,-1.201441288E-1
1.080179409E2,6.951483488E-1,-2.173728943E-1,-7.128572464E-1
1.080779334E2,2.375963926E-1,-1.820659637E-1,-5.938336849E-1
1.081379260E2,-2.981610298E-1,-5.712957382E-1,-2.829082012E-1
1.081979185E2,-1.284635067E-2,-5.745983124E-1,-1.117081642E-1
1.082579109E2,-3.469035625E-1,-4.719381332E-1,-1.681170464E-1
1.083179035E2,1.047878265E-1,-3.991041183E-1,-3.163566589E-1
1.083778958E2,-4.888203144E-1,-1.625962257E-1,-1.791634560E-1
1.084378881E2,8.392047882E-2,3.022623062E-1,3.875970840E-1
1.084978807E2,-1.383347511E-1,4.594235420E-1,4.395484924E-1
1.085578733E2,-2.985620499E-2,1.183544636E0,1.317683220E0
1.086178658E2,-1.091909409E-2,1.295144081E0,1.091732025E0
1.086778584E2,-3.269948959E-1,1.374492168E0,9.116668701E-1
1.087378516E2,-1.533422470E-1,9.476089478E-1,3.650760651E-2
1.087978457E2,-6.078724861E-1,-2.963495255E-2,-3.229308128E-1
1.088578400E2,-1.227894306E0,-2.719836235E-1,-1.763078690E0
1.089178344E2,-1.118453026E0,-1.272315979E0,-7.031660080E-1
1.089778287E2,-1.334301949E0,-9.040284157E-1,-3.045922756E0
1.090378222E2,1.335220337E-1,-1.129981518E0,-1.431363106E0
1.090978147E2,1.637597084E-1,-7.192051411E-1,-3.875387669E0
1.091578071E2,3.643836975E-1,-3.363527060E0,-2.221760750E0
1.092177996E2,-6.503210068E-1,-1.826206684E0,-1.732575178E0
1.092777922E2,-1.894525528E0,-3.045855284E0,2.026446819E0
1.093377846E2,-1.330254555E0,3.567216396E0,2.393464565E0
1.093977771E2,2.302626133E0,4.490628242E0,3.269799709E0
1.094577696E2,5.335360527E0,2.688500643E0,3.046607971E0
1.095177619E2,-7.534971237E-1,-3.140274048E0,-2.561471701E0
1.095777543E2,-8.829936981E-1,-1.385222435E0,-6.660648823E0
1.096377468E2,1.315983295E0,-2.940070152E0,-1.964068413E-1
1.096977394E2,-3.194069862E0,-2.346448302E-1,1.023604202E1
1.097577319E2,-4.113877296E0,5.974789858E-1,6.134570599E0
1.098177247E2,2.047572136E0,-2.059489489E0,5.995101929E-1
1.098777179E2,-3.463602066E-2,-4.764199257E-1,-5.512575150E0
1.099377110E2,6.087942600E0,-4.284218788E0,-5.051888466E0
1.099977041E2,4.127817154E0,-4.917507648E0,-3.897454023E0
1.100576973E2,4.306441307E0,-2.789754391E0,-3.988494635E0
1.101176900E2,5.312536716E0,2.042191029E0,-2.487019777E0
1.101776824E2,1.006487083E1,1.188086987E1,3.836479187E-1
1.102376749E2,1.847374725E1,3.017168045E1,-3.444849014E0
1.102976674E2,1.362220764E1,8.583050728E0,6.841306210E0
1.103576600E2,6.318219185E0,-5.475902176E1,-2.719583321E1
1.104176525E2,-9.231638908E0,-2.952267075E1,-1.177326393E1
1.104776450E2,9.388433456E0,-8.104583740E0,-8.486282349E0
1.105376374E2,2.083241463E0,3.778985977E0,-1.457256603E1
1.105976297E2,1.380373955E0,7.703846931E0,-6.669993401E0
1.106576222E2,5.418372154E-2,6.547748566E0,-4.914732933E0
1.107176147E2,1.571869850E-2,1.326795578E0,-1.900528908E0
1.107776073E2,-1.165415525E0,-1.627322197E0,-1.193902493E0
1.108375998E2,-5.528216362E-1,-2.327495575E0,-8.927106857E-1
1.108975935E2,-8.428835869E-2,-2.534912586E0,-9.906635284E-1
1.109575878E2,-5.356333256E-1,-1.312294960E0,-9.967000484E-1
1.110175822E2,-2.351639271E-1,-2.505712509E0,-3.416538239E-1
1.110775764E2,-1.968066931E0,-2.100472927E0,1.689267159E-1
1.111375707E2,-3.101713657E0,-1.863503933E0,2.640595436E-1
1.111975638E2,-2.084560394E0,-5.028634071E-1,3.856945038E-1
1.112575561E2,-1.723671913E0,-3.898515701E-1,5.361342430E-1
1.113175485E2,-1.774231195E0,-5.036382675E-1,-3.534579277E-1
1.113775409E2,-2.346230507E0,2.659521103E-1,-1.588729858E0
1.114375334E2,-1.966330051E0,-6.423587799E-1,-1.611350536E0
1.114975260E2,-1.192260265E0,-2.617008686E-1,-2.033944607E0
1.115575185E2,-1.603877544E0,-8.788716793E-1,-1.178231716E0
1.116175109E2,-1.472607613E0,-6.545150280E-2,-2.100992203E-1
1.116775033E2,-5.669155121E-1,-9.156780839E-1,1.047226429E0
1.117374957E2,-2.253042221E0,-1.309097648E0,1.002239227E0
1.117974882E2,-6.391820908E-1,-1.232491016E0,9.703998566E-1
1.118574807E2,-7.330346107E-1,-1.115859389E0,5.552830696E-1
1.119174733E2,-4.215078354E-1,-1.550151110E0,1.029491425E-3
1.119774663E2,-7.053151131E-1,-1.109004974E0,-2.597312927E-1
1.120374596E2,-3.001823425E-1,-5.938689709E-1,-6.141805649E-1
1.120974527E2,3.572578430E-1,-2.015566826E-2,-6.970806122E-1
1.121574459E2,1.073861122E-1,-1.700389385E-1,-7.166700363E-1
1.122174390E2,-4.050812721E-1,-6.995244026E-1,-6.948699951E-1
1.122774316E2,2.584743500E-2,-3.097865582E-1,-3.136787415E-1
1.123374239E2,1.930239201E0,7.317657471E-1,-8.301839828E-1
1.123974164E2,2.385088444E0,4.229924679E-1,1.645326614E-1
1.124574089E2,4.724974632E-1,6.278562546E-1,-5.295095444E-1
1.125174014E2,2.125816345E-1,-7.624821663E-1,9.781031609E-1
1.125773939E2,1.073799133E-1,-1.330811501E0,2.177150726E0
1.126373864E2,-7.059402466E-1,-1.236048222E0,7.973098755E-1
1.126973788E2,-1.552241325E0,-1.225238800E0,-2.549514771E-1
1.127473989E2,-1.179909706E0,-9.835119247E-1,-7.914862633E-1
1.128073915E2,-4.386062622E-1,2.495813370E-2,-1.778841019E-1
1.128673839E2,-4.427666664E-1,6.116862297E-1,4.839081764E-1
1.129273765E2,-2.784948349E-1,6.890270710E-1,5.820131302E-1
1.129873691E2,5.828471184E-1,5.352489948E-1,-3.157601357E-1
1.130473630E2,-4.412088394E-1,-8.573460579E-1,-7.729778290E-1
1.131073574E2,9.606733322E-1,-4.131529331E-1,-8.511261940E-1
1.131673520E2,-1.222013950E0,-5.742990971E-1,-1.478436947E0
1.132273465E2,-1.042861938E-1,-1.451239109E0,-1.617298126E-1
1.132873409E2,2.288627625E-2,-1.644872665E0,-2.438793182E-1
1.133473340E2,2.732238770E-1,-2.212828159E0,-8.839097023E-1
1.134073264E2,-1.811084747E-1,-4.020740509E0,-2.142492056E0
1.134673189E2,-1.266508102E-1,-5.280249596E0,-4.146232128E0
1.135273115E2,-1.010265350E-1,-3.171564341E0,-6.365522385E0
1.135873040E2,-1.454162598E-2,-1.351453543E0,6.203622341E0
1.136472965E2,-7.593186378E0,2.041095972E0,4.763862610E0
1.137072890E2,-3.039498329E0,1.850509405E0,8.364341736E0
1.137672814E2,-4.610110283E0,-6.418691874E-1,7.981858730E0
1.138272737E2,1.587157249E0,-8.305211067E-1,-8.974299431E-1
1.138872662E2,-1.042280197E-1,-4.961426258E-1,-7.144094467E0
1.139472588E2,4.557080746E0,-1.719809294E0,-7.030766010E0
1.140072513E2,1.890428305E0,-4.861673355E0,-4.583207130E0
1.140672439E2,4.352918625E0,-5.031949520E0,-2.224557877E0
1.141272375E2,5.168869495E0,-1.183751583E0,-2.252858162E0
1.141872318E2,5.968129158E0,4.182440758E0,-3.138681650E0
1.142472261E2,1.469491768E1,2.222169495E1,-1.864521980E0
1.143072204E2,1.713018417E1,2.614425659E1,-2.647368670E0
1.143672147E2,6.253958702E0,1.353357315E0,1.511419868E1
1.144272079E2,-1.149232197E1,-3.335909271E1,7.001381397E0
1.144872001E2,1.081851482E1,-1.819574738E1,-7.808261871E0
1.145471926E2,1.559137940E0,-1.060431290E1,-3.369166374E0
1.146071851E2,2.031712294E0,1.229487419E0,-1.445367336E1
1.146671777E2,-1.603618622E0,4.380389214E0,-6.416090965E0
1.147271701E2,1.327469826E0,6.189808846E0,-8.696539879E0
1.147871627E2,8.014655113E-1,1.581411362E0,-3.678226471E0
1.148471551E2,1.177581787E0,5.497884750E-1,-3.577976227E0
1.149071474E2,-5.576863289E-1,-5.304293633E-1,-3.326260567E0
1.149671398E2,-6.494040489E-1,-8.223080635E-1,-1.686797023E0
1.150271324E2,-6.250400543E-1,-1.455102444E0,-8.217065334E-1
1.150871249E2,-1.571827412E0,-1.953351498E0,-2.173453271E-1
1.151471174E2,-1.838255644E0,-5.751924515E-1,1.842131615E-1
1.152071104E2,-2.125262737E0,2.188520432E-1,4.515106678E-1
1.152671036E2,-1.760518074E0,5.507059097E-1,1.671596527E0
1.153270967E2,-1.036351442E0,1.513948441E-1,1.343788624E0
1.153870899E2,-1.506093144E0,-1.696453094E-1,6.407399178E-1
1.154470830E2,-2.529093266E0,-1.647882462E-1,-6.197834015E-1
1.155070756E2,-1.902924061E0,-6.341567039E-1,-6.727972031E-1
1.155670679E2,-2.434213161E0,-5.616378784E-1,-5.472326279E-1
1.156270605E2,-1.508830786E0,1.855840683E-1,1.062854290E0
1.156870530E2,-1.316152096E0,3.786435127E-1,8.603467941E-1
1.157470455E2,-2.197329998E-1,9.618711472E-2,1.350775719E0
1.158070380E2,-3.018789291E-1,7.550058365E-1,-5.427732468E-1
1.158670305E2,-3.326468468E-1,-9.042501450E-2,2.580971718E-1
1.159270228E2,-6.587696075E-1,-1.203775406E-1,-2.847862244E-1
1.159870152E2,-1.527588844E0,-4.985117912E-1,-3.550586700E-1
1.160470077E2,-1.048518658E0,-5.879311562E-1,-3.287568092E-1
1.161070002E2,-5.643897057E-1,-3.148441315E-1,-5.761771202E-1
1.161669928E2,-3.443193436E-2,-3.552322388E-1,-7.076864243E-1
1.162269856E2,1.051368713E-1,-5.834112167E-1,-3.744683266E-1
1.162869796E2,-6.257944107E-1,-5.354013443E-1,-5.784325600E-1
1.163469738E2,-3.847718239E-1,-4.499568939E-1,-5.642023087E-1
1.164069682E2,3.559179306E-1,-3.924751282E-2,-1.494748116E0
1.164669624E2,2.443065166E0,7.289614677E-1,-2.745183468E0
1.165269565E2,2.259442329E0,7.343435287E-1,-3.888288736E0
1.165869492E2,1.317094803E0,-8.049383163E-1,-1.687708378E0
1.166469416E2,4.223012924E-1,-8.545428514E-1,-1.069946289E-1
1.167069340E2,7.377324104E-1,-2.116310596E0,1.614177704E0
1.167669266E2,-2.506280422E0,-2.751773596E0,1.800621986E0
1.168269190E2,2.383847237E-1,-2.229336262E0,1.869584084E0
1.168869116E2,-2.586560249E-1,-1.682877064E0,1.543606758E0
1.169469041E2,3.002419472E-1,-1.012401342E0,1.172103882E0
1.170068965E2,-6.614351273E-2,-8.712279797E-1,4.656791687E-1
1.170668888E2,6.244497299E-1,-7.022509575E-1,5.652561188E-1
1.171268814E2,4.723391533E-1,-7.765045166E-1,-1.490173340E-1
1.171868738E2,1.218307018E0,-7.144515514E-1,-8.323230743E-1
1.172468664E2,2.262878418E-2,-9.913549423E-1,-1.098481655E0
1.173068589E2,-2.488017082E-1,-2.102389574E0,-1.852554798E0
1.173668522E2,-7.310676575E-2,-2.258730412E0,-9.890789986E-1
1.174268453E2,-3.375816345E-1,-2.375211477E0,-1.311184883E0
1.174868384E2,-3.512039185E-1,-3.050705433E0,-7.915234566E-1
1.175468315E2,7.848682404E-1,-2.940422535E0,-6.476101875E-1
1.176068246E2,2.638397217E-1,-2.848042250E0,-1.896686792E0
1.176668170E2,5.631877899E0,-1.292536736E1,5.084117889E0
1.177268093E2,-5.378082275E0,5.520676613E0,1.353001595E-2
1.177868019E2,-5.549663544E0,5.603286266E0,2.864884615E0
1.178467944E2,-6.350534439E0,5.227103710E0,4.571471214E-1
1.179067870E2,-5.575914383E-1,-7.184070349E-1,1.356749535E-1
1.179667794E2,-2.253199100E0,-4.299548149E0,7.414498329E-1
1.180267719E2,2.697742939E0,-4.582309723E0,-6.693400860E0
1.180867642E2,4.980868340E0,-4.565434456E0,-7.704788685E0
1.181467567E2,4.026828766E0,-3.605944872E0,-6.498453617E0
1.182067492E2,4.941068649E0,1.130170822E0,-5.271698952E0
1.182667417E2,1.167948723E1,1.275120735E1,-1.344368458E0
1.183267342E2,1.970568848E1,3.209866333E1,-5.159760952E0
1.183867274E2,7.223310471E0,8.307811737E0,1.075696373E1
1.184467215E2,3.721732712E1,-8.162270355E1,-1.934244347E1
1.185067158E2,-1.186329174E1,-2.492088127E1,-9.540099144E0
1.185667101E2,1.089300060E1,-2.471828461E0,-1.128105450E1
1.186267045E2,5.729938507E0,6.013187408E0,-1.182110214E1
1.186866981E2,-1.399906158E0,3.031921387E-2,-4.734410286E0
1.187466907E2,-3.320427179E0,1.404542923E-1,-2.270118713E0
1.188066831E2,-1.249016523E0,-5.570640564E-1,2.771514654E-1
1.188666755E2,-1.533177257E0,7.290077209E-2,-6.530971527E-1
1.189266681E2,9.362549782E-1,1.061848640E0,9.619182348E-2
1.189866606E2,1.519984245E0,1.412764549E0,-3.516311347E-1
1.190466531E2,4.521081448E-1,9.101305008E-1,5.828018785E-1
1.191066455E2,4.302256107E-1,1.451950073E-1,-6.690466404E-1
1.191666380E2,2.393932343E-1,-1.524877548E-1,-2.269125581E-1
1.192266303E2,5.488867760E-1,-5.690097809E-2,-5.993205309E-1
1.192866228E2,-1.061639786E-1,3.362121582E-1,-8.112217188E-1
1.193466153E2,-4.288270473E-1,3.871154785E-2,-1.890066266E-1
1.194066078E2,1.120142937E-1,-2.156171799E-1,-1.361669064E0
1.194666005E2,7.824394703E-1,-3.029500961E0,-7.652950287E-1
1.195265938E2,-8.552317619E-1,-4.206160545E0,-1.683913469E0
1.195865870E2,-9.991197586E-1,-3.886497498E0,-1.989113331E0
1.196465802E2,-9.655523300E-1,-3.638022900E0,-2.724858284E0
1.197065733E2,8.668243885E-2,-2.686892986E0,-3.353292465E0
1.197665662E2,2.403433561E0,-2.641439438E0,1.302759171E0
1.198265585E2,-9.025709152E0,-3.184242725E0,6.691322327E-1
1.198865510E2,-1.963417053E0,-4.032044888E0,6.706334114E0
1.199465434E2,-4.832763672E-1,-8.024160385E0,6.077262878E0
1.200065360E2,-3.044608116E0,-9.509496689E0,3.307954311E0
1.200665076E2,-9.615955353E-1,-7.251592159E0,-2.095525503E0
1.201265001E2,-9.023232460E-1,-1.237160802E0,-3.400708199E0
1.201864925E2,-1.717218399E0,6.715536118E-3,-1.385353565E0
1.202464849E2,-4.244997501E0,-6.367571354E-1,-3.191056252E-1
1.203064773E2,-2.473233700E0,-1.721048355E-1,-2.300632238E0
1.203664698E2,3.908205032E-2,-7.389211655E-2,-2.528185129E0
1.204264623E2,8.317337036E-1,-2.193641186E0,-1.571674585E0
1.204864549E2,-1.073698997E-1,-1.666512966E0,-3.082504749E0
1.205464484E2,7.196712494E-1,-2.107599258E0,-1.428098440E0
1.206064428E2,-1.960873604E-1,-2.386332512E0,-2.990460396E-1
1.206664374E2,-3.966794014E-1,-3.054810524E0,-1.277124882E-2
1.207264319E2,2.463024855E-1,-3.223176003E0,1.623262882E0
1.207864264E2,3.148332834E-1,-1.318604469E0,3.111675739E0
1.208464198E2,2.850753784E0,-5.434417725E-2,5.551815033E-1
1.209064123E2,1.251316786E0,-1.216423988E0,-3.081077099E0
1.209664047E2,8.109573722E-1,-7.430343628E-1,-2.926043987E0
1.210263973E2,-8.350762129E-1,5.541143417E-1,-3.395524979E0
1.210863897E2,-7.165725827E-1,1.524217606E0,-3.250775576E0
1.211463823E2,-5.485583544E-1,-1.229343414E-1,-2.807667017E0
1.212063748E2,-6.563634872E-1,-2.499713898E0,-1.565627694E0
