"Time (s)","Acceleration x (m/s^2)","Acceleration y (m/s^2)","Acceleration z (m/s^2)"
5.199586300E-2,-1.740637779E0,4.783761024E0,7.807730198E0
1.039891450E-1,-2.585816681E-1,-2.123721838E0,-2.889889717E0
1.559830650E-1,4.834040642E0,7.776604652E0,1.778946161E0
2.079769540E-1,5.614574432E0,8.858817071E-2,-1.034326744E1
2.599701130E-1,2.063864946E0,-2.150058746E0,-3.658451796E0
3.119634380E-1,2.025556564E0,-6.507638931E0,1.069761944E1
3.639568980E-1,3.198751211E0,-1.783016396E1,5.700768471E0
4.159501240E-1,-6.804529190E0,-2.879594231E1,7.594639778E0
4.679435830E-1,-1.715976715E1,-6.601015568E0,5.478100777E0
5.199370760E-1,-7.570696831E0,-1.419565487E1,1.259867382E1
5.719305650E-1,-6.651295185E0,-9.823709488E0,1.430579185E1
6.239246190E-1,-6.548341751E0,-4.108575344E0,8.265036583E0
6.759178120E-1,-4.963331699E0,-3.806896806E-1,5.473312378E0
7.279110710E-1,-3.773377180E0,4.053507328E0,4.771789551E0
7.799044300E-1,-9.864411950E-1,2.308080912E0,1.953728199E0
8.318984860E-1,5.229096413E0,-1.814860344E0,-9.205986977E0
8.838942450E-1,8.801354408E0,2.597788095E0,-2.164424515E1
9.358874700E-1,4.869955063E0,5.068679810E0,-8.882759809E-1
9.878808950E-1,-1.446141958E0,-1.308231735E1,1.621163559E1
1.039874122E0,-5.073468208E0,-2.581986046E1,2.719177818E1
1.091867714E0,-3.009603500E0,-2.403851891E1,-3.237059593E0
1.143860840E0,-1.601769805E0,-1.392510223E1,1.145181656E1
1.195854199E0,-1.032171917E1,-1.216291547E0,1.040073013E1
1.247848056E0,-3.627326250E0,-2.863552570E0,1.476549244E1
1.299841743E0,-7.491685867E0,-4.024775982E0,6.330462456E0
1.351835202E0,-5.401484013E0,-3.380716085E0,1.573517418E1
1.403828495E0,-4.139701366E0,-5.530774593E-1,1.018524456E1
1.455821788E0,4.597007632E-1,1.537124395E0,8.672063828E0
1.507815114E0,-2.746233225E0,1.142069101E0,7.376760483E0
1.559808440E0,-2.408640385E0,4.788549617E-2,-1.280937076E0
1.611801932E0,-5.047131062E0,-8.217150688E0,-5.806116581E0
1.663795521E0,-4.838829517E0,-5.413455486E0,-2.492439985E0
1.715789643E0,1.105436707E1,-6.344828010E-1,5.355992794E0
1.767782870E0,-1.077423692E0,-8.794171333E0,1.233530426E1
1.819776161E0,-6.730306625E0,-1.924996948E1,3.742251635E0
1.871770118E0,-1.230178356E1,-2.518058777E1,1.884773064E1
1.923766407E0,1.244544029E1,-8.097437859E0,1.825634575E1
1.975760301E0,1.228263021E0,-1.142069101E0,1.991078949E1
2.027753595E0,-6.835654736E0,2.394274771E-1,1.495224571E1
2.079746887E0,-1.095141315E1,8.068706393E-1,1.038397026E1
2.131740280E0,-6.656084061E0,-3.378321648E0,1.010862827E1
2.183733805E0,-1.049171257E1,-6.019207001E0,8.612206459E0
2.235726830E0,-4.592218876E0,7.518022656E-1,7.000859737E0
2.287720653E0,-1.862745762E0,-1.005595401E-1,8.085466385E0
2.339714574E0,-1.996825218E0,1.292908341E-1,2.109356165E0
2.391707800E0,-3.644086361E0,-2.980872154E0,4.391099930E0
2.443701458E0,-7.077476501E0,-3.660846233E0,9.577099234E-3
2.495694784E0,-1.956122518E0,-2.537931204E-1,-1.802888989E0
2.547687977E0,-1.970488191E0,-3.414235830E0,-4.958543301E0
2.599681203E0,-3.550709486E0,-2.794118643E0,-6.703969240E-1
2.651674663E0,-1.154040456E0,-7.450983047E0,9.337671280E0
2.703668683E0,-9.613013268E0,-8.772623062E0,1.168645573E1
2.755662405E0,5.492466450E0,-1.626909637E1,1.500013161E1
2.807655631E0,-7.405491829E0,-1.479183006E1,2.288926697E1
2.859648990E0,-6.713546753E0,4.405465722E-1,1.687005997E1
2.911642581E0,-1.071437931E1,-4.333637238E0,9.921875000E0
2.963640170E0,-9.117398262E0,-7.125361919E0,1.210545349E1
3.015638025E0,-8.147717476E0,-7.127756119E0,1.249571991E1
3.067632218E0,-1.223474407E1,-2.312869549E0,9.735121727E0
3.118380694E0,1.039115310E0,2.394274712E0,-1.315175152E1
3.170373887E0,6.847625732E0,2.468497276E0,-8.305739403E0
3.222367246E0,1.221080124E-1,-3.603383541E0,1.320442581E1
3.274361465E0,-9.007262230E0,-1.982220078E1,1.721483612E1
3.326354888E0,-7.058321953E0,-2.795076370E1,6.596227169E0
3.378348214E0,-1.585249329E1,-1.326188850E1,9.028810501E0
3.430341707E0,-1.029298782E1,-9.962577820E0,8.976136208E0
3.482334999E0,-6.091034889E0,-7.697593689E0,1.017566776E1
3.534328258E0,-5.399089813E0,-4.527573586E0,9.103033066E0
3.586321650E0,-5.363175392E0,-6.610592842E0,8.332076073E0
3.638314943E0,-5.858790398E0,-5.818087578E0,7.371972084E0
3.690308963E0,-7.072687626E0,-1.455719113E0,2.442160368E0
3.742302586E0,-4.283357620E0,2.669616461E0,4.702355862E0
3.794295945E0,-1.850774407E0,4.252232075E0,9.754275322E0
3.846289238E0,-2.899466753E0,2.190761566E0,7.812518597E0
3.898283959E0,2.042316437E0,3.481275558E0,-2.921015263E0
3.950282715E0,2.245829821E0,2.195549965E0,-9.905115128E0
4.002279575E0,2.609759569E0,2.983266354E0,-5.741470814E0
4.054273602E0,-7.565908432E-1,2.873129770E-2,2.600182533E0
4.106267061E0,-1.874717116E0,-1.065691757E1,1.987966347E1
4.158260287E0,1.156434774E0,-2.446709442E1,8.581081390E0
4.210253746E0,-6.179623127E0,-2.252054977E1,7.814912796E0
4.262247005E0,-1.373116589E1,-1.391313076E1,5.779779434E0
4.314240496E0,-8.305739403E0,-7.846038342E0,4.640104771E0
4.366234715E0,-3.146077156E0,-1.270162773E1,8.686429024E0
4.418227941E0,-3.996044636E0,-3.883513689E0,9.323306084E0
4.470221434E0,-3.519583941E0,-4.094210148E0,1.019961071E1
4.522214660E0,-1.297696948E0,2.037527800E0,1.088676739E1
4.574207919E0,3.220299721E0,1.247417212E0,1.023073673E1
4.626201312E0,1.932179809E0,9.888355136E-1,4.094210148E0
4.678194704E0,-3.732674360E0,-4.065478802E0,5.073468208E0
4.730188326E0,-9.074301720E-1,-8.643332124E-1,-5.075862408E-1
4.782182313E0,-3.174808502E0,5.820482254E0,-1.409270191E1
4.834175639E0,-7.501263142E0,2.573845387E0,-6.409473896E0
4.886169098E0,-4.685595989E0,-4.953754425E0,9.325700760E0
4.938162291E0,-5.789356709E0,-1.685808945E1,1.831141281E1
4.990156778E0,4.570670605E0,-1.748778343E1,-1.448536277E0
5.042155667E0,-1.054678059E1,-2.155805016E1,1.307992363E1
5.094152223E0,-6.969734192E0,-8.916279793E0,9.907508850E0
5.146145650E0,-4.098998547E0,-1.104478931E1,3.792531252E0
5.198139043E0,-3.440572977E0,-8.997684479E0,1.233769798E1
5.250132269E0,-4.496448040E0,-9.435836792E0,8.008849144E0
5.302125828E0,-6.584255695E0,-2.607365370E0,9.107821465E0
5.354119055E0,-5.219519138E0,-3.399870098E-1,6.481301785E0
5.406112347E0,-4.118152618E0,1.836408734E0,8.363202095E0
5.458106135E0,-8.935433388E0,6.775797606E-1,5.502043724E0
5.510100057E0,-1.575432777E0,-1.915419817E0,-2.083019018E0
5.562093483E0,5.102199554E0,2.250618219E0,-1.063297462E1
5.614086709E0,4.752635479E0,1.099929810E1,-7.465348721E0
5.666080002E0,-4.189980924E-1,5.370358467E0,4.788549542E-1
5.718073361E0,-3.634509087E0,-7.388731956E0,8.042368889E0
5.770066654E0,-5.449369431E0,-1.945348358E1,1.757876587E1
5.822060014E0,2.968900681E0,-2.099539566E1,-1.103760719E0
5.874054067E0,-1.302485466E1,-1.480140686E1,6.284971237E0
5.926047656E0,-1.092747021E1,-7.352818012E0,3.929004908E0
5.978041083E0,-3.646480560E0,-1.106873226E1,1.183968925E1
6.030034409E0,-9.052753448E0,-9.021627426E0,1.074550533E1
6.082028533E0,-7.185218811E0,-4.501236439E0,9.043175697E0
6.134024622E0,-2.528354168E0,3.112557232E-1,1.028341007E1
6.186018382E0,-1.450930476E0,4.180403709E0,1.063776302E1
6.238011775E0,-1.106154919E0,3.543526828E-1,7.283383846E0
6.290005135E0,-3.519583941E0,3.543526828E-1,3.428601503E0
6.341998426E0,-3.572257996E0,5.037554264E0,2.581028223E0
6.393991718E0,-6.615381241E0,4.573064744E-1,-2.528354168E0
6.445985145E0,-1.721483588E0,1.091789365E0,6.991282701E-1
6.497979296E0,-3.373533249E0,2.564268351E0,-1.663063240E1
6.549972753E0,-4.850800991E0,-7.594639778E0,2.609759569E-1
6.601966213E0,-8.281796455E0,-1.619248009E1,1.826113319E1
6.653959405E0,1.058269501E0,-8.669669151E0,7.637736797E-1
6.705952865E0,-8.514040947E0,-2.183339119E1,1.217728138E1
6.757946158E0,-1.345821857E1,-9.222746849E0,1.381496525E1
6.809939383E0,-9.431048393E0,-9.830892563E0,1.105915546E1
6.861933075E0,-1.050847244E1,-5.217124939E0,1.122914886E1
6.913926827E0,-6.081458092E0,-3.562680960E0,6.605803967E0
6.965920518E0,-3.565075159E0,-3.967313290E0,8.945011139E0
7.017913944E0,-3.785348415E0,2.044710636E0,7.089447498E0
7.069907303E0,-3.644086361E0,3.299310684E0,1.139914227E1
7.121901026E0,-1.110464668E1,1.596981287E0,2.734261751E0
7.173899546E0,-5.114171028E0,1.146857619E0,4.812492430E-1
7.225896668E0,-4.664047241E0,1.170800328E0,1.006074238E1
7.277890529E0,-7.805336118E-1,3.222693920E0,-1.034326744E1
7.329883788E0,-2.207521439E0,-2.051893473E0,-1.245980644E1
7.381877348E0,2.420611858E0,1.115732074E0,-7.223526955E0
7.433870407E0,-2.619336605E0,-7.240286827E0,1.534251308E1
7.485863967E0,-4.206740856E0,-3.285902786E1,8.940221786E0
7.537857259E0,-7.319298267E0,-3.181512451E1,1.038875866E1
7.589850617E0,-8.312922478E0,-1.580460835E1,1.081733322E1
7.641844769E0,-4.517996788E0,-6.083852291E0,1.597220707E1
7.693838128E0,-4.144489765E0,-1.630501151E0,1.099450970E1
7.745831554E0,-5.018400192E0,3.806896806E-1,1.065212822E1
7.797824780E0,-8.166871071E0,8.906702399E-1,5.729499817E0
7.849818139E0,-1.041749001E1,-1.268965602E0,7.352818012E0
7.901811433E0,-1.523237610E1,-1.675992310E-1,4.807703972E0
7.953804891E0,-3.007209063E0,1.951334000E0,1.053959751E1
8.005798649E0,-1.625712633E0,2.547508478E0,-3.773377180E0
8.057792635E0,5.810904980E0,-5.506832004E-1,-8.277008057E0
8.109785961E0,7.295355320E0,-1.450930476E0,-2.399063349E0
8.161779153E0,-4.620950520E-1,-4.336031914E0,-4.142095447E-1
8.213772845E0,5.456552505E0,-5.901887417E0,3.703943014E0
8.265769067E0,3.488458395E0,-2.110313797E1,-8.379961550E-2
8.317763261E0,-1.306316376E1,-3.035461617E1,1.575911713E1
8.369756520E0,-1.476070404E1,-1.072156239E1,1.643430138E1
8.421749812E0,-4.242654800E0,-7.182824612E0,1.741116714E1
8.473743205E0,-5.018400192E0,-1.508393168E0,1.312302017E1
8.525736664E0,-5.068679810E0,5.937801600E-1,1.049889469E1
8.577730289E0,-3.519583941E-1,-6.967339516E-1,1.009905148E1
8.629723746E0,2.087807655E0,1.067846537E0,9.232323647E0
8.681717497E0,6.500456333E0,3.366350412E0,9.993702888E0
8.733710923E0,5.025582790E0,-3.256213665E-1,7.316903591E0
8.785704282E0,3.919427872E0,-3.462121487E0,4.549122334E0
8.837697541E0,-1.233051538E0,-4.161249638E0,2.154847234E-2
8.889691101E0,-4.975303173E0,9.960182905E-1,-6.725517750E0
8.941684159E0,-2.581028223E0,-1.505998850E0,-4.474899769E0
8.993677519E0,3.696760416E0,-1.221080112E1,1.601051521E1
9.045671275E0,-2.547508478E0,-1.500492001E1,-3.112557158E-2
9.097665196E0,7.292961121E0,-3.490373993E1,6.270605564E0
9.147762302E0,-5.631334305E0,-2.088286400E1,9.562733650E0
9.199755661E0,-3.414235830E0,-1.186363125E1,1.296739197E1
9.251749119E0,-3.754222870E0,-4.161249638E0,1.500252628E1
9.303746873E0,-8.875576973E0,-2.820455790E0,1.048213482E1
9.355744766E0,-7.472531796E0,-6.536370516E-1,5.502043724E0
9.407739992E0,-3.057488918E0,-9.505270720E-1,8.303344727E0
9.459733352E0,2.564268351E0,3.277762175E0,1.118126297E1
9.511726744E0,6.816500187E0,-1.292908341E-1,1.497140026E1
9.563720037E0,5.399089813E0,-4.668835640E0,1.136801720E1
9.615713329E0,-2.751021862E0,1.601769805E0,1.178940868E1
9.667706621E0,2.851581335E0,3.304099143E-1,4.309694469E-2
9.719700742E0,-1.680780888E0,-7.541965842E-1,-1.399693012E1
9.771694297E0,8.044763207E-1,-1.450930476E0,-1.093465328E1
9.823687690E0,-5.818088055E-1,-5.679219723E0,1.337681293E1
9.875680983E0,-3.196356773E0,-2.956929398E1,1.626670265E1
9.927674275E0,-8.631361008E0,-2.374162865E1,7.790970325E0
9.979667735E0,-1.417650127E1,-1.167687798E1,9.900326729E0
1.003166103E1,-1.146857619E0,-2.770175934E0,1.117886925E1
1.008365432E1,-1.661626697E0,-3.462121487E0,1.057790565E1
1.013564867E1,-5.722316504E-1,-2.260195494E0,9.246688843E0
1.018764203E1,-3.967313290E0,-7.027196407E0,1.416692448E1
1.023963536E1,-4.683201313E0,-4.268991947E0,1.364736652E1
1.029162892E1,-7.103813171E0,9.119792938E0,1.503125763E1
1.034362231E1,7.371972084E0,6.955368519E0,-5.607391834E0
1.039561976E1,5.904281616E0,7.743084908E0,-7.637736797E0
1.044761772E1,3.634509087E0,5.578660369E-1,-1.043903828E0
1.049961204E1,-1.872322917E0,-1.163378143E1,1.296499825E1
1.055160537E1,3.102980137E0,-2.776401138E1,1.077184200E1
1.060359869E1,-1.017566800E0,-3.225088120E1,1.249811411E0
1.065559212E1,-8.030397415E0,-1.367849159E1,2.449343204E0
1.070758534E1,-1.222037888E1,-6.045543671E0,7.862798691E0
1.075957877E1,-2.710319042E0,-5.444581032E0,9.696812630E0
1.081157223E1,-2.111750364E0,-2.044710636E0,7.570696831E0
1.086356631E1,-3.251425266E0,-2.444554567E0,6.138920784E0
1.091555977E1,-2.394274771E-1,-1.122914910E0,7.134938717E0
1.096755310E1,-2.461314440E0,8.619389534E-1,1.114774323E1
1.101954642E1,-6.045543671E0,1.549095750E0,5.322473049E0
1.107153975E1,-5.399089813E0,-3.500429869E0,1.143745041E1
1.112353314E1,1.798100352E0,6.387925148E0,-1.372398281E1
1.117552647E1,1.646782303E1,4.221106529E0,-1.778946114E1
1.122752019E1,4.843617916E0,-4.120546818E0,6.464541703E-2
1.127951421E1,8.154899597E0,-3.308887863E1,8.123774529E0
1.133150744E1,-1.056832886E1,-3.362280273E1,3.083826065E0
1.138350083E1,-6.838048935E0,-1.588122463E1,6.318490982E0
1.143549419E1,-7.867587090E0,-1.223953247E1,8.097437859E0
1.148748998E1,-7.137333393E0,-5.006428719E0,8.528407097E0
1.153948490E1,-8.593051910E0,-1.017566800E0,7.498868465E0
1.159147813E1,-6.062304020E0,2.063864946E0,7.295355320E0
1.164347146E1,-2.700742006E0,1.862745762E0,7.872375488E0
1.169546481E1,2.904255390E0,1.898659945E0,1.092028713E1
1.174745811E1,-1.977671027E0,-8.978530765E-1,1.605361176E1
1.179945147E1,-1.520364523E0,-3.016786277E-1,1.208390522E1
1.185144535E1,-6.488484859E0,4.925023079E0,-8.121379852E0
1.190343921E1,-3.486064196E0,-2.499622822E0,-1.578784847E1
1.195543240E1,3.359167576E0,-4.213923454E0,4.860377908E-1
1.200742579E1,-5.355992794E0,-1.783495331E1,1.753087997E1
1.205941922E1,8.770228386E0,-1.450930500E1,4.568276405E0
1.211141241E1,-3.007209063E0,-2.314545441E1,5.449369431E0
1.216340584E1,-7.154093266E0,-9.998491287E0,9.711178780E0
1.221539920E1,-8.521224022E0,-5.035160065E0,1.726990509E1
1.226739295E1,-1.041509533E1,-3.419024467E0,1.236403465E1
1.231938691E1,-4.872349262E0,-1.173194647E-1,1.345103550E1
1.237138037E1,-2.123721838E0,1.362342358E0,7.609005451E0
1.242337353E1,-1.872322917E0,2.324840784E0,7.659285069E0
1.247536689E1,-5.542746067E0,7.417463303E0,5.427821159E0
1.252736354E1,-4.125335693E0,3.591412306E0,7.958569527E0
1.257936189E1,3.153259993E0,2.655250788E0,-2.202732801E0
1.263135682E1,9.936240315E-1,-1.017566776E1,-2.300898075E0
1.268335018E1,5.049525738E0,1.702329397E0,-2.557085514E0
1.273534360E1,2.315263748E0,-1.351568127E1,-1.657795906E1
1.278733683E1,-3.035940409E0,-3.408968353E1,9.481328011E0
1.283933019E1,-5.482889175E0,-2.361712646E1,9.996097565E0
1.289132351E1,-5.027977005E-2,-1.528026199E1,1.263219357E1
1.294331677E1,-7.790970325E0,-9.447808266E0,1.156674194E1
1.299531079E1,-1.407833576E1,-2.439765930E0,1.198334503E1
1.304730448E1,-8.657697678E0,1.934574008E0,7.482108593E0
1.309929784E1,-1.484450400E-1,4.438985348E0,1.071198559E1
1.315129120E1,1.580221355E-1,1.838803053E0,1.112380123E1
1.320328449E1,-3.871542454E0,3.208328187E-1,1.387961102E1
1.325527785E1,-1.963305324E-1,4.333637357E-1,1.270402241E1
1.330727138E1,-3.301704884E0,1.338399649E0,6.677632332E0
1.335926457E1,2.106961727E0,-2.468497276E0,-6.991282463E0
1.341125866E1,-1.692752242E0,-2.736177254E1,1.645585060E1
1.346325232E1,3.342407703E0,4.793338299E0,-1.170321560E1
1.351524548E1,7.793364525E0,-1.633613777E1,1.981741333E1
1.356723890E1,-6.476513386E0,-5.443623352E1,2.767781734E0
1.361923419E1,-1.171758080E1,-2.364106941E1,4.685595989E0
1.367122962E1,4.788549617E-3,-1.249811459E1,9.249083519E0
1.372322284E1,-3.926610649E-1,-2.545114040E0,1.320681953E1
1.377521643E1,-8.490098000E0,2.537931204E-1,1.084367085E1
1.382720956E1,-8.827691078E0,7.685621977E-1,5.324867249E0
1.387920275E1,-5.451763630E0,-1.403045058E0,1.283331275E0
1.393119628E1,-6.895511150E-1,-2.494834423E0,-2.159635782E0
1.398318970E1,-4.089421272E0,7.182824612E-1,2.490045786E0
1.403518389E1,6.826077461E0,1.416931820E1,-2.286532402E0
1.408717751E1,5.600208759E0,1.386763954E1,-5.183605194E0
1.413917074E1,4.666441441E0,-4.735875607E0,7.963357925E0
1.419116413E1,-7.709564686E0,-5.150085068E1,8.341653824E0
1.424315739E1,-1.082212257E1,-2.037527847E1,-3.320859194E0
1.429515072E1,-6.691998005E0,-1.037199879E1,4.012804508E0
1.434714404E1,-7.302538157E-1,-4.889109135E0,5.248250484E0
1.439913733E1,-2.099778891E0,-9.632167816E0,7.637736797E0
1.445113142E1,-9.438231468E0,-1.070240879E1,8.657697678E0
1.450312488E1,-8.267431259E0,-4.415042877E0,9.979337692E0
1.455511830E1,-5.571477413E0,-3.064671755E-1,8.080677032E0
1.460711163E1,-4.048718929E0,2.940169573E0,5.806116581E0
1.465910728E1,-1.848380208E0,2.985660791E0,3.409447432E0
1.471110587E1,1.589798450E0,1.924996972E0,4.146883965E0
1.476310233E1,2.183578730E0,1.556278586E0,4.599401951E0
1.481509589E1,4.405465603E0,2.808484316E0,-6.732700825E0
1.486708945E1,-1.630501151E0,-3.567469418E-1,-9.433442950E-1
1.491908258E1,-3.620143414E0,-9.177255630E0,2.264983892E0
1.497107590E1,3.639297724E0,-4.225655746E1,5.827664852E0
1.502306933E1,-7.905895233E0,-1.748060036E1,4.958543301E0
1.507506308E1,-1.551490068E0,-1.124112034E1,7.656890869E0
1.512705697E1,-8.523618698E0,-8.372778893E0,3.227482557E0
1.517905046E1,-6.344828129E0,-1.213179016E1,1.041030693E1
1.523104359E1,-6.622564316E0,-1.113577175E1,1.174631214E1
1.528303688E1,-6.689603806E0,-2.988054991E0,9.232323647E0
1.533503038E1,-3.861965179E0,-1.563461423E0,7.944203854E0
1.538702370E1,-1.829225898E0,2.968900800E-1,5.162056446E0
1.543901693E1,3.112557232E-1,4.980091572E0,4.683201313E0
1.549101111E1,2.748627424E0,1.872322917E0,1.245022863E-1
1.554300474E1,4.860377908E-1,-3.591412306E-1,-3.687183142E0
1.559499806E1,-1.256994247E0,8.667274714E-1,-1.175588965E0
1.564699142E1,-3.723097324E0,3.830839634E0,8.485309601E0
1.569898465E1,2.092596292E0,-7.817307472E0,7.999272346E0
1.575098027E1,-3.213116884E0,-3.285902786E1,1.298654652E1
1.580297909E1,-4.910657406E0,-2.213746452E1,-4.374340057E0
1.585497485E1,-4.980091453E-1,-1.329780197E1,7.087053299E0
1.590696797E1,1.843591630E-1,-6.241874218E0,8.387145042E0
1.595896136E1,-6.895511150E-1,-1.118605232E1,1.382933140E1
1.601095469E1,-4.154066563E0,-1.192827702E1,1.722920227E1
1.606294802E1,-3.038334846E0,-4.867560863E0,1.431536865E1
1.611494131E1,-2.442160249E-1,1.395862222E0,9.560338974E0
1.616693464E1,4.166038036E-1,2.348783493E0,4.759818554E0
1.621892859E1,-1.065452337E0,1.264177084E0,1.144463301E0
1.627092235E1,-9.984126091E-1,-1.972882390E0,-2.154847383E0
1.632291567E1,1.247417212E0,-1.637683988E0,-4.197163582E0
1.637490923E1,2.592999697E0,1.426987767E0,-1.734652138E1
1.642678797E1,-1.496421814E0,8.020820618E-1,-2.595393896E0
1.647878116E1,-4.192375183E0,-2.602816200E1,1.879984665E1
1.653077455E1,-1.685569525E0,-2.873129845E1,1.364257812E1
1.658276798E1,-3.445361376E0,-1.997543526E1,2.408640385E0
1.663476216E1,1.031932473E0,-1.180377483E1,1.270881081E1
1.668675552E1,3.742251635E0,-7.110996246E0,1.403763294E1
1.673874878E1,6.751855016E-1,-5.243461609E0,1.064255142E1
1.679074218E1,-8.523618579E-1,-1.982459545E0,1.287640953E1
1.684273677E1,2.588211060E0,-4.218712330E0,8.863605499E0
1.689473272E1,1.429382086E0,-1.204320192E0,7.800547123E0
1.694672622E1,-2.899466753E0,-7.910684109E0,7.403097630E0
1.699871961E1,4.719115734E0,-1.369525194E0,3.392687321E0
1.705071280E1,1.551490068E0,-1.079817891E0,-1.568489456E1
1.710270616E1,-1.036720991E0,5.487678051E0,-1.723398972E1
1.715469959E1,-4.024775982E0,1.410227871E1,-7.120573044E0
1.720669281E1,3.620143414E0,-7.613793850E0,1.123633194E1
1.725868703E1,-1.397298813E1,-4.755508804E1,7.520417213E0
1.731068056E1,-1.144702816E1,-2.826680756E1,1.461225891E1
1.736267378E1,-3.680000305E0,-1.227305222E1,9.522030830E0
1.741466724E1,-3.435784340E0,-5.054314137E0,1.173673534E1
1.746666050E1,-7.688016415E0,-2.197944164E0,1.311583710E1
1.751865389E1,-2.236252785E0,-2.025556564E0,1.339117908E1
1.757064722E1,2.609759569E0,-2.195549965E0,1.030256462E1
1.762264075E1,6.052726746E0,-3.675211906E0,9.443019867E0
1.767463483E1,4.331243038E0,-1.934574008E0,8.490098000E0
1.772662819E1,-2.569056988E0,-5.001639843E0,2.779752970E0
1.777862152E1,-3.598595142E0,-3.442967176E0,1.541913033E0
1.783061504E1,-6.167652130E0,5.889915943E0,-4.932205975E-1
1.788260973E1,-6.955368519E0,3.823656797E0,9.921875000E0
1.793460862E1,-6.136526108E0,5.360781193E0,5.825270653E0
1.798660474E1,-8.839662552E0,6.464542150E-1,4.470110893E0
1.803859830E1,9.433442950E-1,-8.954587579E-1,-1.779185677E1
1.809059169E1,3.797319889E0,-1.697540855E1,-4.132518291E0
1.814258488E1,3.026363373E0,-3.109923553E1,9.352037430E0
1.819457825E1,-1.683175206E0,-3.521978378E1,1.596502399E1
1.824657164E1,-4.807703972E0,-6.545947552E0,1.547419834E1
1.829856486E1,1.517970204E0,-6.045543671E0,1.923799896E1
1.835055855E1,3.052700281E0,-1.779664421E1,1.880702782E1
1.840255254E1,2.602576733E0,-1.299133492E1,1.406875896E1
1.845454590E1,7.860404015E0,-6.996070862E0,1.096577835E1
1.850653932E1,6.895511627E0,-7.357606411E0,8.346442223E0
1.855853252E1,2.140481710E0,-6.100612164E0,3.205934048E0
1.861052591E1,-5.011217117E0,-5.607391834E0,-2.935380936E0
1.866251924E1,-3.981678963E0,1.752609134E0,-8.609811783E0
1.871451256E1,4.673624516E0,1.247896004E1,1.776551962E0
1.876650635E1,-1.953728199E0,9.320911407E0,7.422251701E-1
1.881850030E1,3.471698523E0,1.951334000E0,7.501263142E0
1.887049360E1,1.072635174E0,-1.755003452E0,-1.771763414E-1
1.892248692E1,-2.681587696E0,-2.207281876E1,4.103786945E0
1.897448098E1,-1.408551884E1,-2.058358002E1,9.833286285E0
1.902647734E1,-3.620143414E0,-1.474873257E1,1.426269531E1
1.907847093E1,-1.364736706E-1,-6.751854897E0,9.500482559E0
1.913046422E1,9.984126091E-1,-8.892336845E0,7.261835575E0
1.918245762E1,1.826831698E0,-1.129618835E1,6.557918549E0
1.923445088E1,-1.501210332E0,-1.511266232E1,1.208390522E1
1.928644427E1,-3.306493521E0,-7.218738556E0,1.533054161E1
1.933843763E1,3.193962574E0,-1.644866824E0,1.340554428E1
1.939043158E1,5.303318501E0,-2.197944164E0,5.545140266E0
1.944242524E1,4.118152559E-1,-7.180429935E0,-3.476486921E0
1.949441860E1,-1.747820616E0,-6.399896622E0,-4.173221111E0
1.954641192E1,-2.786935806E0,1.652049661E0,1.652049661E0
1.959840548E1,6.241874218E0,-1.417410731E0,-4.024775982E0
1.965039861E1,-7.110996246E0,6.656084061E-1,3.617749214E0
1.970239206E1,-3.057488918E0,-1.833775139E1,-3.292127848E0
1.975438526E1,6.198777676E0,-2.888213730E1,-2.241041183E0
1.980637951E1,-4.115758419E0,-1.433452320E1,5.140508175E0
1.985837307E1,5.214730740E0,-9.682447433E0,1.105436707E1
1.991036626E1,-3.256213665E-1,-1.698737907E1,1.812226677E1
1.996235972E1,-1.074550533E1,-2.198901939E1,2.017894745E1
2.001435368E1,-9.749486923E0,-8.499675751E0,1.811268806E1
2.006635233E1,2.205127001E0,1.115732074E0,8.628966331E0
2.011834972E1,4.144489765E0,6.462147713E0,6.091034889E0
2.017034405E1,5.291347504E-1,5.700768471E0,3.342407703E0
2.022233731E1,-3.696760416E0,8.674457550E0,3.454938650E0
2.027433074E1,-1.015172482E1,-2.765387297E0,5.784567833E0
2.032632396E1,2.585816860E0,-1.561785412E1,2.097384691E0
2.037831739E1,-5.336838722E0,-4.173221111E0,-8.305739403E0
2.043031075E1,1.288119793E0,-1.061382008E1,-1.112380123E1
2.048230490E1,9.864411950E-1,-1.781340408E1,-4.731087208E0
2.053429832E1,1.565855742E0,-1.747581100E1,6.833260536E0
2.058629175E1,2.157241583E0,-1.992754936E1,3.313676357E0
2.063828527E1,2.961717844E0,-2.972252655E1,1.892913628E1
2.069027847E1,-7.003253937E0,-2.159875298E1,1.723638344E1
2.074227176E1,-7.702382088E0,-1.321639729E1,1.663302803E1
2.079426502E1,-1.035284424E1,-8.454184532E0,1.113816643E1
2.084625880E1,-4.707144260E0,-7.637736797E-1,1.085564232E1
2.089825279E1,2.636096478E0,-1.994430900E0,1.252923965E1
2.095024609E1,1.699935049E-1,-7.740690231E0,-4.644893110E-1
2.100223928E1,-5.834847927E0,-1.144463348E1,9.031204224E0
2.105423267E1,-5.679219723E0,-3.371139050E0,-1.371919513E0
2.110622663E1,-5.133325100E0,8.854028702E0,-3.581835032E0
2.115822518E1,1.267529106E1,4.170826912E0,-3.885908127E0
2.121022231E1,2.423006058E0,3.519583941E-1,-8.188419938E-1
2.126221607E1,-4.091815472E0,3.191568375E0,-1.366173172E1
2.131420946E1,9.756669998E0,-7.173247337E0,6.476513386E0
2.136620279E1,1.508393139E-1,-6.069726181E1,1.251726913E1
2.141819605E1,-1.513421154E1,-3.028278732E1,1.960911036E0
2.147018934E1,-7.606611252E0,-1.099450970E1,1.187560272E1
2.152218280E1,-4.661653042E0,-2.528354168E0,1.291471863E1
2.157417662E1,-4.343214512E0,1.901054144E0,1.013975334E1
2.162617037E1,-1.690358043E0,2.552296877E0,6.095823765E0
2.167816376E1,4.857983589E0,-4.810098171E0,3.074248791E0
2.173015716E1,8.044763565E0,-8.387145042E0,3.450150013E0
2.178215045E1,-1.305837440E1,-1.916617012E1,3.351984620E-1
2.183414394E1,-2.959323645E0,1.137519932E1,2.801301479E-1
2.188613703E1,4.668835998E-1,1.921644974E1,-1.039115238E1
2.193813039E1,1.623318315E0,9.194015503E0,4.142095566E0
2.199012415E1,1.419804931E0,-2.920297050E1,4.276175022E0
2.204211810E1,-1.675034714E1,-2.743838882E1,1.450930476E0
2.209411133E1,1.281176472E1,-2.803456306E1,2.731867552E0
2.214610469E1,7.348029613E0,-1.157153034E1,7.843644142E0
2.219809848E1,-2.423006058E0,-1.132731438E1,5.391906738E0
2.225009467E1,-4.989668846E0,-5.238673210E0,8.284191132E0
2.230208889E1,-3.351984739E0,7.733507752E-1,7.707170486E0
2.235408219E1,-1.040791225E1,2.150058746E0,8.947404861E0
2.240607561E1,-6.909877300E0,1.755003452E0,3.292127848E0
2.245806874E1,-2.066259146E0,-1.275669575E1,1.407115269E1
2.251006213E1,1.106154919E0,5.169239521E0,-1.161223292E0
2.256205546E1,8.499675393E-1,9.330489159E0,-1.148294163E1
2.261404951E1,-1.752609134E0,7.015225291E-1,2.274561167E0
2.266604310E1,-3.814079762E0,-1.160026169E1,1.612065315E1
2.271803646E1,2.272166729E0,-2.360515594E1,6.390319347E0
2.277002975E1,-5.363175869E-1,-2.934183693E1,3.519583941E-1
2.282202314E1,-9.229928970E0,-1.204799080E1,3.114951611E0
2.287401657E1,-8.420664787E0,-7.474925995E0,3.715914488E0
2.292600996E1,-2.537931204E0,-1.172955227E1,1.214615631E1
2.297800322E1,-1.031932449E1,-1.135125732E1,9.385557175E0
2.302999708E1,-8.545166969E0,-6.964945316E0,7.920260906E0
2.308199090E1,-8.688823700E0,-4.386311531E0,4.860377789E0
2.313398426E1,-2.631308079E0,-1.182771802E0,4.316877365E0
2.318597745E1,-2.849187136E0,2.375120640E0,2.145270348E0
2.323797104E1,-7.182824425E-3,3.181991339E0,3.881119490E0
2.328996920E1,1.661626697E0,4.182797909E0,1.592192769E0
2.334196658E1,-3.184385598E-1,3.972101927E0,4.462928295E0
2.339396084E1,5.446975231E0,4.333637357E-1,-1.375989723E1
2.344595424E1,9.502876282E0,4.070267081E-2,-1.406157589E1
2.349794760E1,2.241041183E0,-1.909913063E1,1.788283920E1
2.354994092E1,-1.309189510E1,-4.652794266E1,1.173673534E1
2.360193421E1,-7.869981289E0,-1.614938354E1,8.537983894E0
2.365392747E1,-2.226675600E-1,-8.995290756E0,6.771008968E0
2.370399114E1,-4.908263206E0,-9.749486923E0,6.474119186E0
2.375598510E1,-5.145296574E0,-8.427846909E0,9.991309166E0
2.380797869E1,-6.196382999E0,-4.079844475E0,1.122196579E1
2.385997205E1,-4.762212753E0,-1.503604531E0,1.080536175E1
2.391196537E1,-4.585036278E0,1.125309110E0,1.155955887E1
2.396395873E1,-4.400677204E0,2.930592299E0,1.193546009E1
2.401595199E1,4.405465722E-1,3.225088120E0,7.984906673E0
2.406794538E1,3.069460392E0,-5.458946824E-1,4.668835998E-1
2.411993888E1,5.530774593E-1,6.507638931E0,6.447782040E0
2.417193296E1,-1.142069101E0,2.219492674E0,3.976890564E0
2.422392642E1,-8.051946640E0,-1.019961119E0,-1.032411289E1
2.427591971E1,1.929785490E0,-6.974522591E0,-6.929031372E0
2.432791317E1,5.810904980E0,-1.507195950E1,3.696760416E0
2.437990906E1,-1.349892139E1,-3.928286743E1,8.753468513E0
2.443190372E1,-1.124590874E1,-1.326428223E1,1.086521912E1
2.448389708E1,-1.798100352E0,-1.281894779E1,9.095849991E0
2.453589040E1,-6.797346115E0,-1.105915546E1,1.162659836E1
2.458788373E1,-8.166871071E0,-9.335277557E0,1.401608467E1
2.463987719E1,-4.747847080E0,-4.357580185E0,1.286204433E1
2.469187035E1,-2.030344963E0,-6.608198285E-1,8.195602417E0
2.474386377E1,5.650488734E-1,3.893090725E0,9.601041794E0
2.479585792E1,-1.197137404E-2,1.692752242E0,6.890722752E0
2.484785131E1,-1.087000728E0,-7.805336118E-1,4.211529255E0
2.489984487E1,3.088614643E-1,2.686376333E0,-1.699935079E0
2.495183807E1,-3.136499882E0,4.573064804E0,1.421720409E1
2.500383139E1,-3.490852594E0,2.628913641E0,6.088640690E0
2.505582482E1,5.099805593E-1,-8.475732803E-1,1.996825218E0
2.510781811E1,3.950553417E0,-2.916226625E0,-1.176786041E1
2.515981164E1,3.622537851E0,-1.848380089E1,-7.173247337E0
2.521180586E1,4.874743462E0,-3.216229248E1,1.158350182E1
2.526379905E1,-6.794951916E0,-1.337920761E1,1.374313712E0
2.531579244E1,-4.070267200E0,-1.403045082E1,9.699207306E0
2.536778580E1,3.735068738E-1,-1.155237579E1,1.817733383E1
2.541978269E1,-4.077449799E0,-1.003440571E1,1.814381409E1
2.547178095E1,-7.767027378E0,-6.368771076E0,1.437043762E1
2.552377687E1,-2.233858347E0,-8.308133483E-1,1.067128277E1
2.557577013E1,4.453351200E-1,2.001613855E0,5.430215359E0
2.562776349E1,-7.422251999E-2,1.132491946E0,3.847599506E0
2.567975681E1,-2.583422422E0,-1.434170604E0,-9.313728809E-1
2.573175017E1,-2.286532402E0,-1.223474383E0,5.844424725E0
2.578374353E1,4.395888329E0,7.422251999E-2,1.671203852E0
2.583573758E1,7.419857502E0,-2.983266354E0,2.564268351E0
2.588773118E1,3.160442829E0,5.865973234E-1,-1.806001472E1
2.593972440E1,-3.347196102E0,-1.317569447E1,7.522811413E0
2.599171786E1,2.868341208E0,-3.051024437E1,1.226826382E1
2.604371115E1,-5.245856285E0,-1.790917587E1,1.980065227E0
2.609570441E1,-1.137759399E1,-1.792832947E1,2.535537004E0
2.614769794E1,-1.424593568E0,-1.209348202E1,1.388439941E1
2.619969120E1,-5.130930901E0,-1.108309841E1,1.612304688E1
2.625168515E1,-1.081493950E1,-6.323279858E0,1.049650097E1
2.630367894E1,-5.729499817E0,-1.494027495E0,9.256266594E0
2.635567213E1,-4.884320736E0,-1.383890867E0,4.161249638E0
2.640766546E1,1.515576005E0,-5.842030644E-1,3.014391899E0
2.645965885E1,3.375927508E-1,1.544307232E0,2.456526041E0
2.651165554E1,-3.284945011E0,6.095823765E0,7.996877670E0
2.656365389E1,-3.921822071E0,5.334444046E0,5.758230686E0
2.661564889E1,1.812466025E0,3.189173937E0,1.212700176E1
2.666764215E1,-3.591412306E-2,3.462121487E0,-7.977723598E0
2.671963547E1,5.315290093E-1,-1.075029373E0,-1.036242104E1
2.677162880E1,2.272166729E0,-5.408666611E0,2.260195494E0
2.682362222E1,-8.880365372E0,-2.178311157E1,1.042227840E1
2.687561552E1,1.587404251E0,-2.066259193E1,3.050306082E0
2.692760901E1,-9.433443069E0,-2.049259758E1,9.715967178E0
2.697960326E1,-6.943397045E0,-1.491633224E1,8.485309601E0
2.703159649E1,-8.171659470E0,-9.811738014E0,1.146378803E1
2.708358978E1,-9.423865318E0,-5.051919937E0,7.393520832E0
2.713558330E1,-4.731087208E0,-2.758204460E0,1.068804264E1
2.718757656E1,-5.985687256E0,1.170800328E0,4.762212753E0
2.723956986E1,-4.407859802E0,9.409499764E-1,5.332049847E0
2.729156325E1,-6.912271500E0,-5.482889414E-1,8.858817071E-2
2.734355671E1,-6.687209606E0,8.581081390E0,6.249057293E0
2.739555089E1,-5.403878212E0,5.430215359E0,2.013585091E0
2.744754422E1,1.927391171E0,4.687990189E0,9.138946533E0
2.749953754E1,3.114951611E0,3.948159218E0,6.407079220E0
2.755153087E1,1.635289669E0,3.653663397E0,-6.684815407E0
2.760352619E1,-4.178009510E0,-6.366376877E0,-3.591412306E-1
2.765552159E1,-4.185192585E0,-1.345582485E1,9.850046158E0
2.770751484E1,4.417437077E0,-1.730102921E1,-1.881899953E0
2.775950827E1,-1.589559078E1,-2.026274681E1,8.315316200E0
2.781150153E1,-1.438001442E1,-8.025609016E0,1.183011150E1
2.786349482E1,-1.072874546E1,-4.762212753E0,1.123154354E1
2.791548832E1,-1.200249958E1,-2.971295118E0,1.284767818E1
2.796748171E1,-7.965752125E0,1.175588965E0,1.198573971E1
2.801947589E1,-4.580247879E0,1.834014535E0,9.378374100E0
2.807146932E1,-3.306493521E0,1.826831698E0,6.804529190E0
2.812346278E1,-5.353598595E0,3.840416908E0,7.537177086E0
2.817545603E1,-1.317808819E1,-6.009629965E-1,4.805309772E0
2.822744939E1,-8.897125244E0,-4.098998547E0,5.150084972E0
2.827944252E1,-1.040312386E1,-2.813272953E0,7.242681503E0
2.833143598E1,-6.562707424E0,-1.254600048E0,2.094990492E0
2.838342960E1,1.043903828E0,1.446141958E0,4.285751820E0
2.843542376E1,-4.872349262E0,5.303318501E0,6.565101624E0
2.848741688E1,1.254600048E0,6.337645531E0,5.353598595E0
2.853941048E1,8.837267876E0,8.772623062E0,-6.241874218E0
2.859140380E1,5.760625362E0,-2.648067951E0,6.512427330E0
2.864339929E1,-2.310475111E0,-1.217009926E1,1.235206413E1
2.869539815E1,-4.010410309E0,-3.817192459E1,1.066170597E1
2.874739370E1,-1.731300163E1,-7.795758724E0,7.582668304E0
2.879938710E1,1.283331275E0,-4.506025314E0,1.180856323E1
2.885138036E1,4.917840481E0,1.005595446E0,1.206235695E1
2.890337365E1,-3.560286522E0,-8.236305118E-1,1.083169937E1
2.895536691E1,-1.137759399E1,-7.230710030E0,9.000079155E0
2.900736027E1,-1.297696972E1,-4.254626274E0,1.019003391E1
2.905935386E1,-8.066311836E0,-4.233078003E0,9.320911407E0
2.911134748E1,-9.720755816E-1,4.573064744E-1,1.567771149E1
2.916334144E1,7.352818012E0,5.933012962E0,9.148524284E0
2.921533476E1,3.035940409E0,2.588211060E0,9.122186899E-1
2.926732802E1,-7.510839939E0,-2.193155766E0,-9.802161217E0
2.931932131E1,-2.200338602E0,-4.383917332E0,-1.669527817E1
2.937131467E1,6.289760113E0,-2.150777054E1,8.846845627E0
2.942330803E1,4.357580245E-1,-2.210155106E1,2.490045726E-1
2.947530149E1,-5.080651283E0,-1.622360611E1,7.017619610E0
2.952729534E1,4.015198708E0,-1.260346222E1,1.416452980E1
2.957928903E1,-1.608952641E0,-4.508419514E0,1.497618866E1
2.963128239E1,-1.322836876E1,-1.786128998E0,1.677429008E1
2.968327568E1,-1.082691097E1,-3.960130453E0,1.452367115E1
2.973527041E1,-5.142902374E0,-1.166011810E0,1.052762604E1
2.978726636E1,-2.399063349E0,-1.300091267E0,1.006313705E1
2.983925969E1,-5.095016956E0,-1.120520592E0,9.217958450E0
2.989125302E1,-5.344021320E0,1.163617611E0,3.711125851E0
2.994324628E1,-4.453351021E0,-1.788523316E0,2.255406857E0
2.999523974E1,-1.190194035E1,-8.609811783E0,4.903474808E0
3.004723306E1,-7.805336118E-1,5.078257084E0,-8.619389534E0
3.009922632E1,4.984879971E0,4.405465603E0,-1.149730778E1
3.015122031E1,-4.544333458E0,-7.309720993E0,1.367130947E1
3.020321400E1,2.636096478E0,-3.290451813E1,1.263937664E1
3.025520732E1,-2.066737938E1,-2.409837532E1,9.014444351E0
3.030720085E1,9.577099085E-1,-1.418128967E1,8.990502357E0
3.035919414E1,1.565855742E0,-2.212309837E0,1.170321560E1
3.041118740E1,-4.551516533E0,1.561067224E0,6.320885658E0
3.046318079E1,-5.375146866E0,-5.315290093E-1,6.687209606E0
3.051517425E1,-3.208328187E-1,-3.390293121E0,5.219519138E0
3.056716833E1,-3.447755814E0,-4.618556023E0,1.098253822E1
3.061916176E1,-4.589824677E0,-1.625712633E0,7.008042336E0
3.067115509E1,-2.327235222E0,1.228741837E1,8.528407097E0
3.072314831E1,1.556278616E-1,8.825297356E0,-6.227508545E0
3.077514340E1,7.182824425E-3,-8.643332124E-1,3.081431627E0
3.082714219E1,-7.182824612E0,-2.014542770E1,1.727469254E1
3.087913834E1,2.537931204E-1,-1.450451660E1,-2.341600657E0
3.093113177E1,-3.591412306E-2,-1.781579971E1,1.139674783E0
3.098303007E1,-5.559505939E0,-1.049171257E1,5.528380394E0
3.103502336E1,-7.702382088E0,-1.378862858E1,1.520125103E1
3.108701669E1,-7.070293427E0,-7.592245579E0,1.111661816E1
3.113901008E1,-5.674431324E0,-7.134938836E-1,8.159688950E0
3.119100394E1,-8.715160489E-1,2.315263748E0,3.593806505E0
3.124299683E1,1.113337755E0,4.237866402E-1,3.244242430E0
3.129499092E1,7.613793612E-1,-6.627352715E0,1.321639657E0
3.134698441E1,-3.893090725E0,-7.549148560E0,-8.032792091E0
3.139897797E1,-4.640104771E0,7.565908432E0,1.707117915E0
3.145097123E1,4.860377789E0,6.816500187E0,-1.161223292E0
3.150296439E1,-2.437371731E0,-1.459789371E1,1.741116714E1
3.155495781E1,7.733507633E0,-2.923409462E1,4.412648678E0
3.160695134E1,-1.172476387E1,-2.278391838E1,-1.204320192E0
3.165894466E1,-8.109408379E0,-4.532361984E0,2.288926601E0
3.171093878E1,-2.497228622E0,-1.117647457E1,8.288979530E0
3.176293207E1,-5.597814560E0,-5.305713177E0,1.245262337E1
3.181492543E1,-7.149304390E0,-6.457359314E0,9.332882881E0
3.186691959E1,-2.810878515E0,-2.616942406E0,8.454184532E0
3.191891591E1,1.060663700E0,-4.477293789E-1,7.091842175E0
3.197090941E1,-2.135693073E0,1.331216812E0,4.369551659E0
3.202290277E1,-5.384724140E0,-6.799740195E-1,8.722343445E0
3.207489619E1,-8.420664787E0,4.436591148E0,2.415823221E0
3.212688948E1,1.551490068E0,6.193988800E0,-9.474145889E0
3.217888285E1,-1.357553840E0,-2.394274712E0,-4.027170181E0
3.223087614E1,-3.220299721E0,-7.134938717E0,8.518829346E0
3.228286966E1,-1.177983165E0,-1.683654022E1,7.946598053E0
3.233486388E1,5.308107376E0,-2.729233932E1,1.109746361E1
3.238685714E1,-1.070480251E1,-8.209968567E0,7.846038342E0
3.243885046E1,-5.145296574E0,-7.163670063E0,3.009603500E0
3.249084386E1,-4.245049000E0,-1.069283104E1,1.259388542E1
3.254283715E1,-3.399870157E0,-9.921875000E0,1.474873257E1
3.259483048E1,-4.462928295E0,-3.778165579E0,1.367609787E1
3.264682380E1,-5.027976990E0,-2.423006058E0,1.115971470E1
3.269881746E1,-3.668029070E0,-3.016786277E-1,8.001666069E0
3.275081151E1,-1.321639729E1,-8.281796455E0,7.582668304E0
3.280280480E1,-2.185972929E0,-1.652049661E0,-1.511745071E1
3.285479820E1,1.069522572E1,5.128536701E0,-1.762425613E1
3.290679232E1,3.275367975E0,6.043149471E0,-2.648067951E0
3.295879104E1,-4.632921696E0,-6.993676662E0,9.584281921E0
3.301078817E1,-1.719089270E0,-2.861637306E1,1.842873383E1
3.306278246E1,2.023162127E0,-2.514467430E1,6.371165276E0
3.311477575E1,-5.011217117E0,-1.357314396E1,7.494080067E0
3.316676918E1,-4.357580185E0,-4.477293968E0,6.332856655E0
3.321876244E1,-6.174834728E0,-6.122160912E0,4.558699131E0
3.327075600E1,-5.358386993E0,-1.004158878E1,1.548138046E1
3.332274926E1,-4.407859802E0,-9.488511086E0,1.131294823E1
3.337474314E1,-3.727885962E0,-2.889889717E0,9.112609863E0
3.342673687E1,-2.784541607E0,-5.051919818E-1,5.336838722E0
3.347873022E1,-4.597007632E-1,1.098972082E0,4.300117493E0
3.353072348E1,5.818088055E-1,-5.214730740E0,-1.965699673E0
3.358271688E1,-3.330436230E0,-7.968146324E0,1.393467903E0
3.363471014E1,2.887495518E0,7.733507633E0,-1.601769805E0
3.368670359E1,-3.854782581E-1,6.517216206E0,-2.739050388E0
3.373869702E1,1.561067224E0,-4.103786945E0,5.078257084E0
3.379069120E1,3.902668059E-1,-2.355008698E1,1.749017715E1
3.384268453E1,-7.302538395E0,-2.375360107E1,1.234248638E1
3.389467782E1,-4.582642078E0,-1.389637089E1,5.765413761E0
3.394667125E1,-1.829225898E0,-6.328068256E0,6.787769318E0
3.399866524E1,-4.309694767E-1,-8.736708641E0,8.516435623E0
3.405066382E1,-4.690384388E0,-6.902694225E0,1.381975460E1
3.410266081E1,-4.446168423E0,-4.273780346E0,1.232572651E1
3.415465454E1,-2.676799297E0,-1.118126392E0,9.976943016E0
3.420664790E1,-4.094209969E-1,-8.308133483E-1,4.637710094E0
3.425864126E1,-2.944957972E0,-3.232271075E-1,-3.028757572E0
3.431063455E1,-1.492590904E1,-1.399932480E1,9.598648071E0
3.436262791E1,3.349590540E0,1.205996227E1,-3.897879362E0
3.441462137E1,3.974496126E0,6.100612164E0,-4.472505569E0
3.446661466E1,1.015172482E0,-1.404960442E1,1.581418514E1
3.451860891E1,-1.436564922E-1,-4.219190979E1,1.528744507E1
3.457060231E1,-2.358360767E0,-1.942235756E1,-2.873129845E-1
3.462259570E1,-4.544333458E0,-1.014693642E1,6.584255695E0
3.467458896E1,5.913859010E-1,-6.134131908E0,6.502850533E0
3.472658225E1,-8.379961550E-2,-5.782173634E0,4.936994553E0
3.477857558E1,-4.429408550E0,-1.171997547E1,3.931399345E0
3.483056897E1,-3.378321648E0,-6.457359314E0,1.209827042E1
3.488256279E1,-2.013585091E0,-5.399089813E0,1.602967072E1
3.493455661E1,-7.470137596E0,-1.836408734E0,8.288979530E0
3.498654987E1,-2.607365370E0,1.652049661E0,2.274561077E-1
3.503854340E1,-3.028757572E0,2.030344963E0,-7.599428177E0
3.509053716E1,-6.361588001E0,0.000000000E0,-4.980091572E0
3.514253324E1,2.324840784E0,7.046350956E0,-3.727885962E0
3.519452747E1,-6.584255695E-1,-2.322446555E-1,1.680780888E0
3.524652060E1,-5.813299179E0,-2.208479118E1,1.143266201E1
3.529851392E1,7.489291668E0,-3.151583862E1,6.131737709E0
3.535050742E1,-4.635315895E0,-1.973121834E1,3.553103924E0
3.540250068E1,-5.844424725E0,-1.099690437E1,6.313702583E0
3.545449403E1,-2.312869549E0,-7.027196407E0,1.112858963E1
3.550648763E1,9.553156495E-1,-7.029590607E0,1.078381348E1
3.555848171E1,-4.896292210E0,-7.958569527E0,1.060184860E1
3.561047497E1,-5.502043724E0,-5.219519138E-1,1.244304657E1
3.566246840E1,-2.772570133E0,-4.429408312E-1,9.579493523E0
3.571446172E1,-4.359974384E0,4.788549542E-1,5.657671452E0
3.576645502E1,-2.219492674E0,-3.119740009E0,5.291347504E-1
3.581844824E1,-6.440598965E-1,-2.825244367E-1,-6.991282463E0
3.587044173E1,2.703136206E0,5.758230686E0,-6.548341751E0
3.592243545E1,4.970514297E0,4.771789551E0,-4.927417755E0
3.597442938E1,-3.471698523E0,-1.057311726E1,1.294584370E1
3.602642287E1,-5.303318501E0,-2.981111526E1,4.398283005E0
3.607841619E1,-7.470137596E0,-2.827399063E1,1.016130257E1
3.613040955E1,-4.608979225E0,-1.090592194E1,9.852440834E0
3.618240770E1,-2.885101080E0,-6.883540154E0,1.396341038E1
3.623440533E1,3.351984620E-1,-3.620143414E0,1.502407455E1
3.628640032E1,-4.415042877E0,2.633702382E-2,1.309189510E1
3.633839392E1,-7.168458939E0,-7.046350956E0,1.203841400E1
3.639038698E1,-6.316096783E0,-8.420664787E0,4.819674969E0
3.644238044E1,-8.688823700E0,-7.106207848E0,7.015225410E0
3.649437380E1,-7.465348721E0,-6.555524349E0,-2.695953369E0
3.654636719E1,-3.081431627E0,3.818868399E0,5.578660369E-1
3.659836107E1,8.499675393E-1,3.646480560E0,-3.893090725E0
3.665035473E1,3.091008663E0,6.510033131E0,1.984853864E0
3.670234806E1,1.668809533E0,4.441379547E0,2.676799297E0
3.675434125E1,-1.235445857E0,-8.092648983E-1,5.320078850E0
3.680633471E1,-3.131711483E0,-9.368797302E0,5.293741703E0
3.685832810E1,-1.532335877E0,-2.248224068E1,3.521978140E0
3.691032140E1,-1.896265626E0,-2.364346313E1,1.296020985E1
3.696231482E1,-1.005834866E1,-9.957788467E0,7.089447498E0
3.701430907E1,-4.477293789E-1,-4.326454639E0,1.075747681E1
3.706630230E1,-4.927417755E0,-5.068679810E0,8.066311836E0
3.711829569E1,-9.035993576E0,-1.612065315E1,1.553405476E1
3.717028908E1,-9.277814865E0,-1.077663136E1,1.210066509E1
3.722228268E1,-7.494080067E0,-1.371919513E0,4.898686409E0
3.727428053E1,-2.396669149E0,-6.392713785E-1,4.405465603E0
3.732627818E1,4.620950520E-1,-1.393467903E0,2.909043789E0
3.737827238E1,4.592218876E0,-7.470137596E0,-1.733454943E0
3.743026607E1,-1.520364523E0,-6.629746914E0,-4.424619675E0
3.748225906E1,-1.558672905E0,1.031453609E1,4.146883965E0
3.753425239E1,4.448562622E0,7.867587090E0,2.152452946E0
3.758624591E1,1.424593568E0,-1.515576005E0,7.877163887E-1
3.763823917E1,-6.012023926E0,-1.359469223E1,1.061621475E1
3.769023256E1,1.551490068E0,-2.783105087E1,2.157241583E0
3.774222692E1,-1.346779537E1,-1.818930626E1,2.403851986E0
3.779422024E1,-8.030397415E0,-6.043149471E0,4.604190350E0
3.784621340E1,-5.066285610E0,-1.376708031E1,9.076695442E0
3.789820683E1,-8.533195496E0,-7.211555958E0,1.125309181E1
3.795020039E1,-4.549122334E0,-2.423006058E0,5.384724140E0
3.800219332E1,9.361614585E-1,-7.996878028E-1,7.407886028E0
3.805418677E1,-4.429408312E-1,5.937801600E-1,4.113364220E0
3.810618106E1,-3.711125851E-1,1.340793967E-1,2.466103077E0
3.815817448E1,2.897072554E0,5.305713177E0,9.785401344E0
3.820823223E1,4.953754425E0,3.876330853E0,3.373533249E0
3.826022569E1,1.103760719E0,-3.900273561E0,1.070719719E1
3.831221908E1,8.693612099E0,3.177202702E0,5.535563469E0
3.836421500E1,4.041535854E0,-1.187560320E0,-1.905842781E0
3.841620963E1,1.946545362E0,-7.702382088E0,2.858764172E0
3.846820299E1,2.178790092E0,-1.348694992E1,-7.089447498E0
3.852019631E1,-2.301616287E1,-2.560676956E1,-1.005595401E-1
3.857218970E1,-5.106987953E0,-1.562503719E1,3.945764780E0
3.862418300E1,4.103786945E0,-1.554842091E1,1.467690468E1
3.867617629E1,6.273000240E-1,-1.628825188E1,2.121566963E1
3.872816998E1,-1.138717079E1,-3.186779737E0,1.232093811E1
3.878016410E1,-4.039141655E0,7.350423932E-1,1.018045616E1
3.883215736E1,7.158881426E-1,4.077449799E0,8.995290756E0
3.888415072E1,-1.017566800E0,4.678412914E0,5.197970390E0
3.893614408E1,-2.442160368E0,3.529160976E0,2.121327400E0
3.898813734E1,-8.719948769E0,-5.044736862E0,3.641691923E0
3.904013090E1,-9.385557175E-1,-8.966559410E0,-7.455771923E0
3.909212402E1,1.312062621E0,-8.463761330E0,-1.407833576E0
3.914411778E1,1.141829681E1,-2.921015322E-1,4.573064804E0
3.919611173E1,-4.070267081E-1,-1.057551193E1,8.882759094E0
3.924810499E1,-2.540325642E0,-2.287490082E1,7.134938836E-1
3.930009845E1,-7.644919395E0,-1.419326115E1,8.897125244E0
3.935209178E1,8.827691078E0,-1.776073074E1,1.514139366E1
3.940408870E1,-2.480468750E0,-1.480380154E1,1.295542145E1
3.945608692E1,-1.230896664E1,-6.684815407E0,1.285007286E1
3.950808194E1,-1.400650787E1,-6.392713785E-1,1.403763294E1
3.956007504E1,-4.288146019E0,-2.154847383E-1,1.159307861E1
3.961206849E1,-2.513988495E0,3.584229469E0,9.967366219E0
3.966406172E1,1.022355318E0,1.735849261E0,6.431022167E0
3.971605518E1,-3.572257996E0,-2.894678354E0,1.869928598E0
3.976804837E1,-1.721483612E1,-1.340793967E-1,9.993702888E0
3.982004183E1,-7.829278708E-1,4.295329094E0,7.283383846E0
3.987203568E1,-3.414235830E0,4.649681568E0,-3.371139050E0
3.992402937E1,-2.078230619E0,-4.008016109E0,-1.175588894E1
3.997602280E1,-2.073441982E0,-4.127729893E0,-6.203566074E0
4.002801616E1,3.064671755E-1,-4.721509933E0,1.668809533E0
4.008000939E1,-7.398309112E-1,-1.256036568E1,5.329655647E0
4.013200278E1,-8.492492676E0,-2.707924843E1,1.631698227E1
4.018399611E1,-1.170800400E1,-2.315263748E1,1.546701527E1
4.023598950E1,-8.382355690E0,-1.127464008E1,1.399453640E1
4.028798355E1,-4.656864643E0,-4.412648678E0,1.307513428E1
4.033997704E1,-2.255406857E0,-2.537931204E-1,1.040312386E1
4.039197043E1,-3.591412306E-1,2.035133541E-1,6.028783798E0
4.044396386E1,-1.388679385E0,-3.648874760E0,2.662433624E0
4.049595925E1,-1.359948039E0,-2.097384691E0,7.539571285E0
4.054795441E1,-7.364789486E0,-1.429382086E0,1.383890820E1
4.059994780E1,-7.168458939E0,1.199531674E0,1.483013821E1
4.065194116E1,-9.150918007E0,-6.225114465E-1,5.138113976E0
4.070393465E1,-5.858790398E0,-3.316070557E0,1.336005330E0
4.075592778E1,3.452544212E0,-9.577099234E-2,-6.052726746E0
4.080792114E1,8.597841263E0,1.807677507E0,-4.060689926E0
4.085991446E1,3.059883118E0,-1.632895470E0,3.495641351E-1
4.091190851E1,-7.697593689E0,-4.697088242E1,2.980872154E0
4.096390217E1,-1.515815353E1,-2.897311974E1,1.477267551E1
4.101589550E1,-6.256239891E0,-1.112380123E1,1.229460144E1
4.106788876E1,-4.465322495E0,-1.146857619E0,1.040073013E1
4.111988225E1,-4.450956821E0,1.412622184E-1,5.832453251E0
4.117187561E1,-3.682394743E0,-9.457385540E-1,3.720703125E0
4.122386880E1,3.112557232E-1,-5.353598595E0,-4.716721475E-1
4.127586226E1,-1.711906433E0,-2.753416002E-1,4.580247879E0
4.132785638E1,-4.216318130E0,-3.883513689E0,4.175615311E0
4.137984984E1,-1.920926666E1,-2.233858347E0,9.263449669E0
4.143184313E1,-3.565075159E0,5.073468208E0,3.723097324E0
4.148383652E1,-1.407833576E0,-2.370332032E-1,7.570696831E0
4.153583234E1,-3.955342054E0,-8.949799538E0,4.573064804E0
4.158783123E1,4.395888329E0,-1.916377640E1,-2.190761566E0
4.163982656E1,-5.631334305E0,-2.617181778E1,-1.206714511E0
4.169181978E1,-8.684034348E0,-2.257801056E1,6.126949310E0
4.174381321E1,-4.120546818E0,-1.701850510E1,6.907482624E0
4.179580664E1,-2.952140808E0,-5.602602959E0,4.616161823E0
4.184779983E1,-7.541965842E-1,-1.309668303E0,3.129317284E0
4.189979322E1,4.161249638E0,2.195549965E0,6.091034889E0
4.195178651E1,8.104619980E0,9.385557175E-1,5.528380394E0
4.200378004E1,9.864411950E-1,3.423812985E-1,2.767781734E0
4.205577426E1,-6.711152077E0,5.372752666E0,2.588211060E0
4.210776751E1,-7.374366522E-1,1.046537495E1,9.464568138E0
4.215976084E1,-6.043149471E0,1.614938354E1,5.842030644E-1
4.221175433E1,-4.055901527E0,-1.793790627E1,8.605023384E0
4.226374752E1,-8.030397415E0,-4.230444336E1,1.070240879E1
4.231574092E1,-2.492439985E0,-1.427945518E1,4.470110893E0
4.236773424E1,-7.901107073E-1,-1.365454960E1,3.502824068E0
4.241972787E1,-2.990449190E0,-1.431536865E1,-4.046324492E-1
4.247172199E1,-7.778998852E0,-5.983292580E0,5.854001999E0
4.252371525E1,-6.780586243E0,-1.843591571E0,4.606584549E0
4.257570857E1,-4.280963421E0,3.797319889E0,2.126116037E0
4.262770336E1,-1.012778282E0,2.995237827E0,3.770982742E0
4.267969922E1,2.212309837E0,4.321666241E0,4.618556023E0
4.273169261E1,6.773403645E0,3.414235830E0,2.001613855E0
4.278368591E1,-9.648927450E-1,1.600572777E1,1.470084786E0
4.283567930E1,2.102173328E0,6.871568561E-1,1.702329397E0
4.288767262E1,-7.240286827E0,-5.349767685E1,-6.275394440E0
4.293966585E1,-8.317710876E0,-2.792682076E1,7.709565163E-1
4.299165924E1,3.763799906E0,-1.247896004E1,2.253012657E0
4.304365323E1,-2.099778891E0,-4.862771988E0,2.545114040E0
4.309564689E1,-3.615355015E0,-3.100585938E0,4.201952457E0
4.314764028E1,-3.787742853E0,-2.197944164E0,4.520390987E0
4.319963357E1,-5.379935265E0,-3.586623669E0,6.241874218E0
4.325162706E1,-1.247417212E0,-4.884320736E0,7.211555958E0
4.330362039E1,1.723877788E-1,-1.620923996E0,6.356799603E0
4.335561362E1,3.162837029E0,1.515576005E0,7.357606411E0
4.340760691E1,-1.879505754E0,-4.194769382E0,5.655277252E0
4.345960087E1,-1.910631299E0,6.610592842E0,3.778165579E0
4.351159469E1,-4.477293789E-1,-8.403904915E0,-3.857176781E0
4.356358811E1,3.591412306E-1,-3.026363373E1,8.183630943E0
4.361558127E1,-7.963357925E0,-1.977192116E1,-5.722316504E-1
4.366757629E1,-4.884320736E0,-1.778227806E1,5.923435688E0
4.371957518E1,-8.339259148E0,-1.207432747E1,6.720729351E0
4.377157191E1,-6.304125786E0,-6.545947552E0,9.833286285E0
4.382356570E1,-7.122967720E0,-2.923409462E0,7.680833817E0
4.387555899E1,-2.765387297E0,1.915419847E-1,5.652883053E0
4.392755229E1,1.659232497E0,2.341600657E0,5.552323341E0
4.397954568E1,5.420638084E0,3.134105682E0,3.052700281E0
4.403153894E1,2.705530524E-1,-2.468497276E0,3.792531252E0
4.408353266E1,-2.988054991E0,2.968900800E-1,8.791776657E0
4.413552678E1,5.578660369E-1,7.709565163E-1,-4.659258842E0
4.418751998E1,-1.101366431E-1,-1.273275375E1,8.214756966E0
4.423951340E1,2.815667152E0,-2.091877937E1,2.166818619E0
4.429150673E1,-7.412674904E0,-1.060903168E1,-3.830839694E-2
4.434349999E1,-1.095620155E1,-7.264229774E0,5.602602959E0
4.439549335E1,3.866753817E0,-1.281655312E1,1.824437332E1
4.444748664E1,-8.628966331E0,-1.301048946E1,1.021876526E1
4.449948056E1,-1.178701496E1,-3.799714088E0,7.273807049E0
4.455147448E1,-5.504437923E0,-2.320052385E0,5.348809719E0
4.460346764E1,-2.353572130E0,4.501236677E-1,2.329629421E0
4.465546104E1,-2.142875910E0,-3.124528646E0,-3.359167576E0
4.470745429E1,-7.424646378E0,-1.083648777E1,-6.459753513E0
4.475944925E1,-1.041030693E1,1.862745762E0,-6.442993641E0
4.481144804E1,5.224307537E0,3.651269197E0,-8.001666069E0
4.486344429E1,1.490675449E1,7.611399651E0,-2.152452946E0
4.491543772E1,1.489717770E1,-3.272734070E1,2.230027580E1
4.496743105E1,7.925049663E-1,-3.255735016E1,6.979310989E0
4.501942434E1,1.302485466E0,-1.987966347E1,-1.759791970E0
4.507141773E1,-3.208328187E-1,-1.348216152E1,2.482862949E0
4.512341102E1,-2.154847383E-1,-5.341627121E0,1.001046276E1
4.517540435E1,-5.226701736E0,-3.675211906E0,1.727708626E1
4.522739801E1,-1.160983849E1,-8.930644989E-1,7.948992252E0
4.527939199E1,-7.324086666E0,1.970488191E0,-1.675992370E0
4.533138539E1,-4.580247879E0,-1.709512234E0,-7.793364525E0
4.538337878E1,-1.815818024E1,-2.548945045E1,2.668658638E1
4.543537207E1,-3.304099321E0,1.820367050E1,-3.665634632E0
4.548734037E1,-7.422251701E-1,-1.612065315E1,1.362102985E1
4.553933376E1,-1.201686573E1,-3.499711609E1,1.254599953E1
4.559132709E1,-1.659232497E0,-1.528983879E1,8.250671387E0
4.564332081E1,-3.830839694E-1,-3.035940409E0,9.960183144E0
4.569531470E1,-3.718308687E0,2.868341208E0,9.541185379E0
4.574730813E1,-8.516435623E0,-3.205934048E0,7.120573044E0
4.579930132E1,-1.111661816E1,-7.269018173E0,8.102226257E0
4.585129558E1,-5.789356709E0,-5.332049847E0,6.071880817E0
4.590329184E1,-2.423006058E0,-1.149251938E0,9.344854355E0
4.595528533E1,-2.961717844E0,1.987248063E0,7.336058140E0
4.600727889E1,-3.754222870E0,-2.444554567E0,-2.894678354E0
4.605927215E1,-8.822902679E0,-8.696005821E0,-5.181210518E0
4.611126541E1,2.753416002E-1,9.500482559E0,-8.703188896E0
4.616325877E1,7.582668304E0,-1.261782837E1,1.256754875E1
4.621525213E1,5.863578796E0,-2.760838318E1,9.517242432E0
4.626724585E1,-7.721536160E0,-2.835300255E1,5.303318501E0
4.631923980E1,-8.308133125E0,-1.263937664E1,6.622564316E0
4.637123309E1,-2.971295118E0,-7.944203854E0,1.228023529E1
4.642322642E1,-5.482889175E0,-4.273780346E0,6.969734192E0
4.647521978E1,-6.723123550E0,-6.225114465E-1,5.779779434E0
4.652721311E1,-1.587404251E0,2.628913641E0,7.620976925E0
4.657920643E1,-7.230709791E-1,2.037527800E0,5.540351868E0
4.663119976E1,-4.029564381E0,2.109356165E0,5.600208759E0
4.668319368E1,-1.080057335E1,-5.344021320E0,-2.355966330E0
4.673518750E1,-1.321639729E1,-8.801354408E0,-5.279376030E0
4.678718073E1,-6.603409767E0,4.881926537E0,-9.529213905E0
4.683917415E1,-1.405439258E0,3.871542454E0,3.399870098E-1
4.689116828E1,4.381522834E-1,-5.298530102E0,5.475706577E0
4.694316696E1,-6.318490982E0,-1.367849159E1,3.797319889E0
4.699516379E1,1.381975460E1,-3.042404938E1,2.427794695E0
4.704715741E1,-1.118605232E1,-2.072963142E1,7.719141960E0
4.709915077E1,-6.196382999E0,-1.392270756E1,7.743084908E0
4.715114420E1,-3.603383541E0,-7.269018173E0,7.484503269E0
4.720313749E1,-8.978530884E0,-2.880312681E0,6.045543671E0
4.725513082E1,-6.902694225E0,3.543526828E-1,3.272973776E0
4.730712421E1,-7.486897469E0,2.310475111E0,6.134131908E0
4.735911747E1,-5.353598595E0,1.786128998E0,5.176422119E0
4.741111162E1,-9.253871918E0,1.934574008E0,1.163617516E1
4.746310515E1,-1.141829681E1,6.938608170E0,6.155680656E0
4.751509854E1,-3.483669758E0,-1.769369125E0,1.948939681E0
4.756709183E1,-4.455745220E0,-6.818894863E0,-4.685595989E0
4.761908516E1,-4.920234680E0,1.031932473E0,-6.955368519E0
4.767107852E1,5.928224564E0,1.769369125E0,-1.252923965E1
4.772307204E1,1.211263657E1,-5.655277252E0,1.472000122E1
4.777506527E1,1.000806904E1,-1.514857674E1,8.758256912E0
4.782705945E1,-2.329389954E1,-3.813361359E1,9.244295120E0
4.787905274E1,-9.462174416E0,-2.294672966E1,4.008016109E0
4.793104630E1,-4.096604347E0,-8.870788574E0,1.076226521E1
4.798304006E1,-7.041562080E0,-2.181184292E0,9.469356537E0
4.803503625E1,-1.049650097E1,2.348783493E0,7.395915031E0
4.808703028E1,-1.111901188E1,1.142069101E0,4.956148624E0
4.813902350E1,-6.079063892E0,-1.280937076E0,5.305713177E0
4.819101686E1,-3.715914488E0,-5.068679810E0,4.259414673E0
4.824301022E1,-3.553103924E0,3.519583941E-1,1.056354046E1
4.829500355E1,-1.108549237E0,1.347976685E0,9.057541847E0
4.834699694E1,5.195576549E-1,-2.707924843E0,9.838075638E0
4.839899033E1,9.098244309E-1,1.510787368E0,5.226701736E0
4.845098442E1,3.632114887E0,5.147690773E0,-8.413481712E0
4.850297784E1,1.130097747E0,-3.263396502E0,-9.888355136E-1
4.855497120E1,-6.921848297E0,-1.732736588E1,1.203601933E1
4.860696453E1,-4.415042877E0,-2.751261139E1,-9.313728809E-1
4.865895792E1,-1.245980644E1,-1.763383484E1,7.628159523E0
4.871095138E1,-8.810931206E0,-5.535563469E0,1.203841400E1
4.876294457E1,-3.466909885E0,-3.641691923E0,8.612206459E0
4.881493806E1,-3.052700281E0,-1.903448462E0,7.623371124E0
4.886693232E1,-3.603383541E0,-1.369525194E0,7.381549358E0
4.891892561E1,-3.768588543E0,-3.445361376E0,8.614601135E0
4.897091884E1,-3.727885962E0,-2.631308079E0,9.134158134E0
4.902291253E1,-6.675238132E0,-8.858817071E-2,9.490905762E0
4.907491081E1,-5.885127544E0,1.391073704E0,1.330737972E1
4.912690837E1,1.051086664E0,-8.087860107E0,3.672817469E0
4.917890330E1,5.566689014E0,4.687990189E0,-4.161249638E0
4.923089659E1,6.996070862E0,2.971295118E0,-8.308133125E0
4.928288995E1,2.427794695E0,-1.391073704E0,-3.275367975E0
4.933488335E1,5.842030644E-1,-1.295302677E1,8.679245949E0
4.938687661E1,-1.772481728E1,-3.215750504E1,4.134912491E0
4.943887003E1,-1.576390553E1,-2.456525993E1,7.757450581E0
4.949086379E1,-6.306519985E0,-1.228023529E1,9.402317047E0
4.954285764E1,-9.165284157E0,-4.357580185E0,6.258634567E0
4.959485097E1,-4.862771988E0,-8.739103079E-1,5.834847927E0
4.964684426E1,-2.621730804E0,2.736656189E0,3.261002302E0
4.969883768E1,-2.681587934E-1,2.298503816E-1,5.604997158E0
4.975083098E1,-6.632141471E-1,-5.906675816E0,-2.801301479E-1
4.980282424E1,-1.151646137E0,-1.400650740E0,7.314509392E0
4.985481773E1,4.788549542E-1,1.269205093E1,1.556278616E-1
4.990681188E1,1.089395046E1,1.096577835E1,4.822069645E0
4.995880524E1,3.311282158E0,-5.506832123E0,1.058269501E1
5.001079880E1,-3.727885962E0,-3.054137039E1,1.546701550E0
5.006279199E1,-5.276981831E0,-2.043753052E1,-7.769421577E0
5.011478548E1,-7.757450342E-1,-1.266331959E1,2.695953369E0
5.016678364E1,6.261028767E0,-1.755003357E1,6.062304020E0
5.021878116E1,3.146077156E0,-1.101126957E1,1.548138046E1
5.027077532E1,-2.825244188E0,-5.739076614E0,8.470944405E0
5.032276875E1,-2.662433624E0,-1.005595446E0,9.941028595E0
5.037476217E1,-6.816500187E0,1.616135478E0,3.533949614E0
5.042675533E1,-6.505244732E0,2.123721838E0,3.811685562E0
5.047874862E1,-8.341653824E0,1.338399649E0,-7.350423932E-1
5.053074195E1,-6.268211365E0,8.212362528E-1,1.618529797E0
5.058273578E1,5.171633363E-1,-3.217905283E0,-7.278595448E0
5.063472973E1,-2.226675600E-1,-1.474155045E1,-6.392713785E-1
5.068672326E1,8.954587579E-1,-7.992089272E0,5.341627121E0
5.073871638E1,-5.470917702E0,-3.368744659E1,3.172414064E0
5.079070977E1,-8.729525566E0,-1.605600739E1,8.121379852E0
5.084270310E1,-9.888355136E-1,-9.687235832E0,8.020820618E0
5.089469642E1,-4.989668846E0,-4.948966026E0,5.681613922E0
5.094668988E1,-5.123748302E0,-5.815693378E0,6.284971237E0
5.099868318E1,-8.411087036E0,-7.589851379E0,8.001666069E0
5.105067726E1,-9.785401344E0,-9.596253395E0,1.039594078E1
5.110267072E1,-5.648094177E0,-5.736682415E0,8.159688950E0
5.115466401E1,-2.853975534E0,-3.541132450E0,4.161249638E0
5.120665760E1,1.510787368E0,-2.921015322E-1,4.659258842E0
5.125865376E1,-6.261028767E0,4.601796150E0,4.652075768E0
5.131064812E1,7.324086666E0,7.996877670E0,-1.354441261E1
5.136264151E1,4.424619675E0,8.736708641E0,3.258608103E0
5.141463484E1,-7.233104229E0,-1.847661781E1,1.948700333E1
5.146662810E1,-9.897932053E0,-3.493246841E1,-9.936240315E-1
5.151862156E1,-1.053720379E1,-1.375271416E1,6.464541912E0
5.157061495E1,-1.963305354E0,-8.300951004E0,8.068706512E0
5.162260817E1,2.185972929E0,-2.018373728E0,6.612987041E0
5.167460232E1,-2.746233225E0,-1.755003452E0,8.775016785E0
5.172659568E1,-5.877944469E0,-1.520364523E0,1.076226521E1
5.177858901E1,-6.057515144E0,-4.494053841E0,1.225868702E1
5.183058243E1,-6.732700825E0,-4.149278164E0,9.799766541E0
5.188257583E1,-6.608198643E0,-5.585843086E0,6.878751755E0
5.193456908E1,-6.004841328E0,-3.646480560E0,4.561093330E0
5.198656231E1,-1.589798450E0,1.604164094E-1,1.316851139E0
5.203855633E1,-1.319245458E0,-2.861158371E0,-3.833234072E0
5.209055012E1,-1.376708031E0,3.737462997E0,-5.784567833E0
5.214254345E1,1.192348838E0,4.359974384E0,-1.266571403E0
5.219453677E1,4.467716694E0,-8.274613380E0,-1.066649437E1
5.224653027E1,-3.345999146E1,-3.225806427E1,-4.142095447E-1
5.229852742E1,-1.061382008E1,-1.638162804E1,1.140153694E1
5.235052548E1,2.260195494E0,-1.323555088E1,1.825634575E1
5.240252107E1,-5.758230686E0,-6.950579643E0,1.270881081E1
5.245451440E1,-6.620169640E0,-4.731087208E0,1.198573971E1
5.250650782E1,-4.187586784E0,2.205127001E0,1.288359261E1
5.255850118E1,-5.868367672E0,2.054287672E0,6.761432171E0
5.261049454E1,-7.846038342E0,-1.280937076E0,7.041562080E0
5.266248794E1,-1.125788021E1,-6.419050694E0,3.380716085E0
5.271448189E1,-7.987300873E0,-4.333637238E0,4.474899769E0
5.276452947E1,-5.612180233E0,-3.838022470E0,-1.192348838E0
5.281652253E1,-3.495641232E0,-7.862798691E0,-4.158855438E0
5.286851596E1,-3.028757572E0,-6.871568680E0,-1.352765322E0
5.292050931E1,-1.197137404E-2,-2.178790122E-1,-5.703162670E0
5.297250257E1,-9.672870040E-1,-1.681020355E1,-1.356835556E1
5.302449607E1,-8.581081390E0,-2.516861725E1,8.037580490E0
5.307648926E1,-4.022381604E-1,-1.690357971E1,1.986529732E1
5.312848325E1,-2.463708878E0,-1.253163433E1,1.728905869E1
5.318047697E1,-1.263458824E1,-5.875550270E0,1.159547329E1
5.323247026E1,-9.668081284E0,-1.003201127E0,1.207672215E1
5.328446362E1,-8.561926842E0,-2.616942406E0,1.025228500E1
5.333645701E1,-1.065212822E1,-1.417410731E0,2.784541607E0
5.338845387E1,-9.852440834E0,-1.774157643E0,6.632141471E-1
5.344045219E1,-6.962551117E0,-1.525153041E0,-7.087053657E-1
5.349244698E1,-3.268185139E0,-2.494834423E0,-2.128510237E0
5.354444031E1,-7.008042336E0,-4.213923454E0,-4.659258842E0
5.359643363E1,6.663266659E0,5.162056446E0,-1.087000728E0
5.364842702E1,1.589798450E0,2.487651587E0,-1.750214934E0
5.370042035E1,-4.956148624E0,-6.694392204E0,7.652102470E0
5.375241361E1,-5.080651283E0,-1.851492691E1,2.083019018E0
5.380440700E1,-6.589044094E0,-2.679672432E1,1.265613651E1
5.385640135E1,-9.378374100E0,-1.720046997E1,5.090228081E0
5.390839454E1,-6.265817165E0,-1.113337803E1,7.355212212E0
5.396038807E1,-7.249864101E0,-5.887521744E0,7.297749519E0
5.401238140E1,-8.681640625E0,-3.596200705E0,5.956955910E0
5.406437459E1,-8.506858826E0,-2.372726440E0,6.790163517E0
5.411636805E1,-7.649707794E0,-6.328068256E0,1.482056141E0
5.416836131E1,-9.883566856E0,-6.198777676E0,-7.972934842E-1
5.422035483E1,-2.753416002E-1,-2.497228622E0,1.073832226E1
5.427234908E1,-4.788549542E-1,-2.083019018E0,1.096338463E1
5.432434231E1,-6.289760113E0,1.096577883E0,5.439792156E0
5.437633580E1,-2.298503876E0,1.558672905E0,3.938581944E0
5.442832920E1,-2.360754967E0,4.309694767E0,3.419024467E0
5.448032448E1,3.955342054E0,2.588211060E0,2.475680113E0
5.453231964E1,6.522004604E0,-3.811685562E0,3.878725171E-1
5.458431297E1,7.087053657E-1,-2.341600657E0,3.931399345E0
5.463630640E1,-5.511620522E0,-3.102980137E0,-1.027143836E0
5.468829972E1,-5.736682415E0,-2.792921638E1,9.557945251E0
5.474029298E1,-1.772721100E1,-2.077272797E1,1.398735332E1
5.479228641E1,-7.484503269E0,-8.971347809E0,1.154279900E1
5.484427983E1,-3.038334846E0,-5.528380394E0,9.713572502E0
5.489627401E1,-6.155680656E0,-3.981678963E0,8.485309601E0
5.494826747E1,-5.779779434E0,-5.442186832E0,8.707977295E0
5.500026070E1,-7.218738556E0,-8.767834663E0,8.411087036E0
5.505225399E1,-8.868393898E0,-1.099690437E1,5.588237286E0
5.510424752E1,-6.883540154E0,-5.300924301E0,2.123721838E0
5.515624074E1,-2.415823221E0,-6.392713785E-1,2.183578730E0
5.520823404E1,4.644893169E0,3.086220264E0,2.681587696E0
5.526022773E1,6.538764477E0,-1.501210332E0,8.626572609E0
5.531222171E1,2.411034822E0,2.011190802E-1,-4.810098171E0
5.536421507E1,8.133351326E0,5.571477413E0,-5.387118340E0
5.541620840E1,4.039141655E0,-2.298503876E0,7.948992252E-1
5.546820172E1,-3.797319889E0,-1.821564293E1,1.876153755E1
5.552019758E1,-7.999272346E0,-3.787742615E1,5.944984436E0
5.557219640E1,-1.596263027E1,-1.104000092E1,3.960130453E0
5.562419176E1,-5.394300938E0,-1.073592854E1,3.687183142E0
5.567618502E1,1.053480864E0,-8.286584854E0,2.162030220E0
5.572817864E1,-1.731060743E0,-8.734314919E0,6.560313106E-1
5.578017177E1,-9.718361855E0,-8.406298637E0,5.281770229E0
5.583216500E1,-9.024022102E0,-5.880339146E0,6.706363678E0
5.588415842E1,-2.592999697E0,-8.092648983E-1,7.594639778E0
5.593615178E1,3.395081758E0,-1.929785490E0,4.163643837E0
5.598814583E1,1.251008606E1,1.661626697E0,-1.620923996E0
5.604013966E1,5.044736862E0,1.011102295E1,-1.618529797E0
5.609213275E1,4.213923812E-1,5.073468208E0,-1.649655342E0
5.614412608E1,-2.729473412E-1,-1.001764584E1,1.391552544E1
5.619611970E1,-8.739103079E-1,-2.752937126E1,1.236882401E1
5.624811276E1,-5.887521744E0,-2.568338585E1,4.118152559E-1
5.630010612E1,-3.770982742E0,-1.194264317E1,4.608979225E0
5.635209951E1,-8.296162605E0,-8.801354408E0,9.227535248E0
5.640409340E1,-4.477293968E0,-6.845231533E0,8.466156006E0
5.645608715E1,-5.784567833E0,-3.993650436E0,6.869174480E0
5.650808051E1,-4.592218876E0,-2.080624819E0,7.273807049E0
5.656007387E1,-2.449343204E0,-5.770202279E-1,7.417463303E0
5.661206863E1,-2.128510237E0,-1.403045058E0,1.063536835E1
5.666406449E1,-5.698373914E-1,-3.069460392E0,1.319245458E0
5.671605791E1,-2.513988614E-1,-6.749460697E0,2.667222023E0
5.676805114E1,4.300117493E0,4.956148624E0,-6.486090660E0
5.682004450E1,3.110162973E0,-1.352765322E0,-3.598595142E0
5.687203782E1,-7.685621977E-1,-6.150891781E0,7.680833817E0
5.692403112E1,-2.341600657E0,-1.056593513E1,8.174054146E0
5.697602457E1,-7.304932594E0,-2.098821259E1,8.638543129E0
5.702801876E1,-1.462901878E1,-1.335047626E1,8.612206459E0
5.708001218E1,-9.543579102E0,-1.269683933E1,1.299372959E1
5.713200551E1,-6.584255695E0,-6.615381241E0,8.085466385E0
5.718399900E1,-5.226701736E0,-5.059102535E0,6.012023926E0
5.723599216E1,-1.015172482E0,-2.897072554E0,3.763799906E0
5.728798552E1,-6.320885420E-1,-3.383110285E0,4.307300568E0
5.733997885E1,6.239480019E0,-1.019961119E0,3.284945011E0
5.739197237E1,7.223526955E0,-8.858816624E-1,3.191568375E0
5.744396652E1,3.782954216E-1,9.723150253E0,-1.752609134E0
5.749595982E1,1.845985889E0,-2.130904645E-1,-2.047105074E0
5.754795318E1,5.027977005E-2,-1.024510193E1,1.309428883E1
5.759994664E1,-4.400677204E0,-2.842243576E1,1.531617641E1
5.765194176E1,-2.664827824E0,-1.893871307E1,-5.578660369E-1
5.770394035E1,-3.272973776E0,-6.627352715E0,1.010383964E0
5.775593704E1,-4.778972626E0,-3.725491524E0,5.008822918E0
5.780793080E1,1.644866824E0,-7.213950157E0,1.294584370E1
5.785992416E1,-6.019207001E0,-7.656890869E0,1.300809479E1
5.791191762E1,-2.712713242E0,-1.256994247E1,9.711178780E0
5.796391098E1,-5.820482254E0,-7.630553722E0,6.969734192E0
5.801590417E1,-2.674404860E0,1.903448462E0,5.978504181E0
5.806789769E1,7.802941799E0,3.466909885E0,5.755836487E0
5.811989201E1,5.822876453E0,-8.068706393E-1,2.777358770E0
5.817188540E1,-6.043149471E0,2.978477955E0,-1.419804931E0
5.822387870E1,-8.978530765E-1,3.495641232E0,-5.286558628E0
5.827587202E1,-4.381522834E-1,-7.307326794E0,7.151699066E0
5.832786518E1,-5.171633720E0,-5.988560104E1,-8.834874034E-1
5.837985861E1,-8.516435623E0,-1.971445847E1,4.743058205E0
5.843185190E1,-1.913025618E0,-6.885934353E0,6.170046329E0
5.848384589E1,-5.698373914E-1,-1.944151163E0,7.391126156E0
5.853583968E1,-1.046298146E0,-1.369525194E0,8.796566010E0
5.858783294E1,-4.077449799E0,1.915419847E-2,9.416683197E0
5.863982626E1,-7.249864101E0,-2.928198099E0,6.804529190E0
5.869181976E1,-8.451789856E0,-4.747847080E0,3.890696526E0
5.874381468E1,-9.799766541E0,-6.502850533E0,4.429408312E-1
5.879581330E1,-9.859623909E0,3.423812985E-1,2.633702159E-1
5.884780942E1,1.229938984E1,1.002243423E1,2.899466753E0
5.889980308E1,-2.660039425E0,4.046324492E-1,-1.913025618E0
5.895179641E1,3.519583941E0,-2.809920883E1,6.308914185E0
5.900378954E1,-4.060689926E0,-2.400260544E1,-3.519583941E-1
5.905578300E1,3.459727049E0,-2.148143387E1,3.888302326E0
5.910777622E1,-9.361614585E-1,-1.338160229E1,5.497254848E0
5.915976958E1,-2.894678354E0,-6.596227169E0,7.573091030E0
5.921176354E1,-6.158074856E0,-2.473285913E0,4.343214512E0
5.926375732E1,-6.009629726E0,3.498035431E0,2.255406857E0
5.931575058E1,-5.818088055E-1,6.866780281E0,7.429434776E0
5.936774414E1,9.337671995E-1,5.425426483E0,7.714353561E0
5.941973730E1,-3.742251635E0,4.676018715E0,1.668809533E0
5.947173066E1,-5.530774593E0,9.184437752E0,8.403904438E-1
5.952372396E1,-6.687209606E0,-1.733454943E0,1.611346960E0
5.957571735E1,-1.843591571E0,-5.412736893E1,3.021574736E0
5.962771187E1,-7.886741161E0,-3.050784874E1,-4.618556023E0
5.967970526E1,2.906649590E0,-1.332892799E1,2.059076309E0
5.973169838E1,4.321666241E0,-1.097535610E1,5.502043724E0
5.978369164E1,-1.721483588E0,-7.225921154E0,2.688770533E0
5.983568587E1,-4.549122334E0,-6.416656494E0,3.909850836E0
5.988768206E1,-6.002447128E0,-6.612987041E0,3.969707727E0
5.993967565E1,-4.364762783E0,-1.326428294E0,5.791750908E0
5.999166904E1,-6.217931747E0,-1.441353440E0,5.889915943E0
6.004362558E1,6.727912426E-1,1.245022863E-1,7.934626579E0
6.009561881E1,4.759818554E0,1.337681293E1,-1.994430900E0
6.014761230E1,2.080624819E0,6.153286457E0,-9.984126091E-1
6.019960563E1,9.347249031E0,-9.021627426E0,8.731920242E0
6.025159961E1,-4.570670605E0,-4.297723389E1,-2.801301479E0
6.030359337E1,-1.369525146E1,-2.281504440E1,-2.394274808E-2
6.035558660E1,-4.597007632E-1,-1.427227211E1,5.607391834E0
6.040757992E1,-6.526793003E0,-8.324893951E0,4.197163582E0
6.045957328E1,-8.432636261E0,-3.639297724E0,5.389512539E0
6.051156668E1,-4.580247879E0,-1.398256540E0,5.099805355E0
6.056355993E1,-3.062277555E0,6.656084061E-1,5.691191196E0
6.061555329E1,-3.399870157E0,4.142095447E-1,6.888328552E0
6.066754745E1,-4.666441441E0,1.766974807E0,1.625951958E1
6.071954097E1,1.867534369E-1,-5.075862408E0,1.670964432E1
6.077153423E1,-2.444554567E0,-3.318464994E0,1.251966286E1
6.082352765E1,3.701548815E0,-4.539545059E0,-1.491393757E1
6.087552174E1,9.873989105E0,9.785401344E0,-1.106394386E1
6.092752046E1,1.247656631E1,-2.653335381E1,8.447001457E0
6.097951732E1,-2.073681450E1,-2.362191582E1,9.689630508E0
6.103151095E1,-1.735849261E0,-1.565616322E1,8.411087036E0
6.108350427E1,-3.011997700E0,-1.149970150E1,7.594639778E0
6.113549773E1,-7.374366522E-1,3.079037428E0,1.049171257E1
6.118749096E1,-4.328848839E0,2.037527800E0,6.960156918E0
6.123948432E1,-7.860404015E0,3.375927508E-1,-6.273000240E-1
6.129147768E1,-1.208869362E1,4.695172787E0,-4.237866402E0
6.134347114E1,-1.018524456E1,7.190007210E0,3.617749214E0
6.139546532E1,8.786988258E-1,2.129228592E1,7.625765324E0
6.144745868E1,6.830865860E0,6.873962879E0,1.365933800E1
6.149945197E1,-7.175641537E0,-3.383349609E1,1.006313705E1
6.155144533E1,-1.131534290E1,-2.516143417E1,-1.122675419E1
6.160343862E1,2.495792007E1,-1.828747177E1,-3.688380432E1
6.165543205E1,-2.739050388E0,-1.434410000E1,6.064698219E0
6.170742528E1,4.489265442E0,-1.831859589E1,8.595446587E0
6.175941900E1,2.576239586E0,-2.626519442E0,1.477028084E1
6.181141305E1,2.315263748E0,-5.578660369E-1,2.334896851E1
6.186340634E1,2.176395893E0,1.898659945E0,2.491721725E1
6.191539970E1,-1.582615614E0,-2.264983892E0,1.537603283E1
6.196739349E1,-2.279349566E0,-5.980898380E0,1.599854469E1
6.201938975E1,-1.853168726E0,-4.398283005E0,1.258191395E1
6.207138374E1,-1.635289669E0,-8.379961550E-2,5.607391834E0
6.212337700E1,-9.601042271E-1,2.042316437E0,2.329629421E0
6.217537033E1,-8.044763207E-1,-2.147664547E0,-7.644919395E0
6.222736372E1,3.809291124E0,-9.605830193E0,-1.036002731E1
6.227935695E1,1.166011810E0,-1.775594139E1,2.535537004E0
6.233135037E1,1.352765274E1,-1.695864868E1,4.707144260E0
6.238334410E1,-2.153650284E1,-2.514946175E1,-1.180616951E1
6.243533802E1,-1.113098335E1,-6.498061657E0,9.261054993E0
6.248733138E1,7.977723598E0,-1.288119888E1,2.053569412E1
6.253932474E1,-8.715160370E0,-3.591412306E-2,1.642951393E1
6.259131810E1,-1.976713371E1,3.225088120E0,1.221080112E1
6.264331139E1,-6.691998005E0,1.110943556E0,1.410706711E1
6.269530478E1,-5.056708336E0,3.931399345E0,8.133351326E0
6.274729814E1,-1.231375504E1,1.204320192E0,5.260221958E0
6.279929183E1,-8.078283310E0,1.345821857E1,6.198777676E0
6.285128578E1,-5.569083214E0,3.383110285E0,7.673650742E0
6.290327908E1,2.588211060E0,-5.535563469E0,3.356773376E0
6.295527234E1,1.845985889E0,-1.735370445E1,6.241874218E0
6.300726606E1,2.624125242E0,-5.542746067E0,-9.320911407E0
6.305926441E1,-5.937801600E-1,-2.305686712E0,-1.530181026E1
6.311126187E1,3.136499882E0,-3.344801903E0,-2.130904675E0
6.316325677E1,4.956148863E-1,-1.522998238E1,2.454610443E1
6.321525016E1,6.184412003E0,-1.290993023E1,8.990502357E0
6.326724348E1,-1.665218163E1,-2.148622131E1,1.881181717E1
6.331923681E1,-7.515628815E0,-8.367990494E0,1.511745071E1
6.337123014E1,-1.719089270E0,-4.199557781E0,1.138956547E1
6.342322356E1,-7.204372883E0,-4.429408312E-1,9.567522049E0
6.347521778E1,-7.034379482E0,-7.996878028E-1,8.073494911E0
6.352721111E1,-9.926663399E0,-8.810931444E-1,1.773439407E1
6.357920463E1,-1.418128967E1,4.367157459E0,8.327287674E0
6.363119776E1,-4.898686409E0,1.905842781E0,1.170082092E1
6.368319108E1,5.025582790E0,-1.745426297E0,1.116450310E1
6.373518448E1,1.482056141E0,-2.202732801E0,7.498868465E0
6.378717774E1,1.819648892E-1,-8.933039665E0,-9.239506721E0
6.383917116E1,-4.436591148E0,-5.710345268E0,-1.499294853E1
6.389116545E1,1.666415215E0,9.313728809E-1,-1.256994247E0
6.394315881E1,3.335224867E0,6.392713785E-1,8.159688950E0
6.399515220E1,3.445361376E0,-6.668055534E0,1.260346222E1
6.404714539E1,6.632141113E0,-1.956840706E1,1.972164154E1
6.409913898E1,-1.382214832E1,-2.953098488E1,6.023995399E0
6.415113720E1,-1.238318920E1,-6.251451492E0,5.303318501E0
6.420313476E1,-9.332882881E0,1.328822494E0,1.730102921E1
6.425512879E1,-3.998439014E-1,2.044710636E0,1.551490116E1
6.430712231E1,-5.861184597E0,-2.753416002E-1,9.155706406E0
6.435911544E1,-1.130097675E1,-1.881899953E0,1.310386562E1
6.441110897E1,-1.055635738E1,-3.646480560E0,1.254599953E1
6.446310216E1,-5.312895775E0,-3.416630268E0,1.354680729E1
6.451509555E1,-8.770228386E0,-6.407079220E0,7.941809654E0
6.456708901E1,-9.577099234E-3,-2.729473352E0,9.330489159E0
6.461908309E1,3.232270956E0,-3.586623669E0,-9.076695442E0
6.467107648E1,-1.831620216E0,-8.698400497E0,-1.173194695E1
6.472306981E1,-3.375927508E-1,-4.091815472E0,-5.755836487E0
6.477506320E1,-3.155654192E0,-9.397528648E0,1.120999432E1
6.482705666E1,-2.138087511E0,-1.699216843E1,2.139284515E1
6.487904985E1,2.911438227E0,-1.822761345E1,1.208151054E1
6.493104331E1,-1.086521912E1,-1.022115898E1,1.184208298E1
6.498303707E1,-1.352765274E1,-2.856369734E0,1.100887585E1
6.503503079E1,-9.790189743E0,8.379961550E-2,6.838048935E0
6.508702422E1,-1.640078187E0,-2.253012657E0,1.387003422E1
6.513901751E1,3.505218267E0,-1.711906433E0,1.065931129E1
6.519101103E1,-1.606558442E0,-4.094210148E0,1.438959122E1
6.524300716E1,-5.983292580E0,-3.067065954E0,1.158829021E1
6.529500162E1,-3.675211906E0,-3.102980137E0,1.567531681E1
6.534699488E1,-1.154279900E1,-1.994430900E0,1.098253822E1
6.539898824E1,1.156434774E0,4.321666241E0,2.360754967E0
6.545098159E1,4.082238674E0,1.065452337E0,-1.689639664E1
6.550297489E1,2.298503816E-1,7.661679387E-1,-5.765413761E0
6.555496828E1,2.308080912E0,1.314456820E0,-1.527547359E0
6.560696217E1,1.541913033E0,-3.536343813E0,1.087719059E1
6.565895586E1,-3.215511084E0,-3.342168045E1,2.632744598E1
6.571094928E1,-8.559532166E0,-2.225478363E1,-5.066285610E0
6.576294261E1,-1.490914917E1,-1.525631905E1,5.760625362E0
6.581493590E1,-1.010623360E1,-2.880312681E0,8.109408379E0
6.586692933E1,-1.568249941E0,-2.741444588E0,7.563514233E0
6.591892262E1,-2.588211060E0,1.628106833E-1,7.858009815E0
6.597091581E1,-2.760598898E0,6.703969836E-2,5.715134144E0
6.602290977E1,-5.794144869E-1,-5.102199554E0,7.745479107E0
6.607490362E1,-1.437762070E1,-2.573845387E0,6.124555111E0
6.612689685E1,-1.528744507E1,1.151646137E1,2.201296234E1
6.617889027E1,1.606558442E0,1.522758722E0,5.968926907E0
6.623088367E1,6.383136749E0,2.729473352E0,-3.011997700E0
6.628288085E1,2.389486313E0,-1.824437380E0,2.087807655E0
6.633487908E1,4.070267081E-2,7.230709791E-1,8.114197731E0
6.638687364E1,1.699935079E0,-6.996070862E0,-4.822069645E0
6.643886693E1,-1.367609787E1,-3.019898796E1,1.058030033E1
6.649086025E1,-1.536645603E1,-1.759073639E1,1.304161453E1
6.654285358E1,-7.491685867E0,-1.007271385E1,9.895537376E0
6.659484691E1,-4.019987583E0,-3.155654192E0,8.741497040E0
6.664684020E1,-4.178009510E0,9.385557175E-1,5.995264053E0
6.669883359E1,-2.056682110E0,9.624984860E-1,5.379935265E0
6.675082784E1,-1.254600048E0,-1.096577883E0,6.921848297E0
6.680282147E1,-2.109356165E0,7.168458939E0,9.668081284E0
6.685481463E1,-1.740637779E0,3.603383541E0,8.980924606E0
6.690680809E1,-2.650462151E0,-4.137306690E0,5.351204395E0
6.695880128E1,3.962524891E0,-1.042467213E1,-4.367157459E0
6.701079477E1,2.250618339E-1,-1.025946712E1,1.295302677E1
6.706278833E1,-6.466936111E0,-8.600234985E0,4.501236439E0
6.711478136E1,3.988861799E0,-1.771284485E1,4.252232075E0
6.716677561E1,-2.226675510E0,-2.174480438E1,9.191620827E0
6.721876897E1,-4.843617916E0,-8.372778893E0,5.506832123E0
6.727076229E1,-1.596981287E0,-1.472718430E1,1.421480942E1
6.732273006E1,-6.512427330E0,-1.766017151E1,1.321879101E1
6.737472562E1,-4.266597748E0,-1.027143860E1,1.242628670E1
6.742672068E1,-3.806896806E-1,-5.588237286E0,1.291232395E1
6.747871397E1,5.626545906E0,-3.251425266E0,8.672063828E0
6.753070733E1,8.061523438E0,-7.070293427E0,2.727078915E0
6.758270065E1,5.559505939E0,-8.686429024E0,3.790137053E0
6.763469395E1,-6.835654736E0,-2.490045786E0,6.512427330E-1
6.768668734E1,-9.201197624E0,8.595446587E0,-1.740637779E0
6.773868066E1,4.501236677E-1,4.891503334E0,-6.814105988E0
6.779067481E1,7.795758724E0,-2.923409462E0,-1.460986519E1
6.784266830E1,4.082238674E0,-1.747820616E0,4.644893169E0
6.789466156E1,-3.179596901E0,-1.163138676E1,6.620169640E0
6.794665502E1,-1.211503029E0,-2.168734169E1,8.779806137E0
6.799864835E1,-5.897099018E0,-1.682217407E1,6.091034889E0
6.805064168E1,-6.134131908E0,-1.810550690E1,7.319298267E0
6.810263507E1,-8.111803055E0,-1.496421719E1,9.308940887E0
6.815462869E1,-6.241874218E0,-9.656110764E0,8.897125244E0
6.820662268E1,-4.929811954E0,-3.313676357E0,7.755055904E0
6.825861604E1,-2.327235222E0,2.090201855E0,8.540378571E0
6.831060930E1,-2.633702159E-1,1.484450340E0,6.574678421E0
6.836260269E1,-2.442160249E-1,3.117345810E0,3.720703125E0
6.841459901E1,6.873962879E0,-2.363149166E0,5.628940105E0
6.846659740E1,7.307326794E0,2.406246185E0,7.939415455E0
6.851859359E1,-1.587404251E0,-1.017806244E1,1.088676739E1
6.857058709E1,1.364736706E-1,5.839636326E0,-2.284138203E0
6.862258041E1,3.969707727E0,1.019961119E0,-6.232297421E0
6.867457384E1,2.674404860E0,-1.705920792E1,1.289795876E1
6.872656706E1,-9.505270720E-1,-3.203300095E1,7.968146324E0
6.877856036E1,-8.818114281E0,-1.400171947E1,1.223474383E0
6.883055448E1,-5.379935265E0,-1.808635139E1,3.454938650E0
6.888254810E1,2.128510237E0,-1.090592194E1,1.465775013E1
6.893454143E1,-3.146077156E0,-7.307326794E0,6.773403645E0
6.898653469E1,-6.507638931E0,-4.041535854E0,1.012299347E1
6.903852811E1,-4.723904133E0,-5.530774593E-1,8.118986130E0
6.909052144E1,-4.213923454E0,3.902668059E-1,4.036747456E0
6.914251473E1,-2.765387297E0,7.470137477E-1,9.088666916E0
6.919450809E1,-1.283331275E0,-2.030344963E0,9.222746849E0
6.924650231E1,6.586649895E0,6.620169640E0,-6.325674057E0
6.929849577E1,-1.115732074E0,4.053507328E0,-1.102084732E1
6.935048913E1,-2.004008055E0,-3.208328247E0,3.799714088E0
6.940248245E1,-9.682447433E0,-2.736895561E1,1.505519962E1
6.945447571E1,5.897099018E0,-1.980544090E1,2.904255390E0
6.950647187E1,-8.379961848E-1,-1.658992958E1,4.482082367E0
6.955847055E1,-4.249837875E0,-9.711178780E0,6.469330311E0
6.961046578E1,-8.140534163E-1,-5.221913338E0,8.123774529E0
6.966245907E1,-5.693585396E0,-9.165284157E0,8.312922478E0
6.971445240E1,-7.197190285E0,-8.245882034E0,1.224192715E1
6.976644582E1,-1.063058019E0,-6.352011204E0,9.502876282E0
6.981843905E1,-7.565908432E-1,-2.633702278E0,7.723930359E0
6.987043241E1,-5.458946824E-1,-2.815667152E0,5.006428719E0
6.992242583E1,9.840469360E-1,-1.556278586E0,2.705530524E-1
6.997441982E1,5.808510780E0,-4.788549617E-3,-1.051086664E0
7.002641354E1,7.944203854E0,1.218446445E1,-1.289795876E1
7.007840674E1,4.460534096E0,-8.356019258E-1,4.273780346E0
7.013040016E1,-9.273026466E0,-2.259955978E1,2.083498001E1
7.018239359E1,-3.160442710E-1,-2.789090729E1,-4.850800991E0
7.023438681E1,-1.764580536E1,-1.756918907E1,3.069460392E0
7.028638011E1,-7.431828976E0,-9.313729286E0,7.292961121E0
7.033837357E1,-2.657645047E-1,-4.802915096E0,8.399115562E0
7.039036765E1,-3.964919090E0,-6.328068256E0,8.693612099E0
7.044236118E1,-5.964138508E0,-7.443800449E0,8.365595818E0
7.049435447E1,-4.427014351E0,-9.876383781E0,7.237892628E0
7.054634779E1,-8.260248303E-1,-5.674431324E-1,1.707357407E1
7.059834278E1,1.415016413E0,-2.813272953E0,1.546701550E0
7.065033851E1,2.480468750E0,8.688823700E0,9.416683197E0
7.070233187E1,-1.920208454E0,3.399870157E0,3.964919090E0
7.075432513E1,5.482889414E-1,2.449343204E0,-7.558725357E0
7.080631849E1,1.096577883E0,-9.720755816E-1,-8.734314919E0
7.085831181E1,1.920208454E0,-2.703136206E0,5.834847927E0
7.091030507E1,-1.293866062E1,-2.789330101E1,1.651331329E1
7.096229880E1,-9.031204224E0,-2.753416061E1,6.608198285E-1
7.101429292E1,-8.080677032E0,-1.025467873E1,1.024031353E1
7.106628618E1,-5.794145107E0,-9.397528648E0,9.593858719E0
7.111827957E1,-4.108575344E0,-5.782173634E0,1.079817963E1
7.117027283E1,-2.774964571E0,-2.954535007E0,8.059128761E0
7.122226615E1,-4.103786945E0,-6.938608170E0,8.597841263E0
7.127425955E1,-3.464515686E0,-2.875524044E0,8.020820618E0
7.132625281E1,-4.022381604E-1,-2.549902678E0,4.872349262E0
7.137824663E1,-1.771763325E0,7.376760483E0,7.520417213E0
7.143024055E1,8.312922478E0,4.573064804E0,-7.199584484E0
7.148223391E1,5.154873848E0,7.206767082E0,-8.526012421E0
7.153422720E1,1.309668303E0,-5.698373914E-1,1.501210332E0
7.158622063E1,1.292908430E0,-1.166730118E1,1.773199844E1
7.163821575E1,-2.169213057E0,-2.193873978E1,-3.830839694E-2
7.169021470E1,-1.475112724E1,-2.657884407E1,3.507612705E0
7.174221056E1,-8.049551964E0,-1.695385933E1,4.386311531E0
7.179420402E1,-5.090228081E0,-1.142308521E1,4.767001152E0
7.184619741E1,-6.708757877E0,-7.707170486E0,5.470917702E0
7.189819080E1,-5.602602959E-1,-1.460507631E0,1.043664360E1
7.195018390E1,6.464541703E-2,-2.308080912E0,1.087000751E1
7.200217712E1,1.819648892E-1,-2.238646984E0,4.898686409E0
7.205417062E1,-5.674431324E-1,4.549122155E-1,4.201952457E0
7.210616444E1,-3.658451796E0,3.179596901E0,3.792531252E0
7.215815833E1,1.084606528E0,7.431828976E0,-8.226728439E0
7.221015175E1,1.139674783E0,3.955342054E0,4.261809289E-1
7.226214508E1,-1.245022863E-1,-9.277814865E0,1.273275375E1
7.231413827E1,-7.960963726E0,-2.483341789E1,3.275367975E0
7.236613163E1,-5.935407162E0,-2.054048347E1,9.318517685E0
7.241812492E1,-7.611399651E0,-5.109382629E0,2.315263748E0
7.247011828E1,-3.842811108E0,-8.480521202E0,6.778192043E0
7.252211244E1,-7.836461544E0,-8.856422424E0,9.012050629E0
7.257410596E1,-1.362102985E1,-1.181335163E1,8.130957603E0
7.262609925E1,-9.534002304E0,-5.765413761E0,7.158881664E0
7.267809274E1,-2.909043789E0,-2.683982134E0,5.106987953E0
7.273008697E1,-6.296942830E-1,-1.956122518E0,1.946545362E0
7.278208319E1,1.886688590E0,-6.440599442E0,1.711906433E0
7.283407655E1,3.091008663E0,9.636956215E0,-4.829252243E0
7.288607001E1,-4.357580245E-1,-2.667222023E0,6.316096783E0
7.293806334E1,-6.464541703E-2,-2.813272858E1,9.325700760E0
7.299005660E1,2.310475111E0,-2.811357498E1,4.750241280E0
7.304205006E1,-5.305713177E0,-1.555081463E1,1.857957244E0
7.309404332E1,-5.652883053E0,-6.246663094E0,5.956955910E0
7.314603704E1,-5.171633720E0,-8.834874034E-1,7.149304390E0
7.319803149E1,-4.757423878E0,9.577099234E-2,5.181210518E0
7.325002428E1,-3.150865555E0,-3.184385598E-1,6.550735950E0
7.330201768E1,-5.569083214E0,3.730280161E0,1.080296803E1
7.335401104E1,-1.272796535E1,-2.571451187E0,9.179649353E0
7.340600430E1,-8.104619980E0,-3.304099143E-1,8.059128761E0
7.345799766E1,-6.634535313E0,-2.260195494E0,3.996044636E0
7.350999098E1,-2.918621063E0,-1.240234375E0,-1.290514112E0
7.356198510E1,-4.668835998E-1,2.470891714E0,-2.904255390E0
7.361397859E1,3.936187744E0,2.530748367E0,-1.992036581E0
7.366597195E1,-5.581054688E0,-9.347249031E0,3.749434233E0
7.371796534E1,2.868341208E0,-3.472416687E1,4.498842239E0
7.376995963E1,-7.230710030E0,-2.044950104E1,2.640885115E0
7.382195842E1,-1.013975334E1,-1.448536301E1,6.924242973E0
7.387395561E1,-7.910684109E0,-7.623371124E0,9.737515450E0
7.392594954E1,-7.893924236E0,-3.272973776E0,1.330977345E1
7.397794300E1,-9.392740250E0,1.460507631E0,9.926663399E0
7.402993636E1,-7.134938717E0,2.008796453E0,7.807730198E0
7.408192965E1,-2.157241583E0,-9.601042271E-1,5.348809719E0
7.413392321E1,-6.823683381E-1,-6.323279858E0,5.887521744E0
7.418591660E1,-1.426748371E1,-1.031214142E1,8.552350044E0
7.423791076E1,-1.147815323E1,4.048718929E0,-2.513988495E0
7.428990405E1,-9.797372818E0,6.454965115E0,-8.933039665E0
7.434189731E1,-9.146129489E-1,6.787769318E0,2.633702382E-2
7.439389070E1,-2.032739401E0,2.971295118E0,2.734261751E0
7.444588409E1,-3.687183261E-1,-4.213923454E0,4.692778587E0
7.449787758E1,-5.037554264E0,-1.473197269E1,1.051565456E1
7.454987064E1,9.816526771E-1,-2.349741364E1,-2.825244367E-1
7.459991167E1,-1.310147190E1,-1.725793266E1,1.513181686E0
7.465190589E1,-1.053480911E1,-1.398495960E1,8.729525566E0
7.470389925E1,-7.278595448E0,-1.000567436E1,1.200010490E1
7.475589248E1,-9.287391663E0,-3.715914488E0,6.433416367E0
7.480788587E1,-8.487704277E0,-3.232271075E-1,5.854001999E0
7.485987999E1,-5.645699978E0,1.692752242E0,5.138113976E0
7.491187871E1,-1.905842781E0,-2.561874092E-1,5.918647289E0
7.496387564E1,4.333637357E-1,2.944957972E0,6.083852291E0
7.501586913E1,-4.486870766E0,5.607391834E0,9.047964096E0
7.506786256E1,-3.881119490E0,3.100585938E0,3.287339211E0
7.511985592E1,-3.179596901E0,-3.119740009E0,-1.544307232E0
7.517184921E1,-4.781366825E0,-8.236305118E-1,-9.447808266E0
7.522384257E1,-4.127729893E0,-2.652856588E0,-1.076226521E1
7.527583600E1,-4.711932659E0,-3.071854591E1,1.259149075E1
7.532782962E1,2.135693073E0,-2.579352188E1,1.364497185E1
7.537982357E1,-1.311583710E1,-2.618857765E1,1.723877907E0
7.543181690E1,-3.682394743E0,-1.476549244E1,5.600208759E0
7.548381022E1,3.351984620E-1,-1.113337803E1,1.190433407E1
7.553580358E1,-1.737285805E1,-7.664073467E0,9.134158134E0
7.558779694E1,-4.992063046E0,2.298503816E-1,1.049889469E1
7.563979030E1,3.701548815E0,-5.576265812E0,7.889135361E0
7.569178353E1,2.818061352E0,-4.913052082E0,-3.701548815E0
7.574377771E1,8.605023384E0,1.492351532E1,-3.076643229E0
7.579577130E1,1.324991703E1,1.797382164E1,-4.046324492E-1
7.584776456E1,6.268211365E0,1.580221367E1,3.483669758E0
7.589975795E1,-4.532361984E0,-1.830183601E1,1.433452320E1
7.595175171E1,-1.318287754E1,-3.739617920E1,1.683175206E0
7.600374800E1,-7.529994488E0,-2.347347069E1,-1.644866824E0
7.605574203E1,-2.288926601E0,-1.389876556E1,6.033572674E0
7.610773529E1,-8.116591573E-1,-8.090254784E0,3.854782581E-1
7.615972868E1,-6.694392204E0,-7.704776287E0,2.925803900E0
7.621172204E1,-7.836461544E0,-1.611346960E0,5.162056446E0
7.626371523E1,-2.533142805E0,-3.553103924E0,6.095823765E0
7.631570866E1,-7.166064739E0,-1.302724934E1,2.050457001E1
7.636770254E1,1.446141958E0,1.240473747E1,3.991255999E0
7.641969630E1,2.083019018E0,1.462183666E1,-5.128536701E0
7.647168966E1,1.015172482E1,6.601015568E0,6.270605564E0
7.652368302E1,1.805283189E0,-7.213950157E0,9.471751213E0
7.657567631E1,-3.361561775E0,-2.498425674E1,3.699154615E0
7.662766964E1,-1.324991703E1,-3.260044479E1,-4.573064804E0
7.667966310E1,-6.225114346E0,-1.568968296E1,1.740637779E0
7.673165662E1,2.049499273E0,-1.171039772E1,9.265843391E0
7.678365054E1,-5.415849686E0,-7.223526955E0,4.587430477E0
7.683564407E1,-7.403097630E0,-4.628133297E0,5.662459850E0
7.688763736E1,-3.543526649E0,-4.242654800E0,6.284971237E0
7.693963058E1,-2.466102988E-1,-1.649655342E0,6.476513386E0
7.699162431E1,-3.095797300E0,-3.495641351E-1,9.323306084E0
7.704362260E1,-2.348783493E0,2.195549965E0,3.186779737E0
7.709562002E1,-5.818088055E-1,1.359948039E0,-1.309189510E1
7.714761401E1,-4.932205975E-1,-7.048745155E0,1.644866824E0
7.719960734E1,-1.199771118E1,-2.119651413E1,4.747847080E0
7.725160066E1,-7.209161282E0,-1.921166039E1,1.374313712E0
7.730359406E1,-5.470917702E0,-6.220325947E0,5.700768471E0
7.735558731E1,-7.422251701E-1,-1.120760059E1,1.420044422E1
7.740758064E1,-4.520390987E0,-9.703995705E0,1.237840080E1
7.745957403E1,-8.961771011E0,-1.211503029E1,1.106394386E1
7.751156822E1,-5.664854050E0,-7.151699066E0,1.149012470E1
7.756356171E1,-3.143682718E0,-2.004008055E0,8.707977295E0
7.761555500E1,-1.862745762E0,-8.547561169E-1,7.233104229E0
7.766754853E1,-2.372726440E0,-1.505998850E0,2.846792698E0
7.771954202E1,-4.261809349E0,1.182771802E0,-3.179596901E0
7.777153501E1,-5.913858891E0,-6.835654736E0,6.663266659E0
7.782352840E1,-2.521171331E0,5.719922543E0,-6.019207001E0
7.787552180E1,-1.331216812E0,-2.923409462E0,-9.457385540E-1
7.792751601E1,9.955394745E0,-1.280218697E1,3.933793545E0
7.797950941E1,-8.485309601E0,-2.312390518E1,1.180616951E1
7.803150270E1,-8.193208694E0,-7.113390446E0,1.896265626E0
7.808349622E1,-2.909043789E0,-2.968900681E0,7.010436535E0
7.813549245E1,-6.869174480E0,-1.250769138E1,1.266571331E1
7.818748671E1,-1.277824497E1,-1.237600613E1,1.438240910E1
7.823948010E1,-1.157631874E1,-7.075081825E0,9.172467232E0
7.829147352E1,-5.118959427E0,-4.522785187E0,8.643332481E0
7.834346672E1,-3.076643229E0,-4.355185986E0,4.664047241E0
7.839546014E1,-2.669616461E0,-6.021601200E0,-1.522758722E0
7.844745364E1,-1.206714511E0,-3.246636629E0,-2.547508478E0
7.849944719E1,2.226675600E-1,1.537124395E0,6.804529190E0
7.855144111E1,7.161275864E0,9.067118645E0,-1.391073704E0
7.860343447E1,1.704723716E0,2.806090117E0,-3.299310684E0
7.865542780E1,2.274561167E0,-1.088437366E1,1.118844604E1
7.870742112E1,-6.129343510E0,-2.706488228E1,5.851607800E0
7.875941448E1,-1.421959782E1,-1.644627380E1,5.983292580E0
7.881140784E1,1.180377483E0,-4.225894928E0,7.084659100E0
7.886340137E1,1.769369125E0,-5.593026161E0,8.894730568E0
7.891539499E1,-7.455771923E0,-7.166064739E0,8.870788574E0
7.896738878E1,-6.663266659E0,-9.584281921E0,1.228262997E1
7.901938207E1,-4.130124092E0,-9.945817947E0,9.914691925E0
7.907137553E1,-6.452570438E0,-3.337619066E0,5.995264053E0
7.912336886E1,-4.223500729E0,-2.434977531E0,5.092622280E0
7.917536628E1,5.097411156E0,2.925803900E0,-1.585009933E0
7.922736437E1,2.049499273E0,9.366402626E0,-1.558912373E1
7.927935989E1,1.596981287E0,4.419831276E0,1.127703428E0
7.933135319E1,3.833234072E0,-1.982699013E1,2.232421875E1
7.938334645E1,-9.519637108E0,-2.863792038E1,2.513988614E-1
7.943533977E1,-4.326454639E0,-1.767453575E1,4.245049000E0
7.948733310E1,-2.619336605E0,-4.316877365E0,7.041562080E0
7.953932646E1,-1.324033976E0,5.602602959E-1,6.840443134E0
7.959132061E1,-6.926637173E0,-5.746259540E-2,4.544333458E0
7.964331423E1,-1.067846537E0,-2.035133600E0,6.859597206E0
7.969530752E1,1.508393139E-1,-3.337619066E0,9.031204224E0
7.974730082E1,-7.960963726E0,-4.022381783E0,6.265817165E0
7.979929411E1,-5.813299179E0,-1.805283189E0,1.272796535E1
7.985128747E1,-4.213923454E0,-5.140508175E0,1.610389328E1
7.990328083E1,-2.423006058E0,-5.815693378E0,7.039167881E0
7.995527425E1,4.740664005E0,8.815719604E0,-1.672401047E1
8.000726861E1,4.012804508E0,2.940169573E0,-1.575432777E0
8.005926190E1,-2.320052385E0,-2.011190796E1,1.698259163E1
8.011125529E1,-9.490905762E0,-2.744557190E1,-2.537931204E-1
8.016324865E1,-4.604190350E0,-2.060752296E1,5.672037125E0
8.021524204E1,3.605777979E0,-7.664073467E0,1.253642273E1
8.026723910E1,-4.558699131E0,-3.462121487E0,8.916279793E0
8.031923729E1,-8.763046265E0,8.763045669E-1,5.219519138E0
8.037123178E1,-3.840416908E0,1.709512234E0,6.205960274E0
8.042322514E1,1.685569525E0,-2.978477955E0,8.152505875E0
8.047521856E1,-1.970488191E0,-2.375120640E0,2.174001455E0
8.052721189E1,-9.270631790E0,3.430995703E0,1.197137451E1
8.057920528E1,3.900273561E0,1.136322784E1,-1.077423668E1
8.063119851E1,1.381496549E0,3.466909885E0,1.865140080E0
8.068319200E1,-3.471698523E0,-9.275420189E0,1.251247978E1
8.073518612E1,6.344828010E-1,-1.630501175E1,7.360000610E0
8.078717944E1,9.217957854E-1,-1.975037384E1,1.939362586E-1
8.083917287E1,-6.715940952E0,-1.211981869E1,2.154847383E0
8.089116626E1,-8.444606781E0,-9.644139290E0,8.494887352E0
8.094315956E1,-6.814105988E0,-1.583573341E1,1.630501175E1
8.099515298E1,-6.988888264E0,-6.323279858E0,1.242868042E1
8.104714621E1,-2.607365370E0,-5.272192955E0,8.535589218E0
8.109913976E1,3.328042030E-1,-3.665634632E0,4.929811954E0
8.115113395E1,-2.418217510E-1,-3.100585938E0,3.555498123E0
8.120312721E1,-2.310475111E0,-2.415823221E0,5.262616158E0
8.125512054E1,-4.738269806E0,-1.367130876E0,8.315316200E0
8.130711393E1,-6.320885658E0,2.226675600E-1,7.039167881E-1
8.135910955E1,-6.703969836E-2,8.044763207E-1,-9.727938652E0
8.141110458E1,4.118152618E0,4.910657406E0,-1.064255142E1
8.146309800E1,4.881926537E0,-7.563514233E0,6.933819771E0
8.151509126E1,5.715134144E0,-3.272734070E1,1.576629925E1
8.156708455E1,-1.628106880E1,-1.940799141E1,9.443019867E0
8.161907788E1,-3.447755575E-1,-1.363060665E1,6.270605564E0
8.167107127E1,-3.589017868E0,-1.401129627E1,4.597007751E0
8.172306513E1,-5.231490612E0,-1.078860188E1,7.767027378E0
8.177505895E1,-5.284164429E0,-5.650488377E0,8.183630943E0
8.182705234E1,-8.277008057E0,-3.826051235E0,3.277762175E0
8.187904564E1,-6.861991405E0,6.720729351E0,6.292154312E0
8.193099626E1,4.000833035E0,7.783787251E0,1.300091267E1
8.198298959E1,7.800547123E0,-1.319245458E0,7.206767082E0
8.203498281E1,9.241901040E-1,-3.730280161E0,1.374313712E0
8.208697631E1,8.020820618E0,4.187586784E0,-3.153259993E0
8.213896993E1,-3.225088120E0,1.989642382E0,2.075836182E0
8.219096385E1,-2.434977531E0,-4.687990189E0,5.145296574E0
8.224295727E1,5.791750908E0,-3.335464096E1,8.241093636E0
8.229495060E1,-1.531617641E1,-2.343037415E1,6.804529190E0
8.234694389E1,-5.355992794E0,-8.526012421E0,3.943370581E0
8.239894021E1,1.798100352E0,-6.938608170E0,4.364762783E0
8.245093877E1,-1.714300752E0,-9.344854355E0,3.241847992E0
8.250293386E1,-9.390345573E0,-5.875550270E0,9.998491287E0
8.255492728E1,-2.901860952E0,-3.790137053E0,8.399115562E0
8.260692058E1,-4.980091453E-1,-4.091815472E0,8.576292038E0
8.265891394E1,-4.189980984E0,-1.067846537E0,4.891503334E0
8.271090730E1,-8.001666069E0,-5.880339146E0,1.003919411E1
8.276290086E1,4.695172787E0,9.828497887E0,-5.329655647E0
8.281489391E1,6.584255695E0,1.285725594E1,-4.999245644E0
8.286688803E1,2.525959969E0,-1.226826382E1,1.174631214E1
8.291888159E1,-4.297723293E0,-3.237538528E1,1.575911713E1
8.297087485E1,3.129317284E0,-2.213267708E1,-5.035160065E0
8.302286834E1,-1.274951363E1,-1.759073639E1,2.430188894E0
8.307486163E1,-4.022381783E0,-7.817307472E0,5.925830364E0
8.312685489E1,-3.481275558E0,-5.207547665E0,8.729525566E0
8.317884829E1,-4.407859802E0,-8.035185814E0,1.050847244E1
8.323084168E1,-6.263422966E0,-4.889109135E0,7.151699066E0
8.328283563E1,-3.536343813E0,-4.623344421E0,7.812518597E0
8.333482932E1,-1.410227895E0,-3.023969173E0,3.593806505E0
8.338682258E1,-5.312895775E0,-3.397475958E0,9.964971542E0
8.343881591E1,-3.457332850E0,6.009629965E-1,-2.008796453E0
8.349081103E1,4.371945858E0,5.518803596E0,-1.118605232E1
8.354280665E1,2.662433624E0,3.660846233E0,-2.458920240E0
8.359480001E1,-1.783734679E0,-2.303292274E0,1.250529766E1
8.364679330E1,1.872322917E0,-1.731778908E1,4.965725899E0
8.369878660E1,-1.284528446E1,-2.556606674E1,1.819648862E0
8.375077999E1,-1.121717739E1,-1.570644283E1,5.178816319E0
8.380277325E1,-3.804502726E0,-1.218206978E1,9.062330246E0
8.385476668E1,-6.110189438E0,-6.684815407E0,7.776604652E0
8.390676066E1,-7.328875065E0,-1.022355318E0,8.051946640E0
8.395875429E1,-1.355159521E0,-2.614548206E0,8.597841263E0
8.401074768E1,-1.994430900E0,-2.298503876E0,7.166064739E0
8.406274090E1,-6.761432171E0,-4.958543301E0,3.342407703E0
8.411473433E1,-2.643279314E0,-2.949746609E0,8.142929077E0
8.416672772E1,-2.549902678E0,5.858790398E0,4.431802750E0
8.421872098E1,6.155680656E0,7.360000610E0,-5.370358467E0
8.427071431E1,1.065452337E0,3.306493521E0,-3.591412306E-1
8.432270859E1,-2.655250788E0,-1.055875206E1,1.853647614E1
8.437470195E1,1.917814136E0,-1.957798576E1,4.132518291E0
8.442669538E1,-1.344385338E1,-2.049259758E1,-3.988861799E0
8.447868874E1,-6.962551117E0,-9.136552811E0,5.384724140E0
8.453068412E1,-3.021574736E0,-1.371440601E1,1.177025509E1
8.458268271E1,-1.007032013E1,-5.516408920E0,4.862771988E0
8.463467930E1,-4.417437077E0,-3.730280161E0,7.862798691E0
8.468667307E1,-1.194743156E0,-2.540325642E0,7.893924236E0
8.473866629E1,-3.445361376E0,-2.166818619E0,6.028783798E0
8.479065968E1,-3.399870157E0,-1.143745041E1,-1.976234436E1
8.484265308E1,1.726272106E0,4.350397110E0,-4.661653042E0
8.489464637E1,9.684841156E0,6.826077461E0,-5.825270653E0
8.494664003E1,2.942563772E0,-1.726272106E0,3.778165579E0
8.499863408E1,2.925803900E0,-3.393884659E1,7.106207848E0
8.505062734E1,-3.061080360E1,-2.260434914E1,3.816473961E0
8.510262093E1,1.175588965E0,-8.729525566E0,5.880339146E0
8.515461399E1,2.475680113E0,-4.819674969E0,3.514795303E0
8.520660741E1,1.015172482E0,-1.173194647E0,2.978477955E0
8.525860077E1,-1.052044392E1,5.482889414E-1,5.751048088E0
8.531059407E1,-7.034379482E0,-1.534730196E0,5.236279011E0
8.536258782E1,-5.822876453E0,-2.059076279E-1,1.004158878E1
8.541458181E1,-4.012804508E0,-2.633702382E-2,1.002961731E1
8.546657503E1,-3.359167576E0,1.118126392E0,1.233530426E1
8.551856836E1,-2.492439985E0,-1.300091267E0,1.182771802E0
8.557056175E1,-2.360754967E0,3.311282158E0,-9.596253395E0
8.562255697E1,4.043930054E0,8.284190893E-1,-3.715914488E0
8.567455583E1,-1.259388566E0,-3.329239273E1,3.495880508E1
8.572655172E1,-7.910684109E0,-2.141678810E1,-1.349652672E1
8.577854505E1,-5.583448887E0,-9.943423271E0,7.223526955E0
8.583053837E1,4.273780346E0,-5.806116581E0,8.559532166E0
8.588253180E1,8.619388938E-2,-4.477293968E0,6.725517750E0
8.593452512E1,-1.366173172E1,-4.735875607E0,6.270605564E0
8.598651848E1,-8.142929077E0,-3.047911882E0,1.221319580E1
8.603851181E1,-3.069460392E0,-2.382303476E0,1.307992363E1
8.609050576E1,-7.223526955E0,-5.846818924E0,7.417463303E0
8.614249935E1,-1.778946161E0,8.978530765E-1,3.833234072E0
8.619449278E1,-1.867534399E0,5.391906738E0,-1.750693703E1
8.624648607E1,-1.826831698E0,-2.897072434E-1,-4.285751820E0
8.629847946E1,1.029538155E0,-4.201952457E0,8.861210823E0
8.635047286E1,1.345582485E0,-1.612304688E1,-5.954561234E0
8.640246608E1,-1.343906403E1,-2.804414177E1,1.574953938E1
8.645445974E1,1.149251908E-1,-1.032890129E1,1.718371010E1
8.650645376E1,5.889915943E0,-3.249030828E0,1.608473778E1
8.655844712E1,-2.281744003E0,-1.771763414E-1,1.036481571E1
8.661044044E1,-7.568302631E0,2.894678354E0,1.087240219E1
8.666243377E1,-7.247469902E0,3.763799906E0,5.885127544E0
8.671442823E1,-7.360000610E0,4.850800991E0,5.686402798E0
8.676642448E1,-7.609005451E0,-1.675992310E-1,2.901860952E0
8.681841774E1,-9.019232750E0,-1.517970276E1,9.194015265E-1
8.687041124E1,-5.348809719E0,-4.221106529E0,2.377514839E0
8.692240453E1,-6.648900986E0,3.040728867E-1,2.645673752E0
8.697439792E1,-3.502824068E0,-3.586623669E0,5.030371189E0
8.702639108E1,2.128510237E0,-5.051919937E0,-2.178790092E0
8.707838457E1,-3.430995703E0,-8.133351326E0,3.062277555E0
8.713037839E1,5.351204395E0,-9.502876282E0,-5.243461728E-1
8.718237228E1,-1.893871427E0,-1.793551254E1,1.252445126E1
8.723436554E1,-8.664880753E0,-1.133928585E1,1.650134277E1
8.728635880E1,-1.069043732E1,-9.972154617E0,1.793551254E1
8.733835216E1,-1.103760719E1,-2.439765930E0,1.030735302E1
8.739034545E1,-7.213950157E0,9.098244309E-1,9.981731415E0
8.744233918E1,-2.190761566E0,1.048692346E0,6.732700825E0
8.749433217E1,-2.140481710E0,8.212362528E-1,4.010410309E0
8.754632649E1,-4.285751820E0,-1.620923996E0,7.204372883E0
8.759831988E1,-7.285778046E0,-6.105400562E0,3.624932051E0
8.765031314E1,-4.999245644E0,-1.249811411E0,5.942590237E0
8.770230653E1,-2.894678354E0,2.954535007E0,2.355966330E0
8.775430085E1,-5.267404318E-1,4.108575344E0,4.565882206E0
8.780629971E1,2.382303476E0,2.595393896E0,2.418217510E-1
8.785829643E1,2.207521439E0,-5.865973234E-1,-6.562707424E0
8.791028979E1,8.763045669E-1,-5.626545906E0,8.083071709E0
8.796228329E1,-1.355159521E0,-5.497254944E1,-1.367130876E0
8.801427661E1,-9.938634872E0,-2.801540947E1,7.836461544E0
8.806626980E1,-4.750241280E0,-1.462423038E1,1.032411289E1
8.811826330E1,-5.267404556E0,-5.063891411E0,8.092648506E0
8.817025659E1,-4.965725899E0,2.842004299E0,7.788576126E0
8.822225008E1,-4.702355862E0,4.075055599E0,5.748653889E0
8.827424430E1,-3.040729046E0,3.071854591E0,5.427821159E0
8.832623749E1,-3.488458395E0,4.134912491E0,9.344854355E0
8.837823102E1,-8.846845627E0,4.089421272E0,1.305358601E1
8.843022438E1,-6.440599442E0,-9.577099085E-1,7.932232380E0
8.848221754E1,-8.571503639E0,-7.319298267E0,6.229903221E0
8.853421129E1,-4.455745220E0,-7.781392932E-1,3.629720688E0
8.858620422E1,8.633754730E0,6.337645531E0,-1.343667030E1
8.863819811E1,3.177202702E0,9.840469360E-1,-1.680780888E0
8.869019196E1,-5.332049847E0,-9.924268723E0,1.609431458E1
8.874218532E1,-1.046298146E0,-3.402743530E1,1.316372299E1
8.879417855E1,-1.011820507E1,-2.800822639E1,5.262616158E0
8.884617247E1,-1.351807594E1,-7.015225410E0,4.860377789E0
8.889816879E1,-4.465322495E0,-2.918621063E0,8.097437859E0
8.895016262E1,-4.087027073E0,1.312062621E0,8.906702042E0
8.900215581E1,-1.125309110E0,1.453324795E0,4.944177628E0
8.905414931E1,1.716695070E0,-4.352791786E0,7.695199013E0
8.910614263E1,6.967339516E-1,-6.373559475E0,7.506051540E0
8.915813592E1,-3.193962574E0,8.978530765E-1,2.533621597E1
8.920816258E1,4.424619675E0,1.332892799E1,-3.929004908E0
8.926015627E1,3.744645834E0,1.294584370E1,-5.279376030E0
8.931215032E1,4.853195190E0,1.568249941E0,3.105374336E0
8.936414368E1,-6.397502422E0,-2.606886482E1,6.368771076E0
8.941613700E1,-8.612206459E0,-2.892523384E1,-6.366376877E0
8.946813030E1,-2.851581335E0,-1.012059975E1,3.457332850E0
8.952012366E1,-1.204320192E0,-1.144702816E1,6.747066498E0
8.957211695E1,-2.145270348E0,-7.767027378E0,7.637736797E0
8.962411038E1,-1.342948723E1,-6.723123550E0,6.636929989E0
8.967610433E1,-6.634535313E0,-1.872322917E0,6.636929989E0
8.972809802E1,-4.458139896E0,-1.036720991E0,5.827664852E0
8.978009148E1,-6.847625971E-1,2.516382933E0,6.466936111E0
8.983208467E1,8.092648983E-1,3.620143414E0,6.359193802E0
8.988407839E1,2.976083517E0,1.848380208E0,2.949746609E0
8.993607685E1,2.499622822E0,2.322446555E-1,-2.449343204E0
8.998807424E1,3.402264595E0,5.348809719E0,-9.031204224E0
9.004006907E1,5.121353626E0,-5.746259689E-1,-5.755836487E0
9.009206243E1,-4.022381783E0,-2.635617638E1,1.413340378E1
9.014405568E1,-5.039948463E0,-2.589168739E1,9.684841156E0
9.019604934E1,-9.538790703E0,-1.852689934E1,3.854782581E-1
9.024804237E1,7.230709791E-1,-1.143505669E1,5.528380394E0
9.030003566E1,3.131711483E0,-1.532575321E1,4.812492371E0
9.035202985E1,-4.767001152E0,-1.014933109E1,3.854782343E0
9.040402331E1,-1.049889469E1,-6.512427330E0,4.992063046E0
9.045601670E1,-4.965725899E0,5.506832153E-2,7.654496670E0
9.050801009E1,-9.074301720E-1,1.462901950E0,8.552350044E0
9.056000335E1,-3.622537851E0,5.068679810E0,5.073468208E0
9.061199671E1,-7.637736797E0,-3.766194344E0,1.086761379E1
9.066398997E1,6.871568680E0,1.417889500E1,5.578660369E-1
9.071598369E1,2.071047783E0,1.131534290E1,-3.533949614E0
9.076797768E1,1.168406129E0,-1.017087936E1,1.083169937E1
9.081997104E1,-1.041270161E1,-2.782865524E1,1.734412766E1
9.087196436E1,3.282550812E0,-2.184296989E1,2.490045726E-1
9.092395766E1,-5.394300938E0,-1.683414650E1,5.976109982E0
9.097595138E1,-4.307300568E0,-6.689603806E0,5.344021320E0
9.102794963E1,-2.636096478E0,-3.313676357E0,8.157294273E0
9.107994699E1,-3.277762175E0,-3.179596901E0,9.047964096E0
9.113194115E1,-1.186123753E1,-5.403878212E0,1.018524456E1
9.118393437E1,-1.064733982E1,-8.403904438E-1,9.519637108E0
9.123592770E1,-1.002243423E1,1.113337755E0,9.866806030E0
9.128792109E1,-1.116929245E1,-4.309694767E0,5.372752666E0
9.133991438E1,3.562680960E0,-8.221940041E0,1.453803635E1
9.139190775E1,-3.804502726E0,3.062277555E0,1.982459545E0
9.144390163E1,1.903448462E0,-3.718308687E0,-8.839662552E0
9.149589542E1,3.265790939E0,-5.391906738E0,-1.493069744E1
9.154788875E1,1.793311834E0,-1.274472523E1,-6.584255695E-1
9.159988221E1,-6.411868095E0,-1.900096512E1,-6.644112587E0
9.165187546E1,-3.076643229E0,-3.266030121E1,2.122764015E1
9.170386876E1,-7.405491829E0,-1.653964996E1,1.936489487E1
9.175586205E1,-3.016786277E-1,-1.058269501E1,1.911828423E1
9.180785541E1,3.747040033E0,-1.173673534E1,8.875576973E0
9.185984923E1,5.944984436E0,-8.265036583E0,4.956148624E0
9.191184309E1,6.390319347E0,-9.028810501E0,7.228315830E0
9.196383651E1,5.695979595E0,-2.104567528E0,4.903474808E0
9.201582970E1,-1.623318315E0,-6.265817165E0,8.547560692E0
9.206782333E1,-1.996825218E0,-4.597007632E-1,5.138113976E0
9.211981949E1,-6.225114316E-2,7.972934842E-1,4.058295727E0
9.217181371E1,1.029538140E-1,5.980898380E0,8.523618579E-1
9.222380707E1,-1.333611012E0,1.321639657E0,-3.251425266E0
9.227580053E1,5.054314137E0,3.936187744E0,-2.341600657E0
9.232779382E1,8.542772293E0,-1.934574008E0,-5.013611317E0
9.237978712E1,-1.343188167E0,-7.429434776E0,4.625739098E0
9.243178047E1,-4.458139896E0,-2.180466080E1,5.842030525E0
9.248377420E1,-2.921015263E0,-2.866186333E1,8.631361008E0
9.253576808E1,-2.612153769E0,-1.801931190E1,4.529967785E0
9.258776154E1,-4.740664005E0,-9.057541847E0,4.570670605E0
9.263975480E1,-3.454938650E0,-8.367990494E0,5.133325100E0
9.269174806E1,-6.799740314E0,-1.264177132E1,4.154066563E0
9.274374145E1,-7.975329399E0,-8.286584854E0,8.854028702E0
9.279573491E1,-1.561067224E0,-6.596227169E0,5.097411156E0
9.284772807E1,1.826831698E0,-2.561874092E-1,6.718335152E0
9.289972229E1,6.706363678E0,1.098972082E0,6.531581879E0
9.295171585E1,1.977671027E0,1.558672905E0,2.937775135E0
9.300370908E1,-1.541913033E0,4.788549423E0,-8.020820618E-1
9.305570254E1,-1.932179809E0,1.225389862E1,-5.099805593E-1
9.310769586E1,1.668809533E0,6.598621368E0,-2.458920240E0
9.315969328E1,-7.113390446E0,-1.850774384E1,1.635289764E1
9.321169144E1,4.146883965E0,-3.014631462E1,9.263449669E0
9.326368583E1,-1.235445786E1,-1.991318321E1,-1.175588965E0
9.331567919E1,-9.067118645E0,-7.735901833E0,6.249057293E0
9.336767261E1,7.230709791E-1,-5.961744308E0,6.505244732E0
9.341966601E1,-1.680780888E0,-2.209915638E0,7.331269264E0
9.347165937E1,-5.150084972E0,-5.676825523E0,7.443800449E0
9.352365256E1,-7.834067345E0,-4.714327335E0,8.248276711E0
9.357564602E1,-4.089421272E0,-3.507612705E0,9.040781975E0
9.362764040E1,-3.773377180E0,-1.934574008E0,7.398309231E0
9.367963350E1,-5.224307537E0,-5.363175869E-1,6.047938347E0
9.373162702E1,-3.885908127E0,3.519583941E-1,6.842837334E0
9.378362041E1,3.304099143E-1,6.184412003E0,-5.468523502E0
9.383561370E1,5.411061049E-1,4.872349262E0,-9.404711723E0
9.388760700E1,-2.444554567E0,-4.403071404E0,7.326480865E0
9.393960029E1,-5.542746067E0,-2.190522003E1,1.380299473E1
9.399159362E1,-3.232270956E0,-2.545832443E1,-6.871568561E-1
9.404358777E1,-1.141350842E1,-1.800734138E1,3.900273561E0
9.409558119E1,-8.856422424E0,-1.064973450E1,1.060424328E1
9.414757452E1,-6.083852291E0,-5.911464691E0,1.035523891E1
9.419956795E1,-1.007750225E1,-4.276175022E0,8.933039665E0
9.425156377E1,-4.130124092E0,-4.419831276E0,9.751881599E0
9.430355856E1,-1.127703428E0,-6.129343510E0,4.532361984E0
9.435555182E1,-1.747820616E0,-2.758204460E0,4.920234680E0
9.440754528E1,-4.551516533E0,-2.403851986E0,7.362394810E0
9.445953867E1,-6.986494064E0,8.619389534E-1,1.002722263E1
9.451153183E1,-4.587430477E0,1.436564922E-1,-7.309720993E0
9.456352522E1,-6.775797606E-1,3.208328247E0,-9.543579102E0
9.461551858E1,6.344828010E-1,5.674431324E0,-1.565855742E0
9.466751287E1,-4.036747456E0,-2.190761566E0,7.345634937E0
9.471950633E1,-4.084632874E0,-1.153801060E1,1.831380844E1
9.477149952E1,-5.394300938E0,-2.790766716E1,2.758204460E0
9.482349288E1,-1.553166103E1,-1.735130882E1,4.292934895E0
9.487548620E1,-9.988914490E0,-9.615407944E0,5.913858891E0
9.492747956E1,-4.872349262E0,-7.491685867E0,1.043903828E1
9.497947302E1,-6.112583637E0,-4.565882206E0,8.791776657E0
9.503146631E1,-4.175615311E0,-3.069460392E0,8.006455421E0
9.508346050E1,-2.324840784E0,-3.280156374E0,8.693612099E0
9.513545399E1,-3.787742853E0,-2.315263748E0,7.683228016E0
9.518744725E1,-4.690384388E0,1.177983165E0,7.879558563E0
9.523944054E1,-6.179623127E0,-1.556278616E-1,5.197970390E0
9.529143713E1,-1.332653332E1,-8.164477348E0,4.704750061E0
9.534343572E1,-5.267404765E-2,5.078257084E0,-1.070240855E0
9.539543064E1,1.915419847E-1,-1.182771802E0,-4.482082367E0
9.544742393E1,-8.162082672E0,-8.753468513E0,1.221559048E1
9.549941726E1,-3.495641351E-1,-9.337671846E-2,-8.396721840E0
9.555141059E1,-1.911828423E1,-4.009213257E1,-2.231464148E0
9.560340398E1,-3.972101927E0,-9.012050629E0,3.900273561E0
9.565539737E1,7.553936958E0,-1.535927296E1,1.509111404E1
9.570739060E1,-9.241901040E-1,-1.164335823E1,1.226108170E1
9.575938449E1,-1.106154919E1,-6.660872459E0,1.118605232E1
9.581137834E1,-8.025609016E0,-1.221080124E-1,1.319005966E1
9.586337177E1,-5.188393593E0,-3.735068798E0,1.030495834E1
9.591536496E1,-2.645673752E0,-7.348029613E0,-2.561874092E-1
9.596735855E1,-1.089395046E1,-7.805335999E0,-4.288146019E0
9.601935161E1,-6.012023926E0,-8.308133483E-1,-1.407833576E0
9.607134510E1,-3.732674360E0,2.727078915E0,-7.467742920E0
9.612333840E1,-4.831646442E0,1.999219418E0,-3.217905283E0
9.617533275E1,-2.106961906E-1,2.652856588E0,1.180377483E0
9.622732601E1,-4.005621910E0,-5.023188591E0,1.397298813E1
9.627931940E1,-7.386337757E0,-6.610592842E0,3.574652195E0
9.633131266E1,-5.128536701E0,-3.278240967E1,6.256239891E0
9.638330795E1,-1.144223976E1,-1.619248009E1,5.267404556E0
9.643530334E1,-7.046350956E0,-1.296260357E1,6.715940952E0
9.648726702E1,-8.561926842E0,-8.068706512E0,5.865973473E0
9.653926048E1,-1.010623360E1,-5.676825523E0,4.989668846E0
9.659125377E1,-4.022381783E0,-5.233884811E0,8.226728439E0
9.664324703E1,-3.009603500E0,-4.913052082E0,5.214730740E0
9.669524036E1,-2.755810261E0,-2.569056988E0,3.229876757E0
9.674723385E1,-2.480468750E0,5.772596359E0,5.583448887E0
9.679922774E1,-2.707924843E0,6.229903221E0,6.991282463E0
9.685122136E1,-6.998465061E0,-4.597007632E-1,9.196409225E0
9.690321469E1,1.570644259E0,-2.667222023E0,-5.011217117E0
9.695520794E1,-3.186779737E0,1.218685865E0,-1.057551193E1
9.700720160E1,-2.660039425E0,-7.613793612E-1,-2.602576733E0
9.705919476E1,-1.750214934E0,-1.048931789E1,1.138477707E1
9.711118799E1,-1.032171917E1,-4.354706955E1,6.926637173E0
9.716318142E1,-1.567771149E1,-1.744947433E1,4.348002911E0
9.721517537E1,-8.664880753E0,-1.188278580E1,8.444606781E0
9.726716903E1,-1.375271416E1,-9.665687561E0,6.330462456E0
9.731916242E1,-1.136801720E1,-5.138113976E0,6.481301785E0
9.737115568E1,-4.072661400E0,-2.212309837E0,7.240286827E0
9.742315127E1,2.870735407E0,-1.333611012E0,7.680833817E0
9.747514989E1,1.149251908E-1,-2.274561077E-1,6.253845692E0
9.752714641E1,-9.766246796E0,3.402264595E0,8.367990494E0
9.757914007E1,-8.595446587E0,2.944957972E0,2.705530643E0
9.763113340E1,-6.526793003E0,-1.565855742E0,2.698347807E0
9.768312693E1,4.781366825E0,-1.175828362E1,1.024031353E1
9.773512022E1,7.134938836E-1,-6.416656375E-1,-1.628106833E0
9.778711331E1,7.204372883E0,-2.442160249E-1,-3.866753817E0
9.783910710E1,2.006402254E0,-1.401368999E1,2.126116037E0
9.789110109E1,-1.407115269E1,-2.769697189E1,8.992896080E0
9.794309438E1,-1.240473747E1,-1.032171917E1,1.347976685E1
9.799508777E1,-7.494080067E0,-1.177504349E1,1.607995033E1
9.804708106E1,-7.199584484E0,-6.591438770E0,1.019003391E1
9.809907436E1,-2.497228622E0,-3.715914488E0,7.771816254E0
9.815106785E1,-1.194743156E0,-2.255406857E0,5.614574432E0
9.820306108E1,-1.546701550E0,-4.189980924E-1,3.634509087E0
9.825505463E1,-4.381522834E-1,8.475732803E-1,3.804502726E0
9.830704879E1,-1.254600048E0,-2.645673752E0,-3.373533249E0
9.835904205E1,7.427040577E0,7.589851022E-1,-7.020013809E0
9.841103547E1,-7.848433018E0,-1.556278610E1,3.847599506E0
9.846302876E1,6.153286457E0,-7.345634937E0,9.943423271E0
9.851502422E1,5.066285610E0,-2.623406982E1,1.424832916E1
9.856702304E1,-3.615354896E-1,-2.454610443E1,-5.552323341E0
9.861901883E1,-1.438001442E1,-7.024802208E0,5.865973234E-1
9.867101209E1,-8.473338127E0,-8.138139725E0,8.775016785E0
9.872300545E1,-1.805283189E0,-3.584229469E0,5.990475655E0
9.877499881E1,-5.727105141E0,-4.802915096E0,1.125309181E1
9.882699224E1,-9.282603264E0,-5.463735104E0,1.048213482E1
9.887898546E1,-1.180377483E1,-5.025582790E0,4.295329094E0
9.893097885E1,-1.267289639E1,-5.818087578E0,5.351204395E0
9.898297251E1,-1.399214172E1,-4.405465722E-1,-6.972128391E0
9.903496646E1,-5.650488377E0,-4.118152559E-1,-1.183729458E1
9.908695989E1,5.664854050E0,3.040728867E-1,-5.142902374E0
9.913895308E1,3.708731651E0,4.932206154E0,-2.688770533E0
9.919094651E1,-3.337619066E0,-3.533949614E0,9.091061592E0
9.924293983E1,-7.903501034E0,-3.667071152E1,4.422225475E0
9.929493313E1,-1.050847244E1,-2.795555305E1,9.510059357E0
9.934692652E1,-1.014454269E1,-1.194743156E1,6.447782040E0
9.939892041E1,-1.683175206E0,-5.624151707E0,7.640130997E0
9.945091416E1,-2.753416061E0,9.241901040E-1,4.551516533E0
9.950290755E1,-6.215537548E0,3.605777979E0,3.902667999E0
9.955490085E1,-4.898686409E0,1.194743156E0,6.244268894E0
9.960689534E1,-7.637736797E-1,2.815667152E0,7.393520832E0
9.965889143E1,-8.051946640E0,6.368771076E0,7.154093266E0
9.971088482E1,-1.506956577E1,1.644866824E0,8.231516838E0
9.976287821E1,-1.553884315E1,-2.272166729E0,3.512401104E0
9.981487144E1,-1.123393726E1,-3.668029070E0,2.367937803E0
9.986686483E1,6.416656494E0,3.715914488E0,5.731894016E0
9.991885822E1,-7.470137477E-1,-2.849186957E-1,-4.549122229E-2
9.997085148E1,-5.595420361E0,-7.017619610E0,5.604997158E0
1.000228454E2,-4.091815472E0,-1.466972160E1,1.984853864E0
1.000748392E2,-3.885908127E0,-2.630829239E1,6.148497581E0
1.001268325E2,-9.158101082E0,-1.459071064E1,7.278595448E0
1.001788259E2,-8.602629662E0,-8.782199860E0,1.457873917E1
1.002308192E2,-7.407886028E0,-3.785348415E0,1.153561592E1
1.002828125E2,-7.034379482E0,-1.905842781E0,9.162889481E0
1.003348059E2,-6.007235527E0,1.599375606E0,7.515628815E0
1.003867992E2,-6.277788639E0,7.901106775E-2,5.870761871E0
1.004387932E2,-4.122941017E0,-1.762186289E0,5.159662247E0
1.004907869E2,-7.247469902E0,1.120520592E0,5.430215359E0
1.005427802E2,-7.458166122E0,3.560286522E0,3.835628271E0
1.005947736E2,-1.472478986E0,4.331243038E0,2.032739401E0
1.006467682E2,6.926637173E0,2.777358770E0,-4.889109135E0
1.006987669E2,8.356019258E-1,-3.584229469E0,8.123774529E0
1.007507639E2,1.563461423E0,-1.186602592E1,8.104619980E0
1.008027579E2,-4.917840481E0,-3.077840233E1,6.648900986E0
1.008547513E2,-9.440625191E0,-2.042316437E1,-9.919480324E0
1.009067446E2,-4.848406315E0,-2.092596245E1,5.315290093E-1
1.009587379E2,2.322446555E-1,-1.281176472E1,1.109028053E1
1.010107313E2,-1.035284424E1,-1.038397026E1,1.818930626E1
1.010627247E2,-1.220361900E1,-2.810878515E0,1.180856323E1
1.011147190E2,4.237866402E-1,2.475680113E0,1.042946148E1
1.011667123E2,-5.961744189E-1,3.138894320E0,8.229122162E0
1.012187056E2,-1.982459545E0,6.943397224E-2,4.498842239E0
1.012706989E2,-4.860377789E0,-2.885101080E0,1.704723716E0
1.013226923E2,-6.768614769E0,-1.170800328E0,2.394274771E-1
1.013746856E2,-9.864411950E-1,5.889915943E0,3.708731651E0
1.014266789E2,2.537931204E-1,4.400677204E0,-9.122186899E-1
1.014786726E2,3.885908127E0,-1.326428294E0,1.259388566E0
1.015306666E2,-4.692778587E-1,-1.375989723E1,5.652883053E0
1.015826599E2,2.315263748E0,-1.881181717E1,5.985687256E0
1.016346534E2,-1.017806244E1,-1.826592255E1,1.563461423E0
1.016866468E2,-6.950579643E0,-1.423875237E1,6.991282701E-1
1.017386411E2,-9.929058075E0,-5.849213123E0,1.051804924E1
1.017906399E2,-1.016609097E1,-1.693709946E1,1.524913597E1
1.018426365E2,-4.793338299E0,-3.545921087E0,5.849213123E0
1.018946300E2,-3.306493521E0,-3.347196102E0,7.091842175E0
1.019466233E2,9.433442950E-1,5.219519138E-1,4.920234680E0
1.019986166E2,2.614548206E0,-1.156434774E0,4.158855438E0
1.020506099E2,-1.359948039E0,-1.213897347E0,1.077423692E0
1.021026033E2,-4.142095566E0,-2.178790122E-1,2.631308079E0
1.021545969E2,3.146077156E0,5.672037125E0,-4.575459003E0
1.022065905E2,-2.988054991E0,7.450983047E0,9.478934288E0
1.022585843E2,-1.017566800E0,-1.378862858E1,9.629773140E0
1.023105777E2,-1.853168726E0,-2.655969048E1,-3.311282158E0
1.023625710E2,-2.154847336E1,-1.436804295E1,-6.225114316E-2
1.024145644E2,-4.699961662E0,-8.454184532E0,4.987274647E0
1.024665577E2,4.405465603E0,-9.883566856E0,5.485283375E0
1.025185510E2,-4.098998547E0,-1.007750225E1,1.292190075E1
1.025705443E2,-1.177264881E1,-8.763046265E0,1.071916866E1
1.026225383E2,-3.332830429E0,-3.847599506E0,1.135365105E1
1.026745322E2,6.632141471E-1,-2.384697676E0,6.902694225E0
1.027265253E2,-3.191568375E0,-3.670423269E0,-3.155654192E0
1.027785188E2,-8.300951004E0,-3.179596901E0,1.680780888E0
1.028305127E2,-3.081431627E0,5.763019562E0,-4.254626274E0
1.028825089E2,5.001639843E0,6.749460697E0,-3.670423269E0
1.029345027E2,4.182797909E0,7.360000610E0,2.257801056E0
1.029864959E2,-1.089395046E0,-5.863578796E0,1.195221996E1
1.030384894E2,-2.849187136E0,-1.537842751E1,1.451888275E1
1.030904827E2,4.029564381E0,-2.123961258E1,3.244242430E0
1.031424760E2,-1.100169277E1,-1.871844101E1,4.213923454E0
1.031944694E2,-6.234691620E0,-8.348835945E0,5.569083214E0
1.032464633E2,-4.122941017E0,-2.897072554E0,6.476513386E0
1.032984570E2,-6.148497581E0,-4.386311531E0,4.508419514E0
1.033504505E2,-3.261002302E0,-8.102226257E0,1.268726254E1
1.034024437E2,-6.821289062E0,-6.974522591E0,1.116689777E1
1.034544370E2,-3.426207304E0,-3.462121487E0,9.220352173E0
1.035064304E2,-6.737489223E0,-2.921015263E0,5.209941864E0
1.035584238E2,-4.975303173E0,6.991282701E-1,1.733454943E0
1.036104170E2,-3.234665155E0,1.450930476E0,5.865973234E-1
1.036624112E2,-1.364736706E-1,3.902668059E-1,4.398283005E0
1.037144049E2,9.672870040E-1,6.560313106E-1,7.278595448E0
1.037644817E2,2.825244188E0,3.050306082E0,-3.146077156E0
1.038164751E2,2.909043789E0,-3.974496126E0,-1.987248063E-1
1.038684687E2,-5.698373914E-1,-2.047583771E1,7.254652500E0
1.039204670E2,-9.888355255E0,-2.823328781E1,1.309189510E1
1.039724643E2,-7.697593689E0,-1.203123093E1,4.999245644E0
1.040244583E2,-3.059883118E0,-6.299336910E0,7.161275864E0
1.040764516E2,-1.527547359E0,-3.435784340E0,5.365570068E0
1.041284449E2,-2.241041183E0,-7.259441376E0,5.597814560E0
1.041804384E2,-8.265036583E0,-9.505270958E0,6.656084061E0
1.042324316E2,-7.802941799E0,-9.931451797E0,8.858817101E0
1.042844250E2,-7.556331158E0,-5.365570068E0,6.440599442E0
1.043364186E2,-4.388705730E0,-2.916226625E0,5.547534943E0
1.043884126E2,-1.029538140E-1,3.806896925E0,6.385530949E0
1.044404060E2,1.541913033E0,5.552323341E0,1.055635738E1
1.044923993E2,3.696760416E0,3.328042030E0,9.514847755E0
1.045443927E2,1.790917516E0,4.106181145E0,6.797346115E0
1.045963860E2,-7.848433018E0,-1.082212210E0,-8.906702399E-1
1.046483793E2,-8.916279793E0,-8.274613380E0,-2.885101080E0
1.047003729E2,1.709512234E0,-6.512427330E0,1.223953247E1
1.047523664E2,1.221798420E1,-3.510964584E1,-4.405465603E0
1.048043603E2,-4.443774223E0,-1.766495895E1,-2.942563772E0
1.048563538E2,-7.673650742E0,-7.510839939E0,4.082238674E0
1.049083470E2,-1.359948039E0,-7.953781128E0,5.715134144E0
1.049603407E2,2.688770533E0,-8.928250313E0,1.067128277E1
1.050123368E2,-5.435003757E0,-5.585843086E0,1.386285114E1
1.050643309E2,-1.019961071E1,-8.399115562E0,1.037439251E1
1.051163244E2,-6.869174480E0,-6.129343510E0,1.771763325E0
1.051683177E2,3.799714088E0,-2.633702382E-2,7.541965485E0
1.052203111E2,1.316851139E0,1.628106833E-1,1.620923996E0
1.052723044E2,-5.794144869E-1,1.030974770E1,-6.028783798E0
1.053242977E2,-7.853221297E-1,9.189227104E0,-4.881926537E0
1.053762914E2,8.643332481E0,6.986494064E0,-8.140534163E-2
1.054282854E2,-5.763019562E0,-1.605840111E1,1.591713905E1
1.054802787E2,-2.621730804E0,-2.588211060E1,1.017806244E1
1.055322720E2,-1.117886925E1,-2.231464195E1,2.387091875E0
1.055842654E2,-5.578660488E0,-1.125309181E1,3.703943014E0
1.056362587E2,6.895511150E-1,-7.968146324E0,1.192348862E1
1.056882520E2,-1.199531674E0,-2.985660791E0,9.438231468E0
1.057402453E2,-4.434196949E0,-3.605777979E0,1.021876526E1
1.057922392E2,-1.000327969E1,-6.826077461E0,9.644139290E0
1.058442332E2,-4.707144260E0,-3.931399345E0,1.304400921E1
1.058962264E2,-5.569083214E0,-2.648067951E0,1.002243423E1
1.059482198E2,-6.431022167E0,-4.300117493E0,5.370358467E0
1.060002131E2,1.280937076E0,-8.755863190E0,1.822043180E0
1.060522108E2,3.028757572E0,-1.477267504E0,-1.082212257E1
1.061042088E2,3.450150013E0,3.804502726E0,-7.345634937E0
1.061562040E2,1.865140080E0,-8.858817071E-2,4.819674969E0
1.062081974E2,-4.427014351E0,-1.479183006E1,1.700653458E1
1.062601907E2,6.069486618E0,-2.597548676E1,3.407052994E0
1.063121841E2,-1.468648148E1,-1.878787422E1,5.736682415E0
1.063641774E2,-7.072687626E0,-1.149491310E1,5.724710941E0
1.064161707E2,-2.411034822E0,-6.708757877E0,7.175641537E0
1.064681647E2,-6.395108223E0,-5.174027920E0,6.217931747E0
1.065201584E2,-3.838022470E0,-6.447782040E0,9.083878517E0
1.065721517E2,-2.727078915E0,-1.034805584E1,7.355212212E0
1.066241451E2,-4.587430477E0,-3.126922846E0,4.367157459E0
1.066761383E2,8.260248303E-1,1.168406129E0,7.920260906E0
1.067281318E2,-6.727912426E-1,5.516408920E0,1.644148445E1
1.067801251E2,-1.532335877E-1,6.232297421E0,1.157392406E1
1.068321186E2,-9.361614585E-1,4.671230316E0,7.767027378E0
1.068841128E2,1.556278616E-1,5.968926907E0,-2.372726440E0
1.069361061E2,1.561067224E0,4.831646442E0,-1.074311066E1
1.069880995E2,-9.792584181E-1,-1.008229160E1,-1.359708691E1
1.070400928E2,-3.500429869E0,-3.922061539E1,8.485309601E0
1.070920862E2,-2.293715239E0,-2.124200630E1,-1.119323444E1
1.071440836E2,-7.079870701E0,-2.083019066E1,1.133689117E1
1.071960818E2,-4.525179386E0,-1.784453011E1,1.110225201E1
1.072480762E2,-7.676044941E0,-1.153561592E1,8.696005821E0
1.073000695E2,-6.433416367E0,-2.762993097E0,8.140534401E0
1.073520628E2,-5.645699978E0,-4.309694469E-2,8.681640625E0
1.074040561E2,-6.450176239E0,4.788549542E-1,8.913885117E0
1.074560495E2,-5.188393593E0,1.388679385E0,9.383162498E0
1.075080428E2,-3.541132450E0,4.740664065E-1,5.377541065E0
1.075600362E2,3.567469418E-1,4.659258842E0,9.237112045E0
