"Time (s)","Gyroscope x (rad/s)","Gyroscope y (rad/s)","Gyroscope z (rad/s)"
5.199271500E-2,1.068357587E0,-1.991927743E0,8.611507416E-1
1.039859490E-1,1.249173641E0,-2.093331337E0,1.111605644E0
1.559794750E-1,2.905229330E0,-2.618064642E0,2.150076389E0
2.079729010E-1,3.925374269E0,-2.569806099E0,3.153728008E0
2.599659590E-1,5.036538124E0,-2.980918407E0,2.249036551E0
3.119603780E-1,-1.533729881E-1,-2.515726388E-1,1.172692060E0
3.639536700E-1,-3.819175243E0,4.955155551E-1,-7.148815393E-1
4.159469280E-1,-5.674373150E0,-1.110736281E-1,-1.854756117E0
4.679402540E-1,-5.496000290E0,3.251739502E0,-1.594527483E0
5.199337470E-1,-4.265717983E0,6.208938122E0,-2.041680813E0
5.719270060E-1,1.124557137E0,8.450202942E0,2.023016453E0
6.239205320E-1,1.828273773E0,-1.263776422E0,1.871521831E0
6.759136920E-1,3.111090899E0,-2.045073032E0,8.165576458E-1
7.279080100E-1,2.901564121E0,-6.858978271E-1,9.698848128E-1
7.799014010E-1,2.313300848E0,-2.104326963E0,-2.573434711E-1
8.318946610E-1,1.191752315E0,-1.210631132E0,9.943193793E-1
8.838879870E-1,1.067135692E0,-2.208173990E0,7.976207733E-1
9.358812120E-1,1.203358769E0,-2.244825840E0,-6.003400311E-2
9.878765010E-1,-1.959350146E-2,-1.822211035E-2,-3.660774827E-1
1.039871094E0,-1.982914448E0,-2.357225180E0,-1.685546398E0
1.091864385E0,-4.734251499E0,1.331790090E0,-1.465023994E0
1.143857711E0,-5.216224194E0,3.434998989E0,-5.713281631E-1
1.195851037E0,-3.533901453E0,4.232178211E0,-1.752130747E0
1.247844496E0,-1.893117189E0,2.422184467E0,1.322353959E0
1.299837656E0,5.784435272E-1,4.783178806E0,1.843422174E0
1.351831015E0,1.925401449E0,-1.473303080E0,2.295161337E-1
1.403825235E0,3.336500168E0,-1.239017919E-1,1.170859456E0
1.455818625E0,3.938202381E0,-1.389003634E0,2.800647974E0
1.507812018E0,4.321825504E0,-1.982764721E0,1.382829666E0
1.559805344E0,3.712182283E0,-2.589964867E0,-3.233169317E-1
1.611798570E0,2.304748774E0,1.045618057E-1,-3.404211402E-1
1.663791963E0,1.753137469E0,-1.746036112E-1,-5.114634037E-1
1.715785322E0,2.076483667E-1,6.836620569E-1,-6.006497145E-1
1.767778648E0,-1.199174285E0,-6.009875536E-1,-7.655833960E-1
1.819772834E0,-1.803930879E0,-4.733490944E0,-5.365089178E-1
1.871766392E0,-4.400719166E0,-3.419806957E-1,-1.068572521E0
1.923759552E0,-6.053719997E0,4.148489952E0,5.044054985E-1
1.975753110E0,-6.354876995E0,1.582855701E0,-6.553179026E-2
2.027747899E0,-1.533729881E-1,-5.900243759E0,-9.974024445E-2
2.079743825E0,1.978745311E-1,1.639055252E0,-1.022146821E0
2.131737051E0,8.667719960E-1,6.384867191E0,5.587724447E-1
2.183730344E0,2.632172585E0,2.470442772E0,1.202624559E0
2.235723769E0,3.756775379E0,-1.867311120E0,2.302181959E0
2.287717261E0,3.274191856E0,-9.290221930E-1,2.143967867E0
2.339710520E0,3.105592966E0,-1.493461728E0,1.557537079E0
2.391703646E0,2.359115839E0,-1.059136510E0,3.742912114E-1
2.443697832E0,1.834993362E0,4.875743091E-1,-3.514167070E-1
2.495691290E0,1.101955056E0,1.218780041E0,1.916424781E-1
2.547684714E0,7.885812521E-1,1.463736892E0,4.109431207E-1
2.599678273E0,1.423881054E0,-4.510018229E-2,1.049908161E0
2.651671433E0,1.080773324E-1,-5.753312111E-1,6.003113389E-1
2.703664759E0,-2.841790915E0,-9.946718812E-2,1.067012310E0
2.755658019E0,-5.020136356E0,-1.743916392E0,2.484529465E-1
2.807651677E0,-6.040281296E0,-1.638236642E0,-6.305821538E-1
2.859645695E0,-6.411687374E0,-1.994371176E0,1.258824110E0
2.911639254E0,-4.629182816E0,1.433804512E0,-5.697967857E-2
2.963632380E0,-8.149400353E-1,2.806418657E0,2.160461187E0
3.015625972E0,1.166706800E0,-3.288287669E-2,2.445735455E0
3.067620462E0,1.051253319E0,-8.789312243E-1,3.571559906E0
3.119619350E0,2.112936974E0,-1.863646030E0,2.077994347E0
3.171615674E0,1.598588467E0,5.016242266E-1,2.772548199E0
3.222192809E0,1.514899969E0,-1.497126818E0,3.227642775E0
3.274186168E0,9.626777768E-1,-1.751246810E0,4.084075928E0
3.326179561E0,1.397613883E0,-2.405483484E0,4.398671150E0
3.378172820E0,3.580235243E0,-4.293344021E-1,4.579487324E0
3.430166246E0,1.691440105E0,-5.160772800E-1,4.034595490E0
3.482159572E0,-1.266369462E0,1.136924028E0,3.222755909E0
3.534153293E0,-3.722658634E0,3.696773052E-1,2.961004376E-1
3.586147248E0,-5.217445850E0,9.041844010E-1,-2.597869337E-1
3.638140540E0,-6.078765392E0,2.896539569E-1,-9.134128094E-1
3.690133800E0,-6.255306244E0,2.569403172E0,-1.268936276E0
3.742127393E0,-5.304800034E0,6.241313934E0,-1.568871260E0
3.794120718E0,8.506298065E-3,3.274952412E0,2.756054640E0
3.846113878E0,1.692661762E0,-4.302831173E0,3.694042563E-1
3.898107271E0,1.508791327E0,1.050792098E0,2.335779428E0
3.950100893E0,1.673725009E0,-5.997658372E-1,9.020787477E-1
4.002094846E0,1.898523331E0,-1.558824182E0,9.179612398E-1
4.054088239E0,1.410441995E0,-1.619910717E0,1.456133604E0
4.106081631E0,2.475180149E0,-3.919818401E0,1.831815720E0
4.158075523E0,3.117810249E0,-3.331555128E0,1.470183492E0
4.210071943E0,2.202734470E0,-2.348673105E0,3.547435105E-1
4.262065604E0,1.333472967E0,-7.317126989E-1,-4.577072859E-1
4.314058863E0,1.635240436E0,-8.361706734E-1,-9.531190395E-1
4.366052256E0,4.678769410E-1,1.734350204E0,-4.778658450E-1
4.418045715E0,-1.840582728E0,2.161956072E0,-6.208083034E-1
4.470038841E0,-5.105657578E0,1.198334321E-1,-2.004418135E0
4.522032301E0,-6.309672832E0,1.240160227E0,-1.769235015E0
4.574026321E0,-5.349392414E0,3.822287560E0,-1.515725851E0
4.626019876E0,-3.387904644E0,5.061733246E0,-3.050219536E0
4.678013302E0,-9.432217479E-1,4.974379539E0,1.382218838E0
4.730006628E0,2.223091274E-1,-8.480641991E-2,-6.226408482E-1
4.782000053E0,1.184421897E0,-4.953078628E-1,-1.993112862E-1
4.833993346E0,2.477012634E0,-9.027550220E-1,1.610992104E-1
4.885986604E0,3.981574059E0,-1.524615884E0,8.428248167E-1
4.937979964E0,3.827024937E0,-6.449698210E-1,1.472015977E0
4.989973886E0,3.271137476E0,-1.899687052E0,5.318943858E-1
5.041967607E0,1.762911201E0,-1.978164911E-1,1.099999189E0
5.093960966E0,1.812391400E0,-8.361706734E-1,8.672594428E-1
5.145954326E0,2.688982964E0,-4.116193354E-1,-5.820140988E-2
5.197948315E0,1.758635283E0,1.757563114E0,5.923700333E-1
5.249946869E0,-3.364340216E-2,1.961915940E-1,2.441768944E-1
5.301944163E0,-2.222373486E0,-5.869376659E-1,6.091731787E-2
5.353938623E0,-5.243712902E0,-2.036520958E0,-1.330022812E0
5.405931982E0,-6.917483807E0,-1.171822846E-1,-2.014191866E0
5.457925408E0,-6.333496571E0,2.703182697E0,-1.623849034E0
5.509918767E0,-3.478312492E0,4.530891418E0,-1.892018914E0
5.561911926E0,-6.487847567E-1,4.234621525E0,-2.597869337E-1
5.613905385E0,1.558882356E0,-2.481841564E0,1.421314240E0
5.665899604E0,2.984030962E0,-3.126304388E0,2.093265772E0
5.717892962E0,2.663937569E0,-1.718260169E0,2.051116228E0
5.769886388E0,2.573529482E0,-1.436040282E0,1.802494168E0
5.821879848E0,2.308413982E0,-2.046294689E0,7.505841851E-1
5.873872940E0,2.544818878E0,-2.031633854E0,8.229760081E-2
5.925866400E0,2.437917471E0,-1.862100512E-1,-3.086561561E-1
5.977859692E0,3.051836967E0,-1.474524856E0,-3.905121088E-1
6.029853149E0,2.934550762E0,-4.470494986E-1,-3.605796993E-1
6.081847401E0,3.322649002E-1,2.964021921E0,1.049908161E0
6.133840627E0,-3.523516655E0,1.953040004E0,-3.098779023E-1
6.185834119E0,-6.497208595E0,-6.877304316E-1,-1.475408792E0
6.237827312E0,-6.853343010E0,2.163501382E-1,-1.912177324E0
6.289821201E0,-5.504552841E0,1.594462156E0,-1.979983568E0
6.341819689E0,-2.333550930E0,2.780762434E0,-2.316871285E-1
6.393816910E0,2.927571721E-2,1.106704548E-1,1.352897286E0
6.445810771E0,2.363391876E0,-1.878306746E0,2.199556589E0
6.497804097E0,2.655996323E0,-1.097620964E0,1.813489795E0
6.549797323E0,2.359115839E0,-3.670261502E-1,1.792109370E0
6.601790916E0,1.802006721E0,-1.322419405E0,1.541043878E0
6.653784009E0,1.679222822E0,-1.474524856E0,1.610071540E0
6.705777335E0,1.896690845E0,-1.311423779E0,2.205665350E0
6.757771058E0,3.706684589E0,1.083167911E0,3.266127110E0
6.809765011E0,3.110480070E0,-2.027034163E-1,3.634479046E0
6.861758504E0,1.258947492E0,-1.397842914E-1,4.354689121E0
6.913751797E0,-2.155789375E0,-5.869376659E-1,1.185520291E0
6.965745056E0,-5.120929241E0,7.862874269E-1,-4.986352623E-1
7.017738349E0,-7.071422100E0,-1.251235306E-1,-2.283583403E0
7.069731775E0,-7.207034111E0,8.046134114E-1,-1.936612010E0
7.121725035E0,-4.904683113E0,2.086819649E0,-2.567024946E0
7.173718923E0,7.895433344E-3,4.037922859E0,1.558758855E0
7.225712711E0,8.502786160E-1,-2.637001514E0,2.075550795E0
7.277706104E0,2.014587879E0,-3.497099638E0,1.294865131E0
7.329699363E0,1.980379224E0,7.331421375E-1,2.222158432E0
7.381693320E0,2.033524513E0,-1.129385948E0,9.943193793E-1
7.433689210E0,2.150199890E0,-1.202078938E0,1.308304191E0
7.485683336E0,2.467849970E0,-7.146084309E-1,1.507446170E0
7.537676896E0,3.272359371E0,-1.031036735E0,1.263100147E0
7.589670156E0,3.128195047E0,5.630345270E-2,2.073718309E0
7.641663447E0,2.469071627E0,-7.793602347E-1,1.414594769E0
7.693656806E0,1.243065000E0,1.171028707E-2,-5.847672820E-1
7.745650099E0,2.369698882E-1,7.160379291E-1,-1.355679154E0
7.797644152E0,-2.785591364E0,1.879125357E0,-1.888353586E0
7.849637908E0,-6.142906666E0,-7.311018705E-1,-1.507784724E0
7.901631167E0,-6.870447159E0,-8.825964332E-1,-1.755795956E0
7.953624426E0,-3.103852034E0,-9.736153483E-1,-4.180010259E-1
8.005617886E0,-3.581548929E0,2.731893301E0,7.664666772E-1
8.057611179E0,-1.057453632E0,5.541586280E-1,1.258213162E0
8.109604404E0,-1.881923079E-1,-3.505328000E-1,5.557181239E-1
8.161598163E0,2.381916344E-1,-2.674551308E-1,1.502559304E0
8.213591883E0,1.497795820E0,-2.038353443E0,1.167805195E0
8.265585539E0,2.280314207E0,-1.653508425E0,1.877630472E0
8.317578965E0,2.643168211E0,-5.563943982E-1,2.850738764E0
8.369572324E0,3.623606920E0,-1.519118071E0,3.247801304E0
8.421565615E0,2.827038527E0,8.684670925E-2,2.706574678E0
8.473563469E0,1.773295999E0,-1.189861655E0,1.875187159E0
8.525561223E0,1.478858829E0,1.171028707E-2,1.159863949E0
8.577555450E0,1.428966522E-1,-3.114374280E-1,-1.011151195E0
8.629548876E0,-2.825297594E0,1.428917646E0,-5.707173347E-1
8.681542336E0,-5.881456375E0,-1.636404157E0,-1.324524999E0
8.733535428E0,-6.391528606E0,-2.831256628E0,-9.213539958E-1
8.785528922E0,-6.040892124E0,-2.802833021E-1,-6.342473030E-1
8.837522447E0,-3.234577417E0,6.207429171E-1,-8.315567970E-1
8.889515572E0,-6.235406920E-2,1.104548216E0,1.978423357E0
8.941509825E0,2.760652900E-1,-9.473481178E-1,1.332127929E0
8.993503149E0,9.040347338E-1,-3.694696426E-1,1.560591459E0
9.045496575E0,1.460532904E0,-1.081738472E0,1.990640640E0
9.097489868E0,2.366446018E0,-1.998036385E0,2.616777658E0
9.149483160E0,2.900342226E0,-2.618064642E0,4.297878265E0
9.201476421E0,2.324296474E0,-3.115308762E0,5.055351734E0
9.253469846E0,2.307802916E0,-2.921768464E-2,6.209886551E0
9.305463538E0,2.020085573E0,-2.316297054E0,4.114008427E0
9.357457757E0,-5.150051713E-1,-7.304909825E-1,4.321091175E0
9.409451049E0,-2.738554716E0,3.186883777E-2,1.629008412E0
9.461444208E0,-3.943180799E0,7.355856299E-1,2.020271868E-1
9.513437666E0,-4.246170044E0,-5.191316009E-1,-1.279931903E0
9.565433588E0,-6.445896149E0,2.135077953E0,-2.094215393E0
9.617428349E0,-3.301161528E0,6.282242298E0,1.142148852E0
9.669421474E0,-7.679034472E-1,2.265802860E0,-1.223732352E0
9.721414833E0,3.206584454E-1,-1.507798582E-1,3.064851463E-1
9.773408226E0,1.182589412E0,9.084604383E-1,6.815564036E-1
9.825401618E0,2.037800550E0,-6.382502913E-1,1.391992688E0
9.877395177E0,3.243037939E0,-2.733518124E0,2.004079819E0
9.929388769E0,4.718888283E0,-3.536805868E0,2.093876839E0
9.981382553E0,3.913767815E0,-3.577733994E0,1.060903668E0
1.003337591E1,3.001135349E0,-3.302233696E0,-2.466843128E0
1.008536937E1,3.176041245E-1,6.665577888E-1,-2.862072945E0
1.013736256E1,-6.836040020E-1,2.340328693E0,-2.564581633E0
1.018935612E1,-1.619449615E0,1.592629552E0,-1.845593095E0
1.024134931E1,-3.969448328E0,-1.502624631E0,-1.675772548E0
1.029334254E1,-3.216251135E0,-3.115919590E0,-1.375226974E0
1.034533606E1,-4.117888451E0,2.248087883E0,-2.159577847E0
1.039733028E1,-5.244934559E0,-1.119612217E0,-1.380113721E0
1.044932351E1,-9.717338532E-2,3.549231052E0,2.635714293E0
1.049942062E1,-4.074929059E-1,1.227332115E0,1.760955334E0
1.055141404E1,-1.118341535E-1,3.089860439E0,3.926171660E-1
1.060341076E1,9.467952847E-1,3.560226679E0,3.852867782E-1
1.065540905E1,1.468474269E0,3.305819333E-1,1.502559304E0
1.070740508E1,2.424478292E0,-3.064607143E0,2.187950134E0
1.075939837E1,2.625453234E0,-4.632698059E0,1.049908161E0
1.081139177E1,2.862468719E0,-4.109797478E0,-1.492513061E0
1.086338509E1,2.203345299E0,4.393159449E-1,-2.997684956E0
1.091537835E1,3.018850327E0,-2.839197636E0,-2.648880959E0
1.096737161E1,1.866758466E0,-4.757601917E-1,-3.032504320E0
1.101936560E1,-5.260007977E-1,1.869962454E0,-2.399647951E0
1.107135939E1,-2.959687948E0,7.093183994E-1,-1.310475230E0
1.112335271E1,-5.451407433E0,-1.451922894E0,-2.118649960E0
1.117534600E1,-5.606566906E0,3.310993433E0,-2.088717461E0
1.122733936E1,-1.688477278E0,4.317699432E0,-7.173250318E-1
1.127933276E1,-5.467702150E-1,3.117349148E0,1.395657778E0
1.133132605E1,1.587791443E-1,-2.561865091E0,-1.150118783E-1
1.138331944E1,4.116773605E-1,9.173363447E-2,8.727571964E-1
1.143531343E1,1.626688361E0,-5.600595474E-1,5.447226167E-1
1.148730708E1,2.018252850E0,-1.280269623E0,-3.214843273E-1
1.153930044E1,1.883251667E0,-1.636080295E-1,8.874179721E-1
1.159129370E1,1.111118078E0,-2.456796169E0,1.903897762E0
1.164328720E1,4.825377166E-1,-1.803781271E0,4.695861638E-1
1.169528365E1,-1.762392044E0,-3.768000305E-1,-4.925266206E-1
1.174728214E1,-3.790464640E0,-3.041070700E-1,-2.187066793E0
1.179927706E1,-3.932185411E0,2.719388604E-1,-2.174849272E0
1.185127046E1,-2.687242031E0,2.970130682E0,-1.383778930E0
1.190326371E1,-2.130743980E0,4.800894260E0,-1.824823737E0
1.195525714E1,1.332862139E0,5.475899696E0,2.828747749E0
1.200725043E1,2.650696933E-1,1.729787141E-1,1.870300174E0
1.205924379E1,1.586371183E0,-3.037118196E0,-4.522095025E-1
1.211123715E1,2.079339504E0,-5.050817132E-1,1.089003563E0
1.216323124E1,2.869188309E0,-5.643356442E-1,1.224004745E0
1.221522483E1,3.695078135E0,-1.577150226E0,1.829982996E0
1.226721802E1,3.635824203E0,-1.498348594E0,2.003468752E0
1.231921151E1,2.837423325E0,-1.867922068E0,9.307894111E-1
1.237120477E1,8.185136318E-1,1.953040004E0,1.481178999E0
1.242319806E1,-8.974068761E-1,-3.114087105E0,1.036469102E0
1.247519156E1,-4.561987400E0,-3.721287012E0,-2.643641457E-2
1.252718505E1,-7.368302345E0,6.073039174E-1,-1.364842176E0
1.257917923E1,-5.905890942E0,2.612163544E0,-2.909109592E0
1.263117253E1,-1.532706618E0,8.911406517E0,-6.348581910E-1
1.268316578E1,5.246874094E-1,4.235843182E0,5.208988786E-1
1.273515911E1,1.650512099E0,1.665322542E0,8.031185865E-1
1.278715440E1,1.367681503E0,8.840258718E-1,-5.792694688E-1
1.283914986E1,9.919993281E-1,3.574600220E-1,2.060020901E-2
1.289114315E1,1.681666255E0,-1.095788479E0,-4.430465102E-1
1.294313654E1,2.426921844E0,-9.247461557E-1,5.777093172E-1
1.299512984E1,3.883835554E0,-2.726187706E0,3.211458921E-1
1.304712313E1,4.457437992E0,-1.015154123E0,-4.613724649E-1
1.309911652E1,4.895428181E0,2.505585849E-1,-5.023004413E-1
1.315111021E1,2.054904699E0,1.523601770E0,-4.045620263E-1
1.320310423E1,-2.731224298E0,5.187284350E-1,-6.922795177E-1
1.325509752E1,-5.991412163E0,-2.098829031E0,-1.470521808E0
1.330709081E1,-5.646273613E0,-2.317518711E0,-2.240823030E0
1.335908417E1,-3.885148764E0,-1.587211192E-1,-1.191967249E0
1.341107750E1,-1.836917639E0,3.023275852E0,1.176968098E0
1.346307086E1,-3.885561228E-1,4.152154922E0,3.070650339E0
1.351506412E1,5.937151909E-1,2.920974493E-1,9.930976629E-1
1.356705794E1,1.306594968E0,1.668700576E-1,1.107940316E0
1.361905196E1,1.926012278E0,-1.831270099E0,1.257602334E0
1.367104536E1,2.592466354E0,-2.482452393E0,1.494618058E0
1.372303861E1,3.016406775E0,-1.773848891E0,2.234375954E0
1.377503191E1,2.743960857E0,-1.260722041E0,3.423119545E0
1.382702753E1,1.981601119E0,-3.407913446E0,1.340680003E0
1.387902632E1,3.469256461E-1,-2.053014278E0,3.193133175E-1
1.393102184E1,-1.932212472E0,-3.322068453E-1,-1.770456672E0
1.398301520E1,-2.853397369E0,-8.819856048E-1,-4.949700534E-1
1.403500859E1,-6.850288391E0,2.310109138E-1,-1.292149186E0
1.408700198E1,-6.026842117E0,3.281060934E0,-7.704702616E-1
1.413899521E1,3.377626538E-1,7.508572340E-1,6.265785694E-1
1.419098854E1,-1.460426003E-1,1.671431184E0,1.789666057E0
1.424298183E1,-9.242849350E-1,4.493017673E0,1.147646666E0
1.429497565E1,-6.426759958E-1,2.973185062E0,-4.149467051E-1
1.434696950E1,-5.980829000E-1,5.630345270E-2,-5.209275335E-2
1.439896293E1,3.493691087E-1,-3.447008848E0,2.426539920E-2
1.445095622E1,1.950446844E0,-1.999868989E0,6.736151576E-1
1.450294951E1,3.475166559E0,-1.907628298E0,2.157406807E0
1.455494294E1,4.566171646E0,-2.622340679E0,2.875173569E0
1.460693630E1,3.458062172E0,-3.077435255E0,1.345566869E0
1.465892963E1,1.312902123E-1,-1.477255374E-1,-1.315972924E0
1.471092365E1,-3.287111759E0,3.366905749E-1,-2.209057808E0
1.476291737E1,-4.704930305E0,-3.063385248E0,-3.527305126E0
1.481491050E1,-7.531403542E0,9.719904661E-1,-1.510228157E0
1.486690399E1,-1.937710285E0,7.048877716E0,-5.023004413E-1
1.491889855E1,8.447808027E-1,1.223056078E0,9.662196040E-1
1.497089464E1,1.649901271E0,-1.880426556E-1,7.707427144E-1
1.502288796E1,1.522230387E0,2.110032558E0,4.714187682E-1
1.507488146E1,1.858206272E0,2.191277504E0,-3.159865439E-1
1.512687465E1,2.096443653E0,1.097217798E0,4.259135947E-2
1.517886784E1,2.280314207E0,-5.612813234E-1,6.925520301E-1
1.523086127E1,2.295585632E0,-1.196581125E0,1.050518990E0
1.528285456E1,1.863704085E0,-1.227735400E0,-5.056131631E-3
1.533484881E1,1.548497558E0,-1.947945476E0,-3.501950204E-1
1.538684244E1,-2.191830397E0,-1.299817324E0,-1.119885206E0
1.543883569E1,-7.258957386E0,-5.753312111E-1,-2.164464951E0
1.549082922E1,-6.284016609E0,6.150294781E0,-1.910955667E0
1.554282241E1,-1.570580363E0,3.062982082E0,-2.775940895E0
1.559481577E1,9.602344036E-1,-6.364177465E-1,1.613125801E0
1.564680913E1,1.555827975E0,-1.726201296E0,7.511950731E-1
1.569880229E1,8.930391669E-1,4.203791618E-1,1.340680003E0
1.575079627E1,1.354853272E0,1.224888682E0,1.193461418E0
1.580278996E1,1.754359126E0,-1.453755498E0,5.062380433E-1
1.585478326E1,1.652344704E0,-1.679775596E0,7.053801417E-1
1.590677665E1,1.568045259E0,-1.181309581E0,1.550817609E0
1.595877137E1,1.896690845E0,-2.219780445E0,1.426201224E0
1.601077012E1,2.181964874E0,-2.244215012E0,1.890458703E0
1.606276698E1,2.412261009E0,-1.454977155E0,1.907562971E0
1.611476098E1,7.000057101E-1,-1.624186873E0,3.461913764E-1
1.616675447E1,-2.555295229E0,1.591407895E0,-9.830514193E-1
1.621874763E1,-6.849066734E0,-4.830905795E-1,-2.311072588E0
1.627074092E1,-8.258333206E0,8.773063421E-1,-2.765556097E0
1.632273435E1,-2.418461323E0,4.485076427E0,-3.672992289E-1
1.637472784E1,-6.347348094E-1,8.400436044E-1,3.394718766E-1
1.642672206E1,6.409504265E-2,3.025719404E0,1.792720318E0
1.647871549E1,1.444039702E0,-5.081360340E-1,1.067623258E0
1.653070854E1,2.621787786E0,-5.704442859E-1,1.433531523E0
1.658270197E1,2.302916288E0,-8.758769035E-1,1.239887238E0
1.663469540E1,2.301694393E0,-2.712748766E0,6.919410825E-1
1.668668876E1,2.254657745E0,-1.906406641E0,1.384051442E0
1.673868202E1,2.523438454E0,-2.187404633E0,8.611507416E-1
1.679067597E1,2.722580671E0,-1.679164648E0,9.149069190E-1
1.684266972E1,2.161806345E0,-6.461915970E-1,1.231945992E0
1.689466312E1,1.175915590E-3,-1.002936840E0,5.175433680E-2
1.694665644E1,-3.910194397E0,-1.331582427E0,-1.752130747E0
1.699864970E1,-7.519186020E0,1.226721287E0,-1.697152853E0
1.705064436E1,-7.451379776E0,7.887309194E-1,-1.925616503E0
1.710264311E1,-3.096521616E0,1.284142613E0,-2.589627028E0
1.715463973E1,-4.508643746E-1,1.125030518E-1,1.264932752E0
1.720663303E1,2.055515528E0,-2.240836918E-1,1.435364127E0
1.725862642E1,1.694494367E0,8.027807474E-1,1.541654706E0
1.731061971E1,3.777544975E0,8.443196416E-1,7.609688640E-1
1.736261304E1,4.436057568E0,2.249022573E-1,1.796996355E0
1.741460640E1,3.930871964E0,-1.787898660E0,2.670885995E-2
1.746659969E1,2.827649355E0,-1.168481350E0,-2.927736640E-1
1.751859345E1,1.822776079E0,-4.837014079E-1,6.550308317E-3
1.757058744E1,1.497795820E0,-7.598124743E-1,8.657365292E-2
1.762258063E1,1.626688361E0,-7.353779078E-1,3.480239809E-1
1.767457422E1,-1.011638641E0,1.024524927E0,-7.286217809E-2
1.772656765E1,-5.884510517E0,2.942537889E-2,-1.113776565E0
1.777844612E1,-8.225956917E0,8.684670925E-2,-1.798556566E0
1.783043958E1,-6.764767647E0,6.119037420E-2,-2.019078970E0
1.788243290E1,-1.208337307E0,5.737062693E-1,3.584086895E-1
1.793442709E1,1.156322122E0,-1.173979163E0,2.723679066E0
1.798642051E1,3.033510923E0,-9.161940217E-1,4.506493509E-1
1.803841390E1,3.674308538E0,1.194956303E0,1.863580704E0
1.809040716E1,3.642543793E0,-1.936949849E0,8.031185865E-1
1.814240119E1,3.357269526E0,-1.990095139E0,3.333632350E-1
1.819439748E1,2.320020437E0,-1.993149400E0,-5.945410728E-1
1.824639124E1,4.465990067E0,-2.830034971E0,-5.817129612E-1
1.829838456E1,2.178910494E0,1.623783708E0,-9.201322794E-1
1.835037789E1,7.769747972E-1,4.534556866E0,-1.266492963E0
1.840237118E1,-1.828976274E0,2.632322311E0,-2.886507511E0
1.845436454E1,-3.406230450E0,5.529369116E-1,-1.004431725E0
1.850635790E1,-6.265690327E0,1.359279037E0,-8.278915882E-1
1.855835186E1,-7.087914944E0,3.518687725E0,-8.798151612E-1
1.861034558E1,-2.907764435E0,-3.592394829E0,-2.482725620E0
1.866233887E1,-9.829279780E-1,-9.125288129E-1,1.071288466E0
1.871433220E1,-6.235406920E-2,2.988169491E-1,6.766694784E-1
1.876632552E1,1.351188064E0,5.004025102E-1,1.657719135E0
1.881831898E1,4.200263500E0,-1.660227895E0,1.693149328E0
1.887031218E1,5.216742992E0,-2.607679844E0,2.293629885E0
1.892230567E1,5.474528313E0,-3.839184284E0,-1.074681163E0
1.897429975E1,3.323671818E0,6.641143560E-1,-1.698374629E0
1.902629321E1,1.353020787E0,2.167453766E0,-1.388055086E0
1.907828654E1,3.744145930E-1,8.785280585E-1,-8.236155510E-1
1.913028013E1,-8.442615867E-1,1.297581673E0,2.423443049E-1
1.918227402E1,-6.524499059E-1,6.128016710E-1,9.081874490E-1
1.923427264E1,1.190729067E-1,4.332073033E-1,1.915504098E0
1.928626949E1,-4.830417037E-2,-2.064620495E0,1.550206780E0
1.933826319E1,-2.345768213E0,-2.803156853E0,2.753310204E-1
1.939025665E1,-8.125164986E0,-2.390822649E0,-8.193394542E-1
1.944224997E1,-7.990774155E0,-4.256405354E0,-2.055730820E0
1.949424330E1,-4.481352806E0,3.103910208E0,1.121990204E0
1.954623656E1,-1.565693498E0,-1.798283458E0,3.889209747E0
1.959823002E1,1.097679019E0,-1.492239952E0,2.687027216E0
1.965022341E1,3.007243872E0,3.599034846E-1,3.040718079E0
1.970221749E1,4.869771957E0,-2.251545429E0,1.356562495E0
1.975421095E1,4.498365879E0,-3.251531839E0,1.152843237E-1
1.980620434E1,3.591841698E0,-2.043240309E0,-5.322328210E-1
1.985819754E1,2.478845358E0,1.705352515E-1,-9.665580392E-1
1.991019100E1,1.679222822E0,1.644266099E-1,-3.233169317E-1
1.996218426E1,7.781965137E-1,-1.238730788E0,1.279593468E0
2.001417758E1,-7.428579926E-1,-9.931630492E-1,1.525772214E0
2.006617121E1,-1.417253137E0,1.833310366E0,1.228891730E0
2.011816539E1,-2.585838318E0,-1.070132136E0,-8.059004545E-1
2.017015862E1,-5.444687843E0,2.047113180E0,-6.079801321E-1
2.022215194E1,-7.732988834E0,2.367817640E0,7.450863719E-1
2.027414573E1,-5.888175964E0,1.533986449E0,1.507446170E0
2.032614192E1,-2.382420063E0,-2.985194683E0,3.351958096E-1
2.037813595E1,1.552773714E0,-2.195956707E0,1.601519465E0
2.043012931E1,2.448912859E0,-1.699323297E0,2.639379501E0
2.048212264E1,2.232666731E0,-2.357836008E0,1.836702585E0
2.053411590E1,1.216186881E0,-3.322068453E-1,4.323233962E-1
2.058610936E1,1.975492477E0,-7.585907578E-1,7.805166245E-1
2.063810258E1,2.748236895E0,-2.001701593E0,1.489120245E0
2.069009644E1,3.685914993E0,-1.743916392E0,5.044054985E-1
2.074209032E1,2.920500994E0,-1.454977155E0,-6.369919330E-2
2.079408358E1,2.280925035E0,-2.371275187E0,1.302806377E0
2.084607694E1,-2.468353659E-1,-1.363958240E0,-3.960098922E-1
2.089807040E1,-2.014679432E0,-1.626019359E0,5.917592049E-1
2.095006379E1,-5.808152199E0,6.062941551E0,3.926171660E-1
2.100205709E1,-6.517367363E0,-3.061552763E0,-2.857186079E0
2.105405035E1,-8.827049255E0,2.905989647E0,2.429551482E-1
2.110604430E1,-1.861352205E0,2.686689138E0,8.171685338E-1
2.115803809E1,-3.608686477E-2,-5.056925416E-1,2.639990568E0
2.121003132E1,1.204580426E0,3.156444550E0,9.888215661E-1
2.126202474E1,3.346884727E0,3.519298553E0,2.205665350E0
2.131401816E1,5.028596878E0,-2.607356310E-1,2.369987965E0
2.136601625E1,5.811115265E0,-3.609498739E0,1.886182666E0
2.141801414E1,5.363350868E0,-4.917361259E0,9.423958659E-1
2.147000920E1,4.082977772E0,-4.016335011E0,7.450863719E-1
2.152200236E1,1.643792629E0,-1.426266432E0,1.809824467E0
2.157399576E1,2.754544020E-1,-1.262554526E0,1.052962542E0
2.162598898E1,-3.067001700E-1,-3.848958015E0,7.921229601E-1
2.167798248E1,-1.112431407E0,3.345201969E0,1.063958049E0
2.172997570E1,-3.436162949E0,1.264594793E0,2.157406807E0
2.178196975E1,-4.963936806E0,-4.171171188E-1,2.154662162E-1
2.183396341E1,-4.797170639E0,7.838439345E-1,3.712368608E-1
2.188595670E1,-4.496624947E0,2.882165909E0,-8.553805351E-1
2.193795006E1,-3.851551294E0,4.684829712E0,-2.298545390E-1
2.198994369E1,-9.371131063E-1,7.193652630E0,-6.085910201E-1
2.204193678E1,1.181978345E0,3.965230227E0,-8.107874393E-1
2.209393004E1,2.998691559E0,2.022067785E0,-4.717571735E-1
2.214592373E1,3.604669809E0,-1.447646737E0,9.695836902E-2
2.219791778E1,5.163598061E0,-2.685259819E0,2.044706494E-1
2.224991111E1,5.653512001E0,-2.475121975E0,2.973221838E-1
2.230190440E1,3.494103193E0,1.998567879E-1,-2.041981965E-1
2.235389769E1,2.907061815E0,2.865996361E-1,-7.649724483E-1
2.240589122E1,-2.236225009E-1,4.900177717E-1,-1.026422858E0
2.245788907E1,-2.691518068E0,-4.969895840E0,-1.919507861E0
2.250988686E1,-4.494181633E0,2.380034924E0,-3.367258549E0
2.256188102E1,-5.540593624E0,3.245630741E0,-3.923145771E0
2.261387455E1,-6.117250443E0,-9.332982302E-1,-3.636039019E0
2.266586787E1,-4.506399155E0,7.328654289E0,-2.684311152E0
2.271786107E1,4.739856124E-1,9.282200813E0,-4.720583186E-2
2.276985443E1,8.447808027E-1,-8.123469353E-1,1.265543580E0
2.282184782E1,1.111118078E0,5.443847775E-1,-1.528855264E-1
2.287384147E1,1.522230387E0,2.383699894E0,8.196119666E-1
2.292583546E1,2.235720873E0,-9.308547974E-1,6.577326655E-1
2.297782879E1,3.059777975E0,-3.807419300E0,-1.693788767E-1
2.302982214E1,1.865536571E0,-2.399374723E0,-1.487626076E0
2.308181547E1,1.428966522E-1,-4.837014079E-1,-2.748451948E0
2.313380903E1,-2.201604366E0,2.216933727E0,-1.720365763E0
2.318580212E1,-2.901655674E0,3.257848263E0,-2.521209955E0
2.323779538E1,-3.757477999E0,2.074602365E0,-3.907874346E0
2.328978907E1,-5.150250435E0,8.708599091E0,-2.235325098E0
2.334178312E1,-2.548575640E0,4.644512177E0,-3.569145203E-1
2.339377635E1,3.709127903E0,-5.905130386E0,1.812267900E0
2.344576978E1,1.581484199E0,2.646982908E0,2.831801891E0
2.349776323E1,8.582198620E-1,3.353754044E0,1.457966208E0
2.354975919E1,9.150303602E-1,-5.887702703E-1,-1.020314097E0
2.360175398E1,9.553474188E-1,-1.104951382E0,-1.270158052E0
2.365374714E1,1.166095972E0,-7.381084561E-2,-3.947881460E-1
2.370574063E1,1.528949976E0,-4.275018275E-1,1.628397584E0
2.375773399E1,2.754956484E0,-2.186182976E0,2.548971415E0
2.380972709E1,2.910116196E0,-1.916791201E0,3.095695734E0
2.386172048E1,1.471727192E-1,-1.500792146E0,2.677864075E0
2.391371443E1,-3.395234823E0,-9.986608028E-1,1.070677638E0
2.396570812E1,-5.293193340E0,-1.061579943E0,-1.617740393E0
2.401770148E1,-5.913221359E0,9.774882197E-1,-1.892018914E0
2.406969487E1,-4.240061760E0,4.134439945E0,-1.443643808E0
2.412168817E1,4.232838154E-1,4.290210247E0,2.012020826E0
2.417368159E1,1.464198112E0,-2.411879301E-1,1.723692536E0
2.422567512E1,1.364016294E0,-2.392655373E0,1.766453147E0
2.427766824E1,2.600407362E0,-6.370286345E-1,1.696203589E0
2.432966186E1,2.789775848E0,-1.903352261E0,2.043785810E0
2.438165588E1,2.125765085E0,-3.846514702E0,1.880684972E0
2.443364931E1,2.175856113E0,-3.381646156E0,2.953975201E0
2.448564244E1,2.210064650E0,-2.795215607E0,3.108523846E0
2.453763596E1,2.390269756E0,-1.133661985E0,3.817127705E0
2.458963308E1,2.306581259E0,-1.425044775E0,3.930137634E0
2.464163111E1,1.313314438E0,2.749931812E-1,2.315010071E0
2.469362586E1,-1.358610153E0,1.479619503E0,6.461262107E-1
2.474561923E1,-5.553421974E0,-3.865738511E-1,-1.737469912E0
2.479761255E1,-8.930285454E0,-3.725239635E-1,-2.593903065E0
2.484960604E1,-4.577869892E0,7.675625324E0,-9.812188148E-1
2.490159920E1,2.974455655E-1,-7.958535552E-1,-2.970497012E-1
2.495359249E1,1.574153900E0,-4.329996109E-1,9.381198287E-1
2.500365617E1,6.321997046E-1,3.072145224E0,1.306471586E0
2.505564999E1,4.440532327E-1,1.790549874E0,-3.037692308E-1
2.510764374E1,5.906608701E-1,7.649071217E-1,-9.299061298E-1
2.515963707E1,6.450278759E-1,-1.660514921E-1,-9.262409210E-1
2.521163046E1,1.169150233E0,7.404725552E-1,2.680006325E-1
2.526362375E1,2.924165964E0,-6.626849174E-1,9.564457536E-1
2.531561701E1,4.413455486E0,-1.402442694E0,1.691927433E0
2.536761044E1,4.865496159E0,-1.664503932E0,1.746905446E0
2.541960380E1,2.852083921E0,-1.251235306E-1,1.010201931E0
2.547159778E1,1.828884721E0,-9.840000868E-1,-2.422250032E0
2.552359151E1,-7.660708427E-1,1.918220758E0,-2.245098829E0
2.557558467E1,-4.076960564E0,-2.946710110E0,-2.950037479E0
2.562757806E1,-8.513674736E0,7.471920252E-1,-1.662944436E0
2.567957348E1,-5.339619160E0,4.797228336E0,-1.538327932E0
2.573156874E1,-5.449376106E-1,-5.716660023E-1,-5.175721049E-1
2.578356210E1,-4.398688078E-1,-1.896021843E0,2.062111855E0
2.583555549E1,-8.851895928E-1,-9.885632247E-2,2.420689583E0
2.588754875E1,-6.267935634E-1,-5.789964199E-1,1.877019644E0
2.593954221E1,4.819268584E-1,-1.266830683E0,1.370612383E0
2.599153543E1,1.174037218E0,-2.177630901E0,1.123822927E0
2.604352879E1,1.570488811E0,-1.958940983E0,1.457355261E0
2.609552278E1,2.420202494E0,-2.496502399E0,1.756068349E0
2.614751640E1,2.541153669E0,-2.365166426E0,2.084103107E0
2.619950989E1,2.444637060E0,-2.304690599E0,2.889834166E0
2.625150302E1,2.772870064E-1,-2.430529118E0,1.372444987E0
2.630349648E1,-5.174486637E-1,-1.596086979E0,1.743851066E0
2.635548984E1,-1.078222990E0,-1.979710460E0,4.927990437E-1
2.640748313E1,-4.610856533E0,1.309798956E0,4.011692405E-1
2.645947653E1,-6.456891537E0,1.070950508E0,-1.851701736E0
2.651147078E1,-5.824645996E0,1.267649174E0,-2.772886515E0
2.656346414E1,-1.018358111E0,4.717205048E0,1.783557296E0
2.661545753E1,-7.526317835E-1,-5.301271677E-1,7.304255962E-1
2.666745079E1,5.265200138E-1,1.387989640E0,4.402646124E-1
2.671944661E1,1.535669446E0,3.417284012E0,1.005314946E0
2.677144520E1,2.866744757E0,1.155860782E0,1.040745139E0
2.682344162E1,3.387812853E0,-1.224070072E0,1.535546064E0
2.687543518E1,3.607113600E0,-1.935728192E0,1.437807560E0
2.692742858E1,3.314508915E0,-1.864256859E0,1.950934291E0
2.697942187E1,3.015185118E0,-2.148309231E0,2.856236458E0
2.703141519E1,9.700081944E-1,-3.605833769E0,2.530645609E0
2.708340865E1,4.196186364E-1,-6.178798199E0,4.274364710E-1
2.713540247E1,-1.477117896E0,1.527266979E0,-9.763318300E-1
2.718739620E1,-4.789229393E0,5.578525543E0,-1.504119396E0
2.723938949E1,-7.548507690E0,8.589804173E-1,-3.227370262E0
2.729138288E1,-6.096480846E0,2.113697529E0,-2.992187262E0
2.734337614E1,-2.310338020E0,8.254115105E0,-1.815961897E-1
2.739536950E1,-3.146414161E-1,2.675693512E0,1.888015270E0
2.744736296E1,1.153267860E0,-7.695863843E-1,4.048344493E-1
2.749935615E1,1.082407355E0,3.218141794E0,2.973221838E-1
2.755135007E1,1.883251667E0,2.621937513E0,5.838180184E-1
2.760334396E1,2.819708347E0,-1.863035202E0,5.599942207E-1
2.765533715E1,2.858803511E0,-2.061566353E0,5.404465199E-1
2.770733055E1,3.292517900E0,-5.081073284E0,6.271893978E-1
2.775932387E1,2.759843349E0,6.457883716E-1,2.050505400E0
2.781131950E1,1.867980123E0,7.752918601E-1,2.677864075E0
2.786331832E1,1.661507726E0,-1.075019002E0,1.002871513E0
2.791531391E1,1.253449678E0,-1.084182024E0,6.620087028E-1
2.796730717E1,-6.726084352E-1,1.795436740E0,-1.204795480E0
2.801930049E1,-3.970669985E0,1.784441233E0,-1.173641324E0
2.807129389E1,-6.784926414E0,-1.179476976E0,-1.115609169E0
2.812328724E1,-6.561349392E0,-1.293995827E-1,-1.674550891E0
2.817528054E1,-4.284654617E0,-3.532633558E-2,-1.327579379E0
2.822727393E1,-4.881271422E-1,2.731282473E0,1.596632600E0
2.827926822E1,-1.592831127E-2,9.173363447E-2,1.339458227E0
2.833126151E1,2.827847898E-1,-2.249816619E-2,2.240484715E0
2.838325487E1,5.857739449E-1,-1.828826666E0,1.932608366E0
2.843524823E1,1.301707983E0,-2.927773237E0,2.413359404E0
2.848724159E1,1.613860130E0,-2.326681852E0,2.982074976E0
2.853923494E1,1.632186174E0,-2.798269749E0,3.947852850E0
2.859122820E1,1.920514584E0,-3.129358768E0,4.968608856E0
2.864322156E1,1.116615891E0,-3.016348600E0,5.242276192E0
2.869521588E1,1.529560804E0,-3.609498739E0,2.847073793E0
2.874720924E1,6.163172126E-1,-4.769819081E-1,2.864788771E0
2.879920256E1,-9.289733320E-2,4.990769085E-3,6.229133010E-1
2.885119596E1,-2.357374668E0,2.907822609E0,-5.206264257E-1
2.890319055E1,-5.197287083E0,2.384310722E0,-3.621025756E-2
2.895518661E1,-5.932157993E0,2.786583900E-1,-7.044968009E-1
2.900717993E1,-3.189984083E0,6.341819167E-1,-1.663245559E-1
2.905917329E1,-6.200740337E-1,4.892523289E0,1.038912654E0
2.911116655E1,-1.333564639E0,2.350102425E0,-1.177917361E0
2.916315988E1,-5.944177508E-1,-4.953078628E-1,4.927990437E-1
2.921515334E1,-1.729206890E-1,-6.098267809E-2,4.763056934E-1
2.926714656E1,5.240765214E-1,-8.373923898E-1,1.921001911E0
2.931914081E1,1.435487509E0,-2.061566353E0,2.575238705E0
2.937113440E1,2.184408188E0,-3.213658094E0,2.654651165E0
2.942312780E1,2.586357594E0,-2.414035559E0,2.917934179E0
2.947512102E1,2.249159813E0,-1.519118071E0,1.538600326E0
2.952711442E1,1.309649348E0,-7.158302069E-1,1.117103219E0
2.957910754E1,1.037203312E0,9.903163910E-1,2.047451019E0
2.963110104E1,1.422857791E-1,-1.739640355E0,1.746905446E0
2.968309439E1,-1.307709813E-1,-6.779565811E-1,1.567921877E0
2.973508874E1,-1.152748585E0,1.362333417E0,2.231321573E0
2.978708197E1,-3.305239379E-1,-1.730477452E0,1.715751171E0
2.983907526E1,-1.945651650E0,-1.610136986E0,1.317467213E0
2.989106882E1,-4.665223598E0,-3.853521049E-1,-7.521443367E-1
2.994306338E1,-5.656658173E0,2.257861853E0,-2.692252398E0
2.999506227E1,-4.624295712E0,5.502778053E0,-3.411851645E0
3.004705859E1,-1.502163410E0,1.629892349E0,1.126266360E0
3.009905215E1,-1.350470334E-1,-4.293056965E0,-6.736438721E-2
3.015104544E1,4.306142032E-1,1.216947436E0,-4.656485319E-1
3.020303867E1,1.369513988E0,3.400790691E0,4.811925888E-1
3.025503200E1,2.003592253E0,1.856523275E0,1.112827301E0
3.030702529E1,2.269929409E0,-6.614632010E-1,8.306075335E-1
3.035901881E1,2.816653728E0,-2.228619754E-1,6.580423564E-2
3.041101230E1,3.233263969E0,-6.852869987E-1,-9.546418488E-2
3.046300649E1,4.195376396E0,-1.918623924E0,-2.654378653E0
3.051499972E1,2.720137119E0,1.735571980E0,-2.475395203E0
3.056699311E1,1.304151535E0,1.973198652E0,-2.387430668E0
3.061898633E1,-2.645703077E0,-5.154664516E-1,-2.609174490E0
3.067097969E1,-5.190567970E0,-5.625353813E0,-1.956770658E0
3.072297312E1,-3.365913391E0,-1.374342918E0,6.919410825E-1
3.077496644E1,-1.634721160E0,-1.275382757E0,2.551414967E0
3.082696026E1,-1.461846352E0,-2.294305801E0,1.660773396E0
3.087895409E1,-1.690309882E0,3.583439350E0,1.522717953E0
3.093094738E1,-5.999154449E-1,3.651856184E0,6.901085377E-1
3.098294074E1,2.142869473E0,1.341563940E0,1.616791129E0
3.103493483E1,3.687747478E0,-2.344684154E-1,2.519039154E0
3.108693112E1,3.803201199E0,-1.493461728E0,1.805548429E0
3.113892471E1,3.461727619E0,-6.950607896E-1,2.020271868E-1
3.119091804E1,1.480691552E0,4.246551692E-1,-1.956460923E-1
3.124291140E1,5.766109824E-1,-1.491018176E0,-1.419820070E0
3.129490472E1,4.019035101E-1,-7.830253839E-1,2.508963943E-1
3.134689805E1,-1.161911488E0,-2.608901501E0,-3.001040220E-1
3.139889147E1,-3.583992243E0,-2.642499208E0,-3.636340201E-1
3.145088510E1,-4.401940823E0,-1.340134501E0,-4.442682564E-1
3.150287902E1,-4.416601658E0,8.137763739E-1,-1.637288094E0
3.155487241E1,-1.686644793E0,4.018375397E0,2.983907461E0
3.160686574E1,-1.967444271E-1,-4.666906834E0,-2.487913668E-1
3.165885913E1,-6.060240865E-1,6.867163777E-1,2.171456814E0
3.171085259E1,-3.665649593E-1,2.553520441E0,8.648159504E-1
3.176284575E1,1.080773324E-1,-5.240185261E-1,1.239887238E0
3.181483914E1,9.968863130E-1,-3.324835777E0,1.205067873E0
3.186683326E1,1.291934252E0,-1.745138168E0,1.377331853E0
3.191882678E1,8.539437652E-1,-2.345618725E0,4.756948352E-1
3.197082014E1,5.240765214E-1,-3.950972557E0,-8.773717284E-1
3.202281340E1,-1.501552582E0,9.817642570E-1,-4.980243742E-1
3.207480759E1,-3.613313675E0,9.994793534E-1,-4.308291972E-1
3.212680628E1,-2.975570202E0,9.512209892E-1,-1.634233713E0
3.217880307E1,-1.910221457E0,1.477786899E0,-1.836430192E0
3.223079679E1,5.676465109E-2,9.310625196E-1,1.136040211E0
3.228269502E1,7.284567691E-3,1.380659342E0,2.630216599E0
3.233468845E1,8.930391669E-1,-4.085650146E-1,9.588892460E-1
3.238668171E1,1.526506424E0,5.236153603E-1,1.206900477E0
3.243867503E1,1.749472260E0,-4.158953726E-1,1.732855439E0
3.249066903E1,2.122710943E0,-2.301025629E0,1.057238579E0
3.254266182E1,2.304748774E0,-1.998036385E0,7.395886183E-1
3.259465577E1,2.316355228E0,-1.651675820E0,-4.601507187E-1
3.264664950E1,2.651720285E0,2.425238848E0,1.043188572E0
3.269864275E1,9.647089243E-2,-4.910317957E-1,2.166879624E-1
3.275063625E1,-3.929131031E0,-1.678553820E0,-7.912396789E-1
3.280262947E1,-6.458113194E0,-1.194748521E0,-2.714854240E0
3.285462276E1,-6.188721657E0,4.670779228E0,-5.450610518E-1
3.290661636E1,-1.982914448E0,5.427030563E0,-2.096959800E-1
3.295860955E1,1.503904462E0,1.479332447E-1,2.658316374E0
3.301060367E1,2.274205685E0,-2.382270575E0,1.330295324E0
3.306259709E1,2.401876211E0,3.385231793E-1,7.585254312E-1
3.311459052E1,2.067733049E0,-1.397842914E-1,1.308304191E0
3.316658431E1,2.014587879E0,-2.604014635E0,-1.125684157E-1
3.321858053E1,2.345676661E0,-2.100050688E0,-6.318038702E-1
3.327057450E1,1.979157567E0,-3.157134652E-1,-1.162336022E-1
3.332256779E1,3.661480427E0,-6.718478799E-1,7.652449608E-1
3.337456115E1,3.178286076E0,-8.960354328E-1,1.862969875E0
3.342655454E1,9.810037613E-1,-1.462918401E0,9.081874490E-1
3.347854787E1,-2.764210939E0,7.361964583E-1,-4.925266206E-1
3.353054109E1,-5.761115551E0,-2.616335824E-2,-1.583531976E0
3.358253459E1,-6.042113781E0,-1.868533015E0,-2.279307365E0
3.363452877E1,-5.082444668E0,3.925523996E0,-1.241447330E0
3.368652216E1,-7.355275750E-1,6.527810097E0,1.914893270E0
3.373851555E1,1.163652420E0,-9.155831337E-1,7.835709453E-1
3.379050891E1,1.244286776E0,-5.075252056E-1,9.222372770E-1
3.384250217E1,1.863704085E0,-9.045875669E-1,4.506493509E-1
3.389449556E1,1.739698410E0,4.613071084E-1,7.072127461E-1
3.394648882E1,2.381717682E0,-1.179476976E0,-1.388356239E-1
3.399848232E1,2.528325558E0,6.152451634E-1,7.334799170E-1
3.405047653E1,4.663299084E0,1.332401037E0,2.782932758E0
3.410246989E1,2.996248245E0,-2.717024565E0,1.892902255E0
3.415446319E1,6.975623369E-1,-3.696241617E0,1.890458703E0
3.420645681E1,-3.259011984E0,2.707171738E-1,-4.650376439E-1
3.425845496E1,-6.949248791E0,-4.824796915E-1,-1.634844661E0
3.431045262E1,-6.692685604E0,-7.463734746E-1,-2.333674669E0
3.436244748E1,-4.979208469E0,2.402025938E0,-2.505938530E0
3.441444087E1,-7.923380136E-1,3.981112480E0,8.385487795E-1
3.446643420E1,4.837594628E-1,6.598383188E-1,1.448803067E0
3.451842746E1,1.573543072E0,1.112813205E-1,2.628384113E0
3.457042109E1,2.490451813E0,-2.107381344E0,1.863580704E0
3.462241421E1,2.940659523E0,-8.135686517E-1,2.018740416E0
3.467440803E1,2.671878576E0,-1.344410539E0,1.399323106E0
3.472640195E1,2.120267391E0,-2.180685043E0,8.580964208E-1
3.477839525E1,1.895468950E0,-1.790342212E0,1.063958049E0
3.483038854E1,1.788567662E0,-1.499570370E0,7.505841851E-1
3.488238196E1,1.404333353E0,-6.615670864E-3,1.283258677E0
3.493437516E1,1.966527998E-1,1.803091019E-1,1.515387416E0
3.498636858E1,-3.018941879E0,-1.807122678E-1,-7.185467482E-1
3.503836194E1,-6.483769417E0,-1.550272107E0,-1.843149662E0
3.509035612E1,-7.028661251E0,1.829645276E0,-2.087495804E0
3.514234955E1,-3.031769991E0,3.919415236E0,-7.026642561E-1
3.519434291E1,4.637994245E-2,1.051402926E0,5.227314234E-1
3.524633627E1,1.354853272E0,9.732121825E-1,1.698036075E0
3.529832973E1,1.509402275E0,1.096606970E0,1.430477142E0
3.535032775E1,1.569266915E0,1.271638125E-1,3.382501304E-1
3.540232540E1,1.766576409E0,1.082269996E-1,5.514420867E-1
3.545431950E1,2.434863091E0,-1.048140883E0,-4.528203309E-1
3.550631299E1,2.214340925E0,-3.151026368E-1,-2.707825005E-1
3.555830628E1,1.368903160E0,1.255431890E0,5.471660495E-1
3.561029957E1,3.450930417E-1,-1.532557011E0,1.509889603E0
3.566229300E1,-1.161102131E-1,-3.290016413E0,6.772803068E-1
3.571428632E1,-2.915094614E0,-2.671820879E0,-4.931374490E-1
3.576627962E1,-6.839293003E0,-8.147904277E-1,-1.518169284E0
3.581827384E1,-7.493529797E0,2.859564066E0,-1.966544390E0
3.587026726E1,-2.303007841E0,4.602362633E0,7.780731320E-1
3.592226072E1,3.782783076E-2,2.395630181E-1,1.302806377E0
3.597425405E1,8.466134071E-1,-7.811928391E-1,2.032489181E-1
3.602624727E1,1.963886023E0,9.933707118E-1,1.308915019E0
3.607824060E1,2.249770880E0,1.306744576E0,1.841589451E0
3.613023402E1,2.670656919E0,-4.089638710E0,-1.645840168E0
3.618222768E1,2.263210058E0,1.424641609E0,-2.909410596E-1
3.623422160E1,2.762286901E0,2.543135643E0,6.925520301E-1
3.628621496E1,2.593077183E0,-1.732920885E0,2.319595814E-1
3.633820839E1,1.167928576E0,-8.880942464E-1,3.095394671E-1
3.639020184E1,-2.786003649E-1,3.278617620E0,2.570351839E0
3.644219783E1,-8.253247738E-1,-2.915555954E0,1.158951893E-1
3.649419249E1,-3.330483198E0,-3.285129309E0,-1.027033687E0
3.654618555E1,-6.161843777E0,-1.562776417E-1,-1.567649364E0
3.659817898E1,-7.303550720E0,-6.455807090E-1,-2.717908621E0
3.665017244E1,-1.767278910E0,3.494863987E0,1.793941975E0
3.670216570E1,-5.638744235E-1,1.433193684E0,1.941771388E0
3.675415912E1,1.213132620E0,-2.254599810E0,7.884578109E-1
3.680615245E1,2.795884609E0,-1.043541133E-1,1.470794320E0
3.685814663E1,4.173385620E0,3.800620437E-1,2.309512138E0
3.691014003E1,3.706073761E0,-2.758563757E0,8.770332932E-1
3.696213338E1,3.383536816E0,-1.999258041E0,1.464685678E0
3.701412674E1,2.264431715E0,-1.376175523E0,8.501552343E-1
3.706612004E1,1.428767920E0,-1.640069366E0,5.300618410E-1
3.711811330E1,1.923767328E-1,-2.778398395E-1,7.792948484E-1
3.717010675E1,-1.268202066E0,-5.487402529E-2,1.606406331E0
3.722210031E1,-2.875999212E0,-4.946970046E-1,-1.116478443E-2
3.727409456E1,-4.766016483E0,8.101111650E-1,-1.036807537E0
3.732608799E1,-5.466067791E0,8.852475882E-1,-9.897709489E-1
3.737808118E1,-3.396456480E0,1.022692204E0,-1.620484889E-1
3.743007464E1,-1.442909598E0,2.215101242E0,2.567297459E0
3.748207159E1,-5.624542013E-2,1.534310281E-1,1.146734506E-1
3.753406972E1,1.889360309E0,1.616453290E0,3.865084946E-1
3.758606541E1,3.420188665E0,1.506497502E0,1.498283148E0
3.763805887E1,3.793427229E0,-2.008708119E-1,1.785389900E0
3.769005200E1,3.296793938E0,-1.757355452E0,3.590195477E-1
3.774204552E1,2.448912859E0,7.765135765E-1,2.589288473E0
3.779403882E1,2.232666731E0,-1.901519656E0,1.348621249E0
3.784603231E1,9.950536489E-1,-4.129956245E0,1.522717953E0
3.789802600E1,4.110665023E-1,-6.003767252E-1,1.918558478E0
3.795001975E1,-3.158631623E-1,1.949698627E-1,1.719416499E0
3.800201308E1,-9.988104701E-1,1.048959494E0,1.012645364E0
3.805400637E1,-2.931588173E0,6.018061042E-1,-1.237782240E0
3.810599970E1,-5.157580853E0,-2.790615857E-1,-2.372159004E0
3.815799312E1,-7.967561245E0,-7.329344749E-1,-2.183401585E0
3.820998648E1,-4.248613834E0,2.536416292E0,-2.988823354E-1
3.826197988E1,-7.556861043E-1,2.529696703E0,7.469190359E-1
3.831397386E1,1.121502757E0,-1.248504758E0,1.308915019E0
3.836596742E1,1.868590951E0,1.065452933E0,2.079826832E0
3.841796071E1,2.505723476E0,-1.032869220E0,2.202610731E0
3.846995401E1,3.027402401E0,-5.802181363E-1,2.206887007E0
3.852194760E1,2.798327923E0,-1.652286649E0,1.800050616E0
3.857394445E1,2.409206867E0,-4.068869591E0,1.715140343E0
3.862594267E1,2.372554779E0,-3.820858240E0,1.579528332E0
3.867793740E1,2.253436089E0,-1.108005762E0,7.365342975E-1
3.872993102E1,2.159973621E0,2.780151606E0,6.326872110E-1
3.878192408E1,-2.963154614E-1,5.156741142E-1,4.564568400E-2
3.883391751E1,-2.455724239E0,-7.625430822E-2,-1.822380304E0
3.888591087E1,-5.883899689E0,2.516257763E0,-3.738664627E0
3.893790419E1,-7.153277874E0,2.121639013E0,-3.915204525E0
3.898989749E1,-6.532638550E0,2.019624472E0,-3.051441193E0
3.904189171E1,4.074012935E-1,4.567543507E0,2.329060078E0
3.909388527E1,1.661507726E0,-2.693200827E0,2.881282330E0
3.914587849E1,1.464198112E0,-1.696879745E0,1.771950841E0
3.919787185E1,1.053696752E0,5.202739313E-2,2.031568527E0
3.924986541E1,1.426324606E0,-1.848985195E0,6.821672916E-1
3.930185840E1,1.681666255E0,-4.275341988E0,-3.559939563E-2
3.935385180E1,1.427546263E0,-2.257043123E0,5.325053334E-1
3.940584575E1,1.697548747E0,-1.133661985E0,1.786611557E0
3.945783957E1,1.795897961E0,-3.366985321E0,2.261864662E0
3.950789732E1,1.847821474E0,-3.205717087E0,1.633284450E0
3.955989064E1,2.622138895E-2,-3.032231092E0,-1.424706936E0
3.961188397E1,-2.424570084E0,8.644781709E-1,-1.299479604E0
3.966387942E1,-3.954176426E0,2.673250198E0,-2.129034758E0
3.971587465E1,-5.764781475E0,4.889469147E0,-2.313515902E0
3.976786801E1,-6.079988003E0,6.766047478E0,-2.317791939E0
3.981986140E1,-4.912013054E0,4.136883259E0,-9.696123600E-1
3.987185473E1,2.430785596E-1,-4.359641552E0,6.223024726E-1
3.992384802E1,2.302916288E0,-3.305288076E0,-3.147647977E-1
3.997584134E1,1.930899143E0,6.000022411E0,1.959185302E-1
4.002783484E1,3.270526648E0,4.689716339E0,1.131764054E0
4.007982905E1,4.061597347E0,-1.228346229E0,4.304907918E-1
4.013182245E1,4.374360561E0,-2.049349070E0,6.458250433E-2
4.018381574E1,4.270513058E0,-5.765529275E-1,5.893157125E-1
4.023580900E1,3.480664253E0,-1.544450521E-1,9.197938442E-1
4.028780242E1,1.255893230E0,-7.930862904E-2,-7.472574115E-1
4.033979592E1,-1.558164507E-1,-2.346229553E0,-8.413306475E-1
4.039178908E1,-8.686961532E-1,-5.849541664E0,-1.471743584E0
4.044378270E1,-4.021371841E0,-3.870949268E0,-1.872471213E0
4.049577675E1,-6.258360386E0,4.538832664E0,5.288400650E-1
4.054777001E1,-5.268147469E0,6.508872986E0,-1.287873149E0
4.059976354E1,1.978745311E-1,-1.159929156E0,-6.672340631E-1
4.065175673E1,5.004513636E-2,-1.199635506E0,1.145203114E0
4.070375258E1,2.290286571E-1,4.252336979E0,8.813093305E-1
4.075575134E1,5.961586833E-1,3.952402115E0,-1.343461871E0
4.080774690E1,4.637994245E-2,-1.660514921E-1,-8.285024762E-1
4.085974006E1,1.731757164E0,-2.029801369E0,-1.883157045E-1
4.091173358E1,3.477610111E0,1.974133104E-1,1.144592285E0
4.096372674E1,4.092140198E0,-4.091758728E-1,9.466719627E-1
4.101572020E1,4.664521217E0,3.232515454E-1,1.343123436E0
4.106771346E1,3.304124355E0,8.015590310E-1,7.762405276E-1
4.111970685E1,3.834966421E0,-3.511149645E0,-7.551986575E-1
4.117170054E1,1.623633981E0,-1.194137692E0,-1.865140796E0
4.122369446E1,-2.378144264E0,1.151584864E0,-1.028255343E0
4.127568782E1,-4.545494080E0,1.570962220E-1,-5.181829333E-1
4.132768111E1,-5.625504017E0,-2.725576878E0,-7.564204335E-1
4.137967447E1,-5.120929241E0,-1.043541133E-1,1.794251651E-1
4.143166780E1,-4.423321247E0,3.171716213E0,-8.969193697E-1
4.148366106E1,-2.631653309E0,2.218155622E0,4.268255830E-1
4.153565458E1,-1.177794099E0,-2.937223315E-1,1.300362945E0
4.158764844E1,-3.791946173E-2,-1.435429454E0,1.438418508E0
4.163964206E1,7.177208066E-1,-1.545996070E0,1.547763348E0
4.169163552E1,1.759246111E0,-1.632739067E0,1.461020470E0
4.174362888E1,2.133095741E0,-1.371288538E0,2.454287291E0
4.179562360E1,2.191738844E0,-4.151336193E0,1.538600326E0
4.184761949E1,1.321255684E0,-2.646775246E0,1.244774222E0
4.189961282E1,7.555944920E-1,-4.837014079E-1,7.774622440E-1
4.195160618E1,7.103904486E-1,7.294769287E-1,7.780731320E-1
4.200359967E1,2.296395153E-1,-3.609175086E-1,1.273484826E0
4.205559286E1,-5.052313805E-1,-2.697477102E0,9.533914328E-1
4.210758616E1,-1.266980290E0,-1.094566703E0,-1.663245559E-1
4.215957948E1,-4.244337559E0,1.570027590E0,-1.220067143E0
4.221157344E1,-5.252875805E0,4.529058456E0,-1.217012763E0
4.226356719E1,-1.077001214E0,2.858342171E0,-4.968026280E-1
4.231556052E1,1.766927727E-2,1.619507551E0,5.636594296E-1
4.236755388E1,-2.926502824E-1,7.386399508E-1,4.225495160E-1
4.241954717E1,-1.374904960E-1,3.660121262E-1,1.433841288E-1
4.247154063E1,1.209055036E-1,2.084088922E-1,3.736803234E-1
4.252353389E1,3.573103547E-1,-2.894462943E-1,6.326872110E-1
4.257552718E1,-7.581295967E-1,-3.047178984E-1,8.990244269E-1
4.262752123E1,-1.160689831E0,-3.486715078E0,-1.575590730E0
4.267951492E1,1.056338698E-1,-3.388365746E0,-6.733427048E-1
4.273150818E1,-2.895959616E-1,8.076677322E-1,-1.266183108E-1
4.278350154E1,-7.758446932E-1,-2.172743797E0,-1.158369780E0
4.283549643E1,-6.151871085E-1,4.509223998E-1,-1.870027661E0
4.288749539E1,-2.342714071E0,-1.266219854E0,-8.828694820E-1
4.293949158E1,-2.489275998E-3,1.434415460E0,1.443916202E0
4.299148487E1,1.399446368E0,-1.302260876E0,1.886182666E0
4.304347823E1,1.713431120E0,-7.384322286E-1,1.986975431E0
4.309547159E1,1.201526165E0,5.840910077E-1,2.034012079E0
4.314746492E1,8.246222734E-1,-6.596305966E-1,2.150687218E0
4.319945824E1,1.180756688E0,-2.851415157E0,6.119177938E-1
4.325145147E1,2.429365158E0,-2.254599810E0,-9.690014720E-1
4.330344496E1,2.217395067E0,2.538859844E0,-2.261893451E-1
4.335543918E1,3.049744852E-2,3.378188610E0,4.445406795E-1
4.340743254E1,-1.091051102E0,6.946576834E-1,-4.595398903E-1
4.345942593E1,-2.213210583E0,-1.129062176E-1,-2.264035940E0
4.351141932E1,-3.921190023E0,1.475343347E0,-3.446671009E0
4.356341255E1,-3.017109394E0,1.006809711E0,-3.380697489E0
4.361540601E1,1.161819816E0,2.616439581E0,1.585026145E0
4.366739923E1,2.381106853E0,-1.319975972E0,3.189158201E0
4.371939272E1,2.062846184E0,-1.844098330E0,3.045604944E0
4.377138708E1,1.691638678E-1,-2.324849367E0,1.340680003E0
4.382338020E1,-9.462760687E-1,-7.653102875E-1,9.759934545E-1
4.387537359E1,-1.420918345E0,-1.677332163E0,1.885881573E-1
4.392736778E1,-1.393429399E0,-3.332165956E0,-4.564855397E-1
4.397936397E1,-9.273392558E-1,-3.480606318E0,-4.577072859E-1
4.403135763E1,-7.679034472E-1,-2.756731033E0,-1.542603970E0
4.408335096E1,-3.181080893E-2,1.614620686E0,-1.760682821E0
4.413534432E1,-2.709233046E0,3.799685717E0,-5.102416873E-1
4.418733764E1,-2.773374081E0,8.388505936E0,-1.392331004E0
4.423933097E1,-6.133545041E-1,1.937481165E-1,-1.324524999E0
4.429132426E1,2.113135457E-1,-1.278437138E0,2.490638196E-1
4.434331802E1,-3.708409965E-1,1.012918353E0,-3.223536070E-3
4.439531198E1,6.898195297E-2,3.201972246E-1,2.832722664E-1
4.444730530E1,9.608452320E-1,-1.632128000E0,7.689101696E-1
4.449929849E1,7.610923052E-1,-1.798894286E0,3.663499355E-1
4.455129209E1,1.395170450E0,-1.345021367E0,7.817382812E-1
4.460328538E1,1.459922075E0,-2.082335711E0,-1.742658019E-1
4.465527864E1,1.287658095E0,-1.309591174E0,-1.423485279E0
4.470727200E1,1.413496375E0,3.125901461E0,-2.365740687E-1
4.475926572E1,-1.351890683E0,1.641498804E0,-8.874467015E-2
4.481125971E1,-1.438022614E0,8.834149837E-1,-1.322081566E0
4.486325320E1,-7.062060833E-1,2.504651308E0,6.907193661E-1
4.491524629E1,-3.364340216E-2,2.327500582E0,6.064199805E-1
4.496724052E1,-7.544643879E-1,-6.669610143E-1,8.666485548E-1
4.501923940E1,-3.732844889E-1,5.920323133E-1,6.510131359E-1
4.507123653E1,-3.531259298E-1,6.097473502E-1,6.442936659E-1
4.512323069E1,4.043469727E-1,-9.522350430E-1,-5.575794727E-2
4.517522401E1,1.646846890E0,-2.258875847E0,9.882107377E-1
4.522721741E1,2.898509741E0,-4.133010387E0,8.232771754E-1
4.527921070E1,3.506931543E0,-4.172105789E0,7.481406927E-1
4.533120396E1,1.448926568E0,-3.012683630E0,-7.118272185E-1
4.538319752E1,-2.462245077E-1,-1.881361127E0,-1.286040545E0
4.543519167E1,-3.278559685E0,1.961592197E0,-6.000388861E-1
4.548718500E1,-5.114209652E0,9.164017439E-1,-1.947607636E0
4.553917849E1,-3.877207518E0,3.890093803E0,-1.760682821E0
4.559117165E1,-2.142609842E-2,6.432514668E0,3.289950848E0
4.564316501E1,7.232186198E-1,3.122236013E0,3.389522076E0
4.569515843E1,2.351785421E0,-4.144005775E0,-1.872471213E0
4.574715166E1,1.152045965E0,5.461239338E0,5.318943858E-1
4.579914542E1,1.739087582E0,1.192512870E0,-3.550819159E-1
4.585113974E1,2.247327328E0,-1.948556304E0,-3.159865439E-1
4.590313280E1,2.116602182E0,-2.795826435E0,2.295161337E-1
4.595512606E1,2.368889570E0,-2.062788010E0,9.216264486E-1
4.600711938E1,1.439152718E0,-1.569208980E0,2.250258207E0
4.605911354E1,2.119244188E-1,-4.451271057E0,3.028199375E-1
4.611111213E1,-2.307283878E0,-7.646994591E-1,2.176343679E0
4.616310905E1,-5.655436039E0,-4.770143032E0,6.137503386E-1
4.621510274E1,-6.896714211E0,2.701062858E-1,-5.658304691E-1
4.626709600E1,-1.342116714E0,8.206467628E0,-7.747463584E-1
4.631908943E1,3.050615311E0,-2.199621916E0,4.555362463E-1
4.637108275E1,7.177208066E-1,1.485117316E0,5.868723392E-1
4.642307604E1,-1.073946953E0,4.860147953E0,-1.223121405E0
4.647506944E1,3.970166147E-1,7.469153404E0,-3.298230648E0
4.652706286E1,3.313287258E0,7.606597424E0,-1.685546398E0
4.657905695E1,4.484315872E0,1.079502702E0,-1.045359612E0
4.663105051E1,2.867966652E0,-1.996490955E-1,1.977511346E-1
4.668304370E1,9.535148144E-1,-4.543798864E-1,2.374874830E0
4.673503713E1,-5.137835145E-1,-2.695033789E0,-1.906679630E0
4.678700543E1,-4.324971676E0,2.334830761E0,-4.705354571E-1
4.683899872E1,-4.338410854E0,-5.185207725E-1,-1.325135946E0
4.689099211E1,-4.698011875E-1,-1.933284640E0,3.248111010E-1
4.694298577E1,-3.903886974E-1,-8.795421124E-1,1.096944809E0
4.699497972E1,-6.493955851E-1,2.468610287E0,1.374277592E0
4.704697315E1,2.375807613E-1,1.566362262E0,1.784168243E0
4.709896641E1,1.510013103E0,-9.986608028E-1,2.678474903E0
4.715096027E1,1.784902453E0,-3.211825609E0,1.351064682E0
4.720295649E1,1.904021144E0,-1.358460426E0,9.130743146E-1
4.725495042E1,2.067733049E0,-2.301923484E-1,-3.648557663E-1
4.730694384E1,1.538112879E0,3.867815435E-1,-1.504119396E0
4.735893710E1,-1.480783224E0,8.045095019E-3,-9.470103383E-1
4.741093050E1,-3.204644680E0,-5.208133221E0,-2.208446980E0
4.746292379E1,-3.958452702E0,-5.203246117E0,-2.494022399E-1
4.751491708E1,-4.905904770E0,1.339120507E0,6.546783447E-1
4.756691077E1,-2.709844112E0,4.863202095E0,8.770332932E-1
4.761890482E1,3.695276380E-1,-4.672080576E-1,2.120754957E0
4.767089808E1,1.033538222E0,-2.387157440E0,1.245995879E0
4.772289151E1,1.210689068E0,1.103937387E0,1.233167768E0
4.777488480E1,1.695716023E0,2.450608015E-1,1.509278774E0
4.782687813E1,2.309635639E0,-2.142811537E0,1.437807560E0
4.787887152E1,2.867966652E0,-1.980321288E0,1.505613685E0
4.793086478E1,1.878364921E0,5.193393230E-1,2.271027803E0
4.798285853E1,5.766109824E-1,-9.253569841E-1,6.198589802E-1
4.803485252E1,-1.387320757E0,7.410833836E-1,5.844288468E-1
4.808684582E1,-2.163730383E0,1.670209527E0,1.517220140E0
4.813883917E1,-3.389126301E0,-1.994371176E0,2.001945972E-1
4.819083273E1,-4.549769878E0,-1.751246810E0,-5.285676122E-1
4.824283092E1,-4.304812908E0,-2.902727842E0,-1.187080264E0
4.829482841E1,-3.758699656E0,-2.209395647E0,1.439950019E-1
4.834682244E1,-2.150703818E-1,2.799699306E0,3.382191658E0
4.839881586E1,6.279236674E-1,-3.147073984E0,9.882107377E-1
4.845080912E1,4.165642560E-1,-3.987911642E-1,2.293629885E0
4.850280248E1,3.359300792E-1,7.074857950E-1,2.344942331E0
4.855479591E1,8.490568995E-1,-1.378619075E0,2.500713110E0
4.860678920E1,1.233901978E0,-2.065842628E0,2.851349831E0
4.865878246E1,1.560714841E0,-2.378605366E0,3.567894697E0
4.871077654E1,2.024361610E0,-1.359071255E0,4.935011387E0
4.876277017E1,2.522216797E0,-8.654921651E-1,3.503143072E0
4.881476356E1,2.373165846E0,-2.195345879E0,6.351306438E-1
4.886675692E1,4.855920374E-1,1.577357888E0,-6.360799670E-1
4.891875018E1,-1.960923195E0,1.610955477E0,4.256038368E-1
4.897074354E1,-4.329247952E0,-4.757925987E0,-1.704483271E0
4.902273710E1,-6.177726269E0,-5.820219994E0,-1.694709301E0
4.907473022E1,-6.216210365E0,5.601738453E0,-1.641564131E0
4.912672431E1,-4.356125832E0,6.239481449E0,-1.180661991E-1
4.917871787E1,7.281055450E-1,-2.952818871E0,1.047464728E0
4.923071129E1,1.734399050E-1,4.173248112E-1,1.461020470E0
4.928270482E1,-2.804329395E-1,2.102091074E0,6.870542169E-1
4.933470084E1,1.679421216E-1,9.536644816E-1,5.276183486E-1
4.938669533E1,6.089867949E-1,-9.913304448E-1,1.636338711E0
4.943868852E1,1.205191255E0,-3.076213598E0,2.260032177E0
4.949068195E1,2.189906120E0,-3.676083326E0,2.999179125E0
4.954267528E1,1.872867107E0,-4.139119148E0,2.781100273E0
4.959466854E1,1.169761062E0,-3.304677248E0,1.419481516E0
4.964666200E1,5.002527833E-1,-7.818036675E-1,-4.167793095E-1
4.969865529E1,-4.575839043E-1,3.104234040E-1,-1.469910979E0
4.975064927E1,-2.503371477E0,7.343639135E-1,-2.005028963E0
4.980264293E1,-4.025036812E0,1.608512044E0,-1.827267170E0
4.985463612E1,-2.887605667E0,9.121256471E-1,-2.155912638E0
4.990662952E1,-3.067200184E0,3.956067085E0,-1.564595103E0
4.995862301E1,4.965876043E-1,2.574290037E0,2.610057831E0
5.001061637E1,3.835775554E-1,-1.263452619E-1,3.749020398E-1
5.006260959E1,3.603646755E-1,-5.148555040E-1,7.218735218E-1
5.011460295E1,6.065434217E-1,-7.750841379E-1,4.952425063E-1
5.016659720E1,9.712299109E-1,-1.488574743E0,7.383669019E-1
5.021859063E1,1.678611994E0,-1.712151527E0,1.725525141E0
5.027058396E1,2.455021381E0,-2.925940752E0,2.310734034E0
5.032257738E1,1.858817101E0,-2.828202248E0,2.213606358E0
5.037457467E1,8.808218241E-1,-1.808668137E0,2.167180777E0
5.042657280E1,9.993296862E-1,-5.490640402E-1,2.049283743E0
5.047856832E1,-7.123147249E-1,9.335058928E-1,7.713536024E-1
5.053056155E1,-2.685409307E0,1.405704856E0,-1.377670288E0
5.058255501E1,-3.879650831E0,1.306133747E0,-2.435688972E0
5.063454837E1,-3.727545738E0,1.812541008E0,-2.239601374E0
5.068654163E1,-1.956647158E0,6.863174915E0,-6.489080787E-1
5.073853512E1,-2.089617252E-1,1.296072900E-1,-1.571925521E0
5.079052864E1,5.069723725E-1,-1.703275591E-1,7.780731320E-1
5.084252266E1,7.195534706E-1,3.330253959E-1,3.987258077E-1
5.089451605E1,7.714769840E-1,-1.139159799E0,1.211787462E0
5.094650928E1,9.602344036E-1,-2.710916042E0,1.253326297E0
5.099850267E1,1.417772412E0,-3.815360546E0,1.604573727E0
5.105049600E1,1.445872188E0,-3.465945482E0,2.654651165E0
5.110248936E1,-4.490317702E-1,-2.652272940E0,1.574030519E0
5.115448268E1,-2.149069786E0,-1.439705610E0,2.470780849E0
5.120647680E1,-3.252292395E0,-3.122639418E0,-9.598385096E-1
5.125847029E1,-4.733029842E0,1.346450806E0,-1.588418841E0
5.131046385E1,-4.062299728E0,5.809432030E0,-8.883672357E-1
5.136245711E1,-2.471606731E0,2.419130087E0,-3.023952246E0
5.141445047E1,2.388437271E0,-2.020027399E0,1.448803067E0
5.146644749E1,2.644389868E0,1.186117008E-1,-1.500454187E0
5.151844568E1,2.356672287E0,4.153376579E0,-1.202352047E0
5.157044038E1,2.664548397E0,3.436831713E0,-1.001988173E0
5.162243370E1,2.335292101E0,3.647580385E0,-6.904469728E-1
5.167442732E1,2.301694393E0,2.182114601E0,1.030670181E-1
5.172642042E1,2.183186531E0,1.409369946E0,1.000428081E0
5.177841364E1,1.587592959E0,3.647904098E-1,2.295462370E0
5.183040697E1,1.336527348E0,-9.406285882E-1,2.931983948E0
5.188240063E1,-1.038929075E-1,-3.242368937E0,1.129931569E0
5.193439478E1,-3.444103956E0,-2.345618725E0,2.844939828E-1
5.198638828E1,-5.276699543E0,4.435920119E-1,-1.691044211E0
5.203838164E1,-6.591892719E0,1.176630259E0,-3.049909770E-1
5.209037469E1,-1.348225474E0,-3.358720541E-1,-6.495189667E-1
5.214236809E1,-6.512281299E-1,1.430750251E0,8.990244269E-1
5.219436135E1,-5.614309907E-1,2.236805260E-1,1.461020470E0
5.224635491E1,5.081940889E-1,-5.967115164E-1,1.868467569E0
5.229834803E1,3.762471676E-1,-4.537690282E-1,2.226434469E0
5.235034222E1,9.223607183E-1,-2.001090765E0,1.905730367E0
5.240233574E1,1.297432065E0,-3.175784588E0,1.521496058E0
5.245432900E1,1.156932950E0,-4.230138302E0,2.059668541E0
5.250632252E1,1.367070556E0,-3.686468124E0,2.599673271E0
5.255831805E1,1.646235943E0,-1.342578053E0,1.857472062E0
5.261031324E1,-3.598454595E-1,-1.953730285E-1,2.061501026E0
5.266230660E1,-3.350030661E0,-6.938390732E-1,5.661028624E-1
5.271429976E1,-4.364067078E0,2.270079136E0,-1.734415650E0
5.276629308E1,-5.131924629E0,3.782581568E0,-1.669053078E0
5.281828654E1,4.990310967E-1,-4.940861464E-1,1.506835341E0
5.287027987E1,7.692319900E-2,-1.001104355E0,6.772803068E-1
5.292227316E1,1.514487565E-1,6.653361320E-1,7.304255962E-1
5.297426725E1,8.374504447E-1,1.987248540E0,3.235893548E-1
5.302626074E1,2.560090303E0,4.411485493E-1,7.719644904E-1
5.307825406E1,3.230209827E0,-7.695863843E-1,7.035475373E-1
5.313024749E1,3.459284067E0,-2.888354063E-1,-1.046271697E-1
5.318224085E1,2.094000340E0,5.901996493E-1,3.431370556E-1
5.323423414E1,1.605308056E0,-1.135170907E-1,3.345849216E-1
5.328622736E1,1.262612700E0,-8.373923898E-1,2.753310204E-1
5.333822115E1,3.738037050E-1,2.720286846E0,1.330295324E0
5.339021508E1,-4.502535164E-1,3.855598271E-1,-1.010540366E0
5.344220850E1,-2.769708633E0,-1.976656079E0,-1.347127080E0
5.349420179E1,-5.108100891E0,3.861993790E0,-1.753352404E0
5.354619515E1,-6.875333786E0,3.800907373E0,2.851349831E0
5.359819138E1,-3.861935854E0,-7.607000828E0,-1.855977774E0
5.365018977E1,-1.288360596E0,-2.692877054E-1,8.043403029E-1
5.370218596E1,9.712299109E-1,2.629267931E0,-1.932026148E-1
5.375417949E1,2.551538229E0,1.142421842E0,-3.972316384E-1
5.380617288E1,3.840463877E0,1.720807515E-2,-1.467768699E-1
5.385816617E1,4.224087238E0,1.937481165E-1,2.148553580E-1
5.391015963E1,3.163625240E0,-6.822326183E-1,-2.158046365E-1
5.396215296E1,1.578429937E0,2.023002505E-1,-6.263061166E-1
5.401414674E1,7.959116101E-1,2.103923798E0,2.185205519E-1
5.406614070E1,5.692805648E-1,1.585910082E0,5.697680712E-1
5.411618772E1,-2.046856731E-1,-1.100064397E0,-1.177564915E-2
5.416818098E1,-7.947815061E-1,-4.040769577E0,-6.675352156E-2
5.422017427E1,-2.379365921E0,-4.578941822E0,5.105141401E-1
5.427216763E1,-5.154526711E0,-9.833891988E-1,1.118325114E0
5.432416109E1,-2.638983727E0,-5.680008531E-1,-1.217313930E-1
5.437615428E1,-1.922438741E0,-8.300620317E-1,5.740441084E-1
5.442814817E1,-7.190341949E-1,4.565710545E0,1.258213162E0
5.448014199E1,-3.140305579E-1,3.271287441E0,5.758767128E-1
5.453213528E1,-5.040096641E-1,-6.004805677E-3,9.756922722E-2
5.458412871E1,8.545547128E-1,-7.078889608E-1,1.407264233E0
5.463612197E1,1.220462918E0,-1.100064397E0,3.575225115E0
5.468811779E1,6.144846082E-1,-3.202051640E0,4.669895649E0
5.474011661E1,3.609755635E-1,-3.176395416E0,4.267335415E0
5.479211200E1,-9.472993016E-2,-2.382881641E0,3.454273701E0
5.484410533E1,-1.685423017E0,-1.165426970E0,2.244149685E0
5.489609872E1,-2.315225124E0,-3.363320351E0,1.238665581E0
5.494809204E1,-2.940751314E0,-7.372105122E-1,3.871193528E-1
5.500008537E1,-5.131924629E0,6.641143560E-1,-2.775020301E-1
5.505207870E1,-4.496014118E0,2.957626283E-1,-5.065764785E-1
5.510407202E1,-1.516213417E0,2.167453766E0,9.045222402E-1
5.515606621E1,-1.888031811E-1,1.708083153E0,1.373055935E0
5.520805967E1,-4.105472863E-1,4.124378860E-1,6.730042696E-1
5.526005309E1,-8.320442438E-1,1.548036337E0,4.564568400E-2
5.531204635E1,-2.419484556E-1,3.409666419E-1,-2.555108666E-1
5.536403964E1,1.140439630E0,-9.155831337E-1,3.810107112E-1
5.541603304E1,1.967551112E0,-2.742681265E0,1.153755307E0
5.546802626E1,1.682277083E0,-3.407913446E0,3.903870583E0
5.552001972E1,1.812391400E0,-5.366958141E0,2.727344036E0
5.557201397E1,2.908283710E0,-1.971769214E0,1.900843382E0
5.562400736E1,2.427532673E0,-1.654406339E-1,1.723081708E0
5.567600089E1,1.009103537E0,3.330253959E-1,2.897775650E0
5.572799432E1,2.039831728E-1,-3.303742409E-1,2.968636036E0
5.577998884E1,-4.221536815E-1,-1.918013096E0,1.746905446E0
5.583198473E1,-1.689088225E0,-8.459445238E-1,-4.674811065E-1
5.588397802E1,-3.263287783E0,1.591407895E0,-1.241748556E-1
5.593597138E1,-5.192400455E0,1.983583212E0,-1.138211131E0
5.598796474E1,-6.994452477E0,6.115799546E-1,-1.509006381E0
5.603995807E1,-2.252305984E0,3.784414053E0,1.198348403E0
5.609195143E1,-4.814076126E-1,1.742291451E0,-1.956460923E-1
5.614394472E1,1.331640363E0,5.883670449E-1,2.487626486E-2
5.619593894E1,2.467238903E0,7.587984800E-1,-4.292977601E-2
5.624793250E1,3.803201199E0,-8.502205610E-1,8.574855924E-1
5.629992569E1,4.058543205E0,-1.106783986E0,9.448392987E-1
5.635191908E1,3.186227322E0,-1.722536087E0,1.393214345E0
5.640391247E1,1.177091599E0,-2.476343632E0,2.426187515E0
5.645590573E1,1.343445480E-1,-3.658368111E0,2.071274996E0
5.650789916E1,-6.907358766E-2,-2.282088518E0,2.205054522E0
5.655989252E1,1.692661762E0,5.694302320E-1,1.348010421E0
5.661188673E1,5.790544152E-1,2.314061165E0,1.739574909E0
5.666388016E1,-1.483226657E0,-5.069143176E-1,9.573663026E-2
5.671587342E1,-4.579702854E0,1.099661231E0,-2.661098242E0
5.676786675E1,-6.090983391E0,1.950596571E0,-3.515087843E0
5.681986167E1,-4.891243458E0,6.627991676E0,-3.956132650E0
5.687186056E1,-6.420651674E-1,6.011629105E0,4.824143350E-1
5.692385678E1,5.362938643E-1,-2.185859084E-1,-6.195865273E-1
5.697585011E1,1.566212654E0,-5.181969702E-2,-2.964388430E-1
5.702784366E1,2.428754330E0,1.800934553E0,7.933447361E-1
5.707983699E1,1.737254858E0,2.550466299E0,1.071288466E0
5.713183008E1,1.753748298E0,-1.495294333E0,9.222372770E-1
5.718382344E1,1.221073866E0,-4.688898087E0,1.100610018E0
5.723581674E1,1.076298714E0,-5.344967365E0,-3.825708628E-1
5.728781069E1,1.183200240E0,5.834801793E-1,-2.170263678E-1
5.733980468E1,-1.033629775E0,9.884838462E-1,-8.608783484E-1
5.739179777E1,-1.953592896E0,1.185182333E0,-1.639120579E0
5.744379116E1,-2.194884539E0,1.121652484E0,-1.394774556E0
5.749578472E1,-3.390958786E0,2.090484619E0,-6.794513464E-1
5.754777778E1,-9.346696138E-1,2.610941887E0,-4.461008310E-1
5.759977124E1,-1.216080040E-1,1.497945428E0,1.644280076E0
5.765176447E1,-6.481738091E-1,1.756341457E0,7.206518054E-1
5.770375829E1,6.285345554E-1,1.430463046E-1,3.730694652E-1
5.775575221E1,1.607751489E0,1.173899770E-1,1.152533412E0
5.780774553E1,2.523438454E0,-2.772002697E0,1.886793613E0
5.785973886E1,4.060375690E0,-4.506859779E0,1.990640640E0
5.791173308E1,3.993791342E0,-3.866672993E0,1.756068349E0
5.796372924E1,2.066511154E0,-1.713984013E0,2.263697624E0
5.801572293E1,-3.244152665E-1,-2.746346235E0,6.998823881E-1
5.806771626E1,-1.615173578E0,1.590186000E0,2.001945972E-1
5.811970952E1,-3.185097218E0,3.406288624E0,-1.337964058E0
5.817170284E1,-3.529014349E0,2.148516893E0,-2.456458330E0
5.822369617E1,-3.039100409E0,2.813138247E0,-1.372783422E0
5.827568963E1,-2.660974741E0,2.375148058E0,1.287233531E-1
5.832768352E1,-1.393230855E-1,1.524823427E0,1.518441796E0
5.837967724E1,-5.541005731E-1,-1.337691069E0,-6.397451162E-1
5.843167053E1,3.841884136E-1,7.288661003E-1,5.398356915E-1
5.848366382E1,7.415446043E-1,-1.073797226E0,8.251097202E-1
5.853565742E1,7.299381495E-1,-3.312007666E0,8.758115172E-1
5.858765054E1,1.415328979E0,-2.690757513E0,1.442083597E0
5.863964377E1,2.072009087E0,-2.979696751E0,8.489334583E-1
5.869163730E1,1.327364326E0,-1.661449552E0,-9.909926057E-1
5.874363141E1,-2.938719988E-1,-1.243617773E0,-1.822991133E0
5.879562484E1,-2.840569019E0,2.071547747E0,-2.185844898E0
5.884761826E1,-4.610856533E0,3.202259541E0,-2.553586006E0
5.889961152E1,-3.984719753E0,3.573054790E0,-1.776565313E0
5.895160595E1,-8.937416673E-1,3.670182228E0,-1.543214798E0
5.900360457E1,1.117226720E0,3.290834904E0,2.877006054E0
5.905560169E1,7.763639092E-1,1.705352515E-1,1.929554105E0
5.910759585E1,1.123335361E0,-2.090888023E0,1.564867496E0
5.915958918E1,1.597366810E0,-1.098842740E0,-8.999736905E-1
5.921158267E1,1.178924084E0,6.641143560E-1,-1.631790280E0
5.926357600E1,6.719059348E-1,1.320507377E-1,-9.641145468E-1
5.931556919E1,-1.729206890E-1,-1.052417040E0,6.632304788E-1
5.936756262E1,5.808870196E-1,-3.314450979E0,-1.058187842E0
5.941955693E1,1.575986624E0,4.173248112E-1,-2.643383026E0
5.947155026E1,3.640100002E0,-2.343175411E0,-3.105808020E0
5.952354378E1,-2.340072095E-1,3.257848263E0,-1.810773849E0
5.957553698E1,-3.616979122E0,2.302454948E0,-2.319624424E0
5.962753020E1,-4.085512638E0,5.992691994E0,-2.029463530E0
5.967952370E1,-2.792112529E-1,4.827772141E0,4.640883803E-1
5.973151692E1,-7.273877412E-2,-2.424096465E-1,1.449155621E-2
5.978351074E1,-8.801040798E-2,1.059344292E0,6.458250433E-2
5.983550476E1,5.918826461E-1,1.629281521E0,-4.399921894E-1
5.988749806E1,1.144715667E0,1.048348665E0,-9.537298679E-1
5.993949128E1,1.553995371E0,1.438691497E0,-7.289314866E-1
5.999148461E1,1.624244928E0,5.065111518E-1,-4.473225772E-1
6.004347897E1,6.425843835E-1,-4.476603568E-1,-3.935664296E-1
6.009547739E1,-7.165907621E-1,-2.185571909E0,7.713536024E-1
6.014747421E1,1.868789494E-1,-7.901437759E0,-2.994019747E0
6.019946807E1,-2.664029121E0,1.877292752E0,-7.625290751E-1
6.025146136E1,-2.050109625E0,2.920650721E0,-1.251221180E0
6.030345476E1,-3.152522743E-1,4.774015427E0,8.055620790E-1
6.035544798E1,1.205191255E0,-1.255835056E0,9.430066943E-1
6.040744124E1,4.849812090E-1,-5.609575659E-2,1.169026852E0
6.045943470E1,-7.987063378E-3,1.813151836E0,5.673245788E-1
6.051142836E1,-1.179428101E-1,2.442342997E0,2.582267821E-1
6.056342238E1,-1.710880846E-1,6.714447737E-1,-4.790875614E-1
6.061541567E1,5.576741099E-1,-2.350505590E0,-6.122561693E-1
6.066740910E1,1.447093964E0,-2.735637724E-1,-4.479334354E-1
6.071940226E1,1.543610692E0,1.607290268E0,8.348836303E-1
6.077139575E1,8.007985353E-1,-2.456185341E0,-2.521209955E0
6.082338894E1,-2.727559090E0,1.307966352E0,-9.097475410E-1
6.087538227E1,-4.532055378E0,-1.737807751E0,-2.215777397E0
6.092737656E1,-2.966407537E0,-3.236547112E-1,1.754588261E-2
6.097937025E1,1.826441288E0,-3.256418705E0,4.628666341E-1
6.103136340E1,1.101344228E0,1.414867759E0,1.322964907E0
6.108335673E1,1.289490700E0,2.698295593E0,1.029749632E0
6.113535056E1,1.621801376E0,1.341563940E0,1.200181007E0
6.118734678E1,2.128819466E0,-2.007810116E0,6.998823881E-1
6.123934074E1,1.513678193E0,-3.718843699E0,8.446574211E-1
6.129133406E1,1.041479349E0,-3.533140659E0,2.007133961E0
6.134332736E1,8.765458465E-1,-3.531308174E0,2.276525736E0
6.139528386E1,-1.000032187E0,-2.946710110E0,7.035475373E-1
6.144727732E1,-2.179002285E0,1.355002880E0,3.712368608E-1
6.149927061E1,-2.897379637E0,1.566362262E0,-6.904469728E-1
6.155126450E1,-2.538190842E0,6.829576969E0,-2.322980016E-1
6.160325839E1,2.620153725E-1,1.082269996E-1,7.772038691E-3
6.165525158E1,4.709312618E-1,-1.183142066E0,3.431370556E-1
6.170724501E1,-9.279501438E-1,2.166842699E0,1.129931569E0
6.175923830E1,-1.129535675E0,-1.489472687E-1,4.952425063E-1
6.181123170E1,-4.954575300E-1,-1.853872180E0,-1.198987961E-1
6.186322499E1,1.172403097E-1,-2.602182150E0,-2.426827103E-1
6.191521831E1,1.190530539E0,-2.464737415E0,7.652449608E-1
6.196721230E1,2.588190079E0,-4.340093613E0,1.833648324E0
6.201920599E1,4.188657284E0,-4.365139008E0,1.450024843E0
6.207119928E1,3.353604555E0,-1.112892628E0,1.914893270E0
6.212319268E1,2.278069109E-1,-2.194123983E0,1.354428679E-1
6.217518620E1,-4.432483673E0,-1.944383979E-2,-1.400883198E0
6.222718439E1,-5.687811852E0,3.166218519E0,-3.103975534E0
6.227918194E1,-1.753641367E-1,9.387881279E0,1.840978622E0
6.233117597E1,3.197833776E0,1.320507377E-1,1.768896461E0
6.238316936E1,2.853916407E0,7.508572340E-1,1.350453854E0
6.243516269E1,2.188073397E0,1.059955120E0,-5.682738423E-1
6.248715598E1,2.349952936E0,1.821093082E0,-2.242655516E0
6.253914941E1,2.525270939E0,2.149738550E0,-2.694084883E0
6.259114260E1,1.016433954E0,-9.669996798E-3,-8.938650489E-1
6.264313599E1,2.968346775E-1,-2.839808702E0,2.276835293E-1
6.269513024E1,9.559583068E-1,-6.456130981E0,-7.716920376E-1
6.274712370E1,-2.792112529E-1,-3.368206978E0,-1.734415650E0
6.279911699E1,8.484460115E-1,5.009198666E0,-1.839484453E0
6.285111042E1,-4.295039654E0,1.210551709E-1,-1.888353586E0
6.290310368E1,-3.504579782E0,-1.007245350E1,1.216674328E0
6.295509707E1,1.784902453E0,-2.436637640E0,9.808803797E-1
6.300709036E1,-6.261826754E-1,3.155222893E0,5.920336723E0
6.305908386E1,-1.023245096E0,4.297541142E0,2.136637449E0
6.311107804E1,-1.100015566E-1,3.053208351E0,1.563645840E0
6.316307140E1,2.305970430E0,1.143643498E0,1.607017159E0
6.321506472E1,3.938813210E0,-1.739927530E-1,1.139094472E0
6.326705822E1,4.431781769E0,-1.539887428E0,3.639064729E-1
6.331905434E1,4.729272842E0,2.065762877E-1,-5.792694688E-1
6.337104877E1,4.290671825E0,1.277746856E-1,-1.196854234E0
6.342304202E1,2.755567312E0,-1.084792852E0,-1.394163728E0
6.347503542E1,9.412975311E-1,-7.384322286E-1,-1.488236904E0
6.352702874E1,-2.356153011E0,-3.036507368E0,-2.730125904E0
6.357902197E1,-6.414130688E0,-2.027034163E-1,-1.598803639E0
6.363101543E1,-3.390347958E0,9.121256471E-1,-3.108862638E0
6.368300889E1,-3.729378223E0,1.001707268E1,2.063944340E0
6.373500304E1,-1.164965868E0,-6.886791229E0,-5.786585808E-1
6.378699646E1,-9.853714705E-1,-4.795799255E0,6.925520301E-1
6.383898969E1,-8.491485119E-1,7.071479797E0,1.153755307E0
6.389098312E1,1.165485144E0,3.418505907E0,9.155178070E-1
6.394297648E1,2.469682455E0,-3.224653721E0,2.482387304E0
6.399496980E1,3.698743105E0,-3.075602770E0,2.916712284E0
6.404696319E1,3.166068792E0,-2.188015461E0,2.833634853E0
6.409895672E1,1.261390924E0,-2.440302849E0,3.632646561E0
6.415095080E1,5.729457736E-1,-3.164788961E0,2.335779428E0
6.420294410E1,6.401410103E-1,-4.612539768E0,1.822652698E0
6.425493742E1,1.212521672E0,-4.399958611E0,-5.737716556E-1
6.430693092E1,2.638479471E-1,1.946320534E0,-8.669869900E-1
6.435892827E1,-1.742233515E0,2.329943895E0,-4.048631713E-2
6.441092630E1,-4.567485332E0,-1.756133795E0,-6.635688543E-1
6.446292179E1,-6.076932907E0,9.646601081E-1,-2.402392626E-1
6.451491508E1,-5.170409203E0,4.792341709E0,9.570566416E-1
6.456690857E1,-2.255971193E0,6.734282017E0,8.299966455E-1
6.461890183E1,-2.248442173E-1,3.574600220E-1,-4.167793095E-1
6.467089516E1,7.769747972E-1,1.835753918E0,-6.971664429E-1
6.472288848E1,9.040347338E-1,2.682413101E0,6.271893978E-1
6.477488267E1,1.691440105E0,-9.864435196E-1,7.786839604E-1
6.482687613E1,2.420813322E0,-1.665114880E0,2.386481285E0
6.487886972E1,2.828871012E0,-3.244812250E0,2.921599388E0
6.493086278E1,3.148964643E0,-4.607041836E0,2.574627638E0
6.498285610E1,3.641932964E0,-4.390184402E0,1.453079224E0
6.503484950E1,3.932093859E0,-1.103118777E0,7.737970352E-1
6.508684282E1,2.114158630E0,5.511043072E-1,3.474131227E-1
6.513883612E1,-3.549585342E-1,1.645163894E0,4.995185435E-1
6.519083027E1,-3.348809004E0,-9.345199466E-1,-8.230047226E-1
6.524282386E1,-5.229052067E0,-8.575509787E-1,-1.948218465E0
6.529481722E1,-6.492321968E0,4.875743091E-1,-1.741135120E0
6.534681041E1,-7.061647892E0,4.602362633E0,-1.793058753E0
6.539880387E1,-4.522891998E0,6.783151150E0,-1.981205225E0
6.545080103E1,-8.631983995E-1,4.804559231E0,2.443902493E0
6.550279928E1,-5.327203274E-1,-1.672445178E0,-9.476212263E-1
6.555479391E1,1.435487509E0,-7.182736993E-1,1.114659905E0
6.560678727E1,2.201512337E0,4.026640356E-1,2.237430096E0
6.565878046E1,2.497782230E0,-7.439299822E-1,2.835467339E0
6.571077405E1,3.404917002E0,-2.695644617E0,2.289052606E-1
6.576276718E1,3.054280519E0,-1.297984719E0,4.934099019E-1
6.581476057E1,2.767784595E0,-2.767115831E0,-1.179749966E0
6.586675393E1,3.384758472E0,-3.895994663E0,-4.485443234E-1
6.591874801E1,1.606529832E0,-1.739927530E-1,-6.049257517E-1
6.597074150E1,-9.688780904E-1,1.689146280E0,-1.858722419E-1
6.602273490E1,-3.187540770E0,1.842980459E-2,-3.269821107E-1
6.607472822E1,-5.302966595E0,-2.629671097E0,-1.378281236E0
6.612672162E1,-4.899796009E0,-6.926173568E-1,-7.429813147E-1
6.617871494E1,-3.377519846E0,3.894980669E0,-2.292436808E-1
6.623070833E1,-1.659766674E0,5.081891537E0,1.633895278E0
6.628270192E1,-1.163744092E0,2.214490414E0,5.786298588E-2
6.633469588E1,-5.253899693E-1,-3.957368433E-1,8.489334583E-1
6.638668927E1,3.524234295E-1,-3.144630432E0,1.313801885E0
6.643868253E1,2.378663301E0,-2.739015818E0,1.235000372E0
6.649067596E1,2.824594975E0,-2.616335824E-2,1.878241420E0
6.654267158E1,3.214937925E0,-2.062177181E0,8.446574211E-1
6.659466664E1,2.542375326E0,-1.515452862E0,-3.056018353E-1
6.664666013E1,3.513651133E0,-1.012099862E0,1.299450845E-1
6.669865319E1,1.522230387E0,-2.540161014E-1,1.137261868E0
6.675064658E1,-3.433520794E-1,4.356507659E-1,-3.721861541E-1
6.680263994E1,-2.460000277E0,-5.304142833E-2,-7.570312619E-1
6.685463323E1,-3.213196993E0,-7.524821162E-1,-1.287262321E0
6.690662702E1,-4.565652847E0,1.515984386E-1,-1.960435748E0
6.695862094E1,-4.525946140E0,4.250504494E0,-2.182790756E0
6.701061430E1,-1.452683330E0,6.157014847E0,-4.522095025E-1
6.706260763E1,-1.177183151E0,2.610331059E0,7.799056768E-1
6.711460096E1,-1.169852734E0,-3.768000305E-1,1.152843237E-1
6.716659435E1,1.461495087E-2,-2.679151058E0,-4.461008310E-1
6.721858761E1,7.745313048E-1,-2.998310030E-1,3.834541738E-1
6.727058090E1,8.698263168E-1,-2.450076580E0,9.417849779E-1
6.732257466E1,1.863704085E0,-3.019402981E0,1.403599143E0
6.737456854E1,1.027429581E0,-6.431372762E-1,2.162904501E0
6.742656194E1,1.112950683E0,-1.873419762E0,3.152506351E0
6.747855526E1,-1.173319370E-1,-1.238730788E0,1.898400068E0
6.753054855E1,-8.057770729E-1,-1.256445885E0,4.194951952E-1
6.758254478E1,-1.512548208E0,-2.601247430E-1,-9.757210016E-1
6.763454343E1,-1.838750243E0,1.220001698E0,-6.464646459E-1
6.768653862E1,-1.936488628E0,2.878213823E-1,-2.000141859E0
6.773853202E1,-4.496014118E0,3.042212725E0,-4.289966226E-1
6.779052528E1,-6.090784669E-1,6.836620569E-1,1.515387416E0
6.784251863E1,8.423373699E-1,-1.219794035E0,1.651610494E0
6.789451196E1,1.509402275E0,-1.359682083E0,8.501552343E-1
6.794650525E1,1.459922075E0,-6.602414846E-1,2.069442034E0
6.799849861E1,1.629131794E0,-2.046294689E0,2.291797161E0
6.805049250E1,2.126986980E0,-3.476941109E0,2.539808512E0
6.810248655E1,1.831328273E0,-3.088430882E0,3.530631781E0
6.815447968E1,1.073855400E0,-5.160485744E0,3.168999672E0
6.820647311E1,-2.814561687E-2,-4.321767807E0,3.303088844E-1
6.825846637E1,-2.189386845E0,-6.211461425E-1,-2.582555078E-2
6.831045969E1,-4.212572575E0,6.182994843E-1,-1.291538358E0
6.836245325E1,-5.779441833E0,1.152806520E0,-1.296726316E-1
6.841444644E1,-4.889410973E0,-2.140367985E0,-1.406381011E0
6.846644040E1,-3.469760418E0,3.236468077E0,8.593181968E-1
6.851843399E1,3.817449510E-1,1.166856408E0,1.412762046E0
6.857042738E1,3.585320711E-1,1.536429882E0,1.523328781E0
6.862239495E1,9.932210445E-1,2.560240030E0,1.264932752E0
6.867439000E1,2.547262192E0,6.946576834E-1,1.640004039E0
6.872638576E1,3.345663071E0,-1.757966280E0,1.946047544E0
6.877837899E1,4.250965118E0,-3.049946308E0,1.136651039E0
6.883037235E1,4.069538116E0,-2.647386312E0,3.706260026E-1
6.888236574E1,3.411025524E0,-5.643356442E-1,-4.473225772E-1
6.893435897E1,2.837423325E0,7.111510038E-1,1.308915019E0
6.898635239E1,3.951839805E-1,-2.490393877E0,-2.579543591E-1
6.903834572E1,-2.554073572E0,-3.251531839E0,6.296328902E-1
6.909033967E1,-5.914443493E0,-7.555364370E-1,1.281124949E-1
6.914233329E1,-6.523475647E0,4.113670349E0,-1.149817586E0
6.919432665E1,-5.945597172E0,4.864423752E0,-2.549920559E0
6.924632001E1,-5.012805939E0,4.834491253E0,-2.059396029E0
6.929831330E1,1.111316606E-1,4.597475529E0,-4.522095025E-1
6.935030676E1,1.380097419E-1,4.706820965E0,2.885116497E-3
6.940230012E1,1.936396956E0,3.810681105E0,2.295161337E-1
6.945429355E1,2.489229918E0,3.154612064E0,6.051982641E-1
6.950628777E1,2.149588823E0,1.695254922E0,5.349487066E-1
6.955828106E1,2.112936974E0,-2.442422509E-1,6.791129112E-1
6.961027432E1,2.415926218E0,-2.340120792E0,1.116191298E-1
6.966226778E1,2.960207224E0,-3.012072802E0,8.880288601E-1
6.971426296E1,2.936383247E0,-5.806781292E0,5.844288468E-1
6.976626165E1,1.362183690E0,-2.500778675E0,-4.693137109E-1
6.981825835E1,5.004513636E-2,1.007420659E0,-1.303755641E0
6.987025201E1,-1.597458363E0,8.803606629E-1,-1.570092916E0
6.992224543E1,-5.360999107E0,7.630745173E-1,-1.962268472E0
6.997423893E1,-7.053707123E0,1.900505662E0,-2.491888523E0
7.002623209E1,-4.989593029E0,7.029330254E0,-9.751101732E-1
7.007822538E1,-3.115870953E-1,3.316491127E0,5.969558284E-2
7.013021937E1,2.433641434E0,-2.005366802E0,1.709031701E0
7.018221319E1,1.966940284E0,-1.076240778E0,-1.769845843E0
7.023420642E1,1.177702427E0,4.789898396E0,1.022419214E0
7.028619977E1,1.337138176E0,7.893417478E-1,7.496721298E-2
7.033819313E1,1.539945483E0,-4.250583351E-1,-1.437225491E-1
7.039018639E1,1.773906827E0,1.851960123E-1,3.220665082E-2
7.044217982E1,1.606529832E0,2.499477416E-1,1.275928378E0
7.049417314E1,3.376817226E0,-2.180074215E0,1.139094472E0
7.054616706E1,3.222879171E0,-2.095774889E0,-2.329088748E-1
7.059816085E1,-5.150051713E-1,1.562697172E0,-1.486404300E0
7.065015415E1,-5.136200905E0,8.929017931E-2,-1.316583872E0
7.070214747E1,-6.393972397E0,-1.061579943E0,-3.041056395E0
7.075414080E1,-5.503942013E0,-2.533765078E0,-2.098491192E0
7.080613592E1,-1.768500686E0,1.557810187E0,-1.186770722E-1
7.085813478E1,-6.174320728E-2,-1.232011318E0,8.776441813E-1
7.091013087E1,1.006660104E0,-8.361706734E-1,2.191004276E0
7.096212409E1,1.814834833E0,1.191290975E0,2.049283743E0
7.101411742E1,2.818486214E0,-9.485698938E-1,2.527590990E0
7.106611084E1,2.844753742E0,-2.429918289E0,2.116478682E0
7.111810417E1,2.488619089E0,-3.037118196E0,1.344956040E0
7.117009743E1,2.071398258E0,-2.129983187E0,1.884350061E0
7.122209085E1,1.218630314E0,-1.731699109E0,2.076161861E0
7.127408471E1,3.579212129E-1,-1.343799710E0,1.302806377E0
7.132607853E1,-1.130757332E0,6.305167675E-1,1.748738050E0
7.137807176E1,-3.516186237E0,6.182994843E-1,-9.323495626E-1
7.143006522E1,-4.778234005E0,9.860403538E-1,-1.509006381E0
7.148205854E1,-4.987760544E0,5.347007275E0,-1.598192692E0
7.153405184E1,-1.951760292E0,4.450257301E0,1.903286815E0
7.158604520E1,-1.662210226E0,-8.471662402E-1,-2.842215598E-1
7.163803849E1,6.028781533E-1,-2.616231918E0,-5.175721049E-1
7.169003251E1,1.512456536E0,1.465569615E0,2.930461168E-1
7.174202626E1,3.407971382E0,5.877562165E-1,1.494007230E0
7.179401949E1,4.313273430E0,-1.948556304E0,5.483877659E-1
7.184601282E1,3.800147057E0,-6.699255466E0,1.409406513E-1
7.189800717E1,2.601018429E0,-6.516894102E-1,-1.003820777E0
7.195000336E1,1.286436439E0,1.170521617E0,2.313487232E-1
7.200199686E1,1.414718151E0,-3.138808906E-1,-4.070054591E-1
7.205399025E1,4.965876043E-1,6.140234470E-1,-2.384066582E-1
7.210598351E1,-2.043390036E0,1.199843168E0,-7.136597633E-1
7.215797684E1,-3.878429174E0,2.798801363E-1,-1.088120222E0
7.220997016E1,-3.968226671E0,1.675707221E0,-2.259759665E0
7.226196365E1,-2.508258581E0,2.596892118E0,-1.461969733E0
7.231395784E1,-9.322261810E-1,4.802439213E-1,1.260045767E0
7.236595126E1,-5.196936056E-2,-1.299817324E0,2.484529465E-1
7.241794459E1,2.443002760E-1,4.252660573E-1,7.902904153E-1
7.246993785E1,1.404944181E0,-1.815998554E0,7.676883936E-1
7.252193124E1,2.732965231E0,-1.583869696E0,1.604573727E0
7.257392457E1,2.838034153E0,-2.145865679E0,1.915504098E0
7.262591783E1,2.450745583E0,-1.767129302E0,1.715751171E0
7.267791155E1,1.430600643E0,-2.810487032E0,1.473237753E0
7.272990550E1,-2.700482607E-1,-1.196581125E0,4.249930084E-1
7.278189893E1,-3.254125118E0,9.622166157E-1,-1.009318590E0
7.283389226E1,-5.186903000E0,5.755388737E-1,-2.059396029E0
7.288588561E1,-4.807555199E0,2.227318525E0,-1.683102846E0
7.293787990E1,-2.675635576E0,5.602960110E0,9.879095852E-2
7.298987879E1,-2.264782973E-2,3.185766220E0,1.848919868E0
7.304187538E1,2.638479471E-1,-2.286364794E0,5.703788996E-1
7.309386904E1,-5.074762926E-2,-1.892643720E-1,8.611507416E-1
7.314586230E1,-2.333963364E-1,3.263058662E-1,6.552891731E-1
7.319785583E1,3.294090554E-2,-1.790953040E0,-1.644919515E-1
7.324984892E1,1.873477936E0,-1.832491994E0,-1.074070334E0
7.330184221E1,3.081769228E0,-3.960239515E-2,-7.258771658E-1
7.335383564E1,3.161181927E0,2.988169491E-1,-2.420718521E-1
7.340582906E1,3.613832951E0,-1.653508425E0,-7.032750845E-1
7.345782342E1,1.288269043E0,1.907225132E0,-7.845202088E-1
7.350981681E1,-1.624336600E0,1.627448797E0,-1.452195883E0
7.356181020E1,-3.934018135E0,1.523601770E0,-3.091758251E0
7.361380336E1,-4.461194992E0,2.461890936E0,-2.623224497E0
7.366579665E1,-1.593182325E0,3.728214264E0,-2.115285844E-1
7.371778991E1,3.402061164E-1,1.755119801E0,1.738964081E0
7.376978337E1,-1.287398487E-2,-2.584466934E0,2.206276178E0
7.382177729E1,-3.433520794E-1,-1.646178007E0,5.416682959E-1
7.387377098E1,-6.457304358E-1,-6.889521480E-1,5.984787345E-1
7.392576434E1,-7.762569934E-2,-2.213061094E0,5.013511777E-1
7.397775777E1,4.699081182E-2,-4.104910851E0,7.970099449E-1
7.402975153E1,5.527872443E-1,-3.463502169E0,1.147646666E0
7.408174788E1,1.008492708E0,-2.116544247E0,1.048075557E0
7.413374164E1,1.280938625E0,-2.279645205E0,4.689753056E-1
7.418573497E1,-2.656087875E0,-6.767348647E-1,8.596279472E-2
7.423772836E1,-4.008543491E0,5.871453285E-1,-1.924394727E0
7.428972165E1,-4.323750019E0,4.483854771E0,-1.433869958E0
7.434171508E1,7.189425826E-1,2.662865400E0,1.249661088E0
7.439370834E1,7.928572893E-1,9.671035409E-1,1.837313533E0
7.444570199E1,1.493519664E0,-9.027550220E-1,8.837528229E-1
7.449769645E1,9.602344036E-1,1.094487235E-1,2.817752123E0
7.454968930E1,1.594923377E0,-1.098842740E0,2.269195080E0
7.460168276E1,2.075063467E0,-1.183142066E0,3.056600571E0
7.465367599E1,2.657217979E0,-8.056274652E-1,1.660773396E0
7.470566932E1,1.910129786E0,-1.320586801E0,1.182465911E0
7.475766268E1,8.973152637E-1,-1.333415031E0,3.712368608E-1
7.480965600E1,2.186439335E-1,-1.706042767E0,-3.611905873E-1
7.486164996E1,-1.390985966E0,-1.573485017E0,-3.080452979E-1
7.491364368E1,-3.466706038E0,9.188451767E-1,-1.625070810E0
7.496563697E1,-4.443479538E0,1.607614160E-1,-1.760682821E0
7.501763036E1,-4.387891293E0,-1.293708682E0,-1.267103791E0
7.506962409E1,-8.528137207E-1,3.595045805E0,1.247828484E0
7.512162244E1,-6.817713976E-1,2.279853106E0,1.786611557E0
7.517362017E1,-5.027878881E-1,-8.825964332E-1,8.672594428E-1
7.522561476E1,-3.641214967E-1,-2.540161014E-1,4.329342246E-1
7.527760802E1,4.831486046E-1,6.366254091E-1,1.230113387E0
7.532960131E1,1.301707983E0,-6.681827307E-1,1.472015977E0
7.538159471E1,2.792829990E0,-2.612566948E0,1.714529514E0
7.543358807E1,3.519759655E0,-2.505054474E0,9.894325137E-1
7.548558146E1,1.764133096E0,1.507719278E0,1.667492867E0
7.553757571E1,-5.424941182E-1,6.482605934E0,2.696800709E0
7.558956904E1,-1.497276545E0,-5.069143176E-1,9.634749591E-2
7.564156233E1,-2.708011389E0,-2.950986147E0,-9.262409210E-1
7.569355582E1,-3.132562637E0,-2.698087931E0,-1.174252152E0
7.574554905E1,-3.416004181E0,-3.324224949E0,-2.447906256E0
7.579754257E1,-3.679898024E0,-3.284518480E0,-2.256094456E0
7.584953597E1,-2.306673050E0,3.397449255E-1,-1.145541549E0
7.590152906E1,-6.335130334E-1,2.177227497E0,2.881282330E0
7.595157085E1,-6.304587126E-1,-3.082933187E0,8.324401379E-1
7.600356424E1,6.694624424E-1,-8.459445238E-1,1.709031701E0
7.605555760E1,8.887631297E-1,4.851308465E-1,2.359603167E0
7.610755089E1,1.031094670E0,-8.416684866E-1,2.432296038E0
7.615954445E1,1.443428755E0,-2.654105663E0,2.670533657E0
7.621154264E1,2.044520140E0,-2.991303205E0,2.493382931E0
7.626354026E1,2.395156622E0,-1.949167132E0,2.754222155E0
7.631553419E1,2.092778683E0,-5.515074730E-1,1.829982996E0
7.636752765E1,1.558271527E0,-4.775927663E-1,-1.406682134E-1
7.641952087E1,1.526705027E-1,5.022350550E-1,-2.106432676E0
7.647151420E1,-1.194287300E0,2.340328693E0,-2.609174490E0
7.652350766E1,-4.262052536E0,2.120740861E-1,-3.537078857E0
7.657550095E1,-4.056801796E0,-2.937547207E0,-2.573133469E0
7.662749444E1,-2.807582617E0,-2.002312422E0,-1.383778930E0
7.667948866E1,-2.463054419E0,5.456963062E0,1.426812053E0
7.673148192E1,-5.131726265E-1,-6.302803516E0,5.080707073E-1
7.678347524E1,-1.631468385E-1,-1.946112752E0,2.985739946E0
7.683546867E1,-5.174486637E-1,1.467402220E0,3.068817854E0
7.688746196E1,6.505256891E-1,-4.102467060E0,1.370001554E0
7.693945532E1,2.237553358E0,-5.466529369E0,4.158300161E-1
7.699144861E1,1.418383360E0,-7.442171127E-2,1.575252175E0
7.704344257E1,-7.672925591E-1,8.195979148E-2,3.997333050E0
7.709543626E1,-1.298745394E0,-1.378008127E0,2.179398060E0
7.714742965E1,-3.094078302E0,-2.792772055E0,2.044706494E-1
7.719942298E1,-6.381144047E0,3.098125160E-1,-1.281153679E0
7.725141640E1,-6.389696121E0,3.352532148E0,-1.505952001E0
7.730341259E1,1.110507250E0,-1.623863131E-1,9.466719627E-1
7.735540705E1,2.661494255E0,-1.054860473E0,1.195294023E0
7.740740034E1,2.418369532E0,1.415478587E0,1.863580704E0
7.745939370E1,2.270540237E0,2.310109138E-1,1.649166942E0
7.751138709E1,6.853449941E-1,-2.100050688E0,6.876650453E-1
7.756338025E1,2.705674767E-1,-3.980905056E0,3.003765047E-1
7.761537374E1,2.449111491E-1,-1.759799004E0,1.329994202E-1
7.766736733E1,-1.423774064E-1,-2.054847002E0,7.927339077E-1
7.771936132E1,3.078302741E-1,-3.337663889E0,9.234590530E-1
7.777135478E1,-1.511937261E0,1.772547662E-1,4.433189631E-1
7.782334804E1,-1.709857702E0,3.218141794E0,-9.708341360E-1
7.787534133E1,-4.069019318E0,5.083724499E0,-2.884976268E-1
7.792733473E1,-3.177155972E0,2.483270884E0,-1.910344839E0
7.797932798E1,1.048198938E0,-4.989730418E-1,1.745683670E0
7.803132154E1,1.713431120E0,-1.611645818E-1,-1.018481612E0
7.808331546E1,1.656620741E0,4.686662197E0,3.132046461E-1
7.813530909E1,2.948600769E0,1.010474920E0,-2.878867388E-1
7.818730238E1,3.831300974E0,-8.190664649E-1,-1.308943778E-1
7.823929567E1,4.070149422E0,-5.356249809E-1,4.665318429E-1
7.829128920E1,4.035941124E0,-8.777095079E-1,-7.527551651E-1
7.834328645E1,3.631548166E0,1.503766924E-1,-1.641564131E0
7.839528460E1,-9.022937417E-1,2.650037289E0,-1.388055086E0
7.844727910E1,-4.630404472E0,9.945924878E-1,-1.520612836E0
7.849927229E1,-4.608413219E0,-1.019106507E-1,-2.246931553E0
7.855126575E1,-2.664639950E0,-1.193526864E0,5.419779569E-2
7.860325911E1,-2.101834565E-1,-2.554534674E0,2.374874830E0
7.865525234E1,-4.685794711E-1,-2.677929401E0,1.489120245E0
7.870724576E1,-7.679034472E-1,2.608498573E0,1.708420873E0
7.875923905E1,3.915188015E-1,2.135688782E0,4.805817306E-1
7.881123304E1,1.733589768E0,1.103937387E0,4.225495160E-1
7.886322680E1,2.762286901E0,-5.792835355E-2,-6.858611852E-2
7.891522002E1,3.256476879E0,-8.716008067E-1,1.843120903E-1
7.896721342E1,3.378649950E0,-7.341561913E-1,7.573037148E-1
7.901920704E1,2.063457012E0,-7.420974374E-1,1.418259859E0
7.907120007E1,1.869201779E0,-1.676721215E0,6.546783447E-1
7.912319343E1,-1.557752252E0,-2.631790638E-1,7.505841851E-1
7.917518668E1,-3.888203144E0,-2.674264193E0,-1.119885206E0
7.922718094E1,-5.553421974E0,-1.207576752E0,-1.005653381E0
7.927917443E1,-2.715341806E0,6.456338406E0,1.564867496E0
7.933116772E1,-6.457304358E-1,3.081308126E0,3.098491952E-2
7.938316115E1,-3.372434378E-1,-7.060564160E-1,1.731633782E0
7.943515683E1,-6.267935634E-1,-2.812930584E0,-1.579866648E0
7.948715173E1,-1.051344872E0,1.277423143E0,-1.846505105E-1
7.953914512E1,4.699081182E-2,-8.691574335E-1,-3.190408647E-1
7.959113848E1,1.108674526E0,-2.210006475E0,3.953703493E-2
7.964313174E1,1.829495549E0,-1.441538095E0,9.020787477E-1
7.969512523E1,2.643779039E0,-1.698101521E0,1.576473951E0
7.974711869E1,2.679820061E0,-4.337650299E0,1.744461894E0
7.979911225E1,1.471528530E0,-4.020000458E0,7.634123564E-1
7.985110620E1,4.526053369E-1,-1.294319630E0,-5.148189142E-2
7.990309946E1,-3.520462275E0,2.391641378E0,-5.759054050E-2
7.995509282E1,-5.586408615E0,2.573068380E0,-1.333077192E0
8.000708618E1,-4.293206692E0,5.336011887E0,-1.960435748E0
8.005907950E1,-9.346696138E-1,3.015945673E0,1.263100147E0
8.011107280E1,1.382953167E0,-2.338899136E0,1.373055935E0
8.016306649E1,1.368903160E0,-6.926173568E-1,1.661995173E0
8.021506008E1,3.359300792E-1,8.321022987E-1,1.079840541E0
8.026705373E1,9.952522069E-2,-1.493461728E0,-5.322328210E-1
8.031904713E1,5.631719232E-1,-9.687284827E-1,-4.864179492E-1
8.037104055E1,5.558415651E-1,-4.110084474E-1,1.054184198E0
8.042303381E1,9.651212692E-1,-2.919221163E0,6.430718899E-1
8.047503020E1,2.274816513E0,-3.541082144E0,-1.363009572E0
8.052702866E1,2.339155674E-1,1.102104783E0,-7.835996151E-2
8.057902478E1,-1.913275719E0,-1.577864960E-2,-2.793346345E-1
8.063101827E1,-3.855827093E0,1.913333774E0,-2.235325098E0
8.068301140E1,-3.997548103E0,6.401971817E0,-1.640342355E0
8.073500479E1,8.826544881E-1,-1.272939324E0,1.066401482E0
8.078699818E1,3.243236244E-1,-3.474784791E-1,8.147250414E-1
8.083899141E1,-3.791946173E-2,1.947542191E0,1.096944809E0
8.089098547E1,4.397771657E-1,1.237105966E0,1.052962542E0
8.094297932E1,9.718407989E-1,-1.027371407E0,1.621067166E0
8.099497251E1,1.995651007E0,-2.056068659E0,1.424979329E0
8.104696594E1,1.320033908E0,-1.298595667E0,6.094743013E-1
8.109895920E1,-2.621069849E-1,-3.467777967E0,1.592666209E-1
8.115095249E1,2.210873961E-1,-1.836157084E0,3.742912114E-1
8.120294582E1,1.289490700E0,-1.205744147E0,1.008369327E0
8.125493918E1,-8.595331907E-1,-7.121650577E-1,-2.530674338E-1
8.130693346E1,-3.233966351E0,1.218169212E0,-6.330255866E-1
8.135892689E1,-2.401968002E0,-7.744732499E-1,-2.311683416E0
8.141092038E1,-1.615784407E0,5.408093929E0,-6.647905707E-1
8.146291354E1,5.466786027E-1,-6.816217899E-1,1.142148852E0
8.151490693E1,8.405047655E-1,-6.492459178E-1,8.168672770E-2
8.156690302E1,5.533980727E-1,4.053805828E0,1.830903590E-1
8.161890168E1,8.765458465E-1,2.380645752E0,7.634123564E-1
8.167089680E1,1.382342339E0,-2.067675114E0,2.337921709E-1
8.172289023E1,2.259544611E0,-2.718857527E0,9.314002395E-1
8.177488359E1,2.538099289E0,-5.197424889E-1,1.801883340E0
8.182687688E1,2.356061459E0,-2.516660929E0,1.906341195E0
8.187887037E1,-3.048675954E-1,-5.649465322E-1,4.732513428E-1
8.193086353E1,-3.120345354E0,-3.034961820E-1,-4.076163471E-1
8.198285696E1,-4.094675541E0,-1.754301190E0,-1.849869132E0
8.203485104E1,-4.699431896E0,9.408363104E-1,-8.199504018E-1
8.208684453E1,-3.270618439E0,2.230372906E0,-1.433259010E0
8.213883789E1,3.017216325E-1,3.262124300E0,2.569130182E0
8.219083125E1,-6.907358766E-2,-2.799595520E-2,1.588080406E0
8.224282464E1,1.507569551E0,-1.123888135E0,2.197422832E-1
8.229481797E1,2.426311016E0,-6.037181243E-2,1.812878728E0
8.234681123E1,2.529547215E0,-2.026746988E0,8.703137636E-1
8.239880469E1,2.607126951E0,-2.114100933E0,5.135684609E-1
8.245079884E1,2.528936386E0,-1.016375899E0,5.722115636E-1
8.250279223E1,2.514886379E0,2.542237937E-1,1.568532705E0
8.255478566E1,3.985239029E0,-1.439705610E0,2.429241896E0
8.260677885E1,1.693883538E0,-1.379516870E-1,2.225212812E0
8.265877391E1,-5.388289690E-1,-8.276185393E-1,1.128098845E0
8.271076966E1,-4.659115314E0,-2.258875847E0,-1.006264329E0
8.276276296E1,-8.952276230E0,-3.532529831E0,-4.662593901E-1
8.281475628E1,-8.365234375E0,2.171729803E0,-1.306199074E0
8.286674964E1,-1.522932887E0,7.198540211E0,-2.322980016E-1
8.291874290E1,2.441582441E0,-3.163243532E-1,1.743851066E0
8.297073629E1,2.064067841E0,1.694644094E0,1.803104997E0
8.302273005E1,1.580262542E0,2.768545151E0,1.062736273E0
8.307472407E1,1.048198938E0,1.241382122E0,-3.123213649E-1
8.312671733E1,3.481473625E-1,-6.260330081E-1,-4.461008310E-1
8.317871072E1,-1.179626584E0,-3.465945482E0,2.174510956E0
8.323066128E1,6.529691219E-1,-7.131748199E0,1.872743607E0
8.328265454E1,3.117810249E0,-2.473900318E0,2.368155241E0
8.333464790E1,5.392672539E0,1.643942237E0,4.954558372E0
8.338664133E1,-1.087798327E-1,-4.745384455E-1,1.777448654E0
8.343863478E1,-2.555295229E0,7.203139663E-1,-1.083233237E0
8.349062894E1,-5.114820480E0,6.677795649E-1,-1.855977774E0
8.354262230E1,-5.127037525E0,1.490004182E0,-2.804651499E0
8.359461562E1,-5.962502956E-1,6.956637383E0,3.877302110E-1
8.364660898E1,1.007271051E0,7.951632887E-2,1.446058452E-1
8.369860417E1,1.749472260E0,-6.523002386E-1,3.742912114E-1
8.375060306E1,1.954723001E0,2.208381653E0,5.874831676E-1
8.380259895E1,1.439763546E0,1.008031487E0,-6.531841159E-1
8.385459224E1,1.148991704E0,-2.454639673E-1,-1.248166919E0
8.390658560E1,8.728806376E-1,3.797749430E-2,-1.546880007E0
8.395857902E1,5.381264687E-1,1.860188484E0,-2.939953804E-1
8.401057228E1,2.527103662E0,-2.491291612E-1,4.237712622E-1
8.406256588E1,1.151435137E0,-3.517545462E-1,1.079539433E-1
8.411455914E1,1.435075253E-1,-1.027371407E0,1.782034487E-1
8.416655289E1,-2.368981123E0,-2.943655729E0,-1.801610827E0
8.421854661E1,-4.420266628E0,1.646385789E0,-8.541588187E-1
8.427053994E1,-3.722047806E0,4.522339344E0,-7.509226203E-1
8.432253336E1,-1.569358587E0,2.445397377E0,5.514420867E-1
8.437452659E1,-5.583766699E-1,3.858835623E-2,8.535192162E-2
8.442651998E1,1.247341037E0,-1.128775120E0,-8.767608404E-1
8.447851331E1,3.092154026E0,7.606310844E-1,1.353508234E0
8.453050663E1,4.173996449E0,-9.956064820E-1,1.961319089E0
8.458250062E1,3.373152018E0,-2.069507599E0,1.246606827E0
8.463449438E1,2.602851152E0,-1.897243619E0,1.007147551E0
8.468648760E1,1.761689544E0,-1.192305088E0,8.238880038E-1
8.473848100E1,1.384785652E0,-9.064201713E-1,6.064199805E-1
8.479047539E1,-1.387931585E0,5.443847775E-1,5.480866134E-2
8.484247151E1,-2.962742090E0,1.174797773E0,-3.679100871E-1
8.489446510E1,-3.452045441E0,-1.532233208E-1,-1.699596286E0
8.494645829E1,-3.194871187E0,4.655831456E-1,-6.024823785E-1
8.499845165E1,-6.628345847E-1,5.280422688E0,-1.019092441E0
8.505044501E1,-1.906357706E-1,1.102104783E0,1.905119538E0
8.510243834E1,5.859724805E-2,-1.362125635E0,-1.223422587E-1
8.515443170E1,-3.097544909E-1,1.541927695E0,5.037946105E-1
8.520642552E1,1.453401148E-1,-5.044708848E-1,2.918243706E-1
8.525841937E1,1.461754799E0,-2.901506186E0,3.046525717E-1
8.531041270E1,2.627896547E0,-1.004158616E0,1.264932752E0
8.536240592E1,2.364002705E0,-6.144265532E-1,1.423146844E0
8.541439938E1,2.657828808E0,-2.603403807E0,1.206289649E0
8.546639268E1,1.246119261E0,-4.336104691E-1,1.325408340E0
8.551838600E1,-1.355555773E0,8.655959740E-3,-6.537950635E-1
8.557037939E1,-3.675621986E0,3.153102994E-1,-1.869416833E0
8.562237338E1,-4.022593498E0,8.198850155E-1,-2.483947277E0
8.567436700E1,-2.687242031E0,3.790522814E0,-1.378892064E0
8.572636043E1,-7.355275750E-1,3.375745058E0,2.263086319E0
8.577835372E1,2.925586104E-1,-3.596670628E0,1.249661088E0
8.583034821E1,9.131977558E-1,-9.412394762E-1,8.727571964E-1
8.588234697E1,-2.993697822E-1,1.507719278E0,5.575507879E-1
8.593434389E1,-3.378542960E-1,-2.387157440E0,-1.064597592E-1
8.598633809E1,6.969513893E-1,-2.117765903E0,2.392899692E-1
8.603833138E1,1.762911201E0,-1.629684567E0,9.558349252E-1
8.609032470E1,3.689580441E0,-2.435415745E0,2.100596428E0
8.614231803E1,2.969980955E0,-2.562475920E0,1.585026145E0
8.619431146E1,-5.522680283E-1,-1.572874188E0,-3.257603645E-1
8.624630488E1,-4.762961864E0,7.557441592E-1,-2.275642395E0
8.629829900E1,-5.415366173E0,5.900451183E0,-3.117414474E0
8.635029242E1,-5.235573053E-1,6.107534885E0,6.702596694E-2
8.640228598E1,2.102552176E0,-3.501986504E0,9.259025455E-1
8.645427901E1,2.283979177E0,6.176885962E-1,1.918558478E0
8.650627250E1,3.017216325E-1,3.477759838E0,2.052338123E0
8.655826573E1,-7.593513131E-1,1.954261661E0,-1.079568148E0
8.661025909E1,-8.057770729E-1,7.035334408E-2,-2.287248850E0
8.666225274E1,-1.197754070E-1,5.385999009E-2,-2.576798916E0
8.671424676E1,1.138607025E0,7.462941110E-2,-1.510228157E0
8.676624009E1,3.323060989E0,-1.451312065E0,-5.523914099E-1
8.681823345E1,4.897871494E0,-1.577150226E0,2.936569750E-1
8.687022671E1,1.780626297E0,8.901345134E-1,2.050815076E-1
8.692222113E1,-3.298717976E0,-1.027982354E0,-1.565816760E0
8.697421992E1,-5.607177734E0,1.720807515E-2,-4.216361523E0
8.702621647E1,-1.298745394E0,7.064149380E0,-1.082923561E-1
8.707821007E1,9.840580821E-1,-1.499570370E0,1.931997538E0
8.713020346E1,1.174037218E0,-1.235676527E0,2.533398867E-1
8.718219679E1,1.272997260E0,3.157055378E0,1.715751171E0
8.723419014E1,1.088515997E0,2.827188253E0,1.272873878E0
8.728618344E1,1.703657389E0,-1.126942515E0,-1.450974107E0
8.733817696E1,2.123932600E0,7.881199718E-1,-1.520002007E0
8.739017045E1,3.635213375E0,-1.616245627E0,-6.800622344E-1
8.744216457E1,2.761676073E0,-7.763059139E-1,-9.219648242E-1
8.749415780E1,2.149787396E-1,2.945408821E-1,2.661680281E-1
8.754615102E1,-2.040946722E0,-2.228943348E0,8.141141534E-1
8.759814452E1,-2.064770222E0,-4.090860367E0,1.488819122E-1
8.765013788E1,-5.657879829E0,2.467388630E0,-5.493370295E-1
8.770213110E1,-2.867447376E0,2.356822014E0,4.283828735E0
8.775412466E1,-4.612490833E-1,-4.049932480E0,-3.483623862E-1
8.780611865E1,9.504604936E-1,7.881199718E-1,5.325053334E-1
8.785811214E1,1.448315620E0,3.671404123E0,-7.515334487E-1
8.791010553E1,2.097054720E0,2.690354586E0,-4.913048744E-1
8.796209879E1,3.028624058E0,1.092330933E0,6.467370391E-1
8.801409278E1,2.703032970E0,-6.419155002E-1,1.825096250E0
8.806608917E1,2.266264200E0,-1.281491399E0,1.325408340E0
8.811808293E1,1.223517179E0,-1.337691069E0,-1.007485986E0
8.817007612E1,-5.563455075E-2,1.576136231E0,3.150372505E-1
8.822206955E1,-3.439629376E-1,1.717569828E-1,-5.676630139E-1
8.827406301E1,-4.496426284E-1,-1.654406339E-1,-3.489732742E-1
8.832605613E1,-2.394637585E0,-2.740237474E0,-1.582310200E0
8.837804959E1,-3.959674358E0,-2.435415745E0,3.028199375E-1
8.843004334E1,-3.295053005E0,-2.240549803E0,1.431698918E0
8.848203720E1,-2.467330456E0,3.397449255E-1,-4.271639884E-1
8.853403056E1,-1.820424199E0,2.662254572E0,2.032790184E0
8.858602389E1,3.414278626E-1,5.437739491E-1,-5.759054050E-2
8.863801711E1,6.883993149E-1,1.652494431E0,1.513554811E0
8.869001047E1,5.485111475E-1,-2.020925432E-1,2.407250643E0
8.874200426E1,1.478858829E0,-2.673653364E0,2.123198509E0
8.879399716E1,1.719539762E0,-2.159304619E0,3.120741129E0
8.884599128E1,1.326142550E0,-1.710929632E0,4.042536736E0
8.889798497E1,1.407387733E0,-2.326071024E0,2.357770681E0
8.894997816E1,4.990310967E-1,-9.210809469E-1,1.429866314E0
8.900197155E1,-8.387637734E-1,4.990769085E-3,4.573688805E-1
8.905396528E1,-1.757505178E0,-1.678840965E-1,7.802154869E-2
8.910596366E1,-2.116082907E0,-1.577150226E0,-6.244735122E-1
8.915796109E1,-2.612105608E0,-1.220404863E0,-1.441200376E0
8.920995488E1,-4.341465473E0,1.625940055E-1,-1.138822079E0
8.926194831E1,-4.291985035E0,2.409356356E0,-6.971664429E-1
8.931394160E1,1.551139504E-1,3.752038002E0,1.601519465E0
8.936593492E1,4.385554194E-1,9.927598834E-1,1.749959707E0
8.941792832E1,5.737552047E-2,1.790549874E0,1.811657071E0
8.946992158E1,-2.046856731E-1,2.450608015E-1,1.268907636E-1
8.952191500E1,1.679421216E-1,8.980757594E-1,3.144263923E-1
8.957390922E1,7.213860750E-1,-2.735637724E-1,4.292690456E-1
8.962590251E1,1.378677011E0,-6.663501859E-1,1.649166942E0
8.967789601E1,1.712209463E0,-9.925521612E-1,1.932608366E0
8.972988933E1,2.404319763E0,-2.793382883E0,-1.266183108E-1
8.978188256E1,1.436098337E0,5.601634271E-3,-9.995447397E-1
8.983387638E1,1.153267860E0,6.433449984E-1,4.237712622E-1
8.988586937E1,-1.538815260E0,-3.065828800E0,-2.147971392E0
8.993786300E1,-3.442882299E0,-5.070181214E-4,-9.427342415E-1
8.998985705E1,-3.794740677E0,-2.955549359E-1,-2.049011230E0
9.004185044E1,-4.023204327E0,-2.741746604E-1,-2.207836151E0
9.009384357E1,-2.822655737E-1,6.411134720E0,2.415802717E0
9.014583723E1,-1.558164507E-1,-3.364829123E-1,1.365114570E0
9.019783335E1,-1.552055776E-1,-2.232608557E0,1.475070357E0
9.024982764E1,-1.277166456E-1,-8.447228074E-1,8.617616296E-1
9.030182094E1,4.464966655E-1,-1.648010612E0,8.910831809E-1
9.035381433E1,1.192363143E0,-2.732296467E0,9.930976629E-1
9.040580759E1,2.152643204E0,-2.214893579E0,8.770332932E-1
9.045780101E1,2.747015238E0,-5.465918541E0,2.846462965E0
9.050782770E1,2.436894178E-1,1.069118023E0,4.934099019E-1
9.055982106E1,-1.897393346E0,2.767323494E0,-1.143097997E0
9.061181534E1,-3.370189428E0,9.768773913E-1,-2.837027311E0
9.066380877E1,-3.419058561E0,4.059303284E0,-3.540133238E0
9.071580209E1,-2.670137644E0,2.225485802E0,-2.110097647E0
9.076779528E1,1.897912502E0,-2.841030598E0,1.541043878E0
9.081978878E1,2.185630083E0,-1.937560678E0,7.841817737E-1
9.087178197E1,1.400057316E0,2.879111767E0,2.443291664E0
9.092377540E1,1.448926568E0,1.274979591E0,1.324797511E0
9.097576922E1,1.401279092E0,-2.279034376E0,6.424610019E-1
9.102776304E1,1.181367517E0,-2.318129539E0,1.063958049E0
9.107975640E1,1.014601350E0,-2.200232744E0,1.384051442E0
9.113174976E1,2.059791803E0,-2.145254850E0,1.401766539E0
9.118374318E1,2.512442827E0,-1.302260876E0,1.781113863E0
9.123574067E1,2.266264200E0,-8.037948012E-1,1.924056292E0
9.128773866E1,-7.385818958E-1,-7.133867741E-1,7.130202651E-2
9.133973405E1,-5.021969318E0,-2.485183179E-1,-2.492499590E0
9.139172748E1,-8.923565865E0,3.458535671E-1,-3.891380787E0
9.144372074E1,-4.301758766E0,6.037285328E0,-8.816477656E-1
9.149571426E1,-8.705288172E-1,1.607901096E0,-3.294255733E-1
9.154770739E1,1.894247293E0,-2.800102472E0,1.128709674E0
9.159970075E1,2.690815687E0,5.297240019E-1,1.506224513E0
9.165169464E1,1.501460910E0,4.581593037E0,1.624732256E0
9.170368833E1,1.013379693E0,1.089887500E0,5.019620657E-1
9.175568179E1,3.658624589E-1,-1.696879745E0,-9.182996750E-1
9.180767508E1,4.104556143E-1,-2.392655373E0,-1.309253454E0
9.185966847E1,2.375807613E-1,1.050792098E0,-5.077981949E-1
9.191166180E1,7.183317542E-1,-1.410060227E-1,4.934099019E-1
9.196365502E1,1.133720040E0,-1.797061682E0,1.696513146E-1
9.201564855E1,5.552307367E-1,3.684555888E-1,6.595652699E-1
9.206764277E1,-2.482602119E0,-1.544163465E0,-1.239003897E0
9.211963606E1,-4.032367229E0,-3.670261502E-1,-1.254275560E0
9.217162935E1,-5.118485928E0,2.450608015E-1,-9.537298679E-1
9.222362274E1,-1.412366152E0,1.342174768E0,1.994916677E0
9.227561624E1,-9.047372341E-1,1.362944245E0,2.051727057E0
9.232761349E1,1.174648046E0,-1.599141359E0,4.585905671E-1
9.237961158E1,2.341400623E0,9.353385568E-1,1.238054633E0
9.243160617E1,3.152629614E0,5.303348899E-1,2.738950491E0
9.248359940E1,3.720123529E0,-4.070091248E0,2.622886181E0
9.253559279E1,2.709752560E0,-3.599114180E0,3.366919994E0
9.258758611E1,1.363405347E0,-3.446398020E0,4.143329620E0
9.263957941E1,1.489854455E0,-4.988832474E0,3.702895880E0
9.269157287E1,2.172190905E0,-8.502205610E-1,3.054767847E0
9.274356646E1,4.434423447E-1,-1.843487382E0,2.501934767E0
9.279556044E1,-2.874166727E0,-8.563292027E-1,2.151908875E0
9.284755380E1,-6.043946743E0,-1.225902677E0,1.152843237E-1
9.289954726E1,-6.599833965E0,2.268246651E0,-3.850143254E-1
9.295154049E1,-5.834419727E0,1.252988577E0,8.477117419E-1
9.300353378E1,-1.806985259E0,4.161030948E-1,3.511084318E0
9.305552714E1,1.021320820E0,-1.090290666E0,1.441472769E0
9.310752043E1,3.668200016E0,-4.934752882E-1,3.415178537E0
9.315951402E1,5.016990185E0,-3.562462091E0,1.851974249E0
9.321150824E1,4.431781769E0,-3.926537752E0,-3.520275950E-1
9.326350153E1,2.048796177E0,9.573296905E-1,-2.463479042E-1
9.331549476E1,1.287047267E0,1.789938927E0,-1.044748783E0
9.336748825E1,8.667719960E-1,2.148413099E-2,-1.408824444E0
9.341948387E1,6.737385392E-1,-8.801529408E-1,-1.758850217E0
9.347147873E1,2.100918293E-1,-4.128410518E-1,-1.328190327E0
9.352347216E1,-1.435991526E-1,-8.471662402E-1,7.435635477E-2
9.357546548E1,-1.422750950E0,-3.469000101E0,7.175974846E-1
9.362745884E1,-4.720201492E0,-1.640069366E0,-5.010787249E-1
9.367945220E1,-6.160621643E0,5.020805359E0,-5.209275335E-2
9.373144550E1,-6.390917778E0,3.860772133E0,-2.287859678E0
9.378343905E1,-4.924841404E0,3.780138016E0,-1.356289983E0
9.383543317E1,-8.161618114E-1,6.577290058E0,3.187024593E-1
9.388742656E1,2.988658100E-2,5.053792000E0,8.874179721E-1
9.393941982E1,1.420215845E0,2.286572456E0,7.963990569E-1
9.399141315E1,2.594909668E0,1.002533674E0,1.310136676E0
9.404340648E1,2.968148470E0,-3.471547365E-2,1.160474777E0
9.409539987E1,3.147742748E0,-1.001715183E0,2.924352288E-1
9.414739316E1,2.552760124E0,-2.219169617E0,-1.101559162E0
9.419938711E1,1.553384542E0,-1.661449552E0,-2.544422865E0
9.425138080E1,7.103904486E-1,3.409342766E0,-1.997698665E0
9.430337416E1,1.318812251E0,2.427071571E0,-1.381335616E0
9.435536756E1,1.196837798E-1,1.318351030E0,-8.999736905E-1
9.440736082E1,-1.508272052E0,4.209899902E-1,-5.902650356E-1
9.445935720E1,-3.463040829E0,-6.443589926E-1,-2.021522284E0
9.451135579E1,-3.914470196E0,2.000076771E0,-2.501662254E0
9.456335085E1,-7.966140509E-1,8.238232613E0,2.127474308E0
9.461534428E1,-7.691251636E-1,-3.107978582E0,5.667137504E-1
9.466733760E1,-1.466534734E-1,-3.853234053E0,-4.277748764E-1
9.471933086E1,2.113135457E-1,9.408363104E-1,6.577326655E-1
9.477132445E1,1.459922075E0,1.054457307E0,1.355340838E0
9.482331755E1,2.863079548E0,-1.806224704E0,1.230113387E0
9.487531090E1,3.298626423E0,-2.748789787E0,4.317125380E-1
9.492730529E1,2.639503002E0,-4.446060359E-1,8.568747640E-1
9.497929852E1,1.505737066E0,-1.177931428E-1,7.854034901E-1
9.503129194E1,1.363405347E0,-9.204701185E-1,6.852216125E-1
9.508328550E1,8.975137025E-2,-6.498567462E-1,-5.697967857E-2
9.513527873E1,-2.431289434E0,9.762665033E-1,-6.482972503E-1
9.518727188E1,-3.920578957E0,-3.899152577E-2,-6.623470783E-1
9.523926534E1,-3.480144978E0,-1.041421413E0,-1.088120222E0
9.529125874E1,-2.279184103E0,2.386143446E0,-1.932946920E0
9.534325256E1,-2.425593138E-1,2.403858662E0,2.476278543E0
9.539524628E1,-1.064173102E0,-5.099686384E-1,-6.427994370E-1
9.544723954E1,-1.051146388E-1,3.403557837E-1,3.229785264E-1
9.549923283E1,1.004827499E0,9.784228355E-2,5.716006756E-1
9.555122819E1,2.423867464E0,-1.908850074E0,1.723692536E0
9.560322358E1,4.003564835E0,-2.347451210E0,1.722470880E0
9.565521681E1,2.996859074E0,-7.390431166E-1,1.848919868E0
9.570721037E1,1.994429231E0,-6.608523726E-1,1.093890548E0
9.575920369E1,2.064067841E0,-5.771638155E-1,2.582267821E-1
9.581119688E1,6.267018914E-1,9.115147591E-1,6.815564036E-1
9.586319031E1,-1.547367454E0,-1.110449195E0,-1.015728414E-1
9.591518360E1,-3.528403521E0,-3.561344463E-3,7.252375782E-2
9.596717769E1,-4.389723778E0,-7.219388485E-1,-9.738884568E-1
9.601917135E1,-3.263287783E0,2.536129355E-1,-7.344292402E-1
9.607116460E1,-3.307881117E0,4.576095104E0,-5.768259764E-1
9.612315790E1,-1.440466046E0,3.526018143E0,6.125286222E-1
9.617515119E1,-1.185124397E0,-2.072561979E0,-2.170263678E-1
9.622714465E1,-9.059590101E-1,-1.493461728E0,2.539507151E-1
9.627913804E1,-1.387122124E-1,-2.497400343E-1,3.229785264E-1
9.633113123E1,1.325531721E0,-1.173979163E0,1.435974956E0
9.638312542E1,2.991972208E0,-2.004755974E0,1.368779778E0
9.643511891E1,3.420799494E0,-6.162591577E-1,1.781113863E0
9.648711230E1,3.046949863E0,-1.193526864E0,5.300618410E-1
9.653910563E1,2.010922670E0,-5.612813234E-1,-5.575794727E-2
9.659110105E1,1.035370708E0,1.693135202E-1,-8.813380450E-2
9.664310007E1,-6.072458625E-1,-2.522158623E0,-1.375837803E0
9.669509573E1,-2.541856289E0,-5.026382208E-1,-1.925005674E0
9.674708899E1,-3.553448915E0,1.023303151E0,-3.514167070E-1
9.679908228E1,-3.849718571E0,1.585910082E0,-1.034363985E0
9.685107571E1,-5.141698837E0,2.259694338E0,3.458549738E0
9.690306897E1,1.850463599E-1,-7.015683651E0,-5.181829333E-1
9.695506239E1,-9.597150683E-1,-1.973601818E0,-1.260074526E-1
9.700705565E1,-4.209319651E-1,5.202232361E0,1.439950019E-1
9.705904934E1,1.288269043E0,5.122209072E0,-7.228227854E-1
9.711104330E1,3.266861677E0,1.714802623E0,2.426539920E-2
9.716303689E1,4.696286201E0,-1.468416214E0,4.494276047E-1
9.721503001E1,4.462324619E0,-1.513009429E0,1.339458227E0
9.726702351E1,1.566212654E0,-2.005470730E-2,8.971918225E-1
9.731901670E1,7.684226632E-1,3.413618803E0,2.251479864E0
9.737101012E1,-5.773134828E-1,-8.392249942E-1,-2.750585675E-1
9.742300332E1,-2.544910431E0,-3.676370382E-1,1.232255697E-1
9.747499767E1,-3.955398083E0,-6.272547841E-1,-4.125032425E-1
9.752699116E1,-4.420877457E0,-8.086817861E-1,-9.641145468E-1
9.757898442E1,-3.177155972E0,-1.972056329E-1,-4.125032425E-1
9.763097778E1,-4.005489349E0,-8.074600101E-1,4.194951952E-1
9.768297224E1,-4.661359787E-1,-1.007823825E0,1.140927076E0
9.773496829E1,-1.741424054E-1,-1.221626639E0,6.546783447E-1
9.778693214E1,-3.916104436E-1,1.998567879E-1,1.216674328E0
9.783892540E1,2.499966137E-2,-1.078684211E0,1.621067166E0
9.789091883E1,9.425193071E-1,-3.009018421E0,2.182452440E0
9.794291208E1,2.557646990E0,-2.740848303E0,2.955807686E0
9.799490538E1,3.167290449E0,-2.075616121E0,3.853779554E0
9.804689874E1,2.565588236E0,-1.410994887E0,3.319883347E0
9.809889276E1,1.825830460E0,-1.247282982E0,1.163529038E0
9.815088638E1,1.291934252E0,-1.491629004E0,-8.602674603E-1
9.820287971E1,9.158396721E-2,1.357159317E-1,-2.102156401E0
9.825487303E1,-2.438009024E0,2.799088478E0,-6.617362499E-1
9.830686659E1,-5.222332954E0,5.798149705E-1,-1.588418841E0
9.835885972E1,-5.822202682E0,-1.118390322E0,-1.625681639E0
9.841085308E1,-3.185097218E0,4.505845547E0,5.428900123E-1
9.846284640E1,-3.971082270E-1,1.049570322E0,1.042577744E0
9.851484016E1,-1.387320757E0,-2.363333702E0,4.341559708E-1
9.856683411E1,-1.907167077E0,9.723142534E-2,7.383669019E-1
9.861882744E1,-1.984746933E0,-1.225291848E0,9.863781929E-1
9.867082070E1,-1.771555066E0,-3.379813433E0,1.536156893E0
9.872281535E1,1.416749209E-1,-5.217907429E0,1.283869505E0
9.877481414E1,1.904021144E0,-2.454352856E0,1.688873172E0
9.882681104E1,1.274219155E0,-9.125288129E-1,2.858680248E0
9.887880516E1,6.511365175E-1,-3.303455353E0,4.114619255E0
9.893079839E1,-7.367493510E-1,-4.774418831E0,4.052310944E0
9.898279185E1,-1.294469237E0,-2.467180967E0,3.844005823E0
9.903478524E1,-1.744066000E0,1.965153590E-2,1.187352777E0
9.908677840E1,-3.004891872E0,-5.582270026E-1,-2.302520275E0
9.913877189E1,-4.287708759E0,1.664100885E0,-2.391095638E0
9.919076614E1,-2.381809235E0,4.559602261E0,1.214841843E0
9.924275947E1,-5.441282317E-2,-2.581412554E0,1.025473475E0
9.929475279E1,5.497329235E-1,-1.492239952E0,1.250882864E0
9.934674609E1,5.533980727E-1,8.266045451E-1,2.254534483E0
9.939873945E1,1.242454052E0,-1.274771929E0,2.270416975E0
9.945073280E1,1.475193739E0,-1.999258041E0,1.871521831E0
9.950272613E1,1.230847597E0,-1.900908828E0,1.780502915E0
9.955471956E1,1.304762363E0,-2.046905756E0,2.221547604E0
9.960671367E1,1.181978345E0,-2.922886133E0,1.865413189E0
9.965870707E1,-1.024466753E0,-3.618661880E0,4.842469096E-1
9.971070056E1,-4.028702259E0,-8.703791499E-1,-1.471132636E0
9.976269375E1,-6.484380245E0,1.648218274E0,-2.353832960E0
9.981468830E1,-5.803876400E0,5.456352234E0,-1.379502892E0
9.986668713E1,-2.945027113E0,1.026264000E1,-1.231673598E0
9.991868365E1,7.873594761E-1,7.722051144E0,3.961902857E0
9.997067711E1,1.146548271E0,-8.724988252E-2,3.510783017E-1
1.000226705E2,2.685928822E0,-7.158302069E-1,1.292421579E0
1.000746639E2,2.915614128E0,1.200454116E0,1.156198740E0
1.001266572E2,3.557022572E0,5.141652748E-2,-4.864179492E-1
1.001786505E2,2.951654911E0,1.722743869E0,4.992173985E-2
1.002306439E2,3.089710712E0,5.098996162E0,9.955411553E-1
1.002826373E2,2.857581854E0,-1.710929632E0,2.246291935E-1
1.003346315E2,5.460677147E-1,-2.393266201E0,7.145431638E-1
1.003866249E2,-1.540037155E0,-4.423171520E0,3.614630103E-1
1.004386181E2,-3.036657095E0,-8.935920000E-1,5.297606811E-2
1.004906116E2,-4.329247952E0,-1.343188882E0,-1.370339990E0
1.005426049E2,-5.080000877E0,7.838439345E-1,-1.366674781E0
1.005945981E2,-1.180848360E0,3.237689734E0,7.799056768E-1
1.006465916E2,7.464315295E-1,-4.326758534E-2,2.642433882E0
1.006985852E2,3.646407425E-1,-1.848374367E0,1.173913836E0
1.007505791E2,-2.755460441E-1,-4.268909693E-1,1.811046243E0
1.008025726E2,-6.384000182E-1,-3.627501130E-1,1.937495351E0
1.008545659E2,3.420387208E-1,-2.826369524E0,2.217271805E0
1.009065598E2,8.478351235E-1,-3.049335480E0,2.312566757E0
1.009585562E2,1.911550164E-1,-7.808690518E-2,2.379761696E0
1.010105498E2,-2.692388557E-2,2.340652347E-1,1.663827777E0
1.010625432E2,-1.313818395E-1,-1.625408530E0,1.662606001E0
1.011145366E2,-5.815895200E-1,-2.606458187E0,2.321118593E0
1.011665299E2,-5.834221244E-1,-4.178214550E0,-6.489080787E-1
1.012185232E2,-1.791713595E0,1.461904407E0,-1.504730344E0
1.012705166E2,-2.725115776E0,3.733424842E-1,-2.026409149E0
1.013225103E2,-2.732445955E0,-7.964644432E-1,-1.599414468E0
1.013745042E2,-2.892492771E0,1.409369946E0,-4.650376439E-1
1.014264976E2,-4.343709946E-1,1.940211892E0,2.275914907E0
1.014784909E2,-3.500716090E-1,1.931372732E-1,-2.304654121E-1
1.015304842E2,3.285996914E-1,1.037963867E0,8.525986671E-1
1.015824776E2,1.009103537E0,-1.336756498E-1,8.098381162E-1
1.016344709E2,1.378677011E0,-4.036780596E-1,1.497672319E0
1.016864642E2,1.929066658E0,-1.536833167E0,2.005301476E0
1.017384581E2,2.419591427E0,-2.158693790E0,2.897164583E0
1.017904519E2,1.538723707E0,-1.742694736E0,3.116465330E0
1.018424452E2,9.443518519E-1,-2.979696751E0,1.464074850E0
1.018944386E2,-6.567259431E-1,-2.291862488E0,6.662847996E-1
1.019464326E2,-2.723283052E0,-2.178852558E0,-1.591473103E0
1.019984311E2,-3.651798248E0,-2.651662111E0,-1.938444614E0
1.020504284E2,-5.692699432E0,2.860174894E0,-2.328176737E0
1.021024230E2,-5.272423744E0,3.720273256E0,-1.339796782E0
1.021544164E2,-4.331492484E-1,1.522990823E0,-5.065764785E-1
1.022064096E2,3.782783076E-2,-1.640680194E0,2.206276178E0
1.022584030E2,1.022542596E0,-2.018805742E0,1.206289649E0
1.023103963E2,1.471727192E-1,5.428863049E0,1.387105703E0
1.023623896E2,1.653566360E0,9.139582515E-1,1.128098845E0
1.024143840E2,2.698756933E0,-2.181295872E0,9.081874490E-1
1.024663773E2,3.155683994E0,-1.560046077E0,8.935266733E-1
1.025183706E2,3.371930361E0,-1.108005762E0,1.283258677E0
1.025703640E2,2.973035336E0,-1.247282982E0,2.334557772E0
1.026223572E2,1.083018303E0,-2.853247881E0,1.410929561E0
1.026743507E2,-9.167559445E-2,-6.486350894E-1,1.114048958E0
1.027263440E2,-2.315835953E0,6.164668798E-1,-9.396799207E-1
1.027783375E2,-4.569317818E0,1.020248771E0,-2.457069397E0
1.028303316E2,-5.012805939E0,8.705868125E-1,-3.532192230E0
1.028823250E2,-5.168576717E0,3.349478006E0,-2.064893723E0
1.029343183E2,-1.834474087E0,4.636571407E0,-1.107358187E-1
1.029863117E2,6.560234427E-1,9.603840113E-1,2.889223337E0
1.030383054E2,1.010936141E0,-1.550272107E0,2.270416975E0
1.030903039E2,1.370735884E0,-5.731748417E-2,9.210155606E-1
1.031423011E2,2.298640251E0,3.617360890E-1,1.140316129E0
1.031942950E2,2.232055902E0,-1.196581125E0,1.247828484E0
1.032462883E2,2.413482666E0,-2.786663294E0,2.032489181E-1
1.032982816E2,2.670046091E0,-1.869754672E0,4.992173985E-2
1.033502750E2,2.420813322E0,2.969843447E-1,5.856505632E-1
1.034022684E2,1.089126945E0,2.304000407E-1,4.720296264E-1
1.034542619E2,-3.848909438E-1,-2.657770634E0,-1.251832128E0
1.035062555E2,-4.031145573E0,2.975952029E-1,-2.441186666E0
1.035582494E2,-5.230273724E0,1.791160822E0,-3.286013365E0
1.036102427E2,-5.745233536E0,8.447759628E0,-2.652546167E0
1.036622362E2,-4.899597466E-1,2.636598110E0,-1.473877430E-1
1.037142294E2,1.339322049E-2,-5.732255459E0,3.101503253E-1
1.037662227E2,1.791011095E0,-4.428058147E0,4.982968569E-1
1.038182160E2,1.577819109E0,3.578552485E0,1.331516981E0
1.038702093E2,2.718915224E0,1.706250429E0,1.569143534E0
1.039222032E2,3.487994671E0,-2.269871235E0,-2.017547488E-1
1.039741973E2,3.396364927E0,-1.303482533E0,-1.289705634E0
1.040261904E2,1.882030010E0,1.629281521E0,-5.270362273E-2
1.040781839E2,1.605919003E0,1.015074775E-1,1.845865607E0
1.041301775E2,1.081185699E0,-1.195359468E0,1.260045767E0
1.041821735E2,7.580379844E-1,-9.748371243E-1,2.106705189E0
1.042341677E2,-1.875402093E0,-2.152585268E0,-1.968678087E-1
1.042861610E2,-4.240672588E0,-2.726187706E0,-2.706912994E0
1.043381544E2,-5.767835617E0,2.481438398E0,-1.527943254E0
1.043901476E2,-5.224165440E0,4.099620819E0,-2.567635775E0
1.044421410E2,-1.770944238E0,3.046488762E0,5.514420867E-1
1.044941344E2,-1.161102131E-1,1.168689132E0,1.291199923E0
1.045461281E2,1.590647340E0,-8.679356575E-1,1.118325114E0
1.045981221E2,1.921125412E0,-1.678840965E-1,1.423146844E0
1.046501155E2,2.375609159E0,-7.256040573E-1,1.694981813E0
1.047021087E2,2.542986155E0,-8.722117543E-1,5.318943858E-1
1.047541021E2,1.940062284E0,-1.173979163E0,3.419153094E-1
1.048060954E2,1.476415515E0,-3.450350165E-1,5.868723392E-1
1.048580888E2,1.099511623E0,-1.485520363E0,7.737970352E-1
1.049100822E2,8.600524068E-1,-1.731699109E0,1.387105703E0
1.049620761E2,7.244403958E-1,-1.880750299E0,1.630230069E0
1.050140699E2,1.654177189E0,-9.552893639E-1,1.106107831E0
1.050641466E2,-9.267283678E-1,-1.208474711E-1,5.587724447E-1
1.051161402E2,-4.199133396E0,1.185182333E0,-1.784506559E0
1.051681335E2,-6.129467964E0,1.785663009E0,-3.644591331E0
1.052201309E2,-3.326206923E0,4.022651196E0,-5.835455060E-1
1.052721289E2,-1.584630251E0,7.826222777E-1,-4.729789197E-1
1.053241234E2,-8.595331907E-1,-6.376394629E-1,2.854145691E-2
1.053761166E2,-6.296493858E-2,9.487776160E-1,1.632415131E-2
1.054281100E2,1.198471785E0,1.402039528E0,5.489986539E-1
1.054801033E2,1.523452163E0,1.181517243E0,3.736803234E-1
1.055320966E2,1.646846890E0,-2.802833021E-1,1.158951893E-1
1.055840901E2,1.530171633E0,1.149465069E-1,4.640883803E-1
1.056360834E2,1.437320113E0,-1.958330035E0,-3.315593302E-2
1.056880776E2,1.002994895E0,-1.687106013E0,3.125938177E-1
1.057400711E2,1.598588467E0,-1.256445885E0,-1.666257158E-2
1.057920643E2,2.704865456E0,1.674809307E-1,2.362356484E-1
1.058440577E2,3.794038296E0,1.325577614E-3,1.733165085E-1
1.058960510E2,1.739698410E0,1.083167911E0,-7.796332240E-1
1.059480443E2,-3.357972145E0,-2.472965717E-1,-1.609188199E0
1.060000379E2,-6.258971214E0,-4.497086048E0,-3.926810980E0
1.060520315E2,-7.134951591E0,-8.997007012E-1,-1.974485755E0
1.061040253E2,-1.390985966E0,1.110563374E1,1.528215528E0
1.061560188E2,-7.080386281E-1,-1.197802901E0,4.805817306E-1
1.062080121E2,9.773385525E-1,-2.231997728E0,1.888015270E0
1.062600055E2,2.217395067E0,-1.049362659E0,-2.634521127E-1
1.063120012E2,1.761078715E0,3.144227266E0,2.002247095E0
1.063639960E2,1.913184047E0,8.858584762E-1,1.418870687E0
1.064159895E2,2.145923853E0,-1.800726891E0,1.959185302E-1
1.064679827E2,2.553981781E0,-3.678526640E0,1.397189349E-1
1.065199761E2,1.822776079E0,-1.441538095E0,-7.530563325E-2
1.065719694E2,7.134447694E-1,2.022678614E0,2.295161337E-1
1.066239628E2,2.369698882E-1,1.760617375E0,1.169637680E0
