"Time (s)","Linear Acceleration x (m/s^2)","Linear Acceleration y (m/s^2)","Linear Acceleration z (m/s^2)"
5.999413200E-2,1.576171970E1,-1.203116798E1,-1.099086380E1
1.199867650E-1,1.793773460E1,-1.083837318E1,-1.230505943E1
1.799803930E-1,1.893133354E1,-1.111506844E1,-1.173413467E1
2.399741680E-1,1.799236870E1,-1.159497261E1,-1.145395947E1
2.999676970E-1,1.700844765E1,-1.198930931E1,-1.108947182E1
3.599609630E-1,1.584510422E1,-1.236676216E1,-1.048949242E1
4.199542960E-1,-4.271399021E0,-4.048932076E0,4.790620804E0
4.799469600E-1,-4.220118046E0,-1.137894154E1,-5.956185341E0
5.399396230E-1,-5.764756203E-1,-6.968512535E-1,-5.361462116E0
5.999321870E-1,-2.660207272E0,-7.216289043E0,-7.554271221E0
6.599247830E-1,-3.504251719E0,-1.212475395E1,9.877407551E-1
7.199172470E-1,-3.446427345E0,-2.395569992E1,1.083955669E1
7.799097770E-1,-5.560283661E0,-3.598692322E1,-1.090858459E0
8.399019740E-1,-1.564418602E1,-1.187866592E1,-3.151577473E0
8.998942380E-1,-6.130957603E0,-2.083445740E1,4.669613838E0
9.598866690E-1,-6.777204514E0,-1.577831745E1,5.444298744E0
1.019879199E0,-7.182395458E0,-1.144825363E1,2.121893883E0
1.079871729E0,-5.057574272E0,-5.725053787E0,-1.450713634E0
1.139864292E0,-3.060166359E0,-4.050154686E0,-2.260178566E0
1.199856924E0,4.187534332E0,-1.014021301E1,-1.331279469E1
1.259849956E0,7.927604675E0,-6.602784157E0,-1.399557686E1
1.319842887E0,5.929103374E0,-8.437151909E0,-3.034013271E0
1.379835818E0,-4.254137516E0,-2.905115128E1,1.701789665E1
1.439828716E0,8.601571083E0,-1.741920471E1,-1.532745457E1
1.499821480E0,1.651496530E0,-2.252743912E1,4.641879082E0
1.559813745E0,-4.598700523E0,-5.847296238E0,-1.479735374E-1
1.619806142E0,4.638869762E-1,-6.098813534E0,6.780942917E0
1.679798672E0,-3.801474333E0,-7.192068577E0,-8.051915169E-1
1.739791136E0,-2.642386913E0,-1.181022358E1,5.528827190E0
1.799783699E0,7.222795486E-1,-6.551514626E0,2.382805824E0
1.859776163E0,1.202659130E0,-4.664832115E0,2.446154594E0
1.919768626E0,-8.901793957E-1,-6.239004135E0,-4.243446827E0
1.979760890E0,-2.068322659E0,-1.591529369E1,-1.200638390E1
2.039753387E0,-4.857945442E-1,-1.233343697E1,-8.154252052E0
2.099745918E0,1.008497715E1,-9.966909409E0,-3.856267452E0
2.159738514E0,5.885296822E0,-1.470598125E1,1.496137619E0
2.219731046E0,-1.122274780E1,-2.675676155E1,-5.216430664E0
2.279724045E0,8.200567245E0,-9.587162971E0,9.951076508E0
2.339717210E0,6.487003326E0,2.503601074E0,1.203442001E1
2.399710340E0,-6.230945587E-1,2.802611589E0,7.788876057E0
2.459703404E0,-3.606149673E0,1.819066763E0,4.177387714E0
2.519696434E0,-1.837872982E0,-7.541001320E0,3.094463825E0
2.579689099E0,-3.336938381E0,-4.805211544E0,2.512607574E-1
2.639681463E0,2.858390808E0,-2.397544384E0,1.291847229E0
2.699673961E0,3.310451508E0,-5.572418213E0,-4.021902084E0
2.759666491E0,2.161272049E0,-6.981338501E0,-1.426064491E0
2.819659054E0,-1.080988407E0,-8.083002090E0,-4.667244911E0
2.879651584E0,5.674868584E0,-4.747966290E0,-9.966129303E0
2.939644081E0,1.486777782E0,-7.814684391E0,-1.090180874E1
2.999636312E0,2.967788219E0,-8.700658798E0,-4.209626675E0
3.059628710E0,-1.663547039E0,-8.944767952E0,6.377277374E0
3.119621240E0,9.773012161E0,-7.010627747E0,-1.116533279E0
3.179613770E0,-3.234440327E0,-9.384178162E0,1.652443695E1
3.239606234E0,-1.521673203E0,6.066061020E0,9.797236443E0
3.299599032E0,-4.436065197E0,-2.656797409E0,5.113149643E0
3.359592930E0,-3.892302513E0,-2.109107971E0,3.245692253E0
3.419587260E0,-4.135130405E0,-4.072992802E0,3.267700195E0
3.470165776E0,-6.616436481E0,-6.930383682E0,-2.980747223E-1
3.530160106E0,-1.001764297E0,-2.891705751E0,-4.442517281E0
3.590154303E0,5.563469410E0,-5.507502079E0,1.078010559E0
3.650147434E0,5.810246468E0,-3.702776909E0,-1.118069077E1
3.710139698E0,-2.656626701E0,-7.310531616E0,-1.296059608E1
3.770132161E0,3.704884768E0,-4.525781155E0,-1.165372276E1
3.830124691E0,1.785368800E0,-4.664086819E0,-7.250475883E0
3.890117221E0,3.746465683E0,-5.400400162E-1,-2.717113495E-2
3.950109651E0,6.499299049E0,-4.514035702E0,-5.925592422E0
4.010102181E0,-1.419507599E1,-1.931559181E1,4.860884190E0
4.070094578E0,-8.433656693E0,-4.982714653E-1,7.276094913E0
4.130086909E0,-2.548437119E0,-4.579628944E0,6.076249123E0
4.190079340E0,-4.330281734E0,-3.205073595E0,3.123517990E0
4.250071804E0,-8.178629875E-1,-1.389568567E0,-1.867017746E-1
4.310064334E0,-8.330752850E-1,3.973618507E0,-3.576841354E-1
4.370056864E0,4.997283936E0,1.012897253E0,-9.951610565E-1
4.430049963E0,3.154680490E0,-5.621532202E-1,-4.238221169E0
4.490043194E0,1.365917683E0,-1.912588835E0,-2.567197323E0
4.550036390E0,-2.906125546E0,-4.538014412E0,3.044593811E0
4.610029454E0,3.617102623E0,-2.809459925E0,-8.948261261E0
4.670022584E0,1.069037437E0,-4.855284691E-1,-2.287621307E1
4.730015149E0,6.849840641E0,-1.750647545E0,-1.683249092E1
4.790007580E0,-3.306564808E0,-8.232738495E0,9.960716248E0
4.850000044E0,-1.367762089E-1,-1.812673187E1,-3.316122532E0
4.909992640E0,-1.133162594E1,-1.518564796E1,1.013311863E0
4.969985104E0,-6.280620098E0,-4.625601768E0,2.606613636E0
5.029977634E0,-1.556911469E0,-2.709019661E0,2.698883057E0
5.089969998E0,-1.109632492E0,-1.492333412E-1,1.658599377E0
5.149962429E0,-7.750780582E-1,-3.950002670E0,-3.485190868E0
5.209954760E0,-3.908884764E0,-4.070442677E0,-2.019489765E0
5.269947356E0,-5.214061737E-1,-2.406771183E-1,-4.814156532E0
5.329939820E0,7.527236938E-1,4.000062943E0,-5.256795883E-1
5.389932350E0,1.025242209E0,-1.921034932E0,1.814219475E0
5.449925182E0,4.620023251E0,-9.153547287E-1,-1.215147972E1
5.509919247E0,6.409444332E0,-1.242819309E0,-1.738400269E1
5.569913713E0,4.260393620E0,-1.070704460E0,-1.110819149E1
5.629908246E0,3.581510782E0,-7.985004425E0,3.689548492E0
5.689902812E0,-2.785690546E0,-2.006570816E1,3.029192924E0
5.749896943E0,-2.223007441E0,-2.036962700E1,-1.743407249E0
5.809889875E0,-7.961439610E0,-8.450431824E0,2.175803185E-1
5.869882272E0,-1.248131275E0,-2.997021198E0,-9.439010620E-1
5.929874802E0,3.315830231E-1,-1.003435612E1,1.274881363E0
5.989867299E0,-4.132857323E-1,-3.211617470E0,2.904098511E0
6.049859829E0,1.602616072E0,1.083856940E0,1.862035751E0
6.109852293E0,4.838836193E0,8.473935127E-1,1.171623230E0
6.169844790E0,3.938424826E0,-6.570934057E-1,-4.702458382E0
6.229837121E0,-3.578901291E0,-7.721814632E0,-3.405913830E0
6.289829552E0,-8.528209925E-1,-3.751202106E0,-1.536040115E1
6.349822016E0,-4.310976982E0,1.466116905E0,-1.958697128E1
6.409814612E0,-1.498806238E0,-5.571264267E0,-8.295794487E0
6.469807009E0,-1.454634190E0,-1.234273148E1,1.065413666E1
6.529799706E0,7.802710533E0,-1.278018093E1,-7.798334122E0
6.589793471E0,-5.741387844E0,-1.634272766E1,6.997763157E0
6.649787935E0,-4.082794189E-1,-3.582253933E0,3.843046665E0
6.709782199E0,1.533137798E0,-1.007175732E1,9.402313232E-1
6.769776629E0,1.873793602E-1,-6.581359863E0,2.400875092E0
6.829770727E0,-6.045112610E-1,-4.617671490E0,3.171691895E-1
6.889763658E0,-9.231510162E-1,-8.486117125E-1,-3.517627716E-1
6.949755856E0,2.086391449E-1,8.780540228E-1,-2.053207874E0
7.009748353E0,-5.680121899E0,-9.559934139E-1,-2.872581005E0
7.069740817E0,2.954586744E0,-6.521007061E0,-1.186703968E1
7.129733347E0,8.677047729E0,1.407480240E-1,-1.951360512E1
7.189725911E0,1.449854374E-1,-8.378128052E0,-6.637255192E0
7.249718441E0,-3.034414291E0,-7.725627899E0,-3.352019787E0
7.309710805E0,-2.189737797E0,-1.605200195E1,7.183692932E0
7.369703136E0,5.901250362E0,-1.654478264E1,-1.043495941E1
7.429695633E0,-9.375467300E0,-7.643273830E0,-2.768002033E0
7.489688129E0,-3.873419762E0,-8.111203194E0,-3.030362129E-1
7.549680659E0,-4.530441284E0,-6.956319809E0,3.325301170E0
7.609673157E0,-5.432775497E0,-6.049807549E0,4.521503448E-1
7.669666323E0,-5.675966740E-1,-1.353171110E0,1.073339462E0
7.729659521E0,9.557342529E-1,2.831667900E0,1.163615227E0
7.789652651E0,6.911557913E-1,-2.804523468E0,-2.365863800E0
7.849645715E0,-2.300601959E0,-2.874658346E0,-4.861987591E0
7.909638845E0,-2.788160563E0,-2.240575075E0,-6.465991974E0
7.969631276E0,-8.663026810E0,-1.343919754E1,-1.929576397E0
8.029623707E0,-9.181556702E-1,-6.214861870E-1,-2.035081100E1
8.089616204E0,1.240297318E0,-8.558021545E0,-1.213571930E1
8.149608834E0,-1.971536636E0,-1.538893700E1,1.068871117E1
8.209601331E0,7.383738995E0,-5.329392433E0,-7.483380318E0
8.269593961E0,-5.868590832E0,-1.547713470E1,8.454240799E0
8.329586292E0,-4.305005550E0,-5.269587040E0,7.979993820E0
8.389578590E0,-2.985049248E0,-1.964655399E0,3.627608299E0
8.449570954E0,6.852378845E-1,-1.318616152E0,1.112634659E0
8.509563584E0,2.612069607E0,-2.402506351E0,2.062213898E0
8.569556014E0,1.992581606E0,2.215278387E0,-6.117348671E-1
8.629548544E0,4.261407852E-1,9.327569008E-1,3.441965103E0
8.689541575E0,-5.891734123E0,-2.537917137E0,-6.892583370E0
8.749535640E0,-3.789739609E0,-5.881069660E0,-1.534093380E0
8.809529871E0,5.534354210E0,1.135877132E0,-1.110787392E1
8.869524201E0,1.903088808E0,-8.237364769E0,-1.755031586E1
8.929518531E0,9.353216171E0,-2.025966644E0,-1.374814701E1
8.989512362E0,2.765244961E0,-1.001006317E1,1.121312904E1
9.049505193E0,7.440800190E0,-2.527369499E1,-1.801913738E0
9.109497457E0,7.480320930E-1,-1.921203041E1,6.971136093E0
9.169489921E0,3.006113529E0,-3.953446865E0,1.035064125E1
9.229482451E0,3.323981285E0,-8.956429958E-1,4.861298084E0
9.289474981E0,1.783820629E0,2.071158171E0,4.257489204E0
9.349467279E0,-2.025229454E0,9.968060851E-1,-2.024949074E0
9.409459875E0,-9.297360420E0,-4.758749962E0,-2.007007599E-2
9.469452206E0,-7.960433006E0,-7.002387047E0,5.944453239E0
9.529444537E0,-4.207395554E0,-8.493963242E0,5.779500008E-1
9.589437034E0,2.692877293E0,-4.848261833E0,-1.379248047E1
9.649429630E0,9.776802063E0,-6.149990559E0,-1.129675961E1
9.709422127E0,-4.233317852E0,-7.681776047E0,-9.025655746E0
9.769414858E0,1.928719997E0,-7.773786545E0,-7.658231735E0
9.829408124E0,-1.263727427E0,-2.903337288E1,-3.927963734E0
9.889401288E0,-1.630071259E1,-1.518401814E1,7.739631653E0
9.949394352E0,-8.294967651E0,-5.117345810E0,9.311482430E0
1.000938752E1,-3.892885208E0,1.761360407E0,5.531529427E0
1.006938045E1,-4.340279579E0,4.154020309E0,1.822636604E0
1.012937284E1,4.023332000E-1,1.307047248E0,3.645429611E-1
1.018936537E1,1.519646406E0,1.450678587E0,-1.161159515E0
1.024935790E1,1.246002674E0,-2.316135168E0,1.470698357E0
1.030935037E1,2.145295143E0,-6.048898697E0,-2.921181202E0
1.036934296E1,-2.585709810E0,-9.550241470E0,-6.906892776E0
1.042933543E1,-6.600125313E0,-3.991428137E0,-1.358485794E1
1.048932769E1,-4.023316383E0,-3.822501183E0,-1.369293785E1
1.054932002E1,-4.516673088E-2,-6.197071552E0,3.182912827E0
1.060931255E1,-8.100678444E0,-1.450312233E1,-1.371460724E1
1.066930502E1,-3.487340927E0,-3.119867325E1,7.041254997E0
1.071939679E1,-5.778725624E0,-1.104009056E1,3.320122719E0
1.077938932E1,-2.015505791E0,1.356267929E-2,5.205950737E0
1.083938255E1,-4.607582092E0,2.582812548E0,4.715262890E0
1.089937675E1,-3.947309494E0,4.957088470E0,-1.571051121E0
1.095937118E1,1.390151501E0,3.065502405E0,5.281701088E-1
1.101936578E1,5.016433716E0,5.012149811E0,2.833133698E0
1.107936024E1,7.864222050E0,-1.705173373E0,6.911221504E0
1.113935408E1,-4.252079010E0,-6.708787918E0,-8.510589600E-2
1.119934674E1,3.593603611E0,-3.273787022E0,-5.882232189E0
1.125933924E1,-4.059536755E-1,-2.467973232E0,-2.283667374E1
1.131933170E1,2.421991348E0,-4.457030296E0,-2.055711746E1
1.137932430E1,2.364921808E0,-9.462774277E0,9.071101189E0
1.143931676E1,2.194054604E0,-2.721634102E1,8.496284485E-1
1.149930929E1,-5.675044537E0,-1.497580719E1,1.736366272E0
1.155930165E1,1.440708637E0,1.229264736E-1,4.327248573E0
1.161929408E1,2.943242788E0,-2.341434956E-1,3.668718815E0
1.167928652E1,5.314487934E0,8.801007271E-1,2.313409805E0
1.173927905E1,1.172416210E0,-4.766763687E0,5.868286133E0
1.179927158E1,-4.819644451E0,-4.360042095E0,5.554217339E0
1.185926411E1,-4.694221497E0,5.386823654E0,-2.698570728E0
1.191925694E1,1.200407696E1,9.376008034E0,-1.766502190E1
1.197925097E1,6.016950607E0,4.204810143E0,-1.333266449E1
1.203924530E1,4.485896230E-1,-7.992793560E0,-4.162778854E-1
1.209923963E1,4.008405685E0,-2.453171921E1,2.416337967E0
1.215923396E1,8.143928051E-1,-2.537694931E1,-4.984457970E0
1.221922782E1,-4.093803883E0,-7.057659149E0,-4.504031658E0
1.227922049E1,6.723971367E-1,-6.206433773E-1,4.546651840E0
1.233921285E1,3.053093433E0,-1.349771261E0,8.736143112E-1
1.239920535E1,2.333889484E0,-4.420855045E-1,-1.440336704E0
1.245919781E1,4.454931259E0,-1.477342963E0,-1.011289597E0
1.251919041E1,1.157201290E0,-1.139578104E0,2.839315414E0
1.257918287E1,-3.123627424E0,-2.629028559E0,-4.362766266E0
1.263917537E1,-9.199604988E0,-3.246214151E0,-1.251773834E-1
1.269916770E1,1.137175369E1,9.598488808E-1,-2.592731667E1
1.275916013E1,8.135021210E0,-3.863409519E0,-1.384184456E1
1.281915260E1,4.355496883E0,-2.326127434E1,3.284101486E-1
1.287914519E1,-8.800176620E0,-2.997313499E1,-5.429704666E0
1.293913766E1,-1.691649437E0,-1.255528259E1,-1.297550678E0
1.299913025E1,-1.445868492E0,-4.860046387E0,1.811613560E0
1.305912342E1,-1.960701942E0,-5.544290543E-1,2.274470329E-1
1.311911662E1,-7.846698761E-1,4.213850498E0,-7.779216766E-2
1.317910968E1,1.989676237E0,3.819002867E0,3.352980614E-1
1.323910284E1,7.219202042E0,1.841241598E0,2.329862595E0
1.329909587E1,1.124161005E0,-3.262788296E0,7.735754967E0
1.335908827E1,-1.923360825E0,-7.129264832E0,1.306232452E0
1.341908070E1,4.416933060E-1,-2.198776007E0,-2.321092987E1
1.347907323E1,7.084620476E0,-3.530215502E0,-1.634584618E1
1.353906573E1,3.709130049E0,-1.525081635E1,8.296219826E0
1.359905829E1,9.545526505E0,-1.347433949E1,1.805146217E0
1.365905082E1,1.961819649E0,-1.917889404E1,-2.071173191E0
1.371904312E1,-2.124575138E0,-7.306666374E0,5.638889790E0
1.377903549E1,-3.092613697E0,-3.786141396E0,1.129316807E1
1.383902798E1,9.481091499E-1,1.081458092E0,8.225522995E0
1.389902048E1,3.913408041E0,1.364150167E0,2.541839123E0
1.395901294E1,4.603067398E0,8.578934669E-1,-6.593217850E-1
1.401900554E1,-4.976644516E-1,3.806680441E0,-2.685134411E0
1.407899881E1,-7.027466297E-1,-1.190835476E0,-2.600946426E-1
1.413899300E1,5.227406502E0,-5.269388199E0,-1.055698967E1
1.419898727E1,-3.437621593E0,-2.608113480E1,1.161229324E1
1.425898170E1,7.841679096E0,-4.188064575E0,-2.359751892E1
1.431897596E1,5.789469242E0,-3.835396957E1,-8.174024582E0
1.437896952E1,-5.973114014E0,-1.947413063E1,2.398331642E0
1.443896196E1,3.549221516E0,-1.048365402E1,4.816400528E0
1.449895429E1,-2.862172604E0,-3.587250233E0,5.708068371E0
1.455894668E1,-6.216467381E0,4.077549934E0,6.098018646E0
1.461893928E1,-2.148976326E-1,8.025018692E0,3.074736595E0
1.467893175E1,5.054695129E0,8.291629791E0,3.931967735E0
1.473892428E1,2.284394741E0,3.864156723E0,5.983955383E0
1.479891681E1,2.970837116E0,-6.042516232E-1,2.550919533E0
1.485890917E1,-1.141597509E0,-1.793345690E0,-3.349052906E0
1.491890147E1,3.763932228E0,-6.327116013E0,-1.758928299E1
1.497889406E1,-6.412152767E0,1.634992361E0,-1.389600945E1
1.503888659E1,4.847528934E0,-5.899610519E-1,-6.741485119E0
1.509887912E1,8.967331886E0,-4.397486115E1,-2.330965996E0
1.515887196E1,-1.364546585E1,-1.852365494E1,-5.467780590E0
1.521886529E1,3.889113188E0,-7.294715881E0,2.033273220E0
1.527885835E1,3.942296982E0,2.975332737E0,5.868740082E0
1.533885151E1,-4.084351063E0,4.945441723E0,1.930538654E0
1.539884464E1,-1.507486343E0,3.512878418E0,-3.730457306E0
1.545883748E1,3.234827995E0,-9.579592943E-1,-7.489193439E0
1.551882977E1,4.278004646E0,1.204129338E0,-1.036248493E1
1.557882224E1,1.426842308E1,1.108656597E1,-9.179857254E0
1.563881474E1,9.162863731E0,1.106114769E1,-1.421446800E1
1.569880730E1,7.660383701E0,-1.518675900E1,9.974461555E0
1.575879983E1,-7.045598984E0,-4.357129669E1,2.775462627E0
1.581879229E1,-1.809224129E0,-1.519134998E1,-5.482945919E0
1.587878469E1,4.491697311E0,4.868619442E-1,-2.434758663E0
1.593877696E1,2.316425800E0,-7.352533340E0,-1.850415230E0
1.599876942E1,-4.097070217E0,-6.933042526E0,1.347829342E0
1.605876188E1,-3.227589607E0,-9.174892902E-1,2.603319645E0
1.611875448E1,-1.538200378E0,2.925306797E0,-4.998102188E-1
1.617874701E1,1.173258781E0,4.532068729E0,-4.120454311E0
1.623874081E1,3.598102570E0,1.313542843E0,-5.025142670E0
1.629873518E1,4.399833679E0,3.267514706E-1,-3.800315380E0
1.635872971E1,5.230322361E0,-8.296456337E-1,-1.540383434E1
1.641872417E1,-6.059259176E-1,-3.469781637E0,-1.018615913E1
1.647871871E1,-2.768419266E0,-1.393689346E1,-2.498761177E0
1.653871194E1,3.020412922E0,-3.989947510E1,4.829077721E0
1.659870440E1,-1.386928558E-1,-8.096408844E0,-4.114607811E0
1.665869697E1,-1.820669174E0,-1.859845638E0,-2.356567383E-1
1.671868950E1,-9.439911842E-1,-6.968117714E0,4.645726204E0
1.677868196E1,-1.434519291E0,-6.667865753E0,5.094780445E0
1.683867452E1,-4.070754051E-1,1.242634773E0,1.541913033E0
1.689866705E1,1.556073189E0,6.301482916E-1,-1.304409027E0
1.695865935E1,3.418532848E0,5.049310207E0,-2.974270821E0
1.701865178E1,5.042233467E0,2.640380144E0,-8.662060738E0
1.707864425E1,1.859930754E0,-3.183337212E0,-1.111377144E1
1.713863678E1,-7.233715057E-1,3.487145901E-1,-1.555979729E1
1.719862931E1,-4.184173107E0,1.788520813E0,-2.461213589E0
1.725862184E1,5.438647270E-1,-1.097762489E1,2.616372108E0
1.731861517E1,1.630548239E0,-3.039869308E1,5.055083275E0
1.737860950E1,-1.345618844E0,-9.945062637E0,-3.063808441E0
1.743860376E1,4.022373557E-1,-1.036592007E0,1.411429405E0
1.749859809E1,8.050749302E-1,-2.401539803E0,2.593079090E0
1.755859236E1,-1.942183733E0,-6.747102261E0,9.365737915E0
1.761858579E1,2.159237862E-1,-7.371764183E-1,5.163114548E0
1.767857812E1,1.767984509E0,2.572865248E0,-1.442517281E0
1.773857055E1,2.370429516E0,1.317832708E0,-6.102541924E0
1.779856302E1,-1.545453668E-1,-1.974328995E0,-8.520904541E0
1.785855554E1,8.399099112E-1,-1.004798603E1,-9.504215240E0
1.791854801E1,2.958751678E0,-1.461130619E0,-2.776311493E1
1.797842656E1,-3.413231373E-1,-2.943018436E0,-1.158485222E1
1.803841899E1,-4.175542831E0,-3.101007080E1,8.815459251E0
1.809841132E1,3.190810204E0,-1.503313637E1,-8.113953590E0
1.815840385E1,-4.112306118E0,-1.111822701E1,4.217459679E0
1.821839638E1,6.453948975E0,-3.589133263E0,5.087725639E0
1.827838888E1,3.513914108E0,-1.698805332E0,-2.154846191E-1
1.833838141E1,6.199613810E-1,-1.771734595E0,3.174662590E0
1.839837434E1,2.547758341E0,-5.127215385E0,-8.467702866E-1
1.845836747E1,2.094982624E0,-3.988703251E0,-1.895367622E0
1.851836060E1,-1.867915392E0,-6.096751213E0,3.897494316E0
1.857835363E1,2.500904083E0,-4.245122433E0,-1.866335106E1
1.863834676E1,1.521688998E-1,6.429767609E-2,-2.975020599E1
1.869833949E1,-5.881865501E0,9.387977600E0,-1.662477303E1
1.875833186E1,6.803187370E0,-1.259138489E1,2.714735985E0
1.881832432E1,-8.944355965E0,-4.866831589E1,-7.466402054E-1
1.887831692E1,-2.348139286E0,-1.904800797E1,4.268857956E0
1.893830938E1,1.658736587E0,-2.909031391E0,3.818067551E0
1.899830191E1,-6.925785542E0,-4.280898571E-1,2.591141701E0
1.905829434E1,1.106707096E0,3.162126541E-1,6.184779167E0
1.911828674E1,4.735128403E0,-2.963403225E0,9.732694626E-1
1.917827907E1,7.121267796E0,-6.993402481E0,4.650850296E-1
1.923827167E1,7.058290243E-1,-7.927277565E0,-1.013679504E-1
1.929826413E1,-2.413214684E0,-9.405040741E0,-7.541620255E0
1.935825666E1,-3.347871780E0,-2.188032150E0,-1.007563877E1
1.941824929E1,-3.905418396E0,1.535495043E0,1.241302490E0
1.947824316E1,-2.309686899E0,1.665605307E0,-3.130548477E0
1.953823742E1,-6.639590740E0,-4.069115639E0,-4.324152946E0
1.959823175E1,1.994368076E0,-4.578620434E0,-2.917824173E1
1.965822608E1,5.044237614E0,-3.137345695E1,-8.037609100E0
1.971822024E1,1.820361900E1,-2.078280258E1,-7.185977936E0
1.977821318E1,-1.310347557E1,-4.657972336E0,5.444728374E0
1.983820557E1,3.378706932E0,-4.913868904E-1,1.012147522E1
1.989819797E1,6.265494347E0,-1.181833267E1,1.137875080E1
1.995819050E1,5.159324646E0,-9.916591644E0,3.186096191E0
2.001818303E1,8.956295967E0,-6.019173622E0,6.148557663E-1
2.007817550E1,6.002132416E0,-1.038902664E1,-2.361177444E0
2.013816796E1,-2.422847509E0,-8.171813965E0,-1.084954739E1
2.019816042E1,-5.888379097E0,-2.109471560E0,-1.603610039E1
2.025815275E1,3.415122032E0,8.895904541E0,-1.205399704E1
2.031814518E1,-7.271308899E-1,7.066838741E0,-8.639690399E0
2.037813778E1,3.542622805E0,-6.124751568E-1,-1.516585350E0
2.043813024E1,-9.560380578E-1,-7.473179817E0,-1.050344467E1
2.049812281E1,-9.401733398E0,-1.746664619E1,1.092853546E0
2.055811597E1,-6.955428123E0,-9.129192352E0,7.587985039E0
2.061810920E1,-2.552255392E-1,-9.239492416E-1,4.628208160E0
2.067810227E1,2.321380377E0,-2.345017433E0,1.490321159E-1
2.073809546E1,2.524572134E0,-6.498314857E0,-8.294415474E-1
2.079808850E1,-2.509739876E0,-8.931760788E0,5.572471619E0
2.085808099E1,1.166215658E0,-5.514571667E-1,3.942938805E0
2.091807332E1,4.717883110E0,1.883464098E0,2.644284248E0
2.097806592E1,8.627282381E-1,-5.181423187E0,-1.257518005E1
2.103805839E1,-5.111625671E0,-7.319827557E0,-1.365773773E1
2.109805098E1,-7.199919701E0,2.367097855E0,-7.573523521E0
2.115804344E1,4.842452049E0,-1.439899683E0,-1.279713440E1
2.121803591E1,-6.145391464E0,5.425884724E-1,-9.960225105E0
2.127802817E1,8.041627407E-1,-1.917501450E1,3.818862915E0
2.133802067E1,-4.878466606E0,-1.596492004E1,5.849397182E0
2.139801313E1,-1.711509109E0,1.012541771E0,8.739052773E0
2.145800566E1,-9.171465635E-1,-7.613401413E0,1.522987270E1
2.151799819E1,-1.076971245E1,-1.291242695E1,1.549264336E1
2.157799113E1,-3.526875973E0,7.845907211E-1,1.007922268E1
2.163798512E1,4.926364422E0,9.249446869E0,-1.610515118E0
2.169797966E1,1.027616620E0,4.917591095E0,-5.586596966E0
2.175797419E1,-5.658731937E0,7.814601421E0,-7.789680481E0
2.181796872E1,-1.311608887E1,-4.308495522E0,-1.845422745E0
2.187796286E1,5.090079308E-1,-1.874131393E1,-4.187890053E0
2.193795569E1,-8.431209564E0,-5.071939945E0,-1.842257690E1
2.199794808E1,1.500371695E-1,-9.205489159E0,-1.850904846E1
2.205794061E1,3.010449409E-1,-1.282615566E1,-2.941709757E0
2.211793314E1,5.405021667E0,-7.098766327E0,-1.566457510E0
2.217792561E1,3.150030136E0,-2.241149902E1,1.603771591E1
2.223791824E1,-7.073636055E0,-1.203285789E1,1.663605499E1
2.229791064E1,-7.709557533E0,-3.616387367E0,1.484300995E1
2.235790297E1,-1.058456612E1,3.920444012E0,7.978928089E0
2.241789540E1,-1.143059731E0,9.537685394E0,5.973257542E0
2.247788799E1,-3.977026343E-1,-2.267146111E-1,-4.689350128E-1
2.253788042E1,-4.879670143E0,-6.035246372E0,6.460771561E-1
2.259787302E1,-7.297008514E0,-1.806764841E0,-9.696416855E0
2.265786568E1,-5.472201347E0,1.168355274E1,-1.243083000E1
2.271785955E1,1.662945938E1,5.054002762E0,-9.267802238E0
2.277785381E1,-6.554445267E0,4.151392937E0,-8.651045799E0
2.283784821E1,-1.957553625E0,2.815141201E0,-1.324543571E1
2.289784251E1,7.875280380E-1,-2.685181808E1,1.276154804E1
2.295783664E1,-2.081573868E1,-3.105392838E1,-1.324696541E0
2.301782947E1,-1.099927711E1,-4.417741776E0,5.294744492E0
2.307782180E1,-7.286767960E0,5.109652519E0,6.000027180E0
2.313781423E1,-6.517168999E0,8.843259811E0,-9.699678421E-2
2.319780673E1,-5.766625404E-1,5.175371647E0,-2.800822735E0
2.325779926E1,6.648995399E0,-8.309033394E0,-8.890532494E0
2.331779179E1,-3.327102423E0,-1.947634697E0,3.043489456E-1
2.337778432E1,-9.903203964E0,1.263573265E1,-4.587979317E0
2.343777662E1,-2.224411011E0,2.194508743E1,-1.859007835E1
2.349776895E1,-4.122114182E0,6.648579836E-1,-9.542369843E-2
2.355776144E1,-5.014784813E0,-6.756774902E1,-1.621603584E1
2.361775397E1,-7.205118179E0,-1.458779144E1,-4.834327698E0
2.367774644E1,6.965322018E0,-9.948482513E0,-4.225087166E0
2.373773907E1,2.167026758E0,-1.267240810E1,-4.677460194E0
2.379773223E1,-1.753165722E0,-4.017995834E0,-9.486484528E-1
2.385772540E1,-1.780885458E0,2.878225565E0,-1.650418758E0
2.391771846E1,-6.904215813E0,5.084870815E0,-2.525981903E0
2.397771166E1,-3.221289873E0,3.147414446E0,-3.939126015E0
2.403770469E1,-3.427374601E0,4.388996124E0,-4.947647095E0
2.409769719E1,-6.558344364E-1,5.387261391E0,-1.975182724E1
2.415768958E1,-1.316574812E0,-2.590147495E0,-8.418051720E0
2.421768211E1,-4.417939663E0,-1.374427128E1,7.056931496E0
2.427767458E1,5.987308025E0,-1.733985329E1,-1.155466080E1
2.433766721E1,-4.061317921E0,-1.644203758E1,-4.213801861E0
2.439765967E1,-4.413965702E0,-2.414651394E0,-3.955784798E0
2.445765207E1,-1.197946072E0,-8.087292671E0,-1.562009811E0
2.451764440E1,-5.805510521E0,-8.709111214E0,1.954025269E0
2.457763686E1,-5.288811684E0,-6.628572941E0,-1.253414154E0
2.463762929E1,-5.908515453E0,-5.280085564E0,-5.475511074E0
2.469762182E1,-3.454923391E0,-1.808251143E-1,-4.867585659E0
2.475761439E1,-1.811688185E0,-1.054691315E0,-6.720672607E0
2.481760745E1,-2.111261606E0,1.379189730E0,-5.640410900E0
2.487760158E1,-2.487079859E0,-6.276540756E-1,-1.918939590E0
2.493759585E1,2.119062901E0,-2.390563488E0,-2.128106689E1
2.499759018E1,6.309571266E0,-3.028485775E0,-2.063650131E1
2.505758448E1,-1.162748337E-1,-2.173146248E1,1.060428238E1
2.511757827E1,-2.140705109E1,-1.838298607E1,4.604948997E0
2.517757080E1,-1.752336860E0,-8.029386520E0,7.902050018E-2
2.523756320E1,-6.475602150E0,-9.310407639E0,-4.711097717E0
2.528762413E1,-5.812691212E0,-4.509761810E0,1.056410789E0
2.534761676E1,-6.125315189E0,-2.097319126E0,2.068609238E0
2.540760926E1,-3.726776361E0,1.623642445E0,1.648981094E0
2.546760185E1,-3.963450193E0,3.909169674E0,2.478304863E0
2.552759432E1,-1.468453050E0,4.267093658E0,1.885229111E0
2.558758682E1,2.480236530E0,-2.654047012E-1,-5.006858826E0
2.564757905E1,2.681382179E0,-1.890280485E0,-6.342595100E0
2.570757154E1,-1.284807444E0,-1.860184431E0,-2.552727699E0
2.576756404E1,-6.657082081E0,-7.149134159E0,-1.569525528E1
2.582755660E1,4.235442638E0,-1.104487419E1,-1.560903740E1
2.588754914E1,7.222618103E0,-2.490747261E1,-1.113920212E0
2.594754247E1,-1.474208641E1,-2.249112892E1,4.601441383E0
2.600753560E1,2.803776503E0,-7.679616928E0,9.886331558E-1
2.606752870E1,-1.374073029E-1,-5.416866302E0,3.253866196E0
2.612752179E1,-3.301817894E0,-4.628165245E0,7.136439323E0
2.618751486E1,1.843490601E-1,-3.426823616E-1,5.761304855E0
2.624750719E1,2.836076021E0,3.533562422E0,2.296886444E-1
2.630749959E1,3.864182234E0,6.695644379E0,-1.413259506E-1
2.636749212E1,1.374070168E0,4.087165296E-1,-4.172853947E0
2.642748465E1,-5.659836531E-1,-1.960342407E0,-7.414544582E0
2.648747718E1,-6.534441710E-1,8.256750107E0,1.298096657E0
2.654746964E1,-6.683827877E0,1.106646299E0,-1.671506405E0
2.660746210E1,-1.481690288E0,-2.117966652E0,-8.965909958E0
2.666745443E1,2.166780710E0,-4.563813686E0,-1.880309296E1
2.672744686E1,-8.620309830E-2,-2.262399292E1,-1.159699154E1
2.678743936E1,-5.143873692E0,-1.298767948E1,1.145098686E0
2.684743196E1,-7.264495373E0,-6.312302113E0,-3.940526724E0
2.690742442E1,9.321285486E-1,-4.870944500E0,1.210574055E1
2.696741769E1,-2.610279560E0,-3.126506329E0,1.083174896E1
2.702741189E1,-4.956331730E0,1.715369225E-1,6.384733200E0
2.708740645E1,1.065342665E0,4.081131458E0,2.783107758E-1
2.714740092E1,1.742889404E0,4.072103024E0,-4.914923668E0
2.720739555E1,-7.352579236E-1,-1.830447316E0,-7.310220718E0
2.726738932E1,-4.341042519E0,-2.106827736E0,-6.140462875E0
2.732738202E1,-1.144556046E0,-2.610827446E0,-5.880605698E0
2.738737445E1,1.951406956E0,-5.286964893E0,-6.585316181E0
2.744736704E1,2.617001534E-2,4.429259896E-1,-2.896208954E1
2.750735947E1,-6.191625595E0,-1.529125595E1,8.775903702E0
2.756735197E1,1.104511499E0,-1.601976204E1,3.349676609E0
2.762734450E1,-1.146486855E1,-1.089164925E1,-9.883248329E0
2.768733686E1,-2.905043840E0,-6.122440338E0,5.297979832E0
2.774732916E1,-4.637364388E0,-4.529905796E0,8.785060883E0
2.780732166E1,-9.090288162E0,-9.005832672E-2,2.041678429E0
2.786731419E1,-2.360785007E0,3.106320143E0,-2.052421570E-1
2.792730672E1,-2.725319862E0,2.012368679E0,-7.508642673E0
2.798729925E1,2.362322330E0,1.159827948E0,-5.277328491E0
2.804729221E1,-2.458304882E0,5.118629456E0,-4.215613842E0
2.810728621E1,-4.522991180E0,2.839554548E0,-3.907824039E0
2.816728054E1,2.186479568E0,7.685303688E-1,1.025911331E0
2.822727487E1,2.404414415E-1,-5.554151535E-1,-1.950057602E1
2.828726914E1,2.263730049E0,-4.856286049E0,-1.582051182E1
2.834726303E1,1.768032908E0,-1.081156635E1,7.528867722E-1
2.840725566E1,1.084037423E0,-1.179036522E1,-4.485865116E0
2.846724803E1,-6.605268002E0,-1.764524841E1,4.401364803E0
2.852724049E1,-3.155891418E0,-7.969480038E0,2.639647484E0
2.858723309E1,-3.820376396E0,-2.460956097E0,5.333386898E0
2.864722552E1,-3.771796227E0,1.102135658E0,1.528546333E0
2.870721812E1,7.456493378E-2,4.283810139E0,1.527428627E0
2.876721055E1,-3.327589035E-1,4.154720783E0,-3.659649372E0
2.882720288E1,-3.392381430E0,1.534988284E-1,-7.337363243E0
2.888719521E1,-3.857590199E0,7.207170486E0,-3.997806072E0
2.894718781E1,-4.392414570E0,2.647697687E0,-7.335474014E0
2.900718027E1,1.792775393E0,5.966691971E-1,-6.854162216E-1
2.906717280E1,3.149683714E0,-2.030427456E-1,-8.397534370E0
2.912716546E1,6.456806660E-1,-5.967219353E0,-1.433129501E1
2.918715873E1,1.456215978E0,-9.909209251E0,-1.013586998E0
2.924715179E1,4.479046822E0,-1.253944778E1,-8.558695793E0
2.930714492E1,-1.196501446E1,-1.562187958E1,8.743271828E-1
2.936713805E1,-5.999784946E0,-5.998458862E-1,5.366332531E0
2.942713105E1,-4.452550411E0,1.342448711E0,6.232097149E0
2.948712338E1,-5.937235355E0,5.058265686E0,5.907548904E0
2.954711578E1,1.151833534E-1,6.435887814E0,4.141694546E0
2.960710831E1,3.136245966E0,4.204224586E0,-6.511478424E-1
2.966710084E1,-4.271092415E-1,3.932510376E0,-1.353144646E0
2.972709340E1,-9.662686348E0,-2.621261120E0,-4.364174366E0
2.978708587E1,-5.052927017E0,-6.512075901E0,-2.662259579E0
2.984707833E1,-5.514251709E0,-2.127048969E0,-2.153312206E0
2.990707059E1,6.459106445E0,-5.155174255E0,6.888389587E-2
2.996706309E1,-8.756287098E-1,-1.788592339E0,-2.973712444E0
3.002705552E1,3.435734987E0,4.813331604E0,-2.153593063E0
3.008704809E1,1.070576096E1,5.361108303E0,-1.539835358E1
3.014704055E1,7.952367306E0,-5.581326485E0,-3.868692875E0
3.020703401E1,-1.012822390E0,-1.504535484E1,-1.915623188E0
3.026702821E1,-1.692492294E1,-2.352270317E1,2.112702370E0
3.032702254E1,-2.866896868E0,-4.084511757E0,1.808869362E0
3.038701687E1,9.191284180E0,5.699789047E0,4.081470490E0
3.044701127E1,4.741787910E-2,3.287111759E0,2.332482338E0
3.050700467E1,-7.224367619E0,-4.617041588E0,1.497316360E-1
3.056699713E1,-7.596316338E0,-2.462569714E0,2.929924965E0
3.062698946E1,-3.684046745E0,-3.841139078E0,-1.088865280E0
3.068698196E1,7.879499912E0,4.206480503E0,6.277818680E0
3.074697442E1,7.945991516E0,2.085008144E0,-5.955976009E0
3.080696706E1,-1.890679836E0,-5.908229351E0,-1.374738026E1
3.086695955E1,3.405006647E0,-6.993365288E0,-2.318736649E1
3.092695212E1,9.531416893E0,-2.433149529E1,3.056194305E0
3.098694445E1,-2.728723049E0,-1.432265091E1,-9.763443947E0
3.104693681E1,5.834005833E0,-1.029997444E1,4.250100613E0
3.110692924E1,6.336763382E0,-1.279393673E0,6.890527248E0
3.116692177E1,-6.039358616E0,1.186148405E0,7.557340145E0
3.122691427E1,-3.678800583E0,4.545452595E-1,9.991260529E0
3.128690717E1,2.577007294E0,1.000709891E0,4.797605038E0
3.134690050E1,5.959656715E0,-4.286087155E-1,4.328665257E0
3.140689356E1,1.217134476E0,-1.561311483E0,-8.095774651E-1
3.146688669E1,3.703299522E0,-8.535764217E-1,-4.029680729E0
3.152687982E1,-6.049979687E0,-9.194911957E0,-6.957910061E0
3.158687259E1,1.273660660E0,4.458198547E0,-1.388036156E1
3.164686482E1,1.043045807E1,4.784480095E0,-1.995405579E1
3.170685735E1,-1.074097633E0,-8.550469398E0,8.185190201E0
3.176684981E1,5.873454094E0,-3.210907745E1,6.595414639E0
3.182684231E1,8.885955811E-2,-7.931902885E0,3.692464828E0
3.188683477E1,8.339957237E0,-2.539938450E0,3.416047096E0
3.194682737E1,4.604580879E0,4.953227997E0,2.510782719E0
3.200681970E1,8.975481987E-1,3.304905176E0,3.745093346E-1
3.206681213E1,6.026943207E0,-1.113881350E0,-1.719035149E0
3.212680463E1,6.563138962E-2,-1.024108529E0,1.991350174E0
3.218679716E1,-1.564768410E1,-2.345068741E1,2.047962761E1
3.224678966E1,7.048280716E0,1.385605621E1,-1.256820488E1
3.230678232E1,1.039021492E0,6.215842247E0,-1.210167217E1
3.236677605E1,-2.373812914E0,-1.415848732E1,7.532712936E0
3.242677042E1,3.483010054E0,-1.058217812E1,-9.991611481E0
3.248667466E1,2.734040260E0,-1.293546772E1,-7.015021801E0
3.254666896E1,-7.002563477E-1,-9.137012482E0,4.988305092E0
3.260666316E1,-1.470375061E0,-6.767425537E0,5.811508656E0
3.266665619E1,-2.390808105E0,-2.748320580E0,2.442573547E0
3.272664849E1,2.900609493E0,2.688728333E0,-3.667626858E0
3.278664082E1,5.277289867E0,9.633576274E-1,-6.072958946E0
3.284663335E1,3.970179558E0,-8.494826317E0,-7.810706615E0
3.290662581E1,-5.730356693E0,1.966156483E0,-8.964723587E0
3.296661834E1,4.547316551E0,5.256553650E0,-1.050587845E1
3.302661087E1,6.228115559E0,-5.905987740E0,-3.358205318E0
3.308660340E1,3.166136742E-1,-3.202949905E1,4.280663490E0
3.314659566E1,-2.756334305E0,-2.129199982E1,-1.002031898E1
3.320658810E1,-1.897250175E0,-7.097179890E-1,-3.948170662E0
3.326658056E1,3.384437323E0,-9.441147804E0,3.528590202E0
3.332657309E1,-2.194296837E0,-3.958857298E0,4.853853703E0
3.338656559E1,9.630870819E-2,-3.544922352E0,3.920464516E-1
3.344655875E1,5.555965900E0,-8.805294037E-1,-5.133857727E-1
3.350655198E1,2.140157223E0,1.174971223E0,-4.830268383E0
3.356654518E1,-1.866813898E0,-4.809870720E0,-7.012662888E-1
3.362653824E1,-5.358618259E0,1.654556513E0,-6.475438118E0
3.368653134E1,4.007800102E0,4.040279388E-1,-1.711626053E1
3.374652384E1,4.429907799E-1,-5.599775314E0,-1.011303520E1
3.380651627E1,-4.135012627E-1,-1.132750893E1,1.482894897E0
3.386650874E1,1.453932190E1,-1.498473072E1,-3.729048729E0
3.392650130E1,-4.784162998E0,-5.053727150E0,2.198938370E0
3.398649383E1,3.655862808E-1,-1.166872978E0,-2.129390001E0
3.404648636E1,1.120517731E0,-3.381956577E0,6.753658772E0
3.410647879E1,2.915271282E0,-3.625770569E0,7.934732914E0
3.416647112E1,1.592442989E0,7.485039234E-1,5.421669006E0
3.422646342E1,2.094777822E0,8.272476196E-1,2.109813690E0
3.428645592E1,-9.803927422E0,-1.503904724E1,8.076581001E0
3.434644848E1,2.595137835E0,-2.790388584E0,-1.923012543E1
3.440644098E1,1.575276184E1,3.764254808E0,-2.525289154E1
3.446643391E1,5.846386909E0,2.795214415E0,-9.036217690E0
3.452642804E1,1.381862402E0,-1.420095825E1,7.821442604E0
3.458642260E1,1.339875031E1,-2.308240318E1,-2.799384594E0
3.464641704E1,1.548259974E0,-1.122310829E1,3.515928745E0
3.470641164E1,1.201153278E0,6.741952896E-2,5.200662613E-1
3.476640570E1,6.760516167E-1,-9.925246239E-1,-1.030738831E0
3.482639863E1,1.835497856E0,-4.629910469E0,9.411044121E0
3.488639096E1,3.008080482E0,-6.031371117E0,4.209038258E0
3.494638356E1,1.871699333E0,-1.242137432E0,-5.227565765E-2
3.500637599E1,4.052468300E0,2.614530325E-1,-3.829572678E0
3.506636859E1,3.724454641E0,-5.695536137E0,-9.106353760E0
3.512636105E1,3.491989374E0,-7.132354736E0,-1.316624069E1
3.518635352E1,5.339818001E0,3.507596970E0,-8.825634003E0
3.524634581E1,1.933202147E0,3.534506798E0,-1.068988228E1
3.530633831E1,1.619501352E0,-8.702605247E0,2.722859383E0
3.536633077E1,7.523431778E0,-3.816870117E1,-8.880791664E-1
3.542632330E1,-1.737514019E0,-8.947372437E0,-4.849109650E-1
3.548631583E1,2.614237309E0,-1.019267082E0,5.237421989E-1
3.554630850E1,5.134830952E0,-4.032208920E0,1.875116825E0
3.560630226E1,3.750510216E-1,-3.384926796E0,6.768398762E0
3.566629659E1,1.442399025E0,8.835403919E-1,5.355035305E0
3.572629092E1,2.815704823E0,2.189860344E0,-7.687139511E-1
3.578628525E1,3.660064697E0,1.081003666E0,-6.728379250E0
3.584627945E1,-1.616805077E0,6.148776412E-1,-1.647502518E1
3.590627238E1,7.298346519E0,1.284748077E1,-1.212593460E1
3.596626474E1,6.530084133E0,5.204414368E0,-1.404791546E1
3.602625714E1,1.589515924E0,-2.239109230E1,1.162169075E1
3.608624967E1,1.120301604E0,-2.001543236E1,-5.076587200E0
3.614624217E1,-1.742473125E0,-1.019162750E1,8.946499825E-1
3.620623470E1,4.859040260E0,7.575368881E-1,-2.909994125E-1
3.626622713E1,4.755379200E0,-7.564353943E-2,-1.916700840E0
3.632621959E1,8.199658394E-1,-6.418843746E0,-2.784016132E0
3.638621199E1,1.180306435E0,-2.643038750E0,4.683084488E0
3.644620442E1,-1.489842653E0,-1.780694962E0,6.324226379E0
3.650619688E1,-2.163784027E0,2.663104773E0,-4.184598446E0
3.656618948E1,1.918143988E0,2.705853701E0,-1.452162361E1
3.662618198E1,-2.592430592E0,8.747346401E-1,-1.558833694E1
3.668617508E1,7.553137779E0,7.342536926E0,-1.209181786E1
3.674616824E1,1.687705994E0,-2.135075092E0,-6.911820412E0
3.680616144E1,-3.807594776E0,-2.816228867E1,7.172842026E-1
3.686615454E1,4.536929131E0,-2.300293922E1,-2.618106365E0
3.692614770E1,-7.369635105E-1,-7.192917824E0,-1.407888889E0
3.698614013E1,9.861550331E-1,2.814006805E-1,2.506979465E0
3.704613249E1,5.845603466E0,-1.553513050E0,1.830649376E0
3.710612496E1,-2.176141739E-2,-3.481443405E0,2.771220207E0
3.716611752E1,-1.467403889E0,1.537578464E0,3.916484833E0
3.722611002E1,-4.569756985E-1,1.130482316E0,-9.267282486E-1
3.728610255E1,-1.490006924E0,-2.161441088E0,-5.369472027E0
3.734609504E1,7.280404568E-1,-4.179560661E0,-1.402714825E1
3.740608741E1,2.165641308E0,2.817496300E0,-1.871249771E1
3.746607974E1,5.332018852E0,4.954600334E0,-1.584386444E1
3.752607237E1,-3.122708559E0,-1.057307243E1,3.690256119E0
3.758606490E1,-1.226724625E0,-2.338867378E1,-6.494889259E0
3.764605743E1,-4.632294178E0,-1.497991276E1,3.011672974E0
3.770605043E1,-1.425968647E0,3.487491608E-2,6.105560780E0
3.776604453E1,4.899534225E0,1.784231186E0,8.226209641E0
3.782603893E1,5.215806961E-1,4.427449703E0,7.071960449E0
3.788603346E1,-2.109846592E0,-3.826684475E0,4.185234070E0
3.794602799E1,-2.136037350E0,-9.272564888E0,-1.438222885E0
3.800602196E1,-6.341553211E0,-7.837836742E0,-2.858538628E0
3.806601486E1,-2.281045198E0,-3.462988377E0,-1.204370117E1
3.812600722E1,1.367846727E0,2.451528072E0,-1.222290993E1
3.818599982E1,5.745667458E0,3.759047985E0,-9.788515091E0
3.824599228E1,3.803197384E0,3.387127399E0,-6.975556374E0
3.830598488E1,1.007720947E0,-2.295049906E0,-4.029619694E0
3.836597734E1,-1.582797766E0,-1.007174206E1,-2.009361744E0
3.842596984E1,3.757858992E0,-2.117529297E1,-2.361866951E0
3.848596204E1,-6.077973366E0,-8.157369614E0,2.933318138E0
3.854595453E1,-1.055233479E-1,1.993286133E0,5.330027580E0
3.860594696E1,8.413109779E-1,3.845793724E0,1.452077866E0
3.866593959E1,-4.439525604E0,-1.106182098E1,8.920370102E0
3.872593212E1,-4.000334263E0,-6.294409752E0,3.686597347E0
3.878592486E1,-1.480822086E0,1.568616509E0,-4.114357471E0
3.884591872E1,2.271871805E0,4.915410280E-1,-6.004782677E0
3.890591308E1,3.345864296E0,-6.299382687E0,-9.772045135E0
3.896590732E1,4.663646221E0,-7.968849182E0,-1.414339638E1
3.902590158E1,8.213441372E-1,8.837935448E0,-7.109168530E0
3.908589571E1,6.500284672E0,6.312788010E0,-7.565220356E0
3.914588871E1,2.323646784E0,-2.895576477E0,-7.864308357E0
3.920588104E1,-5.430535316E0,-1.622700119E1,7.366508961E0
3.926587350E1,-5.158150673E0,-2.240851593E1,6.498699188E-1
3.932586603E1,-6.587547302E0,2.769352913E0,-2.831670284E0
3.938585856E1,1.926488876E-1,-9.556854248E0,1.303331852E0
3.944585093E1,-3.652759075E0,-2.136252403E0,4.473134995E0
3.950584339E1,5.936441422E-1,2.535256863E0,-2.320824623E0
3.956583579E1,3.954154015E0,2.635921955E0,-1.525853634E0
3.962582809E1,5.479679108E-1,1.361997485E0,-6.847877502E0
3.968582062E1,2.597962856E0,7.955735683E0,-2.602882385E0
3.973587385E1,4.578746796E0,2.857893705E0,-4.866237164E0
3.979586645E1,1.093507290E0,-1.393241644E0,-3.736885548E0
3.985585894E1,4.610784054E0,2.186830759E0,-1.410057545E0
3.991585211E1,1.520085812E0,-7.607401609E-1,-1.142848396E1
3.997584518E1,-3.206297159E-1,-7.506323338E0,-3.792155266E0
4.003583834E1,-5.291815996E-1,-9.166470528E0,-1.700800896E1
4.009583140E1,-1.214972782E1,-7.760721207E0,-1.194216013E0
4.015582450E1,2.465708256E0,-1.097882843E1,4.032143116E0
4.021581700E1,4.446848392E0,-7.318547249E0,1.511880398E1
4.027580939E1,-7.350982666E0,2.922991037E0,6.125954628E0
4.033580192E1,1.221674681E0,5.634635925E0,2.443002701E0
4.039579445E1,4.088960648E0,6.639360428E0,-3.974704742E-1
4.045578698E1,1.771444440E0,3.794438601E0,-5.932955742E0
4.051577945E1,-2.267988682E0,-2.760707617E0,-4.701713085E0
4.057577191E1,-2.313969135E0,-1.152259254E1,-1.296014977E1
4.063576424E1,2.789945126E0,-1.054867554E1,-1.001780319E1
4.069575667E1,1.048337555E1,1.169825315E0,-3.498416901E0
4.075574914E1,9.808377028E-1,-6.617312431E0,4.125680923E-1
4.081574173E1,-6.808942795E0,-1.764673996E1,1.879578590E0
4.087573420E1,5.480085850E0,-1.195603657E1,4.196003437E0
4.093572716E1,3.008281708E0,-8.890868187E0,7.086384773E0
4.099572116E1,-6.273281097E0,3.955488205E-1,1.042980003E1
4.105571556E1,-1.027993107E1,7.191950321E0,9.601803780E0
4.111570982E1,-6.816837788E-1,7.866738796E0,6.638445854E0
4.117570422E1,1.608611584E0,9.753679276E0,9.723377228E-1
4.123569805E1,3.017548800E0,6.501424313E-1,-2.803845882E0
4.129569081E1,-7.527117252E0,1.088986158E0,-5.701370716E0
4.135568311E1,-9.657664299E-1,2.326860905E0,-9.424257278E-1
4.141567561E1,5.751659870E-1,2.180760860E0,-1.092744160E1
4.147566807E1,1.707266569E0,-7.146730900E0,-1.996693039E1
4.153566067E1,4.698704720E0,-3.333479881E0,-1.244837379E1
4.159565313E1,8.090415955E0,-2.786631346E0,-9.724411964E-1
4.165564563E1,5.059900284E0,-2.316482162E1,3.919687748E0
4.171563799E1,-4.614006519E0,-1.870090675E1,1.389008713E1
4.177563039E1,-2.469114780E0,-5.507615566E0,1.202112007E1
4.183562282E1,2.344821453E0,2.062614918E0,1.169072342E1
4.189561535E1,5.660640717E0,5.903220654E0,7.969358444E0
4.195560788E1,6.085335732E0,4.286559105E0,2.834172249E-1
4.201560051E1,8.436092377E0,-1.130681038E-1,-2.194504261E0
4.207559371E1,-6.517801285E-1,4.506171942E-1,2.931050301E0
4.213558687E1,-3.064393997E0,1.640196800E0,6.578016281E0
4.219558000E1,-5.580838203E0,8.564904332E-2,-2.734426498E0
4.225557313E1,-1.572624207E0,-3.154541969E0,-8.001252174E0
4.231556620E1,7.966334343E0,6.327292919E-1,-1.516290188E1
4.237555853E1,6.585638046E0,3.298474312E0,-1.436965752E1
4.243555093E1,8.067526817E-1,-1.170108986E1,-5.693828583E0
4.249554346E1,-1.072056866E1,-2.528303909E1,1.255737495E1
4.255553599E1,-1.817313194E0,-7.285804749E0,6.281360626E0
4.261552842E1,1.200610638E0,5.134662628E0,5.654876709E0
4.267552102E1,1.182592869E0,6.167219639E0,8.228921890E-1
4.273551341E1,2.528064251E0,4.136999607E0,-1.821187735E0
4.279550578E1,7.394796848E0,-6.516804695E-1,-4.597151279E0
4.285549818E1,-2.695485115E0,2.660064697E0,1.211299896E0
4.291549077E1,-7.564015388E-1,6.637759209E0,1.982643318E1
4.297548324E1,3.000858784E0,1.124615479E1,-2.845376492E0
4.303547583E1,2.771722794E0,5.187781334E0,1.448413849E0
4.309546910E1,-3.226177931E0,-5.361984253E0,-6.644950867E0
4.315546336E1,3.703076124E0,-1.090946960E1,-4.061067104E0
4.321545762E1,-5.798314571E0,-1.875637436E1,-1.873871803E0
4.327545202E1,-2.740205288E0,-1.399563408E1,1.462268829E0
4.333544628E1,1.315888166E0,-9.822134972E-1,-2.928504944E0
4.339543978E1,3.608556747E0,3.257230759E0,-4.108623981E0
4.345543225E1,8.654991150E0,6.738836288E0,-1.833374500E0
4.351542461E1,8.660175323E0,2.510781765E0,-3.678955078E0
4.357541701E1,-4.437230825E-1,4.001972198E0,-9.184590340E0
4.363540954E1,-2.270715141E1,-1.885224152E1,-4.221152306E0
4.369540207E1,4.997763634E-1,1.657983971E1,-1.492336082E1
4.375539460E1,2.286262989E0,-1.241274452E1,1.998996735E-2
4.381538709E1,-2.491553783E0,-3.413431931E1,5.665571690E0
4.387537943E1,5.344652653E0,-8.121679306E0,-1.271354198E0
4.393537176E1,6.178376198E0,-1.072624111E1,-4.011979580E0
4.399536425E1,-3.314151764E-1,-6.103732586E0,-3.929649115E0
4.405535678E1,-9.438290596E-1,-1.540329456E0,-1.961272240E0
4.411534925E1,1.246376038E-1,5.148905754E0,-5.760199070E0
4.417534214E1,3.237196922E0,6.059821606E0,-4.488205910E0
4.423533541E1,4.950902462E0,8.307486534E0,-4.147270203E0
4.429532858E1,-3.780979872E0,-3.114038086E1,3.720656586E1
4.435532164E1,6.687810421E0,2.015300179E1,-1.076090240E1
4.441531484E1,4.324837685E0,-3.076524353E1,6.541911125E0
4.447530760E1,-1.381550789E1,-2.669746780E1,-7.836233139E0
4.453530000E1,8.251458168E0,-7.941322803E0,-4.976636887E0
4.459529240E1,1.972284317E0,6.720275879E-1,-4.395379543E0
4.465528493E1,6.579887867E-1,2.779793024E0,-1.719324112E0
4.471527739E1,-1.750140190E-1,2.172934294E0,-1.102563858E0
4.477526998E1,-2.614667416E-1,3.060655594E-1,-1.942943573E0
4.483526248E1,1.122405052E0,1.665578604E0,-1.685901165E0
4.489525491E1,5.394105911E0,4.933160782E0,-1.020957947E0
4.495524724E1,1.185805202E0,-1.282141924E0,-4.662358284E0
4.501523971E1,3.544806957E0,6.199357986E0,-5.022623539E0
4.507523224E1,2.745186567E0,-1.048452759E1,-1.893568039E1
4.513522474E1,2.114011765E0,-2.159595871E1,-2.284718513E0
4.519521730E1,-8.059363365E-1,-1.624258041E1,-3.682358503E0
4.525521110E1,-2.156867027E0,-9.230295181E0,5.992894173E-1
4.531520556E1,-1.019802570E0,-3.484781742E0,2.582651615E0
4.537519996E1,-1.418973446E0,1.394652605E0,1.476708412E0
4.543519450E1,3.415923834E0,3.886624813E0,-2.482725620E0
4.549518896E1,6.221500874E0,4.165584087E0,-4.368663311E0
4.555518222E1,3.748166561E0,-1.599325776E0,-5.733128548E0
4.561517459E1,3.636456013E0,-1.439975071E1,8.698977470E0
4.567516718E1,4.727588892E-1,3.113720894E0,-1.383923721E1
4.573515965E1,4.475345016E-1,-9.165203094E0,-1.478175163E0
4.579515218E1,1.255724192E0,-1.322449589E1,-7.911767483E0
4.585514468E1,-2.233600140E0,-1.100706577E0,-3.049791098E0
4.591513731E1,-1.346418381E0,-1.036063766E1,1.221992016E0
4.597512957E1,2.447940588E0,-8.914978027E0,1.006508160E1
4.603512217E1,-5.584486485E0,2.133512497E-2,2.699952602E0
4.609511463E1,8.092865944E-1,5.446672440E-2,-5.854754448E-1
4.615510713E1,3.425383806E0,2.690353155E0,-5.375638962E0
4.621509959E1,3.025189400E0,-3.328408718E0,-1.239524269E1
4.627509219E1,2.024371624E0,-2.071666908E1,4.870629311E0
4.633508542E1,6.878963470E0,-7.074020386E0,-1.093544674E1
4.639507969E1,1.057364941E1,1.985299492E1,-1.062630367E1
4.645507402E1,1.268999100E1,-1.672050476E1,1.775289154E1
4.651506835E1,1.552694321E0,-2.632721138E1,7.883071899E-3
4.657506261E1,4.529140472E0,-1.470777416E1,-9.656398773E0
4.663505604E1,9.403705597E-1,-6.036911964E0,-5.099474907E0
4.669504844E1,8.673596382E-1,2.652885199E0,8.837121010E0
4.675504077E1,-3.924356461E0,4.289888859E0,5.688045979E0
4.681503330E1,-3.630198002E0,8.156435013E0,-3.694594383E0
4.687502583E1,2.096575260E0,2.522740364E0,-1.318790627E1
4.693501836E1,-5.354683876E0,-1.677517319E1,6.073633194E0
4.699498450E1,2.750468254E0,1.775068474E1,-7.813948631E0
4.705497703E1,5.513126373E0,-3.165035248E1,5.350231171E0
4.711496936E1,-2.744185448E0,-1.981143570E1,4.750355721E0
4.717496172E1,7.900079250E0,-1.009109497E0,5.574547768E0
4.723495412E1,5.273506165E0,6.317477226E0,4.939619064E0
4.729494665E1,-3.377246857E-2,5.892884731E-1,3.134464502E0
4.735493918E1,-3.123016357E0,-5.561679840E0,2.906024456E0
4.741493211E1,2.303441525E0,-3.114028931E0,1.612799168E0
4.747492534E1,4.422110558E0,6.810514927E-1,1.518559933E0
4.753491854E1,3.481816769E0,2.262565345E-1,-4.178869247E0
4.759491160E1,6.405057907E-1,-1.483912110E0,-2.290785789E1
4.765490474E1,8.649843216E0,1.209946251E1,-1.588878727E1
4.771489740E1,1.254386139E1,-1.013120270E1,5.325066090E0
4.777488980E1,9.875849724E0,-1.914867401E1,7.692508698E-1
4.783488223E1,-4.749182224E0,-1.626659203E1,1.748712301E0
4.789487482E1,1.851269245E0,-5.767541409E0,6.935776234E0
4.795486732E1,2.375016689E0,-3.610186577E-1,5.750133514E0
4.801485985E1,5.433044434E-1,1.677320719E0,-2.366480827E-1
4.807485232E1,5.594336510E0,5.325319290E0,1.528794765E0
4.813484475E1,5.445671082E0,2.660709858E0,-2.346546650E0
4.819483701E1,-5.398616791E-1,-4.582964778E-1,-3.431612492E0
4.825482951E1,-7.031772614E0,-1.255379009E1,-1.123828316E1
4.831482204E1,-1.062280083E1,-1.284236145E1,-4.314505577E0
4.837481460E1,1.706523895E-1,5.357643127E0,-6.342171192E0
4.843480723E1,9.096084595E0,-6.158802509E-1,-1.991217613E0
4.849480110E1,-5.579538345E-1,-1.027732086E1,-2.371535778E0
4.855479543E1,9.906993866E0,-2.827273750E1,-1.616174698E0
4.861478976E1,-3.870961666E0,-1.054722977E1,1.608438969E0
4.867478405E1,2.231268644E0,-6.705735207E0,2.716595650E0
4.873477815E1,-1.128696918E0,-1.823801994E-1,2.643342018E-1
4.879477115E1,-5.835790634E-1,2.775707722E0,-1.601547241E0
4.885476348E1,-1.019312859E0,4.039333344E0,-1.144222736E0
4.891475581E1,1.436858177E-1,1.249933600E0,-2.662212372E0
4.897474831E1,-4.349699497E0,2.143011570E0,2.980268478E0
4.903474090E1,-3.364053726E0,-8.782241344E-1,-2.602908611E0
4.909473337E1,5.458235741E-1,-1.256768513E1,-1.072486973E1
4.915472590E1,8.422904015E-1,-5.234144688E0,-1.292314529E1
4.921471836E1,1.038127041E1,-7.273178101E-1,-1.821545982E1
4.927471073E1,1.676386833E1,-4.573948383E0,6.024601936E0
4.933470306E1,1.048340321E1,-1.783946609E1,-5.803998470E0
4.939469569E1,-1.687623787E1,-1.630107689E1,1.683683395E-1
4.945468819E1,4.191773415E0,-8.200711250E0,3.311828613E0
4.951468078E1,1.826612949E0,6.217870712E-1,5.800581932E0
4.957467388E1,-2.554412842E0,6.226214886E0,4.573903084E0
4.963466722E1,-3.473811626E0,4.914564133E0,1.756582260E-1
4.969466025E1,2.053070068E0,3.699338436E-1,-9.923224449E-1
4.975465334E1,2.903264046E0,-4.573913097E0,-2.513232708E0
4.981464641E1,-2.004208565E-1,6.692621708E-1,5.502367020E-1
4.987463894E1,5.395692825E0,-1.630848646E0,-3.944377899E-1
4.993463124E1,7.765999317E0,4.598922729E-1,-4.783380985E0
4.999462373E1,7.277289391E0,5.025914192E0,-1.787319565E1
5.005461626E1,4.217726707E0,-2.438475132E0,-9.303862572E0
5.011460879E1,-3.847744226E0,-1.578783703E1,1.592190742E0
5.017460129E1,-1.073460197E1,-2.834200859E1,-2.795327902E0
5.023459372E1,-3.620802402E0,-4.071045399E0,3.655153751E0
5.029458608E1,-3.430604935E-2,7.818210125E-1,3.863546371E0
5.035457841E1,3.331393242E0,1.710004330E0,1.360142231E0
5.041457101E1,1.993750334E0,2.551621437E0,3.220753670E-1
5.047456351E1,9.137554169E-1,-4.300658703E-1,8.460607529E-1
5.053455611E1,-8.700201511E-1,-2.759224892E0,1.823509216E0
5.059454907E1,-4.779726028E0,4.806516171E-1,1.934212685E0
5.065454324E1,-1.365422964E0,1.336216927E-1,-6.955556870E-1
5.071453763E1,4.384216309E0,6.480950356E0,-9.689436913E0
5.077453220E1,9.925094604E0,3.344634056E0,-1.766441727E1
5.083452670E1,3.998315811E0,-9.272697568E-1,-1.281883049E1
5.089452083E1,2.066275358E0,-1.194779682E1,-3.842897415E-1
5.095451366E1,-2.000741196E1,-1.952751350E1,-1.890645504E0
5.101450602E1,-3.381178617E0,-1.298381901E1,1.824991226E0
5.107449849E1,-3.635077477E0,-1.020524025E0,-2.828669548E-1
5.113449105E1,-1.624028206E0,3.057561874E0,-1.756585598E0
5.119448348E1,1.368260860E0,6.430202484E0,-4.908157349E0
5.125447601E1,2.672271252E0,1.688784242E0,-4.252342224E0
5.131446851E1,2.474642038E0,-5.702421665E0,-5.488068581E0
5.137446084E1,-2.809447765E0,-3.610508919E0,-2.862679005E0
5.143445324E1,1.917064548E0,1.813582611E1,-9.348373413E-1
5.149444577E1,-8.668838739E-1,4.288512230E0,8.620548248E-2
5.155443830E1,-5.654136181E0,-2.487149811E1,-6.490311623E0
5.161443083E1,-4.293995380E0,-1.320713425E1,-1.570266438E1
5.167442356E1,3.097229958E0,-3.933911800E0,-5.085225105E0
5.173441742E1,4.930479050E0,-8.043100357E0,2.990916252E0
5.179441175E1,-1.817211390E0,-7.590240002E0,-1.090389729E0
5.185440608E1,4.556138515E-1,1.447804689E0,2.496381760E0
5.191440048E1,-2.846731901E0,2.927357435E0,-4.727293015E0
5.197439461E1,-1.560404778E0,2.938052177E0,-4.532942772E0
5.203438748E1,-2.664944172E0,3.387959599E-1,-8.187414169E0
5.209437974E1,1.064094543E0,-1.645383358E0,-8.422865868E0
5.215437220E1,2.370330811E0,-8.884564400E0,-1.467937279E1
5.221436467E1,5.355891705E0,-2.264738798E0,2.827079773E0
5.227435720E1,-4.545388222E-1,-2.749263763E1,-1.099584198E1
5.233434976E1,-5.999741077E0,-1.155096626E1,2.178851604E0
5.239434236E1,3.226736546E0,-2.841831684E0,1.942415237E0
5.245433469E1,6.868882179E-1,1.388854980E0,5.717134476E-2
5.251432702E1,-1.834966183E0,-1.857711315E0,2.342019081E-1
5.257431942E1,-3.532622337E0,-2.051402092E0,4.770584106E0
5.263431191E1,-1.124776363E0,-3.198231697E0,2.009043694E0
5.269430438E1,9.193670750E-1,1.299908161E-1,-4.023859501E0
5.275429701E1,3.870668888E0,1.577693462E0,-4.608497143E0
5.281429014E1,-6.962835789E0,8.461237907E0,-3.172675133E0
5.287428334E1,8.157983780E0,9.198243141E0,-2.349202728E1
5.293427647E1,2.616535902E0,-3.913489819E0,1.901708603E0
5.299426970E1,-9.415474892E0,-2.182938385E1,-5.850814819E0
5.305426270E1,-1.351451874E1,-1.503535271E1,1.851844788E0
5.311425516E1,-5.122545958E-1,-4.355565548E0,-9.132194519E-2
5.317424753E1,4.180958271E0,2.847585917E0,-1.506145000E0
5.323423999E1,-2.079184055E-1,2.799786568E0,9.668226242E-1
5.329423242E1,-2.642099619E0,1.925622821E0,1.365224838E0
5.335422502E1,-3.006899118E0,-5.968745232E0,4.039642334E0
5.341421761E1,-3.707037210E0,-4.632302761E0,-2.530589581E0
5.347421011E1,-2.942915916E0,-4.953376770E0,-4.190067291E0
5.353420244E1,2.082704067E0,-8.029538393E-1,-7.068062782E0
5.359419484E1,6.433942318E0,-2.258182049E0,-1.263521194E1
5.365418734E1,5.200743198E0,4.529078484E0,-1.621198845E1
5.371417977E1,5.112589836E0,-4.665305614E0,7.416096687E0
5.377417236E1,-1.520469570E1,-3.472018814E1,-1.991532326E1
5.383416543E1,-1.029776096E1,-7.655376434E0,3.134007454E-1
5.389415959E1,8.017016411E0,-8.216638565E0,1.233070183E1
5.395415406E1,-4.954061508E-1,-9.468946457E-1,6.819298267E0
5.401414863E1,-5.218081474E-1,1.049050808E0,6.481511593E0
5.407414303E1,2.055784225E0,7.396909237E0,4.401322365E0
5.413413702E1,-1.679699898E0,1.170308590E0,1.136634350E0
5.419412979E1,-6.469807148E0,-3.496955395E0,-5.114407539E0
5.425412232E1,-1.653269291E0,-5.353362083E0,-2.811789989E0
5.431416822E1,1.788375378E0,-3.629814625E0,-7.623416901E0
5.437416075E1,3.716139317E0,-8.286890030E0,-1.088861275E1
5.443415322E1,6.909868240E0,8.759175539E-1,-1.036450386E1
5.449414581E1,5.877943516E0,-1.777310133E0,-1.457946396E1
5.455413814E1,-1.739720345E0,-2.814966965E1,-1.888556480E-1
5.461413051E1,3.465696812E0,-6.782300472E0,9.738680840E0
5.467412297E1,4.405335903E0,-6.346979141E0,1.474136353E1
5.473411550E1,-6.030813694E0,2.154387951E0,9.678463936E0
5.479410800E1,-1.669899464E0,5.851654053E0,9.486461639E0
5.485410053E1,-2.747735977E0,2.470832825E0,7.174020290E0
5.491409336E1,-3.808284760E0,2.123035908E0,-4.794004440E0
5.497408729E1,-2.940120697E-1,-5.227346420E-1,-4.169615269E0
5.503408162E1,4.302063942E0,-1.993637562E0,-7.661737442E0
5.509407585E1,7.604093552E-1,-4.825024605E0,-1.061308575E1
5.515407018E1,1.354835033E1,7.941143513E0,-6.669695377E0
5.521406421E1,6.143067837E0,2.816282511E0,-7.979397297E0
5.527405701E1,-1.733303070E0,-6.769518852E0,6.701066494E0
5.533404928E1,5.881619453E0,-3.900384903E1,6.359243393E0
5.539404187E1,-2.610590458E0,-1.524457550E1,-8.129045963E-1
5.545403434E1,1.511227131E0,-7.522480965E0,3.618582964E0
5.551402690E1,9.329257011E-1,-1.265794754E0,4.179832458E0
5.557401937E1,6.667876244E-1,1.544546604E0,4.366843224E0
5.563401196E1,-9.875359535E-1,6.179771423E-1,-3.802776337E-2
5.569400423E1,-2.416423321E0,-3.995838404E0,-6.656611443E0
5.575399663E1,6.056728363E-1,-2.213726044E0,-8.706817627E-1
5.581398906E1,5.934935570E0,-1.804053307E0,1.533533096E0
5.587398158E1,-2.164802074E0,-6.535005569E-1,-3.283298969E0
5.593397405E1,2.293787479E0,-3.991963863E-1,-4.591352940E0
5.599396671E1,3.222903252E0,-7.652022839E-1,-5.579757690E0
5.605395991E1,8.375152588E0,-3.394085646E0,-1.103249550E1
5.611395304E1,6.217323303E0,-5.297514915E0,-7.675871849E0
5.617394617E1,-3.475589514E0,-3.762410402E0,-8.032925606E0
5.623393930E1,-1.508820057E0,-2.231447220E1,-3.114032745E-2
5.629393230E1,-1.213360882E1,-1.343420982E1,7.045526981E0
5.635392473E1,2.790517807E-1,-2.068367481E0,5.596489906E0
5.641391716E1,2.023267746E0,1.255865097E-1,3.806736469E0
5.647390969E1,-7.705931664E-1,-1.397991180E-2,4.848640919E0
5.653390222E1,-9.848117828E-2,-5.200064659E0,1.532903671E0
5.659389469E1,-3.763180256E0,-9.608990669E0,-1.540331841E0
5.665388718E1,-2.292034626E0,-5.151504517E0,-6.540347099E0
5.671387961E1,1.905629635E0,7.609925270E-1,-5.977150917E0
5.677387194E1,7.134965897E0,1.930100083E0,-2.966211319E0
5.683386438E1,1.639544010E0,2.167545795E0,-4.879280090E0
5.689385701E1,7.670658112E0,1.608617902E0,-1.839035797E1
5.695384947E1,7.772078514E0,1.034915328E0,-8.848434448E0
5.701384200E1,-3.601821899E0,-1.372870255E1,9.439143181E0
5.707383523E1,-9.092689514E0,-3.236821747E1,-1.197451591E0
5.713382943E1,-1.071938801E1,-2.621034622E0,-9.752621651E-1
5.719382366E1,2.378668308E0,-9.969954491E-1,-2.905514717E0
5.725381806E1,3.124067545E0,-2.619892120E0,-4.026860237E0
5.731381232E1,-8.633394241E-1,-3.806715012E0,-3.214011908E0
5.737380595E1,-5.767174721E0,-4.454488754E-1,2.534227371E-1
5.743379845E1,2.117874861E0,3.844265223E0,3.612003326E-1
5.749379085E1,6.347052574E0,4.298384190E-1,-2.725278378E0
5.755378331E1,3.113591194E0,8.829058647E0,-1.008850670E1
5.761377591E1,4.310398102E0,1.023276997E1,-1.310467529E1
5.767376837E1,1.939295828E-1,8.699421883E-1,-7.671594620E-1
5.773376090E1,-2.682203531E0,-2.896385002E1,7.009549141E0
5.779375336E1,-4.454054832E0,-2.047875595E1,-7.686341763E0
5.785374576E1,-1.349606037E0,-5.700686455E0,-2.650511742E0
5.791373803E1,-3.997919798E0,-1.670384407E0,2.111156940E0
5.797373056E1,-7.348859310E-1,4.961180687E-1,3.033928871E-1
5.803372312E1,-2.602505207E0,1.359665394E0,-1.982851505E0
5.809371565E1,1.458570957E0,2.265381098E0,-1.092547894E0
5.815370838E1,-4.270993471E-1,-2.708910108E-1,1.731668472E0
5.821370172E1,-4.411861300E-1,-4.088619709E0,-8.433453560E0
5.827369484E1,-1.703793287E0,-1.782842445E1,9.651391983E0
5.833368794E1,6.116445541E0,2.725648165E0,-1.745033646E1
5.839368107E1,2.163581133E0,-1.166999817E0,-9.351044655E0
5.845367387E1,-8.086686134E-1,-7.222425461E0,4.275056839E0
5.851366620E1,-2.232279062E0,-1.159697151E1,-3.505572081E0
5.857365870E1,-1.141220379E1,-8.108640671E0,2.558423042E0
5.863365123E1,-5.290639877E0,-5.874280930E0,6.946678162E0
5.869364369E1,-4.099933624E0,7.404527664E-1,1.424102306E0
5.875363629E1,6.482601166E-3,1.981937408E0,-1.667762280E0
5.881362875E1,2.367698669E0,2.008680344E0,-3.773167133E0
5.887362112E1,5.450998306E0,3.060907364E0,-4.930999756E0
5.893361341E1,6.846402168E0,1.761489868E0,-2.459373474E0
5.899360601E1,-1.260406137E0,1.300955582E1,-1.084571457E1
5.905359847E1,-1.329132080E0,3.613410234E0,-9.853440285E0
5.911359107E1,-4.030819416E0,-1.122701263E1,6.346835613E0
5.917358357E1,2.389740705E0,-1.000218201E1,-5.553534031E0
5.923357723E1,-4.027098656E0,-3.533868790E0,-3.623141766E0
5.929357156E1,-1.617355824E0,3.783859015E0,-1.680808544E0
5.935356617E1,5.293759823E0,3.120737076E-1,5.923205376E0
5.941356063E1,-3.239020586E0,-2.121990204E0,5.981347084E0
5.947355513E1,-1.599914789E0,-6.507439613E0,-1.577749252E-1
5.953354849E1,-3.932467699E0,1.553426266E0,-3.518810272E-1
5.959354096E1,6.147914886E0,9.148756027E0,-2.118922710E0
5.965353339E1,9.524536133E0,4.433348656E0,-4.134877205E0
5.971352592E1,-4.442142963E0,-1.041032791E0,-1.135666466E1
5.977351845E1,-2.609059334E0,5.936803818E0,-1.462908936E1
5.983351098E1,-1.511937261E0,-1.147082138E1,4.966348648E0
5.989350354E1,-9.395922661E0,-2.948156166E1,7.337041855E0
5.995349584E1,1.337249279E-1,-5.426186085E0,-9.572887421E-1
6.001348824E1,2.759786606E0,2.968166113E0,1.166868210E0
6.007348077E1,3.527826309E0,4.931625843E0,2.838991642E0
6.013347330E1,2.578897476E-1,6.090810299E0,2.617179394E0
6.019346573E1,-3.152922153E0,2.238147020E0,-6.587629318E-1
6.025345833E1,-4.074883938E0,-1.941351891E-1,-4.413228035E0
6.031345156E1,-7.577410221E0,-1.070775986E0,-6.821091175E0
6.037344572E1,6.079171658E0,7.321237087E0,-5.872365952E0
6.043343995E1,3.228062153E0,1.359058762E1,-7.581048012E0
6.049343438E1,6.584663868E0,-1.792829132E1,1.374843597E0
6.055342865E1,-3.985595703E-1,-1.740915108E1,-6.619764328E0
6.061342221E1,7.470334530E0,-1.450783348E1,-2.701298952E0
6.067341464E1,2.636335850E0,-5.745662689E0,-7.177877426E-2
6.073340704E1,5.255813599E-1,6.463375092E-1,8.545923233E-1
6.079339947E1,1.924548149E-1,7.109396935E0,-1.927713871E0
6.085339207E1,3.262269497E0,1.148385429E1,-2.388062477E-1
6.091338456E1,6.596084595E0,1.018563271E1,5.480256081E-1
6.097337720E1,-1.871552467E-1,5.595442295E0,-6.182064533E0
6.103336969E1,2.733850241E0,9.101449013E0,-9.085005760E0
6.109336202E1,-2.013177395E0,-1.083142471E1,-4.467706680E-1
6.115335442E1,-1.770351410E0,-2.380219078E1,-1.341244507E1
6.121334718E1,5.688291073E0,-1.089214897E1,-5.776818275E0
6.127333962E1,9.467123032E0,-6.757558346E0,-1.927134037E0
6.133333215E1,3.271574974E0,-2.994172573E0,-4.614105225E0
6.139332501E1,8.942890167E-1,-2.129833221E0,-1.749093056E0
6.145331818E1,2.459239960E-2,-2.474990129E0,-2.641058922E0
6.151331104E1,-3.326158047E0,2.889286280E0,-2.180960655E0
6.157330417E1,-3.422100544E-1,2.506690502E0,-2.647603512E0
6.163326100E1,6.772602558E0,1.153597927E1,-1.156947041E1
6.169325373E1,3.216842175E0,7.421639919E0,-1.102876759E1
6.175324610E1,1.152970505E1,-9.102103233E0,-3.518877029E-1
6.181323860E1,-1.179776955E1,-2.876648521E1,-1.338775063E1
6.187323113E1,-1.071727276E0,-1.802943993E1,-5.899042130E0
6.193322362E1,3.786339760E-1,-6.704685211E0,-2.981599808E0
6.199321622E1,-3.879906178E0,-1.138847828E0,-3.860388041E0
6.205320868E1,-4.413156509E-1,2.798526287E0,-1.650896549E0
6.211320105E1,9.619348049E-1,5.466557503E0,-1.853799820E0
6.217319334E1,-2.307748795E-1,4.166765690E0,-1.924590588E0
6.223318591E1,-3.145103931E0,5.212163925E-1,1.127843094E1
6.229317837E1,9.331345558E-2,-5.689416409E0,5.740736961E0
6.235317100E1,-1.639550328E0,-4.760139942E0,-1.534794807E1
6.241316353E1,7.777260303E0,1.559703922E1,-2.019186020E1
6.247315730E1,8.872293472E0,-2.124736786E1,6.682767868E-1
6.253315156E1,-1.976298904E1,-1.930298042E1,-1.294972420E0
6.259314589E1,1.581633568E0,-1.454150772E1,-2.883025646E0
6.265314012E1,1.180475831E0,-6.834693909E0,-1.573562622E-1
6.271313445E1,1.213448286E0,4.218747139E0,1.838426590E-1
6.277312752E1,-2.146465302E0,-1.280092001E0,-4.165220737E0
6.283311985E1,-7.101568222E0,2.869208097E0,-1.266286087E1
6.289311221E1,-4.029911518E0,5.160935879E0,-3.741943836E0
6.295310474E1,6.363607407E0,1.971025658E1,-1.026725769E-2
6.301309724E1,7.402659416E0,-4.283843040E0,9.210195541E-1
6.307308977E1,2.424698114E0,-1.653314972E1,-7.908270836E0
6.313308230E1,-1.170943832E1,-1.646626472E1,-2.752722931E1
6.319307480E1,-2.459674835E0,-1.733888435E1,-6.148822308E0
6.325306713E1,2.018627882E0,-1.616819191E1,-8.820552826E-1
6.331305946E1,2.595672131E0,5.783886909E-1,5.927361488E0
6.337305199E1,4.975599289E0,3.793327808E0,1.660701752E1
6.343304455E1,5.154534817E0,3.186794043E0,1.232082844E1
6.349303708E1,-1.789457798E-1,-6.276172638E0,4.920045853E0
6.355303011E1,9.601930380E-1,-7.485007286E0,5.611385345E0
6.361302341E1,1.563049078E0,-5.884604931E0,-7.643251419E-1
6.367301648E1,2.376235247E0,-3.616908073E0,-4.951329708E0
6.373300957E1,3.209157944E0,-8.233918190E0,-1.693865585E1
6.379300264E1,8.642980576E0,-1.259026527E1,-1.786878777E1
6.385299527E1,5.617997646E0,-1.474702263E1,8.051271439E0
6.391298753E1,6.271438122E0,-2.243619156E1,-1.046387291E1
6.397298013E1,-8.856474876E0,-2.616643906E0,-2.311439514E0
6.403297259E1,1.352469635E1,-1.066689491E1,1.330735588E1
6.409296512E1,-2.794841766E0,3.757262945E0,1.052216148E1
6.415295759E1,-1.102120876E1,6.571133614E0,7.235408783E0
6.421295018E1,5.662468910E0,3.073503017E0,7.989892483E0
6.427294245E1,-1.782387257E0,1.561377525E0,3.498602390E0
6.433293481E1,-6.478633404E0,9.155935287E0,-3.254199266E0
6.439292738E1,-1.416347027E0,-2.180104256E-1,7.865619659E-2
6.445291990E1,4.625779152E0,-1.104797745E1,-4.493827820E0
6.451291237E1,3.554374695E0,-1.792399597E1,-3.054796696E0
6.457290523E1,1.634198785E0,-6.909642696E0,-2.528021622E1
6.463289927E1,-1.909207702E0,-4.129524708E0,-2.122422028E1
6.469289377E1,-7.286698818E-1,-9.882758141E0,9.282467842E0
6.475288830E1,4.869512081E0,-4.428826332E0,7.948901176E0
6.481288280E1,-1.429405880E1,-1.662530518E1,1.494734383E1
6.487287700E1,-2.899463177E0,6.727390289E-1,1.167097950E1
6.493286999E1,-1.216253996E0,5.358646870E0,7.401529312E0
6.499286242E1,-3.912791014E0,7.602825165E0,5.789250374E0
6.505285489E1,-1.821721554E0,6.816844463E0,8.106267929E0
6.511284745E1,-1.201202583E1,6.797672272E0,1.696714401E0
6.517283992E1,-2.085356236E0,5.239285946E0,3.542730331E0
6.523283245E1,6.575846195E0,-7.540806532E-1,1.532042503E0
6.529282481E1,1.042898893E-1,-4.692464828E0,-5.350999355E0
6.535281721E1,-2.217265606E0,-1.691330910E1,-2.261044502E1
6.541280961E1,-1.503416300E0,-1.860377550E0,-1.892539024E1
6.547280220E1,4.545731544E0,6.380017281E0,-2.332719326E0
6.553279467E1,4.132559299E0,1.315407276E0,3.921767235E0
6.559278720E1,6.370972633E0,-1.057676792E1,1.659629059E1
6.565277983E1,-1.622617722E1,-1.862585831E1,5.493516445E0
6.571277359E1,-1.115268803E1,7.013811111E0,4.951534271E0
6.577276786E1,-3.618088961E0,1.216657639E1,1.709558105E1
6.583276219E1,-2.026673317E0,1.017679977E1,9.883055687E0
6.589275652E1,-5.457132339E0,7.796988010E0,7.433857918E0
6.595275068E1,-6.765226841E0,2.642663956E0,7.231208801E0
6.601274364E1,-1.695027828E0,2.159951210E0,6.336881161E0
6.607273604E1,-8.517465591E0,-1.978623867E0,1.682178497E0
6.613272847E1,1.811220646E0,2.220711708E-1,-4.881587505E0
6.619272100E1,2.039111376E0,-4.327650070E0,-2.182029343E1
6.625271353E1,5.859017372E-3,-1.493804455E0,-1.826405334E1
6.631270600E1,-2.889815569E-1,-2.403321266E-1,-1.088981628E0
6.637269846E1,-1.812194586E0,-7.197083473E0,1.736674500E1
6.643269093E1,1.324610591E0,-9.691055298E0,1.138819218E1
6.649268329E1,-1.004496098E1,3.142685413E0,1.102717113E1
6.655267572E1,-1.077748775E1,8.068012238E0,1.041563511E1
6.661266832E1,-5.528561592E0,1.036017609E1,1.004857063E1
6.667266078E1,6.801538467E0,6.436856747E0,9.830617905E0
6.673265331E1,4.229781628E0,4.685093880E0,1.002953148E1
6.679264638E1,-1.677196503E0,3.337893724E0,5.538145065E0
6.685263961E1,-8.179080486E-1,1.975202799E0,7.018400192E0
6.691263267E1,-6.042468071E0,5.432439804E0,3.898838997E0
6.697262590E1,6.034512043E0,5.432220459E0,-1.484948540E1
6.703261893E1,3.802706242E0,3.806216240E0,-1.836228180E1
6.709261143E1,4.258565426E0,6.825463295E0,-9.339592934E0
6.715260383E1,5.283894062E0,5.324071884E0,3.902116776E0
6.721259642E1,-5.605175495E-1,-2.570631027E1,2.210144806E1
6.727258886E1,-1.046343803E1,-1.494635677E1,-4.307816029E0
6.733258142E1,-1.037699604E1,-4.794960022E-1,5.789930820E0
6.739257395E1,-2.383619785E0,6.121192455E0,8.961348534E0
6.745256635E1,2.433257103E0,1.000271416E1,8.083560944E0
6.751255861E1,1.819093943E0,8.998439789E0,3.348125458E0
6.757255111E1,3.729887009E0,2.464628220E0,3.235127926E0
6.763254361E1,-9.853362083E0,3.043585062E0,-1.198430061E-1
6.769253614E1,-1.977211952E0,6.196702003E0,-3.255167007E-1
6.775252866E1,6.805890083E0,7.360622406E0,-7.425354481E0
6.781252160E1,1.030834007E1,5.627536297E0,-4.835226059E0
6.787251559E1,1.166889191E0,3.535842180E0,3.273518085E0
6.793250992E1,5.681165695E0,-6.107473373E-2,-1.153637886E1
6.799250425E1,-1.060275269E1,-2.149281502E1,8.194510460E0
6.805249858E1,-1.087457657E1,-9.806165695E0,8.698678970E0
6.811249251E1,4.347057343E-1,1.005463123E0,5.123970985E0
6.817248515E1,8.331465721E-1,5.852878094E0,3.100293159E0
6.823247748E1,3.305139303E0,7.235896587E0,-5.780072212E-1
6.829246994E1,3.331048012E0,1.370207310E0,-1.582406521E0
6.835246247E1,1.557892084E0,8.645644188E0,6.936969757E-1
6.841245490E1,6.532251835E-2,2.844809294E0,-1.165897369E0
6.847244750E1,-2.002816439E0,-8.850074768E0,-7.185392380E0
6.853243996E1,1.690152526E0,-6.478803635E0,-1.864063263E1
6.859243236E1,-4.781049252E0,8.398251534E-1,-1.745059967E1
6.865242462E1,2.222233057E0,-9.601493835E0,1.111073494E-1
6.871241722E1,-1.930725217E0,-1.191004467E1,4.562221527E0
6.877240968E1,-4.340968132E0,4.750938416E-1,3.609723568E0
6.883240228E1,-5.951837301E-1,-4.299691200E0,1.088467693E1
6.889236685E1,-2.870833635E0,-7.957322121E0,1.058428288E1
6.895236022E1,-6.154546738E-1,2.754545212E-1,9.837827682E0
6.901235331E1,8.842110634E0,3.580887318E0,3.470010757E0
6.907234651E1,1.018890190E1,-1.784002781E0,-5.334821701E0
6.913233957E1,6.039727211E0,-5.707151413E0,-5.540654182E0
6.919233257E1,-8.016767502E0,2.190166235E0,-9.683025360E0
6.925232487E1,-8.610388756E0,8.463628769E0,-1.295534039E1
6.931231727E1,4.922491550E0,4.542185783E0,-1.719723320E1
6.937230973E1,8.422901154E0,-8.992439270E0,7.666193008E0
6.943230229E1,-2.142236710E0,-3.138253212E0,4.343428612E-1
6.949229482E1,-2.355532646E0,-1.189732933E1,5.147548199E0
6.955228735E1,-6.459144115E0,-6.905728340E0,2.607340097E0
6.961227982E1,-7.961814404E0,-7.671699524E0,4.306465149E0
6.967227208E1,-5.448215008E0,-6.002858162E0,5.369028568E0
6.973226455E1,-2.867337227E0,2.339213371E0,1.707422733E0
6.979225708E1,2.268173695E-1,7.947523594E0,3.538278103E0
6.985224961E1,2.457458019E0,7.344768047E0,-6.271438599E-1
6.991224207E1,1.667069197E0,6.891835690E0,-5.126361847E0
6.997223550E1,6.566537380E0,-1.321840525E0,-4.623212337E0
7.003222973E1,1.492317677E0,2.664523840E0,-1.293083191E0
7.009222427E1,-7.257182121E0,3.295806170E0,-7.199450493E0
7.015221873E1,-1.200964093E0,2.876682043E0,-1.865946579E1
7.021221333E1,1.953039169E-1,-9.066126823E0,3.248263359E0
7.027220696E1,9.500416517E-1,-2.851875305E1,3.688406944E-1
7.033219963E1,-7.451619148E0,-6.131346703E0,-3.745053530E0
7.039219216E1,3.009998322E0,-7.081328392E0,-2.154599190E0
7.045218469E1,1.061496973E0,-6.443043232E0,2.756881714E0
7.051217715E1,-4.298853874E0,-2.137198448E-1,1.350500584E0
7.057216975E1,-3.057750463E0,3.547762394E0,4.194622040E-1
7.063216221E1,-1.514899492E0,3.825079203E0,-3.155848026E0
7.069215448E1,6.363463402E-1,3.621864557E0,3.517456055E-1
7.075214684E1,3.549279213E0,-6.074650884E-1,-1.074058533E0
7.081213941E1,6.452281952E0,7.628788471E0,-1.928831100E1
7.087213187E1,-7.233560085E-1,1.795868874E0,-1.471016693E1
7.093212440E1,-1.799319744E0,-2.060438919E1,6.157471657E0
7.099211693E1,4.069295883E0,-1.714313698E1,-4.127188683E0
7.105210996E1,5.078899264E-1,-1.066890049E1,-2.654995441E0
7.111210399E1,-3.267478466E0,-2.736400127E0,-9.430851936E-1
7.117209826E1,1.293804049E0,2.364333630E0,4.920492172E-1
7.123209259E1,-8.225291252E0,-8.325578690E0,4.620441914E0
7.129208692E1,-1.419987679E0,-4.269541740E0,2.530390739E0
7.135208071E1,1.933571100E-1,-4.504625797E-1,-1.267942429E0
7.141207324E1,-1.721266359E-1,-1.042682767E0,-3.744284153E0
7.147206571E1,2.079569697E-1,-5.755740404E-1,-9.593853951E0
7.153205821E1,5.267891884E0,-4.855344772E0,-8.913681984E0
7.159205074E1,9.349998474E0,1.169043159E1,-1.726153374E1
7.165204320E1,-2.761656284E0,-1.118643570E1,6.266794205E0
7.171203580E1,4.819574833E0,-1.404465389E1,-8.409559250E0
7.177202820E1,-1.792923355E1,-1.550747013E1,-5.557297707E0
7.183202056E1,-5.352388859E0,-2.259557724E0,1.062282562E0
7.189201286E1,1.403245568E0,2.593800545E0,2.058419704E0
7.195200539E1,-3.164659023E0,2.658944130E-1,4.896163940E-1
7.201199788E1,-5.212811470E0,-3.410454750E0,1.300964355E-1
7.207199048E1,-4.080925941E0,-2.066860390E1,-7.250096321E0
7.213198311E1,-1.651460290E0,-5.849207401E0,-8.628778458E0
7.219197641E1,3.801907778E0,9.036334038E0,-4.701786041E-1
7.225196954E1,-1.574966192E0,2.812466383E0,-5.818033218E0
7.231196264E1,2.700205088E0,1.967570782E0,-1.966016006E1
7.237195570E1,1.540747643E0,-1.869365692E0,-1.718073463E1
7.243194867E1,-4.443820715E-1,-1.306542015E1,6.872043610E0
7.249194100E1,-2.584368229E0,-1.817173386E1,-8.052388191E0
7.255193353E1,-6.982751369E0,-9.087476730E0,1.685628891E0
7.261192606E1,-3.182223320E0,-5.143990517E0,1.406621933E0
7.267191859E1,-1.573972225E0,-1.029559612E0,3.049748421E0
7.273191112E1,-3.327803612E-1,-4.312400818E-1,4.189720154E-1
7.279190365E1,-2.333476305E0,-2.921169758E0,-2.328605652E0
7.285189598E1,-1.244831085E-1,-2.149252892E0,-3.821690083E0
7.291188834E1,-5.022757530E0,-3.613868952E-1,-1.019695282E0
7.297188087E1,6.750519276E0,4.056448936E0,-1.670176315E1
7.303187334E1,3.933956623E0,7.205598831E0,-1.825636482E1
7.309186587E1,-1.183811426E0,-1.642448187E0,-6.056102753E0
7.315185836E1,-1.752186179E0,-1.265774918E1,1.094819546E1
7.321185183E1,-6.249387264E0,-2.304457092E1,-9.444976807E0
7.327184603E1,-8.152492523E0,-9.066097260E0,-6.407857418E0
7.333184042E1,-3.361541033E0,-9.339381218E0,-2.115135670E0
7.339183469E1,-5.112871170E0,-3.593135834E0,-3.365692616E0
7.345182905E1,1.924842238E0,3.572774887E0,2.740985870E0
7.351182235E1,9.723697901E-1,2.443446636E0,1.376996040E0
7.357181484E1,8.187855482E-1,1.687235713E0,-6.806071758E0
7.363180714E1,-8.073431015E0,-9.331214905E0,-5.621674061E0
7.369179974E1,3.595355511E0,5.859962463E0,-1.534764862E1
7.375179220E1,2.681246281E0,3.710894346E0,-9.651396751E0
7.381178473E1,2.224027872E0,-7.823517323E0,3.323195457E0
7.387177716E1,7.022237778E-2,-1.534953499E1,-6.528979301E0
7.393176973E1,-3.663262367E0,-1.007818794E1,-1.486430168E-1
7.399176206E1,-1.412478447E0,3.938980103E-1,-3.109355211E0
7.405175455E1,4.527969360E-1,-5.979033470E0,2.647166729E0
7.411174708E1,-8.770446777E0,-5.779410839E0,4.678254128E-1
7.417173961E1,-5.725617886E0,-1.018632412E0,1.049847603E-1
7.423173208E1,4.845533371E-1,2.264104605E0,-2.680716515E0
7.429172498E1,2.314905405E0,3.570587397E0,-8.470695496E0
7.435171814E1,6.056915760E0,1.091880035E1,-1.304866600E1
7.441171127E1,-9.504504204E-1,1.244156265E1,-1.248110199E1
7.447170440E1,6.146848798E-1,-1.295298386E1,3.895168304E0
7.453169747E1,2.158643723E0,-2.095428085E1,6.910829544E-1
7.459169016E1,-3.984503746E0,-8.518802643E0,-4.848419189E0
7.465168250E1,-1.859701395E0,1.617812634E0,-4.028697014E-1
7.471167499E1,-2.715142727E0,5.332464695E0,-8.926711082E-1
7.477166746E1,1.700814009E0,5.064002514E0,-8.456277847E-1
7.483166005E1,-1.348010063E0,5.200055599E0,-5.476789474E-1
7.489165252E1,-8.085724831E0,-3.229275227E0,-1.090488434E-1
7.495164505E1,-4.225810528E0,-6.329782009E-1,-3.992328644E-1
7.501163734E1,-2.691088200E0,-3.749865532E0,-4.960330486E0
7.507162974E1,6.114451885E-1,-9.283814430E-1,-1.319092751E1
7.513162220E1,1.356301904E0,-1.421315002E1,-2.828724384E0
7.519161480E1,4.913305283E0,-3.053753853E0,-1.229378319E1
7.525160726E1,1.193017125E0,-1.329334450E1,-5.943604469E0
7.531159996E1,-3.675573349E0,-1.478089714E1,-2.683241367E0
7.537159380E1,-5.415335178E0,-8.002815247E0,1.282729149E0
7.543158836E1,-2.182945728E0,-6.242537498E-1,4.745867252E0
7.549158283E1,-4.266252041E0,4.022775173E0,7.750243664E0
7.555157736E1,-1.997819424E0,9.279623032E0,3.607219696E0
7.561157172E1,2.273828030E0,4.161231518E0,3.215785027E-1
7.567156489E1,4.224869728E0,-4.038202763E0,-1.733176231E0
7.573155722E1,-7.964987755E0,-8.284719467E0,-3.434906006E0
7.579154975E1,-4.542782307E0,4.213647842E0,-9.491727829E0
7.585154228E1,3.086759567E0,6.445492744E0,-1.130504036E1
7.591153481E1,7.560828209E0,6.090276241E0,-4.572245598E0
7.597152734E1,6.523256302E0,-1.425173163E0,-2.513789654E0
7.603151977E1,1.607584476E0,-7.115140915E0,1.517604828E0
7.609151210E1,8.139969826E0,-1.506283474E1,-6.348149776E0
7.615155059E1,-7.622653008E0,-1.046689987E1,-3.437631607E0
7.621154312E1,-3.516734123E0,-8.038391113E0,5.388643265E0
7.627153559E1,-1.677578926E0,-2.400397301E0,3.951868534E0
7.633152818E1,-2.130306721E0,2.196625471E0,-2.839789391E-1
7.639152068E1,-2.403330803E-1,4.501661777E0,-1.750050068E0
7.645151421E1,3.981494904E0,5.357213020E-1,-1.138901234E0
7.651150848E1,5.025935173E0,1.864946127E0,-2.642594337E0
7.657150287E1,-1.036982536E0,3.007230043E0,-3.202915192E-1
7.663149714E1,3.388121128E-1,-3.140621185E0,-6.926652908E0
7.669149150E1,4.841976166E-1,-4.918051243E0,-9.745397568E0
7.675148470E1,2.037468910E0,-2.674499273E0,-1.936462402E1
7.681147703E1,-5.971261024E0,-2.214430428E1,9.411851883E0
7.687146936E1,7.372550011E0,-2.200771904E1,9.485071182E0
7.693146196E1,-7.858839035E0,-2.265938187E1,-1.876363754E0
7.699145442E1,3.476865530E0,-1.250160599E1,7.068791389E-1
7.705144695E1,-3.280911446E-1,-4.304619312E0,2.434253216E0
7.711143948E1,-1.826447010E0,2.917454958E0,6.929521084E0
7.717143195E1,8.934565544E0,2.577749968E0,-3.799543381E-1
7.723142421E1,4.094913483E0,-2.392516851E0,-1.181636810E1
7.729141671E1,1.215383148E1,1.657494164E1,-1.281632137E1
7.735140924E1,1.314489079E1,2.305282974E1,-4.735836983E0
7.741140177E1,7.809178352E0,1.184707260E1,-5.347722530E0
7.747139430E1,-7.397046089E0,-3.368773651E1,3.386506081E0
7.753138733E1,-1.265812016E1,-2.357465363E1,-1.157280636E1
7.759138049E1,-6.957228184E-1,-6.683695793E0,-2.640786648E0
7.765137362E1,1.523223162E0,-4.269415379E0,-7.113931656E0
7.771136675E1,-3.503557920E0,-3.324172497E0,-5.288813591E0
7.777135982E1,-4.041242599E0,2.900693893E0,-2.354310036E0
7.783135245E1,7.731839418E-1,-1.273353100E0,-5.219789505E0
7.789134475E1,-6.793148041E0,9.837772369E0,-3.014429092E0
7.795133728E1,3.420397758E0,1.562186909E1,-1.217109203E1
7.801132981E1,8.666900635E0,1.324953175E1,-6.019982815E0
7.807132240E1,2.040628910E0,-5.475626945E0,-2.585124969E-2
7.813131487E1,1.550062418E0,-2.431278801E1,-8.427144051E0
7.819130743E1,-1.582404137E1,-2.553863144E1,-5.708801746E0
7.825129969E1,4.427254677E0,-1.017240715E1,-1.208044529E0
7.831129216E1,8.427600861E-1,-3.605811119E0,-5.120129585E-1
7.837128462E1,-2.652477264E0,-5.302264690E-1,-1.798433781E0
7.843127725E1,1.383447170E0,-1.250569820E0,-1.263939857E0
7.849126972E1,4.570380211E0,1.703430414E-1,-1.707062244E0
7.855126251E1,-1.056840897E0,-3.734105825E0,2.813415527E0
7.861125634E1,1.842475653E0,5.462632179E0,-1.949654770E1
7.867125067E1,1.784200668E0,-5.262027740E0,-1.746199799E1
7.873124491E1,1.222015381E0,-1.272405624E1,7.666811466E0
7.879123930E1,3.339314461E-1,-1.186719131E1,-6.529737949E0
7.885123336E1,4.005050659E-1,-1.687209129E0,-6.551084518E-1
7.891122620E1,4.488032818E0,-6.475193501E0,7.360069752E0
7.897121853E1,5.652952194E-2,-7.361846924E0,5.002300262E0
7.903121093E1,-1.754476070E0,-6.486659050E0,5.758049965E0
7.909120339E1,3.539218426E0,-1.222972393E0,4.220876217E0
7.915119592E1,5.512376785E0,1.821518898E0,1.461738110E0
7.921118845E1,4.184383392E0,-4.232115746E-1,-4.205728531E0
7.927118098E1,2.405042171E0,3.239403963E-1,-7.731054306E0
7.933117344E1,-4.306103230E0,-5.636693001E0,-7.535405636E0
7.939116571E1,3.795068264E0,-7.526330352E-1,-6.924173832E0
7.945115817E1,3.188490868E0,-3.450144291E0,-7.658584118E0
7.951115070E1,3.495018005E0,-3.120539474E1,3.116029263E0
7.957114326E1,-7.060623169E-2,-2.321319103E0,-1.363053083E0
7.963113580E1,4.150155067E0,2.441555500E0,2.783915997E0
7.969112906E1,-2.058429241E0,-7.033505917E0,7.654375076E0
7.975112219E1,-8.558246613E0,-5.677623749E0,7.193706512E0
7.981111532E1,-2.757072926E0,4.814190865E-1,4.450477600E0
7.987110835E1,1.202057838E0,1.974893570E0,2.672820091E-1
7.993110152E1,2.274579763E0,-8.131060600E-1,-7.616498470E0
7.999109391E1,2.589588881E0,-1.759083271E-1,-1.073923206E1
8.005108645E1,2.429684162E0,4.260016441E0,-2.354363441E0
8.011107891E1,8.497273445E0,1.105558777E1,-1.196076202E1
8.017107144E1,2.265128851E0,3.507602453E0,-8.828372955E0
8.023106387E1,7.628094673E0,-2.798569679E1,1.902937412E0
8.029105647E1,-1.288347912E1,-1.254181099E1,-5.342305183E0
8.035104880E1,5.409934521E0,2.994842529E0,2.631410599E0
8.041104113E1,5.880721092E0,1.001130581E0,2.389004230E0
8.047103359E1,-3.610407829E0,-7.754259109E-1,2.932330132E0
8.053102612E1,-9.344749451E-1,-4.130578995E0,4.589112282E0
8.059101858E1,-2.036616087E0,-1.790033340E0,1.599829674E0
8.065101112E1,-2.403647900E-1,3.690488338E0,-2.448115826E0
8.071100428E1,9.476415634E0,5.026487350E0,-4.127761364E0
8.077099845E1,3.453286648E0,1.214472580E1,-2.512399864E1
8.083099298E1,3.647110939E0,6.424798489E0,-6.992759228E0
8.089098745E1,4.850212097E0,-2.605571175E1,7.337073326E0
8.095098198E1,-1.055671406E1,-2.400805855E1,-5.644921303E0
8.101097588E1,7.872314453E-1,-4.381943703E0,-1.139300346E0
8.107096864E1,1.937489986E0,4.468770027E0,2.295561790E0
8.113096100E1,-1.756261826E0,5.792114258E0,-1.460143089E0
8.119095360E1,3.648068905E0,2.634188175E0,-3.723478317E-1
8.125094607E1,4.579678535E0,-2.462782860E-1,1.224217415E0
8.131093860E1,-3.720869303E0,-1.369130850E0,-4.045968533E0
8.137093106E1,-4.783623219E-1,-2.360625029E0,5.201706886E0
8.143092356E1,-4.082068920E0,-4.079687119E0,1.807353973E0
8.149091585E1,5.960673332E0,1.073481178E1,-2.275045776E1
8.155090845E1,5.387682438E0,5.727301598E0,-1.277746201E1
8.161090091E1,-3.355625629E0,-1.987799263E1,6.788272858E0
8.167089344E1,-1.130953217E1,-2.687267685E1,-1.234529305E1
8.173088591E1,1.167176723E0,-1.069029808E1,-1.274253368E0
8.179087877E1,1.162806153E0,-1.238653421E0,1.757586479E0
8.185087264E1,-4.567527771E0,3.055522442E0,-2.025898457E0
8.191086697E1,-6.390581131E-1,4.866571426E0,-3.115286827E0
8.197086130E1,4.824951172E0,-9.889916182E-1,-9.203491211E-1
8.203085566E1,6.234000921E-1,-2.585141897E0,-2.388597488E0
8.209084966E1,-6.373263836E0,6.353552341E0,-2.867301941E0
8.215084239E1,4.801000595E0,1.230126572E1,-1.411930370E1
8.221083472E1,-1.450141668E0,-4.309859276E0,9.961795807E-2
8.227082722E1,-2.016054392E0,-1.292108536E1,-1.833887100E-1
8.233081972E1,3.956755638E0,-1.415896606E1,-9.181473732E0
8.239081215E1,-3.899815559E0,-5.757765770E0,-5.672453880E0
8.245080471E1,-2.898658514E0,-1.951224327E0,4.973995209E0
8.251079724E1,-4.159976959E0,-9.379787445E0,6.638125420E0
8.257078964E1,-1.801798105E0,-3.219081402E0,2.677307129E0
8.263078190E1,2.861214876E0,-1.987469196E0,-2.982960701E0
8.269077450E1,1.610023618E0,-2.006816387E0,-5.468483925E0
8.275076693E1,-4.948951006E-1,-2.259992361E0,-4.506862640E0
8.281075946E1,-3.271014690E0,-2.285878658E0,-2.145137787E0
8.287075199E1,-5.592665672E0,-5.442117691E0,-1.173254395E1
8.293074532E1,7.601297379E0,1.893126726E0,-2.228701591E1
8.299073839E1,7.144826412E0,2.339974403E0,-1.058371925E1
8.305073158E1,1.269924641E0,-2.057457733E1,8.358622551E0
8.311072465E1,-1.540942001E1,-1.698352051E1,2.864439964E0
8.317071768E1,4.519455135E-1,-7.573366165E0,-1.033447742E0
8.323071001E1,-2.655648232E0,-5.597966671E0,-2.454626083E0
8.329070257E1,-4.047613144E-1,-4.593615532E0,-3.023486137E0
8.335069504E1,-2.087108850E0,4.826736450E-2,-2.247477531E0
8.341068763E1,-4.808391571E0,5.509631634E0,-5.088575363E0
8.347063658E1,4.260419369E0,1.262742233E1,3.712868690E0
8.353062915E1,7.762603760E0,5.372270346E-1,-2.335691929E0
8.359062144E1,-4.145753860E0,3.531508207E0,-8.838239670E0
8.365061384E1,7.020358562E0,1.930374622E0,-1.283033371E1
8.371060627E1,-3.593369246E0,6.517846584E-1,-1.035034180E1
8.377059877E1,-4.635122120E-1,-1.465781593E1,7.072272301E0
8.383059127E1,-1.028157711E1,-2.595214653E1,-1.093820572E0
8.389058383E1,-3.473782778E0,-2.329987526E0,-3.134592533E0
8.395057703E1,4.376080990E0,-1.382895470E0,-3.184272289E0
8.401057123E1,-1.125114202E0,-4.191368580E0,-4.217904091E0
8.407056556E1,-3.274459839E0,-2.584177494E0,3.298732281E0
8.413055992E1,1.518982291E0,1.082449675E0,4.028296471E-1
8.419055422E1,-7.445335388E-3,1.570134163E0,-2.243799210E0
8.425054775E1,-2.430853367E0,-5.259480476E0,2.152944565E0
8.431054025E1,8.840130806E0,1.291836929E1,-1.352576828E1
8.437053258E1,9.969770432E0,1.309914494E1,-1.313967609E1
8.443052507E1,6.353944540E-1,-1.762324715E1,4.502096176E0
8.449051754E1,5.188741684E0,-2.257776451E1,-2.756147385E-1
8.455051013E1,-4.322686672E0,-1.679235458E1,-7.725849628E0
8.461050260E1,1.344676495E0,-3.435736656E0,-6.063461304E-1
8.467049513E1,1.401855946E0,6.549201012E-1,2.484295845E0
8.473048739E1,5.004267693E-1,-2.567008018E0,3.859874249E0
8.479047979E1,-1.100278854E0,-3.525532246E0,6.030898094E-1
8.485047225E1,2.189497948E-1,-2.565859795E0,-1.477498055E0
8.491046485E1,-1.223254442E0,-3.170328617E0,-1.201390266E0
8.497045731E1,-6.500394344E-1,-2.777944326E0,-3.900213242E0
8.503045011E1,6.149538040E0,4.278713703E0,-2.142074966E1
8.509044344E1,6.055914879E0,3.469083071E0,-1.182945824E1
8.515043664E1,1.272823811E0,-1.598649025E0,3.824916840E0
8.521042971E1,8.430019379E0,-3.407939911E1,-2.027642727E0
8.527042284E1,-9.367241859E0,-1.809325409E1,-5.865888119E0
8.533041570E1,3.303627968E-1,-8.499868393E0,2.331507683E0
8.539040796E1,7.820987701E-2,-3.056130409E0,4.633855820E-1
8.545040036E1,-2.091589451E0,3.141401291E0,1.777525902E0
8.551039293E1,3.728488684E0,1.461266279E0,7.599592209E-1
8.557038546E1,5.794153214E-1,-2.468850613E-1,2.087087631E-1
8.563037799E1,-2.526833534E0,-5.298281670E0,-7.087249756E-1
8.569037052E1,-1.796618462E0,-1.097767115E0,8.744707108E-1
8.575036285E1,9.455874443E0,7.155881405E0,-1.410693073E1
8.581035514E1,6.120985508E0,4.756520271E0,-1.375567245E1
8.587034764E1,-6.746625900E-2,-7.853458881E0,8.975842476E0
8.593034017E1,3.177194118E0,-1.365065193E1,-5.691606522E0
8.599033267E1,-8.358106613E0,-1.643057060E1,-3.448732853E0
8.605032530E1,-1.304413319E0,-1.097555733E1,5.527502060E0
8.611031896E1,-2.636307716E0,-2.036179781E0,-1.261303425E0
8.617031336E1,-1.414499283E0,-8.104186058E-1,-9.841108322E-1
8.623030783E1,2.437180996E0,1.593650103E0,-3.990650177E-2
8.629030240E1,-3.528962135E-1,1.232329249E0,-2.659363747E0
8.635029683E1,-6.756167412E-1,-3.024548292E-1,-2.067639828E0
8.641029023E1,1.056263351E1,9.610125542E0,-2.321329308E1
8.647028269E1,4.389114380E0,4.054799080E0,-1.176033211E1
8.653027522E1,3.378216743E0,-1.744583893E1,4.827931404E0
8.659026768E1,-2.618876839E1,-2.390910721E1,-5.077447891E0
8.665026028E1,3.631975889E0,-5.936512947E0,-2.846303940E0
8.671025274E1,5.032849789E0,-2.495244980E0,-5.686059952E0
8.677024524E1,3.700929165E0,3.210749149E0,-4.837758064E0
8.683023757E1,-5.670548916E0,1.460902214E0,-1.475821495E0
8.689022994E1,-1.630425453E-1,3.077314854E0,6.177554131E-1
8.695022243E1,-8.473172188E-1,3.926298618E0,1.910426617E0
8.701021496E1,8.117930889E-1,4.478148937E0,4.348635674E0
8.707020749E1,7.556970119E-1,-4.288068414E-1,-8.775053978E0
8.713020002E1,2.065185547E0,4.215812683E0,-2.162514305E1
8.719019336E1,-2.746123552E0,-1.522003460E1,1.006328964E1
8.725018745E1,8.985337257E0,-3.327416229E1,-7.903691769E0
8.731018178E1,-1.013769150E1,-1.530379200E1,-2.260405540E0
8.737017611E1,9.736261368E0,-4.971507072E0,7.329301834E-1
8.743017044E1,6.249676704E0,-1.891179562E0,-6.437788010E-1
8.749016387E1,-6.838008404E0,-2.649539471E0,1.239970207E0
8.755015641E1,2.043587685E0,1.016113043E0,6.745577812E0
8.761014870E1,-1.260345268E1,-3.011430025E0,3.485785007E0
8.767014123E1,4.662561417E-2,2.238249183E-1,3.485488892E-2
8.773013370E1,2.178608418E0,5.068503380E0,-2.223716545E1
8.779012629E1,4.478537560E0,5.525687337E-2,-1.423293781E1
8.785011876E1,7.419443130E0,-4.196692944E0,2.871222973E0
8.791011132E1,-1.147027493E0,-2.782341385E1,-5.688558578E0
8.797010358E1,-2.864706993E0,-1.393378544E1,6.785210609E0
8.803009608E1,1.102260017E1,-6.271903038E0,8.272830963E0
8.809008854E1,7.336881638E0,1.541357994E0,4.887708664E0
8.815008114E1,-9.720325470E-3,4.050615788E0,4.612335682E0
8.821007360E1,4.908905029E-1,4.690295219E0,1.004128456E-1
8.827006647E1,1.011106014E0,3.858473539E0,-8.570728302E-1
8.833005963E1,-1.664021969E0,-6.739624023E0,-3.204350710E0
8.839005276E1,-4.169416428E-1,-1.160605049E1,-6.333529472E0
8.845004586E1,1.288504124E0,-2.286896706E0,-2.153001785E0
8.851003909E1,1.339701653E0,-8.534814835E0,-3.344917297E-1
8.857003189E1,8.962712288E0,-3.582037449E0,-8.996139526E0
8.863002422E1,2.025791645E0,-5.441570282E0,-3.891185999E0
8.869001675E1,1.294205952E1,-5.840212822E0,-7.129991055E0
8.875000931E1,-5.035080910E-1,-7.426482201E0,7.157240391E0
8.881000175E1,-3.510863781E0,-3.985676765E0,1.416415596E1
8.886999428E1,-5.353222847E0,1.130854607E0,6.313358784E0
8.892998680E1,-1.155996323E0,5.951370239E0,5.679666042E0
8.898997914E1,4.809316158E0,4.517076015E0,8.341293335E-1
8.904997143E1,4.020996094E0,2.216634512E0,-3.513149500E0
8.910996390E1,-1.125061512E0,-4.143836021E0,2.102985382E0
8.916995643E1,-2.092025280E0,-3.324826241E0,-5.279276848E0
8.922994896E1,-3.069734573E-2,-1.007609487E0,-4.154729843E0
8.928994156E1,3.629855394E0,3.660348892E0,-4.933736801E0
8.934993529E1,5.926196098E0,3.094974041E0,-8.388548851E0
8.940992968E1,4.994351387E0,1.926045775E0,-1.544863987E1
8.946992395E1,1.748050928E0,-5.198989391E0,4.101628304E0
8.952991831E1,-7.825349808E0,-2.737571716E1,1.146366596E1
8.958991248E1,1.113836765E0,-1.321335602E1,3.755265236E0
8.964990561E1,4.404382706E-1,-3.647912979E0,3.895073891E0
8.970989790E1,1.995383263E0,6.991991997E0,2.314713001E0
8.976989034E1,2.271333694E0,8.963634491E0,8.526363373E-1
8.982988277E1,4.174680710E0,6.663051605E0,9.806461334E-1
8.988987533E1,3.434850693E0,8.038438797E0,2.140629292E0
8.994986776E1,-2.083207130E0,2.086728573E0,3.391839504E0
9.000986032E1,-9.579324722E-1,-5.222518921E0,-1.621956348E0
9.006985279E1,-3.967151165E0,-5.056045532E0,-4.492618561E0
9.012984515E1,1.402441692E1,5.830708027E0,-2.258469772E1
9.018983762E1,8.022003174E0,1.047060639E-1,-9.330845833E0
9.024983014E1,-2.515144348E0,-1.108348179E1,8.377416611E0
9.030982261E1,1.068706894E1,-2.773623848E1,1.860810757E0
9.036981511E1,-8.123968124E0,-1.025909424E1,-3.021586895E0
9.042980817E1,-8.737735748E-1,-3.630540133E0,2.650822639E0
9.048980140E1,2.657739162E0,5.102540493E0,1.759350777E0
9.054979453E1,5.130860806E0,4.054838181E0,-2.075915813E0
9.060978760E1,6.932102203E0,-3.651512146E0,-2.442226410E-1
9.066978073E1,3.938656330E0,-3.530824900E0,-1.827520847E0
9.071980624E1,-2.526979208E0,1.303925705E1,1.013802433E1
9.077979857E1,8.003062248E0,1.489505005E1,-1.561754799E1
9.083979096E1,8.192763329E0,8.045854568E0,-1.009237576E1
9.089978356E1,-3.130321503E-1,-1.965814400E1,3.959976196E0
9.095977606E1,-1.401028633E0,-2.380583954E1,-1.438290024E1
9.101976872E1,2.744611740E0,-5.745305538E0,-3.549694538E0
9.107976119E1,1.990664124E0,-7.468039513E0,-9.810228348E-1
9.113975355E1,-1.525875092E0,-6.591608047E0,7.119798660E-1
9.119974588E1,-4.614728928E0,-1.753503680E0,-2.861450672E0
9.125973845E1,-1.303122044E0,-6.330208778E-1,-5.504946709E-1
9.131973084E1,2.618129253E0,1.908746958E0,-2.774712563E0
9.137972337E1,3.605652094E0,3.104493380E0,-2.831993580E0
9.143971610E1,4.457193375E0,-9.237594604E-1,-6.575870514E0
9.149971004E1,2.978711128E0,-2.453052282E0,-1.337293434E1
9.155970443E1,4.187734604E0,2.966419458E0,-1.822710228E1
9.161969897E1,2.734920979E0,-1.098987198E1,-6.847459316E0
9.167969350E1,-9.532632828E0,-2.089824486E1,1.786083412E1
9.173968783E1,-7.657012939E0,-1.566767979E1,-8.883140564E0
9.179968090E1,2.781669140E0,-8.028681755E0,-3.380716801E0
9.185967326E1,4.452440739E0,-1.490934849E1,-6.229045391E0
9.191966579E1,-5.421591282E0,-9.950825691E0,-2.863239765E0
9.197965832E1,-2.654770374E0,-1.611228228E0,-1.334681988E0
9.203965088E1,2.030434608E0,2.691080570E0,-5.334100723E-1
9.209964342E1,9.920363426E-1,6.219827175E0,-2.349641323E0
9.215963598E1,-3.346693516E0,-1.938095570E0,1.904533386E0
9.221962821E1,1.149116802E1,1.476503658E1,-1.189290333E1
9.227962067E1,3.520938873E0,6.364981174E0,-1.148818398E1
9.233961310E1,-3.868049860E0,-2.158509445E1,6.343270302E0
9.239960560E1,-2.766586304E0,-2.581264114E1,-8.478670120E-1
9.245959807E1,-3.593072176E0,-1.743735695E1,-3.514938354E0
9.251959073E1,-7.745556831E-1,-4.196229458E0,-3.240396976E0
9.257958426E1,9.820053577E-1,-8.781099319E-2,-2.978572845E-1
9.263957863E1,-5.291123390E-1,-7.336943150E-1,-3.262519836E-2
9.269957292E1,-1.113339424E1,-7.920480251E0,1.176774025E0
9.275956732E1,-8.607834816E0,-1.628682494E0,1.212284088E0
9.281956155E1,-1.175994301E1,-2.330387831E0,-3.355080605E0
9.287955468E1,-2.039799213E0,-9.004270554E0,-2.304925919E-1
9.293954698E1,-7.421473503E0,-5.003511906E-1,-5.693413258E0
9.299953948E1,-2.954429150E0,-7.383960247E0,-1.845927048E1
9.305953194E1,-4.616488934E0,-6.336674213E0,-2.149682045E1
9.311952450E1,-4.218082428E0,-1.645155334E1,-5.539708138E-1
9.317951703E1,-1.137550545E1,-3.032683945E1,8.461133003E0
9.323950956E1,-1.751030350E1,-1.164986038E1,1.500069332E1
9.329950193E1,-4.256614208E0,-2.793169975E0,1.666436005E1
9.335949419E1,7.328865528E-1,-3.397114754E0,3.678200245E0
9.341948662E1,2.440874815E0,-7.510490417E-1,3.124011993E0
9.347947915E1,1.806592464E0,5.028963089E-2,-3.539430141E0
9.353947168E1,-3.206966400E0,-1.462503433E0,3.646425247E0
9.359946415E1,-5.749096870E0,2.948715687E0,-2.622566700E0
9.365945728E1,-4.257844925E0,3.385582924E0,-3.477191448E0
9.371945041E1,-4.061324596E0,8.840768814E0,-7.443238735E0
9.377944354E1,-5.691718102E0,3.939004421E0,-1.176909065E1
9.383943667E1,8.366727829E-1,7.320030689E0,-7.380708694E0
9.389942987E1,1.794616699E0,-4.885408401E0,1.288627338E1
9.395942240E1,-3.695937395E0,-4.858193398E0,7.147455215E0
9.401941486E1,-8.568857193E0,-2.293785858E1,2.550942421E0
9.407940732E1,-7.434048653E0,-1.149451828E1,1.335386753E0
9.413939986E1,-7.690916061E0,-1.078694820E0,-4.047369957E-1
9.419939232E1,-5.035953522E0,-8.437786102E-1,-1.661381721E-1
9.425938492E1,-8.625781059E0,-7.357059002E0,-4.625968933E-1
9.431937731E1,-3.865925550E0,-3.360795975E0,-1.646761894E0
9.437936971E1,7.822666168E-1,2.883526325E0,-2.519902229E0
9.443936211E1,5.224977493E0,5.281728745E0,-2.317966461E0
9.449935467E1,1.394408941E0,4.155259132E0,-6.399579525E0
9.455934714E1,-2.501467943E0,6.290893555E0,-8.439266205E0
9.461933973E1,9.601902962E-2,1.217427254E1,-1.246562672E1
9.467933250E1,2.800580263E-1,-1.833461821E-1,-1.200537682E0
9.473932643E1,-1.050902724E0,-4.274007416E1,2.060721397E0
9.479932072E1,-8.796184063E-1,-2.528306580E1,-6.990818977E0
9.485931506E1,-5.197482586E0,-3.359129906E0,-1.384305477E0
9.491930932E1,4.161573410E0,-1.306496143E0,-1.665161610E0
9.497930335E1,6.726145744E-1,2.334119797E0,-1.559500217E0
9.503929615E1,-1.611892700E0,-1.111043215E0,-1.555749416E0
9.509928851E1,-4.767982960E-1,-2.061836243E0,4.554653168E-2
9.515928111E1,3.964776993E-1,-1.319313765E0,-1.502723694E-1
9.521927357E1,-1.600526571E0,-4.605166018E-1,-3.387981415E0
9.527926610E1,-1.044330835E0,-5.028362274E-1,-1.945676804E0
9.533925863E1,3.141762018E0,5.867647648E0,-1.595690727E1
9.539925113E1,3.303784609E0,5.694389343E-1,-1.528494263E1
9.545924346E1,3.195376396E-1,-7.162893295E0,4.114097595E0
9.551923586E1,5.834092617E0,-1.524292660E1,-6.581283569E0
9.557922826E1,-9.528089523E0,-1.780755234E1,-3.744920492E0
9.563922082E1,-4.091938972E0,-5.898898602E0,2.509751797E0
9.569921328E1,-1.346532822E0,-1.181125164E0,3.064360142E0
9.575920582E1,-4.889836311E0,9.172677994E-2,1.587948322E0
9.581919902E1,2.296568632E0,-2.383969307E0,1.325839043E0
9.587919228E1,1.991643548E0,-5.654276371E0,-5.546438217E0
9.593918538E1,-4.232800007E-1,-7.604715824E-1,-3.179931641E0
9.599917857E1,-1.993179321E0,-1.262503266E0,2.353868484E0
9.605917157E1,-1.162651062E0,-1.669674635E0,-1.585186577E1
9.611916407E1,3.819041967E0,2.668465614E0,-1.837573433E1
9.617915643E1,6.404056549E0,1.967639804E0,-8.494532585E0
9.623914890E1,5.758686066E-1,-3.534097910E0,3.840964317E0
9.629914136E1,4.307283401E0,-2.057052231E1,-4.345890999E0
9.635913389E1,-7.528659821E0,-1.510106182E1,-9.902577400E-1
9.641912629E1,-3.366717339E0,-5.409418583E0,4.767122269E-1
9.647911872E1,1.906213760E0,-2.324230194E0,4.949451447E0
9.653911112E1,-7.435579300E-1,9.749693871E-1,3.747276783E0
9.659910358E1,2.068766117E0,1.743810177E-1,1.367026329E0
9.665909611E1,2.955923557E0,1.489992142E-1,-1.872972488E0
9.671908861E1,1.396283627E0,1.930495858E0,-3.964223862E-1
9.677908114E1,-4.668636322E-1,-4.464226961E-2,-2.290330887E0
9.683907430E1,-7.917078972E0,-9.032440186E0,-4.109389782E0
9.689906857E1,6.871467590E0,5.478569031E0,-1.008993816E1
9.695906283E1,8.144986629E-1,-2.314698219E0,-9.768948555E0
9.701905723E1,2.983314991E0,-3.806061506E0,-4.866997719E0
9.707905152E1,-8.214117050E0,-1.213183212E1,-7.096447945E0
9.713904516E1,-4.059587955E0,-7.079228878E0,-5.099274158E0
9.719903762E1,1.138897705E1,-1.005594444E1,7.784351349E0
9.725903005E1,3.461203098E0,-5.546205044E0,5.955262184E0
9.731902248E1,-5.692782402E0,8.444790840E-1,7.699690342E0
9.737901504E1,-2.330403328E-1,5.238749981E0,6.934580326E0
9.743900751E1,2.995015621E0,-3.143715858E0,-1.994746685E0
9.749900017E1,-5.485138893E-1,-5.769232273E0,-8.256558418E0
9.755899260E1,-1.303460598E0,-6.504533291E0,-8.696388245E0
9.761898507E1,3.704761982E0,4.107417583E0,-1.382118225E1
9.767897736E1,3.548874378E0,3.841743946E0,-7.981597424E0
9.773896993E1,7.786226749E0,4.682889462E0,4.640908241E-1
9.779896226E1,1.904931545E0,-3.662533283E0,8.977134705E0
9.785895479E1,6.837384224E0,-7.102002144E0,-4.148914814E0
9.791894748E1,-6.827271461E0,-1.375394630E1,2.589397192E0
9.797894078E1,-6.612920761E-2,-8.113368034E0,3.216266870E0
9.803890474E1,-1.415519238E0,-2.414912224E0,2.243755579E0
9.809889791E1,-1.469471455E0,-4.744539261E-1,1.422381639E0
9.815889104E1,4.301148415E0,-1.092555523E0,1.810227871E0
9.821888384E1,3.900243044E0,-2.105329275E0,-2.470239639E0
9.827887617E1,3.487833261E0,2.766412735E0,-1.358732224E0
9.833886873E1,2.039099932E0,4.620660782E0,-1.856473446E0
9.839886123E1,-2.645050526E0,-3.275622606E0,1.124532700E0
9.845885369E1,3.043653727E0,-4.414221764E0,-1.511891937E1
9.851884629E1,1.857907295E0,-1.284152269E0,-1.778497314E1
9.857883875E1,5.403796196E0,-2.966713428E0,2.808690071E-1
9.863883108E1,4.061680794E0,-1.925798416E1,4.196768761E0
9.869882335E1,-1.348928547E1,-9.875703812E0,-9.666366577E-1
9.875881584E1,-6.709098816E-1,-8.502031326E0,4.402583122E0
9.881880831E1,-6.092775822E0,-5.171434402E0,2.190968037E0
9.887880090E1,-2.725687027E0,-6.781206131E-1,2.481113911E0
9.893879337E1,7.275874615E0,2.348560572E0,3.580914974E0
9.899878703E1,8.286444664E0,2.060802460E0,7.792510986E-1
9.905878146E1,-2.443764687E0,4.559596062E0,-9.611892700E-2
9.911877606E1,-5.546137810E0,2.715168715E0,-5.893515587E0
9.917877053E1,-4.094429970E0,-2.118919373E0,-6.687260628E0
9.923876510E1,8.481519699E0,-7.902577400E0,-2.407691479E0
9.929875849E1,5.221920013E0,-2.989435196E-2,-1.454433060E1
9.935875096E1,5.697344303E0,-1.436228037E0,-7.812467575E0
9.941874339E1,-4.785132885E0,-2.085563660E1,4.716873169E-1
9.947873598E1,-1.360069847E1,-8.154379845E0,3.408512592E0
9.953872845E1,-6.768153667E0,-6.701618195E0,8.311906815E0
9.959872101E1,-5.124640465E0,-1.110641956E0,2.107723236E0
9.965871354E1,6.919381618E-1,1.099573612E0,-5.872488022E-1
9.971870591E1,1.337484837E0,3.151273727E0,-3.509384632E0
9.977869817E1,7.159261107E-1,2.663780689E0,-5.319233894E0
9.983869067E1,-1.075269699E0,1.556416273E0,-1.034562111E1
9.989868317E1,5.448436737E0,2.950407267E-1,-1.758446121E1
9.995867570E1,-1.062836552E1,-1.174307060E1,-5.522375107E-1
1.000186683E2,-7.258744240E-1,-7.586601734E0,5.136123657E0
1.000786616E2,4.246050835E0,-1.688542175E1,3.390048504E0
1.001386558E2,-1.609719086E1,-1.230053425E1,-6.604421139E0
1.001986501E2,-5.223611832E0,3.165646076E0,1.270631790E0
1.002586444E2,1.026194096E-1,1.693415165E0,6.329350471E-1
1.003186386E2,-1.738907337E0,1.515719891E0,2.736275196E0
1.003786322E2,-5.199653149E0,-1.769092560E0,2.408099174E0
1.004386246E2,-6.110628605E0,-1.100865602E0,-5.494452953E0
1.004986170E2,-4.110158920E0,2.144798040E0,-7.918959141E0
1.005586094E2,-8.763465881E-1,6.526792049E-1,-1.595623207E1
1.006186020E2,1.069983864E1,3.083381176E0,-2.074701118E1
1.006785945E2,1.141182709E1,4.728674889E0,-9.785026550E0
1.007385871E2,4.968136787E0,-2.086908817E0,1.154474258E0
1.007985796E2,1.894003868E0,-3.792340469E1,-4.251403809E-1
1.008585719E2,-2.123536110E0,-1.902544403E1,1.118958950E0
1.009185642E2,4.249302864E0,-4.505306244E0,2.362172127E0
1.009785568E2,6.341212273E0,7.214064598E-1,1.201777458E-1
1.010385492E2,1.424468517E0,5.297437668E0,-1.534054279E0
1.010985418E2,1.746615410E0,2.096534014E0,1.509947777E-1
1.011585346E2,4.905045509E0,2.598616838E0,-1.535282135E-1
1.012185279E2,-3.840045452E0,5.369240284E0,-1.646900177E-1
1.012785210E2,-1.113783836E1,-2.691252232E0,-1.194332600E0
1.013385141E2,-9.067966461E0,-5.737496376E0,-4.996385574E0
1.013985072E2,1.186242962E1,-5.393457890E0,-1.006783867E1
1.014585001E2,5.658825874E0,-7.103514671E-2,-1.004873943E1
1.015184924E2,-2.145031214E0,-6.866952419E0,-3.528602123E0
1.015784848E2,4.809708595E-1,-1.251342869E1,-8.562828064E0
1.016384773E2,-3.796660662E0,-1.984779930E1,-7.588400841E-1
1.016984699E2,-3.317068577E0,-6.245099545E0,3.341125965E0
1.017584624E2,-3.654335976E0,-1.300928593E0,6.732359409E0
1.018184548E2,-1.399736404E0,1.576878309E0,2.431895256E0
1.018784473E2,-6.042170525E-1,4.459526539E0,3.747110367E-1
1.019384396E2,-7.021956444E-1,1.483223438E0,-2.210414410E0
1.019984321E2,-1.711926460E-1,-1.286320329E0,-4.488614559E0
1.020584245E2,-4.065500736E0,-4.494402409E-1,-4.083564758E0
1.021184171E2,-1.470613718E0,1.809607267E0,-5.036087990E0
1.021784097E2,7.772475719E0,2.471813679E0,-1.449581718E1
1.022384035E2,1.343724823E1,-7.116109371E0,-8.231291771E0
1.022983979E2,3.587843657E0,-8.933733940E0,-1.350555420E0
1.023583924E2,-2.266856432E0,-2.348545456E1,5.945777893E-1
1.024183869E2,-8.063232422E0,-1.414401722E1,-1.278859138E1
1.024783814E2,6.409244537E-1,-1.072487640E1,-2.511473894E0
1.025383746E2,1.906633377E-1,-3.374620914E0,1.402801895E1
1.025983671E2,-8.035840988E0,1.834548473E0,5.384158611E0
1.026583596E2,5.610185146E0,5.794625282E0,4.443353653E0
1.027183521E2,4.532214642E0,5.440605164E0,1.672067642E-1
1.027783446E2,1.505825043E0,-4.262506962E-1,-5.339718819E0
1.028383371E2,-3.738749027E0,-6.535099030E0,-6.512113571E0
1.028983297E2,1.810681939E0,-5.909536362E0,-4.904983521E0
1.029583220E2,3.442630291E0,5.720669746E0,-6.966230869E0
1.030183144E2,6.747676849E0,6.223339438E-1,-9.240180016E0
1.030783068E2,2.592199802E0,-1.002450085E1,-3.202906132E0
1.031382994E2,5.851771355E0,-1.155334091E1,-2.535531998E0
1.031982919E2,-1.069941521E1,-8.955904007E0,-3.097402811E0
1.032582844E2,-8.256764412E0,-1.207585716E1,-4.587248802E0
1.033182778E2,-6.016099453E0,-4.728125095E0,1.274782944E1
1.033782721E2,2.188420296E0,-7.190680504E-1,2.118134499E0
1.034382663E2,2.530064821E0,5.339367390E-1,1.528379440E0
1.034982607E2,6.359893799E0,3.657973289E0,-2.674323082E0
1.035582550E2,5.839244843E0,1.966084242E-1,-5.347004890E0
1.036182484E2,2.178348541E0,-2.683106661E-1,-8.983622551E0
1.036782408E2,3.507096767E-1,3.784962654E0,-8.849392891E0
1.037382332E2,3.250191450E0,6.434065342E0,-6.663576603E0
1.037982257E2,1.045960188E0,-6.796254635E0,2.723253250E0
1.038582183E2,2.754651546E0,-1.980541229E1,-9.381198883E0
1.039182107E2,-1.438270855E1,-3.210294724E0,-4.476642609E0
1.039782033E2,3.621868849E0,-2.272358418E0,2.050995350E0
1.040381958E2,6.910641670E0,-4.718733788E0,4.649491310E0
1.040981881E2,-8.518156052E0,-6.352561951E0,7.452583790E0
1.041581805E2,-1.280121326E0,-1.078349113E0,4.506649971E0
1.042181730E2,4.893394947E0,1.734493732E0,-8.671998978E-2
1.042781655E2,-7.150125504E-2,-1.058853626E0,-1.089972019E1
1.043381582E2,-2.104438782E0,-6.868000031E-1,-7.906733036E0
1.043981512E2,3.951012611E0,7.392466068E0,-1.231338120E1
1.044581443E2,1.120287132E1,1.110376930E1,-1.023108959E1
1.045181375E2,2.172146797E0,-2.166534901E0,-7.355594635E-1
1.045781306E2,1.779010296E-1,-1.069840813E1,6.345338821E0
1.046381236E2,7.887354851E0,-1.536686134E1,-3.091699123E0
1.046981163E2,-6.488466263E0,-9.849652290E0,-1.668829918E0
1.047581086E2,-1.304698467E0,-8.336067200E-1,1.160265446E0
1.048181012E2,1.616852999E0,4.202159882E0,7.679934502E-1
1.048780937E2,7.837491035E-1,-2.656367779E0,5.757409096E0
1.049380861E2,-9.324965477E-1,-2.633208513E0,4.462807655E0
1.049980787E2,1.704807520E0,-9.741265774E-1,1.821088314E0
1.050580712E2,-1.858130455E0,-4.189743996E-1,-3.759748936E0
1.051180636E2,-6.988143921E-1,2.341282129E0,-6.520173073E0
1.051780559E2,1.856616020E0,2.028866768E0,-9.025665283E0
1.052380485E2,4.359717846E0,1.299481034E0,-9.129047394E-2
1.052881242E2,2.016611338E0,9.785901308E-1,-8.677320480E0
1.053481168E2,5.661145210E0,-1.489568472E0,-1.361248112E1
1.054081093E2,2.742945433E0,-1.254739571E1,7.970371246E-1
1.054681029E2,-6.205850601E0,-2.261365128E1,6.513666630E0
1.055280971E2,-2.759218693E0,-4.026513100E0,4.962663651E-1
1.055880915E2,1.767488241E0,2.068420410E0,1.785453796E0
1.056480858E2,3.058339596E0,3.555914879E0,1.267563820E0
1.057080800E2,-1.403584957E0,-3.910757542E0,8.233218193E-1
1.057680732E2,-3.742746830E0,-4.639251709E0,3.062636852E0
1.058280656E2,-2.540326595E0,2.086544037E-1,8.856163025E-1
1.058880579E2,6.397767067E-1,2.477547884E0,-1.109423637E0
1.059480505E2,4.486723900E0,9.495718956E0,-5.296630859E-1
1.060080430E2,6.636825562E0,8.527463913E0,1.385999680E0
1.060680355E2,6.283623695E0,4.065130234E0,-9.109020233E-2
1.061280280E2,-1.924197197E0,2.463172674E0,-5.950942993E0
1.061880205E2,-2.568228960E0,-2.889058113E0,-2.303460312E1
1.062480129E2,5.442273617E0,-3.784298658E0,3.426632881E0
1.063080053E2,1.752489090E1,-2.693810844E1,-6.242173672E0
1.063679979E2,-4.504541874E0,-4.879084110E0,-9.482309341E0
1.064279903E2,-2.779961586E0,-4.668170452E0,1.327366352E0
1.064879829E2,1.046383095E1,2.804456949E0,-1.711757660E0
1.065479758E2,-2.283318520E0,-7.040910721E-1,8.694204330E0
1.066079690E2,-4.954468727E0,-3.780369282E0,3.560029030E0
1.066679621E2,6.525940895E-1,-4.615898132E0,1.615858078E-1
1.067279553E2,6.669954300E0,2.357046604E-1,-2.872962952E0
1.067879484E2,2.770254850E0,5.491732121E0,-8.379898071E0
1.068479410E2,2.049794197E0,1.345634842E1,-1.566182899E1
1.069079333E2,1.213295174E1,7.038256168E0,-1.335702705E1
1.069679258E2,-4.197573662E-1,-1.084559917E1,4.767450333E0
1.070279183E2,8.155086040E-1,-2.354006386E1,2.308869362E0
1.070879109E2,-6.843299389E0,-1.564545727E1,-4.082134247E0
1.071479034E2,1.504054785E0,-5.784073353E0,-3.024716377E-1
1.072078959E2,4.814494133E0,9.653215408E-1,5.748746872E0
1.072678882E2,9.883229733E-1,2.400799990E0,9.919457436E-1
1.073278806E2,-3.263947964E0,-1.636977434E0,9.027519226E-1
1.073878730E2,1.829862595E-2,-1.634477615E0,4.525739670E0
1.074478656E2,-2.292672396E0,-2.066789865E0,6.959056854E-1
1.075078581E2,-1.569590330E0,-3.856655121E0,-1.386203766E-1
1.075678508E2,1.925450325E0,-9.938000679E0,-9.155809402E0
1.076278448E2,7.060599804E0,3.539123535E0,-2.515474319E1
1.076878392E2,1.671490669E-1,3.199130058E0,-9.890799522E0
1.077478338E2,-2.738824368E0,-9.942931175E0,8.339045525E0
1.078078283E2,5.281946182E0,-1.990855980E1,-5.106842518E0
1.078678226E2,-1.357862091E1,-1.015417099E1,-1.927872658E0
1.079278156E2,-2.728697777E0,-3.387188911E0,3.107028008E-1
1.079878081E2,-3.199795246E0,1.321507931E0,4.065508842E-1
1.080478005E2,-2.462192059E0,1.280316353E0,1.145377159E0
1.081077931E2,6.248223782E-1,-3.057823181E0,-9.989695549E-1
1.081677855E2,-2.039471865E0,3.400146961E-1,-3.995019913E0
1.082277781E2,2.805936813E0,4.495362759E0,-9.371633530E-1
1.082877706E2,7.181615829E-1,6.985985756E0,5.710794449E0
1.083477630E2,1.768167973E0,5.730503559E0,9.001550674E-1
1.084077554E2,-3.418087959E-3,3.913606644E0,-6.418388367E0
1.084677479E2,2.914581537E0,3.388678074E0,-1.800025558E1
1.085277403E2,8.020213842E-1,-1.016699219E1,-2.551136208E1
1.085877329E2,-1.355544806E0,-3.551792908E1,-6.003937721E0
1.086477255E2,-2.566726685E0,-2.385298538E1,-1.612545967E1
1.087077191E2,-3.550413847E0,-1.520733356E1,3.161320686E0
1.087677135E2,-2.556600571E-1,-1.151019001E1,1.367466927E0
1.088277078E2,-2.601292133E0,-3.438660383E0,7.384929657E-1
1.088877021E2,6.011652946E-1,3.973850965E0,2.497720718E-1
1.089476963E2,4.971103668E-1,2.849923611E0,2.864464760E0
1.090076894E2,9.786887169E-1,2.747519016E0,2.037838459E0
1.090676817E2,1.803782940E0,2.169875145E0,-2.827045441E0
1.091276742E2,4.544615746E0,5.247127533E0,-4.258947372E-1
1.091876667E2,3.078595877E0,3.019989014E0,-8.611896515E0
1.092476592E2,1.393276215E0,-2.620970726E0,-2.603530407E0
1.093076517E2,2.577187777E0,-4.879093647E0,-3.817560673E0
1.093676442E2,4.519493103E0,-1.755015373E1,-3.562839985E0
1.094276366E2,-9.219058990E0,-1.376263809E1,-5.444770813E0
1.094876290E2,-2.285731316E0,-9.373109818E0,2.752465725E0
1.095476214E2,5.059374332E0,-7.398196220E0,4.620051861E0
1.096076139E2,4.059714794E0,-3.923193693E0,3.125088692E0
1.096676065E2,1.559147835E0,-1.906865954E0,2.599415779E-1
1.097275991E2,3.202576160E0,-4.551517010E0,-3.548880100E0
1.097875921E2,9.251282215E-1,-1.120630836E1,-7.172498703E0
1.098475854E2,2.546721458E0,-6.058210850E0,-8.173515320E0
1.099075784E2,1.117417622E1,5.582170486E0,-6.266058445E0
1.099675715E2,-4.493296623E0,2.844020367E0,-1.419218636E1
1.100275646E2,-1.209546566E0,-1.828037858E0,-5.329525948E0
1.100875572E2,3.137410402E0,-2.829597712E0,-1.040868282E0
1.101475496E2,8.983835220E0,-2.820264339E0,1.971633434E0
1.102075422E2,-6.652850628E0,-1.915726089E1,1.814886093E0
1.102675346E2,-9.496285439E0,-1.129449272E1,1.044370651E0
1.103275272E2,-4.705905914E0,-2.363326550E0,-9.502158165E-1
1.103875196E2,-2.956223011E0,-9.326205254E-1,-3.751228094E0
1.104475121E2,-2.439554214E0,-1.146319866E0,-4.153913021E0
1.105075044E2,2.298803329E-1,1.003544331E0,-8.251043320E0
1.105674969E2,-3.150858879E0,-7.879418373E0,8.470972061E0
1.106274894E2,-3.545334816E0,2.601600647E0,-8.083260059E-1
1.106874819E2,-2.956752777E-1,6.046542525E-1,-2.155827522E0
1.107474743E2,1.000526142E1,-2.086436510E0,-6.712011814E0
1.108074672E2,9.300655365E0,-5.736878514E-1,-9.952310562E0
1.108674612E2,3.200033188E0,2.358948469E0,-4.435262680E0
1.109274556E2,-7.712167263E0,8.716765404E0,-7.181516171E0
1.109874499E2,2.399041891E0,8.832767487E0,-5.520076752E0
1.110474442E2,3.775527000E0,-1.122227550E0,-1.243975163E1
1.111074382E2,1.519474030E0,-2.967740822E1,-7.993867397E0
1.111674309E2,1.247601128E1,-1.534110641E1,-1.410375023E1
1.112274232E2,5.812522888E0,-2.021232605E1,-6.820690155E0
1.112874156E2,4.146247864E0,-9.550350189E0,6.764691353E0
1.113474082E2,6.090501785E0,-1.171802330E1,1.743193436E1
1.114074006E2,4.853273392E0,-7.584741592E0,2.099736595E1
1.114673931E2,3.787873507E0,-5.734766006E0,2.111183548E1
1.115273856E2,-3.044696808E0,-1.492309570E0,1.859988022E1
1.115873781E2,-2.125638485E0,6.811523438E-2,6.074749470E0
1.116473704E2,4.396586418E0,-2.157911777E0,-7.122262955E0
1.117073629E2,6.284516811E0,-6.282495499E0,-1.028137207E1
1.117673554E2,4.555208206E0,-7.693356991E0,-1.003682232E1
1.118273479E2,4.269614697E0,-1.251438379E0,-6.564933300E0
1.118873405E2,2.489968061E0,2.955336809E0,-2.184311390E0
1.119473338E2,2.425062418E0,-1.922425747E0,2.628677368E0
1.120073269E2,2.529304504E0,1.625803947E0,4.615150928E0
1.120673201E2,-2.658987045E-1,4.134077072E0,1.054402828E0
1.121273132E2,9.721796513E-1,3.853050947E0,-3.284918308E0
1.121873062E2,2.460040092E0,3.076463938E0,-1.057843781E1
1.122472986E2,6.648088932E0,1.751899958E0,-5.001494408E0
1.123072910E2,3.959366322E0,-3.229725647E1,-3.782890320E0
1.123672836E2,-7.615460873E0,-6.420827389E0,-2.290052795E1
1.124272761E2,9.288867950E0,-2.569774818E1,6.115776539E0
1.124872686E2,7.663406849E0,2.026176453E-1,1.339714146E1
1.125472611E2,1.114766788E1,2.675441265E0,1.670578575E1
1.126071580E2,-1.084071279E0,4.528945446E0,9.994297981E0
1.126671504E2,-1.182670879E1,6.165626049E0,2.692519665E0
1.127271429E2,-1.119309616E1,1.316649437E0,-1.201278329E0
1.127871354E2,-1.266371727E0,-1.448821068E0,4.375427365E-1
1.128471280E2,2.257740498E0,-8.314435959E0,2.149259090E0
1.129071204E2,4.604307652E0,-6.087855339E0,2.130043507E0
1.129671136E2,2.779374123E0,-7.345964432E0,2.841737986E0
1.130271078E2,-1.135088444E0,-7.443881035E-1,-4.314196587E0
1.130871024E2,2.113428116E-1,-6.445865631E-1,-2.837024212E0
1.131470969E2,-3.487591743E-1,-1.399405003E0,-3.712258816E0
1.132070915E2,5.114761353E0,-1.738977432E-1,-2.214058638E0
1.132670852E2,9.835534096E-1,-2.176053524E0,-1.386633873E0
1.133270779E2,4.054002762E0,-3.297060251E0,3.435540199E-1
1.133870703E2,2.588811874E0,-2.023700714E0,2.185046434E0
1.134470629E2,-8.689284325E-1,-4.481800079E0,2.995117664E0
1.135070554E2,4.333734512E-2,-1.535461426E0,4.107040405E0
1.135670479E2,-3.617649078E0,-4.837810993E-1,3.631188393E0
1.136270404E2,-5.256623268E0,-2.689629555E0,8.450113297E0
1.136870328E2,-1.339764595E0,-6.328014374E0,1.200178337E1
1.137470251E2,5.042191505E0,-4.730734825E0,9.168712616E0
1.138070175E2,2.504427433E0,-3.282683849E0,8.517536163E0
1.138670101E2,-8.949604034E-1,-9.116221666E-1,5.020676613E0
1.139270026E2,-1.084098339E0,-3.197694302E0,3.702621460E-1
1.139869951E2,1.046102643E0,-3.757257700E0,-3.771581173E0
1.140469881E2,5.886054039E-1,-2.445733547E0,-4.816758156E0
1.141069821E2,-1.330553532E0,-2.121982336E0,-4.123067856E0
1.141669764E2,-8.569908142E-2,-6.243543029E-1,-5.453298569E0
1.142269708E2,1.600468636E0,3.005956411E-1,-3.636440039E0
1.142869650E2,2.446659088E0,6.813594103E-1,-3.275050879E0
1.143469589E2,-9.494829178E-2,-4.348796606E-2,-2.386270046E0
1.144069516E2,5.034370422E-1,2.015004158E-1,-8.292589188E-1
1.144669439E2,7.821359634E-1,-6.482740641E-1,2.722024918E-2
1.145269363E2,7.081913948E-1,-4.081097841E-1,7.869100571E-2
1.145869289E2,2.871394157E-1,-3.692870140E-1,3.618955612E-1
1.146469214E2,3.158097267E-1,4.908553362E-1,-6.977243423E-1
1.147069140E2,1.826415062E-1,3.232676983E-1,-6.901235580E-1
1.147669065E2,-2.180423737E-1,4.765603542E-1,-2.057056427E-1
1.148268989E2,-1.162457466E-1,9.214290380E-1,-8.129487038E-1
1.148868912E2,-2.333664894E-1,7.395159006E-1,-8.212556839E-1
1.149468838E2,7.260413170E-1,7.685612440E-1,-3.480339050E-1
1.150068762E2,4.817781448E-1,5.033806562E-1,-4.294180870E-1
1.150668689E2,6.684217453E-1,1.583806276E-1,-1.750383377E-1
1.151268615E2,9.202327728E-1,7.879074812E-1,-1.869844913E0
1.151868548E2,7.738418579E-1,-6.792267561E-1,-1.264854431E0
1.152468479E2,7.942638397E-1,2.201274395E0,-2.150531292E0
1.152968508E2,2.406716824E0,2.311108112E0,-3.166882038E0
1.153568488E2,2.003133774E0,1.901724339E0,-2.795516014E0
1.154168460E2,1.628594875E0,1.500485420E0,-2.386980057E0
1.154768419E2,7.938485146E-1,5.529990196E-1,-1.180709362E0
1.155368370E2,1.475219727E-1,-3.163027763E-1,2.924976349E-1
1.155968309E2,-7.762002945E-2,-7.051415443E-1,1.100744724E0
1.156568240E2,2.082047462E-1,2.722873688E-1,-6.482341290E-1
1.157168164E2,1.512265205E-1,2.991394997E-1,-5.011725426E-1
1.157768090E2,1.159043312E-1,1.506967545E-1,-2.933399677E-1
1.158368015E2,1.285362244E-1,9.260988235E-2,-1.758546829E-1
1.158967940E2,1.376962662E-1,7.977056503E-2,-5.516004562E-2
1.159567866E2,3.309440613E-2,-1.465511322E-2,-1.322708130E-1
1.160167791E2,1.567726135E-1,3.074073792E-2,-1.454997063E-1
1.160767713E2,1.416497231E-1,-5.410146713E-2,-1.013023853E-1
1.161367636E2,6.351470947E-2,4.227685928E-2,-1.468586922E-1
1.161967561E2,-3.419113159E-2,9.679794312E-2,-1.188678741E-1
1.162567487E2,4.617786407E-2,-4.954147339E-2,-6.678795815E-2
1.163167412E2,2.160453796E-1,-2.880735397E-1,-1.869688034E-1
1.163767337E2,6.555910110E-1,-7.123374939E-1,-2.923223972E-1
1.164367273E2,7.534008026E-1,-2.728235960E0,-7.990758419E-1
1.164967216E2,-1.091856480E0,-8.032196045E0,2.203537703E0
1.165567159E2,-3.756198883E0,-7.777008533E0,-1.313024998E0
1.166167102E2,-6.851150990E0,2.537743330E0,-1.027834320E1
1.166767046E2,-3.886594772E0,4.757681847E0,-2.044894695E0
1.167366978E2,1.017460704E0,2.317449331E0,1.392477989E0
1.167966901E2,-1.979683876E0,-3.467116117E0,6.820518494E0
1.168566825E2,-3.674777031E0,-2.373254776E0,3.218341827E0
1.169166750E2,-4.847823143E0,-1.916108370E0,1.784013748E0
1.169766676E2,-3.246798992E0,2.118735552E0,-6.943941116E-1
1.170366602E2,-2.185691357E0,-1.019838572E0,8.582968712E-1
1.170966526E2,-2.415816307E0,-2.665348530E0,2.620982170E0
1.171566452E2,-5.260983467E0,-2.507434607E0,-1.056045532E0
1.172166374E2,-4.586346626E0,-1.649988890E0,-6.839530945E0
1.172766299E2,-4.908056259E-1,2.977399826E0,-1.035457039E1
1.173366223E2,6.118793488E0,3.683742285E0,-1.087587166E1
1.173966149E2,8.173871994E0,2.682744026E0,-1.088526344E1
1.174566074E2,9.213126183E0,-2.396149635E-1,-1.413151550E1
1.175166004E2,2.600662708E0,-7.646210670E0,-2.875410557E0
1.175765935E2,3.876491308E0,-1.475677967E1,8.891607285E0
1.176365867E2,4.697163105E0,-1.955561829E1,-4.902193069E0
1.176965798E2,-4.547140598E0,-8.792831421E0,-2.014178276E0
1.177565729E2,-4.398213387E0,-2.419875145E0,4.452656746E0
1.178165656E2,5.378187656E0,-3.998880386E0,4.200435162E0
1.178765580E2,1.458378315E0,-1.037549973E0,4.422521591E-1
1.179365504E2,2.168775558E0,-2.837008238E0,-9.392771721E-1
1.179965430E2,4.696569920E0,-2.437650681E0,-1.118381023E0
1.180565355E2,2.107852936E0,-1.899212599E0,-3.964195251E-1
1.181165281E2,4.504976273E0,3.375385761E0,-1.237521935E1
1.181765206E2,4.560435295E0,4.784386635E0,-1.347661781E1
1.182365128E2,5.929464817E0,3.708683014E0,-7.259635925E0
1.182965052E2,2.838575363E0,-3.431046009E-1,2.355919838E0
1.183564977E2,4.428302765E0,-1.708020020E1,5.050412178E0
1.184164903E2,-1.274681664E1,-2.269157791E1,6.092190742E-1
1.184764827E2,-4.667169094E0,-5.328699112E0,2.947628498E0
1.185364755E2,6.176871300E0,-3.100978851E0,1.864425182E0
1.185964694E2,3.351133585E0,-1.285673141E0,-9.978942871E-1
1.186564638E2,1.925102472E0,-8.491973877E-1,9.003734589E-2
1.187164583E2,1.438843250E0,1.998410463E0,-5.217692375E0
1.187669926E2,-1.944222927E0,2.315867901E0,-1.370710850E0
1.188269870E2,2.560462475E0,-1.000638008E-1,-4.496613503E0
1.188869803E2,5.210757732E0,-2.895251513E0,-4.887799263E0
1.189469727E2,6.812120438E0,-5.015498638E0,-1.763381004E0
1.190069653E2,4.944154263E0,6.305238008E-1,-1.518350983E1
1.190669577E2,-7.166796923E-1,-4.978830814E0,-2.889592171E0
1.191269503E2,5.412088633E-1,-1.689177990E0,7.857984543E0
1.191869427E2,-2.513057947E0,-1.288505173E1,5.683088303E-1
1.192469352E2,-7.553523064E0,-1.814895630E0,4.518651962E-1
1.193069276E2,-1.296871185E0,-7.088253975E0,8.050697327E0
1.193669200E2,3.161697388E-1,-1.375646591E-1,2.607152462E0
1.194269125E2,3.524398804E-2,-1.105087757E0,1.059212685E0
1.194869050E2,-2.155648470E0,-2.656925678E0,-4.625449657E0
1.195468975E2,-2.257067919E0,-5.200575352E0,-6.455292702E0
1.196068900E2,2.879657269E0,1.470620990E0,-6.933724403E0
1.196668835E2,1.846507192E-3,6.162721634E0,1.143217087E-1
1.197268777E2,6.031130314E0,7.971708775E0,-1.947053719E1
1.197868720E2,-2.568413496E0,1.377517819E0,-6.648772717E0
1.198468663E2,-8.579256535E-1,-6.148116589E0,7.784404755E0
1.199068606E2,6.307826042E0,-8.311897278E0,1.983828545E0
1.199668539E2,-6.801551819E0,-2.397313118E1,-4.117174149E-1
1.200268464E2,-1.118192291E1,-5.610484600E0,-1.758605480E0
1.200868387E2,1.324705124E0,-6.213819027E0,5.805209160E0
1.201468313E2,1.820894480E0,9.225964546E-1,1.349229813E0
1.202068238E2,1.218295097E0,9.085774422E-2,-4.149343491E0
1.202668163E2,-7.905950546E-1,-4.888102055E0,-1.020577812E1
1.203268088E2,3.583216667E-2,1.876513004E0,-4.532251358E0
1.203868013E2,3.837087631E0,6.585679054E0,-1.642373085E0
1.204467936E2,2.332322121E0,3.786064148E0,-1.051884270E1
1.205067860E2,3.990528584E0,1.120202541E0,-1.449525070E1
1.205667786E2,1.092687249E0,-2.893592834E0,-4.306968212E0
1.206267711E2,-7.796483040E-1,-3.785778284E0,6.185883522E0
1.206867636E2,3.602514029E0,-5.455961704E0,-7.610494137E0
1.207467565E2,-1.545350647E1,-1.584204960E1,3.555135727E0
1.208067497E2,-3.759414196E0,-7.736051083E0,8.208486557E0
1.208667429E2,1.591204643E0,-7.560911179E-1,3.137439728E0
1.209267360E2,6.842393875E-1,-5.417084694E-1,4.467620850E-1
1.209867291E2,3.387732029E0,-4.337388039E0,-2.131607056E0
1.210467218E2,-1.642118931E0,-8.171557426E0,-9.357919693E0
1.211067142E2,-2.592408419E0,-8.777738810E-1,-7.766492844E0
1.211667067E2,4.420349598E-1,9.640184402E0,-5.281728268E0
1.212266991E2,4.155733585E0,6.158800125E0,-1.470005608E1
1.212866917E2,5.594811916E0,8.160052299E0,-1.417363262E1
1.213466842E2,4.102181196E-1,-1.190989971E0,3.336022377E0
1.214066767E2,-7.837797403E-1,-1.137182999E1,7.836604595E0
1.214666690E2,-5.642154694E0,-2.353381538E1,-4.107187271E0
1.215266615E2,-6.429267883E0,-1.005711174E1,-5.967502594E-1
1.215866539E2,-1.058527470E0,-4.292993069E0,2.436652184E0
1.216466465E2,-9.862909317E-1,-1.052618027E-2,-7.377109528E-1
1.217066390E2,1.381959438E0,2.536177635E0,2.205471992E-1
1.217666317E2,3.571419239E0,1.824936390E0,-3.826394796E0
1.218266255E2,-1.232701302E0,1.159675598E0,-2.580557346E0
1.218866199E2,-7.657023668E-1,1.423057747E1,-5.345125198E0
1.219466142E2,5.064116001E0,1.242205811E1,-1.098999977E1
1.220066086E2,7.652497768E0,8.969680786E0,-8.296759605E0
1.220666027E2,-1.523747563E0,-7.779080391E0,4.538073540E0
1.221265956E2,2.847869396E0,-1.163518238E1,6.448908806E0
1.221865878E2,1.429673433E-1,-2.122108078E1,-6.002496719E0
1.222465803E2,-3.669457436E0,-1.231118393E1,-4.268770695E0
1.223065728E2,-2.670692444E0,-8.642115593E0,3.050457954E0
1.223665653E2,2.456307411E-1,-8.481000900E0,4.891466141E0
1.224265579E2,3.777663708E-1,2.231727362E0,3.872740746E0
1.224865504E2,7.279448509E-1,2.069549561E0,-5.487033367E0
1.225465428E2,3.258675098E0,-2.935546637E0,-1.100692844E1
1.226065351E2,2.268427372E0,-1.356220722E0,-6.249622345E0
1.226665275E2,-1.546918035E0,2.338798761E0,8.768196106E-1
1.227265201E2,-3.623083115E0,-5.172252655E-2,-6.852519512E0
1.227865126E2,7.775217056E0,1.967969418E0,-1.777857208E1
1.228465051E2,-1.598584950E-1,-4.855750084E0,-5.193037987E0
1.229064982E2,-2.808149815E0,-6.488488197E0,9.830527306E0
1.229664915E2,9.866487980E-2,-2.119575119E1,-5.859554291E0
1.230264846E2,-1.064955711E1,-8.279061317E0,-2.310116291E0
1.230864777E2,-3.504180908E-2,-4.542720318E0,8.704463005E0
1.231464708E2,3.639631510E0,-2.504575014E0,3.919346809E0
1.232064633E2,3.036890030E0,-4.926498413E0,1.039831161E0
1.232664557E2,-1.274450064E0,-4.421494961E0,-5.337149143E0
1.233264481E2,-1.723592043E0,-3.870070457E0,-6.393786907E0
1.233864407E2,-2.942975760E-1,-7.913691998E0,2.620626450E0
1.234464332E2,8.529396057E-1,1.430261731E0,-1.419217300E1
1.235064258E2,6.123479366E0,5.048384190E0,-1.913928604E1
