"Time (s)","Acceleration x (m/s^2)","Acceleration y (m/s^2)","Acceleration z (m/s^2)"
5.198983400E-2,-6.026389599E0,3.711125851E-1,6.720729351E0
1.039831680E-1,-6.632141113E0,3.016786277E-1,5.681613922E0
1.559773190E-1,-6.431022167E0,4.836435020E-1,5.485283375E0
2.079706450E-1,-7.324086666E0,9.481328130E-1,5.729499817E0
2.599639710E-1,-8.700794220E0,4.261809289E-1,6.165257454E0
3.119572970E-1,-8.092648506E0,6.991282701E-1,6.567495823E0
3.639507230E-1,-9.287391663E0,2.106961906E-1,6.095823765E0
4.159440150E-1,-7.678439140E0,9.026415944E-1,6.560312748E0
4.679373750E-1,-5.719922543E0,1.395862222E0,6.208354473E0
5.199310310E-1,-2.521171331E0,1.781340480E0,2.619336605E0
5.719248840E-1,3.129317284E0,2.741444588E0,1.843591571E0
6.239184430E-1,4.676018715E0,3.232270956E0,7.065505028E0
6.759117030E-1,3.689577579E0,2.928198099E0,9.507665634E0
7.279049950E-1,9.720755816E-1,1.345582485E0,6.663266659E0
7.799011830E-1,5.499649048E0,1.556278616E-1,7.755055904E0
8.318999700E-1,8.099831581E0,-1.221080124E-1,1.325231075E1
8.838949960E-1,1.424354076E1,2.961717844E0,1.302724934E1
9.358883890E-1,1.378384018E1,2.715107679E0,1.227065849E1
9.878816480E-1,9.847652435E0,3.979284763E0,8.095043182E0
1.039875141E0,6.162863255E0,3.208328247E0,4.563488007E0
1.091868367E0,3.634509087E0,3.205934048E0,2.253012657E0
1.143861659E0,2.681587934E-1,2.846792698E0,-2.245829821E0
1.195854952E0,-4.948966026E0,3.201145411E0,-5.755836487E0
1.247848840E0,-3.419024467E0,-4.716721475E-1,-2.279349566E0
1.299842761E0,1.027143836E0,-5.435003638E-1,2.181184292E0
1.351836154E0,5.684008598E0,-4.656864643E0,1.103281784E1
1.403829313E0,8.868393898E0,-1.149491310E1,1.392510223E1
1.455822839E0,7.977723598E0,-2.544156456E1,7.558725357E0
1.507816032E0,1.595065880E1,-1.470802975E1,1.414776993E1
1.559809325E0,8.193208694E0,-8.593051910E0,1.047016335E1
1.611802883E0,5.985687256E0,-5.102199554E0,8.047157288E0
1.663796934E0,7.769421577E0,-3.325647593E0,6.763826370E0
1.715790294E0,7.348029613E0,-3.155654192E0,7.635342598E0
1.767783754E0,9.213169098E0,9.529213905E-1,9.378374100E0
1.819777245E0,9.897932053E0,-4.980091453E-1,3.438178539E0
1.871772101E0,4.925023079E0,-1.750214934E0,-1.075029373E0
1.923767759E0,-8.523618579E-1,-1.654443860E0,-2.909043789E0
1.975761084E0,-4.338426113E0,1.041509509E0,9.701601982E0
2.027754443E0,-3.974496126E0,4.963331699E0,-5.813299179E0
2.079747702E0,2.054287672E0,-1.865140080E0,6.732700825E0
2.131741062E0,1.860830307E1,-3.062038040E1,1.040312386E1
2.183734487E0,1.248853779E1,-1.232572651E1,8.889942169E0
2.235727780E0,5.691191196E0,-1.422199249E0,7.508445740E0
2.287721767E0,6.924242973E0,8.935433388E0,1.029059315E1
2.339715389E0,9.900326729E0,7.130150318E0,8.741497040E0
2.391708781E0,1.222516727E1,1.268965602E0,1.014454269E1
2.443702107E0,1.435367775E1,-1.659471893E1,9.016839027E0
2.495695432E0,1.088676739E1,-6.919454098E0,7.582668304E0
2.547688859E0,6.694392204E0,2.047105074E0,4.810098171E0
2.599682251E0,8.947404861E0,-2.827638626E0,6.277788639E0
2.651675443E0,-1.520843315E1,8.691217422E0,-2.156044388E1
2.703669729E0,-4.008016109E0,1.903448462E0,-7.374366283E0
2.755663086E0,2.585816681E-1,-1.318766594E1,1.719568253E1
2.807656412E0,1.619487572E1,-3.596200943E1,1.451888275E1
2.859649972E0,1.100648117E1,-1.797142601E1,1.161462688E1
2.910443243E0,6.390319347E0,6.510033131E0,2.461314440E0
2.962436602E0,8.861210823E0,3.641691923E0,1.939362645E0
3.014430028E0,7.929838181E0,-7.889135361E0,5.581054688E0
3.066423287E0,6.823683262E0,-7.233104229E0,2.030344963E0
3.118416579E0,1.144463301E0,6.431022167E0,1.174870682E1
3.170409939E0,-1.296499825E1,-4.884320736E0,-8.834874034E-1
3.222404124E0,1.193067169E1,-1.655880547E1,1.674316406E1
3.274397648E0,4.029564381E0,-1.302964306E1,-6.438204765E0
3.326391040E0,-1.290514112E0,-4.843617916E0,1.175588965E0
3.378384333E0,5.746259689E0,-1.907997513E1,2.856369734E0
3.430377559E0,9.071907043E0,-1.784931946E1,8.578686714E0
3.482371019E0,8.078283310E0,-1.237121773E1,5.813299179E0
3.534364278E0,7.237892628E0,-2.253012657E0,4.510813713E0
3.586358033E0,5.408666611E0,1.008468533E1,5.248250484E0
3.638351954E0,8.755863190E0,7.915472507E0,3.687183142E0
3.690345346E0,7.788576126E0,-2.073441982E0,-3.962524891E0
3.742338739E0,2.097145271E1,-3.051503181E1,1.091549873E1
3.794332065E0,-1.902490807E1,1.865379524E1,-1.140153694E1
3.846325821E0,5.114171028E0,-2.598266983E1,1.757397652E1
3.898324509E0,1.952531052E1,-2.218535042E1,4.314483166E0
3.950321498E0,6.943396926E-1,-3.792531252E0,2.561874092E-1
4.002315326E0,-2.353572130E0,-3.354378939E0,3.687183261E-1
4.054308652E0,-7.757450342E-1,-3.845205307E0,6.675238132E0
4.106301911E0,1.279979324E1,-1.701371765E1,6.605803967E0
4.158295371E0,1.560827732E1,-1.106394386E1,7.300143719E0
4.210288630E0,1.443747711E1,1.915419847E-1,2.595393896E0
4.262281956E0,5.456552505E0,1.491633177E0,8.116591573E-1
4.314275646E0,4.896292210E0,-1.358272076E1,2.369134903E1
4.366269666E0,-2.626758957E1,2.234337234E1,-1.917574692E1
4.418262993E0,-6.081457734E-1,-1.026186180E1,1.169363785E1
4.470256386E0,2.251097107E1,-4.363087082E1,1.449493980E1
4.522249645E0,7.788576126E0,-3.240650940E1,6.615381241E0
4.574243138E0,3.423812866E0,-1.502407455E1,3.488458395E0
4.626236430E0,4.865166187E0,-2.978477955E0,3.201145411E0
4.678229723E0,6.656084061E-1,2.521171331E0,2.106961727E0
4.730223578E0,5.861184597E0,-4.348002911E0,4.063084126E0
4.782217433E0,1.289316940E1,-1.050128937E1,7.024802208E0
4.834210659E0,1.644148445E1,-4.795732498E0,6.016812801E0
4.886203985E0,9.866806030E0,-2.794118643E0,6.644112587E0
4.938197742E0,4.094210148E0,4.489265442E0,3.000026226E0
4.990193864E0,-2.391880512E0,4.869955063E0,1.300091267E0
5.042187958E0,-1.166011810E0,3.129317284E0,2.686376333E0
5.094181483E0,-4.065478802E0,1.340793848E0,-3.902668059E-1
5.146174842E0,1.204799080E1,-1.667612457E1,6.778192043E0
5.198168001E0,4.671230316E0,-1.114774323E1,1.488520622E1
5.250161394E0,5.018400192E0,-3.586144638E1,-4.853195190E0
5.302154720E0,1.253881741E1,-1.588840771E1,8.312922478E0
5.354148773E0,7.778998852E0,2.609759569E-1,7.671256542E0
5.406142496E0,9.723150253E0,-1.063058019E0,9.062330246E0
5.458135722E0,1.331935120E1,-6.780586243E0,1.302964306E1
5.510129015E0,1.666894150E1,-1.960910988E1,6.684815407E0
5.562122508E0,7.623371124E0,-1.146857643E1,3.773377180E0
5.614115734E0,4.192375183E0,-2.336812258E0,6.739883423E0
5.666109093E0,-6.249057293E0,-1.532335877E-1,9.265843630E-1
5.718102486E0,6.871568561E-1,1.364736676E0,-1.541913033E0
5.770096339E0,1.725793266E1,1.869928598E0,3.361561775E0
5.822090095E0,-1.543349552E1,-4.685595989E0,-8.159688950E0
5.874083421E0,-5.619362831E0,-1.604164094E-1,-4.541939259E0
5.926076747E0,2.225478363E1,-2.320291710E1,1.250769138E1
5.978070238E0,1.451169968E1,-2.812315178E1,4.122941017E0
6.030068125E0,5.542746067E0,-4.668835998E-1,4.163643837E0
6.082066013E0,4.925023079E0,-4.242654800E0,5.068679810E0
6.134060040E0,4.132518291E0,-7.522811413E0,6.885934353E0
6.186053500E0,1.415016365E1,-2.100018501E1,3.847599506E0
6.238046926E0,1.597460175E1,-1.025707340E1,6.284971237E0
6.290040152E0,1.212700176E1,1.053480953E-1,2.616942406E0
6.342033445E0,6.991282463E0,3.768588543E0,-2.418217510E-1
6.394026870E0,3.565075159E0,7.565908432E-1,-4.726298332E0
6.446020063E0,-3.818868399E0,6.081457734E-1,9.337671995E-1
6.498014350E0,-2.092596245E1,9.119792938E0,-1.814142036E1
6.550007774E0,8.145322800E0,-1.569207668E1,1.289316940E1
6.602001100E0,2.341361427E1,-4.115279388E1,3.826051235E0
6.653994493E0,1.453803635E1,-1.390355396E1,3.967313290E0
6.705987785E0,6.270605564E0,-6.919454336E-1,4.824463844E0
6.757981145E0,1.297696948E0,-1.125309169E-1,4.649681568E0
6.809974471E0,7.800547123E0,-4.470110893E0,5.104593754E0
6.861967863E0,1.149491310E1,-1.061860847E1,9.263449669E0
6.913962047E0,1.282373619E1,-9.105426788E0,5.724710941E0
6.965955505E0,6.543552876E0,-1.103760719E0,4.158855438E0
7.017948898E0,-3.332830429E0,-1.532335877E-1,3.586623669E0
7.069942422E0,-3.797319889E0,-4.860377908E-1,-3.325647593E0
7.121938142E0,-2.130904675E0,1.661626697E0,-2.909043789E0
7.173932869E0,7.178035736E0,-2.475680113E0,5.782173634E0
7.225926194E0,6.835654736E0,-4.917840481E0,7.917866707E0
7.277919453E0,4.264203548E0,-1.449493980E1,8.743891716E0
7.329912913E0,9.495694160E0,-3.775771332E1,5.071074009E0
7.381906105E0,9.273026466E0,1.632895470E0,5.437397957E0
7.433899531E0,4.671230316E0,-2.875524044E0,3.241847992E0
7.485892990E0,4.257020473E0,-5.118959427E0,3.845205307E0
7.537887409E0,1.093944168E1,-1.669527817E1,3.871542454E0
7.589880735E0,1.562743187E1,-1.171997547E1,1.024510193E1
7.641873861E0,1.109985828E1,-6.414262295E0,6.586649895E0
7.693867187E0,7.039167881E0,-2.698347807E0,4.000833035E0
7.745860546E0,4.094209969E-1,2.394274712E0,2.106961906E-1
7.797853839E0,-6.948185444E0,4.017592907E0,-8.748680115E0
7.849847264E0,3.608172178E0,-4.515602112E0,7.142121792E0
7.901840986E0,-6.624958515E0,2.432583094E0,3.112557232E-1
7.953834875E0,4.374340057E0,-1.081015110E1,4.024775982E0
8.005828167E0,1.604403496E1,-3.433629608E1,9.627379417E0
8.057821658E0,1.084127617E1,-1.750693703E1,7.520417213E0
8.109814985E0,5.164450645E0,9.960182905E-1,6.105400562E0
8.161811905E0,3.524372578E0,-3.033546209E0,3.646480560E0
8.213810097E0,5.748653889E0,-9.447808266E0,3.462121487E0
8.265805856E0,1.804804420E1,-1.160265541E1,7.925049782E0
8.317799215E0,1.230178356E1,-9.859623909E0,3.974496126E0
8.369792675E0,1.090113354E1,-2.233858347E0,9.311334610E0
8.421786034E0,4.415042877E0,1.838803053E0,5.174027920E0
8.473779326E0,-3.826051235E0,5.324867249E0,2.561874092E-1
8.525772485E0,-6.028783798E0,3.047911882E0,-9.162889481E0
8.577766473E0,8.315316200E0,-5.401484013E0,-1.062339687E1
8.629760294E0,7.951386452E0,-2.901860952E0,-9.493299484E0
8.681753621E0,8.030397415E0,-1.122436047E1,-4.604190350E0
8.733747080E0,2.459399033E1,-2.294433594E1,9.220352173E0
8.785740372E0,2.909043789E0,-8.968953133E0,8.578686714E0
8.837733598E0,5.413455486E0,1.288119793E0,6.732700825E0
8.889726891E0,7.731113434E0,-1.057311726E1,4.517996788E0
8.941720515E0,1.200728798E1,-2.214225388E1,1.731060743E0
8.993714666E0,1.928109550E1,-9.457385063E0,1.161223292E0
9.045707925E0,5.990475655E0,-5.612180233E0,6.672843933E0
9.097701318E0,-1.541913033E0,-7.829278469E0,2.439765930E0
9.149694577E0,-2.059076309E0,2.358360767E0,-7.307326794E0
9.201688203E0,2.120848656E1,3.593806505E0,-6.464542150E-1
9.253684757E0,-1.371201229E1,1.363300037E1,-1.163617611E0
9.305683044E0,1.711906433E0,-9.026415944E-1,5.408666611E0
9.357678037E0,2.152931976E1,-1.726511574E1,2.080624819E0
9.409671497E0,2.065301514E1,-3.787024307E1,-5.162056446E0
9.461664589E0,1.372158909E1,-1.369285774E1,-2.581028223E0
9.513657982E0,1.023313046E1,-3.241847992E0,5.844424725E0
9.565651341E0,6.979310989E0,-2.810878515E0,1.757397652E0
9.617644999E0,5.923435688E0,-1.218206978E1,-1.659232497E0
9.669638025E0,1.309907722E1,-1.349413300E1,1.077423692E-1
9.721632176E0,7.371972084E0,-7.381549358E0,-9.768640995E-1
9.773625935E0,5.035160065E0,-6.632141471E-1,3.258608103E0
9.825619095E0,1.716695070E0,5.502043724E0,6.395108223E0
9.877612353E0,-3.921822071E0,7.944203854E0,1.419804931E0
9.929605545E0,7.616188049E0,-2.379909277E0,7.470137596E0
9.981598937E0,-3.488458395E0,1.847183037E1,-7.881952763E0
1.003359243E1,1.877590370E1,-3.055813026E1,3.536343813E0
1.008558622E1,1.736088753E1,-3.059404373E1,5.032765865E0
1.013749903E1,9.349642754E0,-1.400171947E1,2.585816860E0
1.018949243E1,5.166844845E0,-6.957762718E0,2.200338602E0
1.024148568E1,2.959323645E0,-2.640885115E0,4.486870766E0
1.029347901E1,6.308914185E0,-5.494860649E0,5.102199554E0
1.034547443E1,1.147815323E1,-1.108070374E1,3.644086361E0
1.039746973E1,1.121478367E1,-4.046324253E0,6.478907585E0
1.044946309E1,6.507638931E0,3.304099321E0,2.925803900E0
1.050145651E1,-3.830839694E-2,2.205127001E0,-4.980091453E-1
1.055344974E1,-6.253845692E0,6.763826370E0,-4.060689926E0
1.060544303E1,-5.308107376E0,9.323306084E0,-6.172440529E0
1.065743642E1,3.797080231E1,-7.077476501E0,1.737285805E1
1.070943014E1,2.173043823E1,-1.554842091E1,4.687990189E0
1.076142406E1,9.663292885E0,-3.434347916E1,-1.154040456E0
1.081341739E1,8.286584854E0,-1.609671021E1,3.567469358E0
1.086541072E1,8.377567291E0,-1.699935079E0,7.043956280E0
1.091740404E1,7.541965485E0,-2.212309837E0,6.232297421E0
1.096939747E1,1.146857643E1,-5.305713177E0,6.205960274E0
1.102139076E1,1.208390522E1,-7.544359684E0,5.408666611E0
1.107338405E1,9.656110764E0,-1.047734642E1,3.361561775E0
1.112537801E1,5.454157829E0,-3.387898922E0,-3.064671755E-1
1.117737190E1,2.059076309E0,1.924996972E0,3.074248791E0
1.122936505E1,-2.147664547E0,4.778972626E0,1.166011810E0
1.128135855E1,5.027977228E-1,3.253819466E0,2.873129845E0
1.133335191E1,-1.160265541E1,4.290540695E0,-9.799766541E0
1.138534759E1,5.506832004E-1,-6.703969479E0,3.517189741E0
1.143734635E1,2.077033424E1,-5.389512634E1,5.698374271E0
1.148934174E1,1.311344337E1,-1.457155609E1,5.281770229E0
1.154133520E1,4.245049000E0,-1.596981287E0,4.625739098E0
1.159332866E1,2.209915638E0,-9.720755816E-1,5.217124939E0
1.164532178E1,6.162863255E0,-4.726298332E0,7.568302631E0
1.169731511E1,1.813423729E1,-8.269824982E0,1.026665020E1
1.174930854E1,1.404481602E1,-1.043424988E1,7.865192890E0
1.180130183E1,6.962551117E0,-2.858764172E0,1.090113354E1
1.185329598E1,1.649655342E0,-1.675992370E0,-8.834874034E-1
1.190528950E1,-1.295302629E0,-1.364736706E-1,-1.049650097E1
1.195728280E1,5.674431324E-1,3.526766777E0,-1.577827096E0
1.200927616E1,-1.389637089E1,5.078257084E0,-1.267768478E1
1.206126945E1,9.850046158E0,-1.348934460E1,-2.909043789E0
1.211326301E1,2.247984695E1,-3.144161606E1,7.690410614E0
1.216525620E1,1.005595398E1,-2.413429070E1,2.715107679E0
1.221724950E1,9.349642754E0,-4.302511692E0,8.918673515E0
1.226924358E1,5.080651283E0,3.600989342E0,8.470944405E0
1.232123717E1,2.964112282E0,-5.593026161E0,5.118959427E0
1.237323056E1,1.031214142E1,-1.855562973E1,4.312088966E0
1.242522386E1,1.687245369E1,-9.866806030E0,3.387898922E0
1.247721861E1,1.158829021E1,-8.719948769E0,-2.171607256E0
1.252921457E1,4.690384388E0,-6.974522591E0,-3.866753817E0
1.258120790E1,-5.624151707E0,5.868367672E0,-3.694365978E0
1.263320112E1,2.235055542E1,4.513207912E0,2.527635956E1
1.268519451E1,-1.640078163E1,1.384848595E1,-1.162899303E1
1.273718781E1,6.371165276E0,-2.094511604E1,8.786988258E-1
1.278918123E1,2.031542206E1,-3.387180710E1,9.579493523E0
1.284117459E1,7.115784645E0,-1.892195320E1,-5.305713177E0
1.289316841E1,1.575432777E0,-6.277788639E0,2.051893473E0
1.294516217E1,3.703943014E0,1.654443860E0,3.526766777E0
1.299715553E1,4.515602112E0,-3.567469358E0,4.676018715E0
1.304914895E1,7.314509392E0,-8.367990494E0,1.470084786E0
1.310114221E1,1.930264282E1,-1.392270756E1,1.005595401E-1
1.315313547E1,1.347976685E1,-1.071916866E1,6.584255695E-1
1.320512886E1,5.897099018E0,-3.471698523E0,7.901106775E-2
1.325712219E1,-1.738243461E0,4.750241280E0,-3.759011507E0
1.330911628E1,5.633728504E0,2.681587934E-1,4.910657406E0
1.336110997E1,-8.174054146E0,1.105676079E1,-8.751074791E0
1.341310319E1,-4.240260601E0,-4.628133297E0,5.099805593E-1
1.346509662E1,2.398344994E1,-3.210243607E1,1.190194035E1
1.351709151E1,9.035993576E0,-2.555409431E1,1.963305354E0
1.356909043E1,9.191620827E0,-1.336963081E1,1.359948039E0
1.362108652E1,5.755836487E0,8.906702399E-1,4.477293968E0
1.367307991E1,-1.494027495E0,-4.221106529E0,-2.399063349E0
1.372507324E1,7.745479107E0,-8.684034348E0,4.755029678E0
1.377706660E1,1.748299408E1,-1.158589554E1,7.616188049E0
1.382905989E1,7.443800449E0,-8.736708641E0,6.179623127E0
1.388105328E1,4.668835640E0,-8.427847624E-1,2.669616461E0
1.393304654E1,1.596981287E0,4.721509933E0,2.695953369E0
1.398504007E1,4.666441441E0,2.181184292E0,8.111803055E0
1.403703419E1,1.022834206E1,1.924996972E0,3.059883118E0
1.408902751E1,-7.448588848E0,1.565855742E0,-2.648067951E0
1.414102087E1,2.061470509E0,-3.265790939E0,-1.628106833E-1
1.419301430E1,1.271599388E1,-1.980783463E1,5.425426483E0
1.424500756E1,1.736567497E1,-2.157959938E1,5.099805355E0
1.429700092E1,6.201171875E0,-1.145421028E1,3.871542454E0
1.434899427E1,3.038334846E0,-6.344828010E-1,2.490045786E0
1.440098810E1,8.250671387E0,-5.075862408E0,7.503657341E0
1.445298205E1,1.154040432E1,-2.503453827E1,3.282550812E0
1.450497544E1,1.262501144E1,-1.495224571E1,6.725517750E0
1.455696867E1,7.709564686E0,-8.221940041E0,5.758230686E0
1.460896303E1,4.388705730E0,8.236305118E-1,-9.385557175E-1
1.466095902E1,-1.309668303E0,4.441379547E0,-6.773403645E0
1.471295264E1,3.055094719E0,6.136526108E0,-7.757450342E-1
1.476494600E1,-6.979310989E0,-1.922602654E0,-3.162837029E0
1.481693923E1,1.469366455E1,-1.917574692E1,3.033306694E1
1.486893276E1,4.280963421E0,-1.334089947E1,9.462174416E0
1.492092608E1,2.490045726E-1,-2.448864365E1,2.681587696E0
1.497291927E1,6.751854897E0,-1.855802345E1,5.892310143E0
1.502491273E1,1.114774323E1,3.581835032E0,1.118126392E0
1.507690695E1,5.506832004E-1,-6.457359314E0,3.186779737E0
1.512890038E1,1.065452290E1,-1.318527126E1,4.958543301E0
1.518089357E1,1.752848625E1,-1.069522572E1,1.077663136E1
1.523288706E1,3.754222870E0,-1.058030033E1,4.965725899E0
1.528488042E1,2.648067951E0,-4.597007751E0,3.071854591E0
1.533687378E1,-4.788549617E-3,2.238646984E0,-5.154873848E0
1.538886704E1,-5.475706577E0,2.777358770E0,-4.589824677E0
1.544086073E1,-1.067607117E1,9.342460632E0,-1.659232497E0
1.549285462E1,-9.213169098E0,2.645673752E0,-6.215537548E0
1.554484818E1,9.723150253E0,-1.915419769E1,5.157268047E0
1.559684130E1,2.247745132E1,-5.423990250E1,-2.875524044E0
1.564883556E1,-1.896265626E0,-1.306316376E1,-2.126116037E0
1.570083431E1,1.122196579E1,-1.072635174E0,7.470137596E0
1.575283134E1,2.320052385E0,-5.391906738E0,3.354378939E0
1.580482570E1,5.399089813E0,-8.485309601E0,4.577853203E0
1.585681906E1,1.051326084E1,-1.477267551E1,1.824437380E0
1.590881239E1,9.756669998E0,-5.509226322E0,8.554743767E0
1.596080565E1,1.123872566E1,-1.642472506E0,6.239480019E0
1.601279907E1,3.292127848E0,2.090201855E0,-2.176395893E0
1.606479257E1,-1.477267504E0,4.417437077E0,-4.441379547E0
1.611678632E1,1.232572651E1,8.140534163E-2,4.371945858E0
1.616878001E1,-9.581888199E0,-4.525179267E-1,-7.400703430E0
1.622077340E1,-4.094209969E-1,-4.608979225E0,5.272192955E0
1.627276673E1,1.604882431E1,-2.056921577E1,1.099690437E1
1.632476019E1,3.883513689E0,-2.885819435E1,2.456526041E0
1.637675341E1,1.083648777E1,-9.481328011E0,5.892310143E0
1.642874667E1,9.701601982E0,5.444581032E0,5.415849686E0
1.648074006E1,6.871568561E-1,-1.159307861E1,8.954587579E-1
1.653273438E1,5.183605194E0,-1.472000122E1,4.652075768E0
1.658472764E1,9.531607628E0,-9.529213905E0,8.425453186E0
1.663672100E1,1.003201103E1,2.394274808E-3,1.212221336E1
1.668871446E1,6.158074856E0,4.137306690E0,6.567495823E0
1.674070858E1,-1.221080124E-1,2.085413456E0,-4.532361984E0
1.679270717E1,-2.707924843E0,2.844398499E0,1.225868702E0
1.684470409E1,-1.182053471E1,3.261002302E0,-2.437371731E0
1.689669775E1,-3.648874760E0,1.096577883E0,4.956148863E-1
1.694869111E1,6.701575279E0,-1.822521973E1,1.422917557E1
1.700068450E1,1.294105530E1,-2.544874763E1,1.544067860E1
1.705267779E1,1.126027489E1,-1.262022209E1,8.612206459E0
1.710467095E1,2.188367128E0,-6.617775440E0,7.503657341E0
1.715666441E1,7.297749519E0,-2.456526041E0,7.211555958E0
1.720865787E1,8.056735039E0,-5.624151707E0,6.751854897E0
1.726065206E1,1.056114578E1,-1.074311066E1,8.166871071E0
1.731264548E1,6.684815407E0,-3.706337452E0,8.537983894E0
1.736463891E1,3.639297724E0,3.181991339E0,9.158101082E0
1.741661844E1,1.015172482E0,1.865140080E0,6.909877300E0
1.746861193E1,-2.238646984E0,-1.745426297E0,7.158881426E-1
1.752060516E1,1.554123783E1,-2.978477955E0,1.649655342E0
1.757259848E1,-2.103130913E1,6.249057293E0,-1.173912907E1
1.762459247E1,2.873129770E-2,-8.724737167E0,1.432015800E1
1.767658626E1,6.591438770E0,-3.802826691E1,8.391933441E0
1.772857955E1,1.804804420E1,-1.901772499E1,9.076695442E0
1.778057288E1,5.463735104E0,-1.437283134E1,3.699154615E0
1.783256664E1,-4.716721475E-1,-4.431802750E0,2.013585091E0
1.788456292E1,7.520417213E0,-4.783761024E0,4.213923454E0
1.793655689E1,1.219164753E1,-3.888302326E0,7.297749519E0
1.798855021E1,1.029059315E1,2.660039425E0,1.062339687E1
1.804054354E1,6.763826370E0,4.216318130E0,4.405465603E0
1.809253686E1,4.472505569E0,2.327235222E0,2.873129770E-2
1.814453036E1,5.516408920E0,-1.034326673E0,1.283331275E0
1.819652358E1,-2.323643684E1,1.192827702E1,-1.710470009E1
1.824851740E1,-9.493299484E0,2.299461555E1,-9.737515450E0
1.830051119E1,1.072395706E1,-2.780950165E1,1.198813438E1
1.835250448E1,2.394274902E1,-4.608260727E1,7.987300873E0
1.840449801E1,-7.264229774E0,-2.032260513E1,-1.307274103E0
1.845649127E1,2.794118643E0,-1.666894150E1,1.889082789E0
1.850848456E1,5.212336063E0,-4.206740856E0,9.071907043E0
1.856047799E1,9.095849991E0,-2.595393896E0,9.227535248E0
1.861247128E1,1.582855034E1,-7.264229774E0,7.000859737E0
1.866446500E1,1.429621506E1,-4.680807114E0,-1.388679385E0
1.871645892E1,1.152603912E1,-2.707924843E0,-3.519583941E-1
1.876845222E1,6.182017326E0,-6.943397224E-2,-2.667222023E0
1.882044564E1,-5.291347504E-1,2.463708878E0,-4.453351200E-1
1.887243920E1,-2.648067951E0,3.229876757E0,-9.009655952E0
1.892443739E1,-8.906702042E0,8.466156006E0,-1.018763924E1
1.897643498E1,4.297723293E0,-1.026665020E1,4.565882206E0
1.902842997E1,3.140330887E1,-5.155831528E1,1.005356026E1
1.908042333E1,-8.020820618E-1,-2.180705452E1,-5.267404556E0
1.913241663E1,8.949799538E0,-7.932232380E0,1.206714511E0
1.918441005E1,-1.879505754E0,-1.245022863E-1,-1.812466025E0
1.923640328E1,3.160442710E-1,-7.046350956E0,-6.847625971E-1
1.928839670E1,1.192588329E1,-1.194024849E1,2.145270348E0
1.934039066E1,1.345582485E1,-9.936240196E0,6.217931747E0
1.939238428E1,3.226285172E1,-1.478225231E1,1.634331894E1
1.944437757E1,-1.313020325E1,1.526350212E1,-1.472957897E1
1.949637090E1,-2.235055542E1,2.420851326E1,-1.155955887E1
1.954836436E1,5.796539307E0,1.064255142E1,4.245049000E0
1.960035762E1,1.098732662E1,-2.893002319E1,1.653007317E1
1.965235094E1,1.337920761E1,-2.593717957E1,6.919454336E-1
1.970434480E1,-5.502043724E0,-2.248463440E1,-3.098191500E0
1.975633869E1,3.656057596E0,-1.487084103E1,3.203539610E0
1.980833204E1,7.443800449E0,-3.569863796E0,6.845231533E0
1.986032537E1,8.111803055E0,3.495641351E-1,8.868393898E0
1.991231866E1,1.239994907E1,-8.363202095E0,9.304151535E0
1.996431219E1,4.522785187E0,-1.088197899E1,5.741470814E0
2.001631021E1,1.652049571E-1,-5.904281616E0,7.810124397E0
2.006830780E1,-2.992843390E-1,-2.645673752E0,-5.458946824E-1
2.012030192E1,3.081431627E0,9.021627426E0,-1.051086617E1
2.017229528E1,4.201952457E0,8.643332481E0,-1.030016994E1
2.022428871E1,8.813325882E0,6.045543671E0,2.334417820E0
2.027628197E1,-1.317329979E1,-3.984073162E0,-1.313738632E1
2.032827540E1,9.251478195E0,-1.782777023E1,1.032411289E1
2.038026869E1,1.964023590E1,-4.001311874E1,4.795732498E0
2.043226215E1,5.202759266E0,-1.338639069E1,5.193181992E0
2.048425636E1,5.700768471E0,-2.039922237E0,6.838048935E0
2.053624966E1,2.456526041E0,-7.352818012E0,3.548315287E0
2.058824308E1,5.664854050E0,-9.921875000E0,6.804529190E0
2.064023648E1,1.013496494E1,-9.835680962E0,2.458920240E0
2.069222970E1,9.019232750E0,-9.184437752E0,7.352818012E0
2.074422303E1,6.993676662E0,2.262589693E0,-4.467716694E0
2.079621645E1,3.869148016E0,8.595446587E0,-5.253038883E0
2.084821004E1,-1.264177084E0,7.948992252E0,-2.652856588E0
2.090020410E1,1.891955948E1,6.186806202E0,1.843112755E1
2.095219739E1,-6.823683262E0,-1.199531674E0,-6.220325947E0
2.100419075E1,6.715940952E0,-2.376557159E1,3.445361376E0
2.105618424E1,1.993951988E1,-3.388377762E1,-1.939362645E0
2.110818023E1,4.185192585E0,-2.046386719E1,1.125309110E0
2.116017475E1,6.921848297E0,6.727912426E-1,7.041562080E0
2.121216801E1,3.852388144E0,5.219519138E-1,4.192375183E0
2.126416141E1,9.383162498E0,-1.168406105E1,4.496448040E0
2.131615473E1,1.619008636E1,-1.519167328E1,4.022381783E0
2.136814802E1,1.035763264E1,-9.217958450E0,-6.392713785E-1
2.142014145E1,7.199584484E0,-7.082264900E0,-2.174001455E0
2.147213514E1,-3.280156553E-1,-1.204320192E0,-5.166844845E0
2.152412903E1,-3.644086361E0,4.573064804E0,-7.685622215E0
2.157612239E1,-5.243461728E-1,6.945791245E0,1.371680069E1
2.162811578E1,-1.695625496E1,2.806090117E0,4.793338299E0
2.168010910E1,1.913025618E0,-1.937447166E1,4.795732498E0
2.173210246E1,1.448057365E1,-4.532601547E1,-7.637736797E-1
2.178409576E1,4.857983589E0,-1.234966946E1,-2.202732861E-1
2.183608912E1,5.803721905E0,-2.152452946E0,7.345634937E0
2.188808307E1,6.301731110E0,-3.411841631E0,1.608952641E0
2.194007676E1,6.225114346E0,-8.576292038E0,4.118152618E0
2.199207009E1,1.439438057E1,-1.251726913E1,5.935407162E0
2.204406345E1,8.344047546E0,-9.589070320E0,4.046324253E0
2.209605687E1,6.289760113E0,-2.782147408E0,2.298503876E0
2.214805406E1,-1.003201127E0,5.858790398E0,-3.112557232E-1
2.220005224E1,2.310475111E0,6.155680656E0,3.565075159E0
2.225204680E1,-1.064733982E1,-7.738296032E0,4.537150860E0
2.230404006E1,-1.354680729E1,9.002473354E-1,-8.710371971E0
2.235603342E1,8.221940041E0,-1.678626060E1,9.368797302E0
2.240802681E1,2.403133583E1,-4.382241058E1,-1.000567436E1
2.246002011E1,1.033129597E1,-1.348934460E1,1.508393139E-1
2.251201350E1,1.153801060E1,2.322446555E-1,3.835628271E0
2.256400689E1,1.541913033E0,-2.767781734E0,-1.819648862E0
2.261600094E1,1.927391171E0,-6.522004604E0,3.447755575E-1
2.266799447E1,7.549148560E0,-1.462423038E1,5.238673210E0
2.271998783E1,8.480521202E0,-1.174631214E1,9.124581337E0
2.277198115E1,1.051086617E1,-4.853195190E0,9.876383781E0
2.282397448E1,4.970514297E0,5.858790398E0,5.236279011E0
2.287596781E1,-3.177202702E0,7.101418972E0,1.642472506E0
2.292796110E1,-7.884346962E0,2.166818619E0,-9.553156495E-1
2.297995446E1,-5.846818924E0,7.027196407E0,-9.883566856E0
2.303194861E1,-1.577827096E0,-9.960182905E-1,5.602602959E-1
2.308394217E1,1.148294163E1,-3.528442764E1,1.557954597E1
2.313593546E1,1.720046997E1,-2.849905396E1,8.018425941E0
2.318792885E1,7.467742920E0,-4.348002911E0,1.819648862E0
2.323992454E1,-1.338399649E0,-4.549122334E0,-2.183578730E0
2.329191950E1,3.687183261E-1,-9.026415825E0,4.788549617E-3
2.334391289E1,1.027143860E1,-1.366173172E1,3.284945011E0
2.339590615E1,1.075987053E1,-1.431297493E1,6.210748672E0
2.344789941E1,7.448588848E0,-2.260195494E0,3.782954216E0
2.349989327E1,-3.787742853E0,1.270402241E1,5.169239521E0
2.355188623E1,3.569863796E0,1.868970871E1,1.483253288E1
2.360387946E1,-1.568249941E0,3.079037428E0,7.886741161E0
2.365587367E1,3.711125851E-1,-1.782537651E1,1.800494671E0
2.370786717E1,1.001046276E1,-3.714956665E1,4.075055599E0
2.375986052E1,1.458113313E0,-2.226914978E1,-5.746259689E-1
2.381185408E1,3.727885962E0,-1.254121113E1,2.712713242E0
2.386384718E1,3.344801903E0,-8.561926842E0,7.767027378E0
2.391584070E1,5.087833881E0,7.039167881E-1,6.945791245E0
2.396783393E1,5.305713177E0,-1.247417164E1,9.598648071E0
2.401982742E1,3.495641232E0,-7.819701672E0,5.420638084E0
2.407182157E1,4.513207912E0,-4.070267081E-2,5.092622280E0
2.412381516E1,1.088676739E1,-3.691971779E0,1.045340347E1
2.417580836E1,1.290514112E0,1.913025618E0,8.260248303E-1
2.422780168E1,-5.430215359E0,-1.860351562E0,-8.478127480E0
2.427979780E1,-5.241067410E0,-2.363149166E0,-4.611373425E0
2.433179626E1,-4.326454639E0,-8.449396133E0,-4.309694767E-1
2.438379246E1,6.423839092E0,-2.911438179E1,1.604643059E1
2.443578592E1,1.078381348E1,-2.880312538E1,6.780586243E0
2.448777964E1,1.245022869E1,-1.218685913E1,6.299336910E0
2.453977257E1,5.020794392E0,8.044763207E-1,8.801354408E0
2.459176603E1,3.656057596E0,-6.550735950E0,5.784567833E0
2.464375925E1,7.960963726E0,-8.743891716E0,8.475732803E0
2.469575321E1,9.301757812E0,-2.411034822E0,8.095043182E0
2.474772707E1,1.386763954E1,4.606584549E0,8.238699913E0
2.479972040E1,7.324086666E0,2.956929445E0,3.067065954E0
2.485171379E1,-3.495641351E-1,2.760598898E0,1.786128998E0
2.490370712E1,8.379961550E-2,5.593026161E0,-2.801301479E-1
2.495570041E1,5.595420361E0,-4.843617916E0,6.375953674E0
2.500769374E1,-9.160495758E0,-8.729525566E0,-7.087053657E-1
2.505968706E1,-1.223713875E1,-6.392713547E0,-1.992036581E0
2.511168132E1,7.266623974E0,-2.036091232E1,1.019721603E1
2.516367477E1,7.261835575E0,-3.004335976E1,4.625739098E0
2.521566807E1,2.148143387E1,-9.040781975E0,6.804529190E0
2.526766142E1,9.349642754E0,-2.169213057E0,7.898712635E0
2.531965475E1,8.549955368E0,-8.025609016E0,9.565128326E0
2.537165077E1,1.011581135E1,-6.490879059E0,1.082691097E1
2.542364946E1,9.658504486E0,-4.158855438E0,1.061621475E1
2.547564472E1,8.475732803E0,2.154847383E0,1.073114014E1
2.552763811E1,4.482082367E0,1.063058019E0,5.724710941E0
2.557963157E1,-1.819648862E0,-2.279349566E0,6.076669693E0
2.563162476E1,-1.025467873E1,-9.936240315E-1,-5.633728504E0
2.568361809E1,-1.348455620E1,4.146883965E0,-1.970488191E0
2.573561148E1,-8.111803055E0,2.090201855E0,-3.967313290E0
2.578760497E1,6.320885658E0,-9.457385063E0,1.575911713E1
2.583959929E1,6.581861496E0,-3.051024437E1,5.664854050E0
2.589159245E1,1.940559769E1,-2.087089348E1,9.569916725E0
2.594358581E1,7.352818012E0,-6.117372036E0,5.430215359E0
2.599557910E1,5.947378635E0,-5.071074009E0,3.512401104E0
2.604757250E1,1.056832886E1,-4.994457245E0,7.769421577E0
2.609956582E1,1.371440601E1,-9.962577820E0,6.861991405E0
2.615155908E1,1.098493290E1,-6.490879059E0,6.718335152E0
2.620355251E1,7.300143719E0,-1.740637779E1,3.039771271E1
2.625554683E1,-1.880942345E1,9.644139290E0,-8.528407097E0
2.630754012E1,-1.820845985E1,1.641275406E1,-8.581081390E0
2.635953351E1,4.043930054E0,-1.486844659E0,8.367990494E0
2.641152684E1,1.041030693E1,-2.038725090E1,7.292961121E0
2.646352179E1,1.069283104E1,-2.420611763E1,4.096604347E0
2.651551768E1,8.363202095E0,-2.054527283E1,1.247417212E0
2.656751081E1,3.742251635E0,-1.472239590E1,6.536370516E-1
2.661950420E1,3.445361376E0,-8.303344727E0,4.012804508E0
2.667149756E1,5.221913338E0,-8.451790214E-1,7.096630573E0
2.672349079E1,7.403097630E0,-6.536370277E0,6.890722752E0
2.677548438E1,1.148773098E1,-7.582668304E0,1.057311726E1
2.682747761E1,1.323555088E1,-2.190761566E0,8.068706512E0
2.687947169E1,1.024749660E1,-8.571503758E-1,-1.029538140E-1
2.693146521E1,6.249057055E-1,1.601769805E0,-2.925803900E0
2.698345854E1,-3.203539610E0,9.505270720E-1,-5.413455486E0
2.703545187E1,-4.800520897E0,5.741470814E0,-7.805336118E-1
2.708744523E1,-3.337619066E0,4.240260601E0,1.944151163E0
2.713943858E1,3.099867630E1,-1.286922741E1,2.226914978E1
2.719143198E1,1.009426212E1,-1.564419174E1,6.814105988E0
2.724342537E1,5.396695614E0,-3.417348480E1,8.243488312E0
2.729541955E1,5.676825523E0,-1.082212257E1,1.561067224E0
2.734741295E1,4.369551659E0,-1.628106833E0,5.540351868E0
2.739940621E1,6.854808807E0,-4.144489765E0,6.359193802E0
2.745139960E1,7.254652500E0,-1.231375504E1,8.190814018E0
2.750339468E1,1.743032074E1,-9.203592300E0,6.012023926E0
2.755539351E1,1.098493290E1,-6.179623127E0,5.511620522E0
2.760738960E1,6.450176239E0,-9.577099234E-2,2.650462151E0
2.765938289E1,-9.648927450E-1,3.095797300E0,-6.249057055E-1
2.771137628E1,4.000833035E0,-2.434977531E0,3.028757572E0
2.776336961E1,1.213897324E1,1.675992310E-1,4.316877365E0
2.781536290E1,-5.047131062E0,3.646480560E0,-8.054340363E0
2.786735619E1,2.992843628E0,-2.487651587E0,-2.193155766E0
2.791934965E1,9.457385063E0,-1.299612331E1,7.319298267E0
2.797134324E1,1.549814129E1,-1.513660526E1,4.711932659E0
2.802333726E1,-1.233051538E0,-1.612783432E1,7.422251999E-2
2.807533062E1,5.640911579E0,-1.462901950E0,3.749434233E0
2.812732395E1,8.071100235E0,-1.002961731E1,4.194769382E0
2.817931731E1,1.541912937E1,-1.681738663E1,5.741470814E0
2.823131056E1,1.483492661E1,-1.144702816E1,4.259414673E0
2.828330402E1,9.426259995E0,-4.460534096E0,5.174027920E0
2.833529728E1,3.486064196E0,2.142875910E0,2.138087511E0
2.838729137E1,-2.892283916E0,7.027196407E0,-2.298503876E0
2.843928496E1,-3.289733648E0,4.228289127E0,-3.505218267E0
2.849127822E1,2.229069948E0,-2.229069948E0,1.683414650E1
2.854327155E1,-2.612153769E0,-2.762993097E0,3.442967176E0
2.859526594E1,-6.591438770E0,-6.440599442E0,2.686376333E0
2.864726206E1,1.126506329E1,-2.969140244E1,1.036720991E0
2.869925555E1,1.189954567E1,-7.786181450E0,6.771008968E0
2.875124901E1,5.590631485E0,-6.392713547E0,2.830032825E0
2.880324224E1,2.408640385E0,-8.181237221E0,4.316877365E0
2.885523563E1,1.207193375E1,-2.170649529E1,4.570670605E0
2.890722896E1,1.291471863E1,-1.350849819E1,7.836461544E0
2.895922258E1,6.804529190E0,-6.936213970E0,-9.289786220E-1
2.901121634E1,6.335251331E0,8.858817071E-2,3.950553536E-1
2.906321006E1,-2.408640385E0,7.965752125E0,2.154847383E-1
2.911520345E1,-1.448536277E0,-5.166844845E0,1.816296959E1
2.916719668E1,-6.217931747E0,1.367130947E1,-4.065478802E0
2.921919014E1,-3.160442829E0,-6.241874218E0,-3.138894320E0
2.927118336E1,1.465775013E1,-2.606886482E1,1.156913567E1
2.932317679E1,6.869174480E0,-3.509767532E1,-4.003227711E0
2.937517008E1,9.763853073E0,-3.016786277E-1,8.978530765E-1
2.942716426E1,2.185972929E0,-2.820455790E0,2.305686712E0
2.947915769E1,3.514795303E0,-4.343214512E0,4.343214512E0
2.953115108E1,6.404685020E0,-1.335765934E1,2.264983892E0
2.958314447E1,1.738004112E1,-1.329780197E1,5.557111740E0
2.963513860E1,7.166064739E0,-1.107831001E1,5.118959427E0
2.968713745E1,-1.225868702E0,-5.044736862E0,5.054314137E0
2.973913455E1,-2.631308079E0,6.864386082E0,-3.050306082E0
2.979112884E1,2.463948250E1,6.560313106E-1,5.087833881E0
2.984312216E1,-6.222720146E0,3.081431627E0,-5.231490612E0
2.989511532E1,-4.496448040E0,-1.936968327E0,-7.067899227E0
2.994710872E1,1.462901878E1,-1.684611702E1,1.388918781E1
2.999910204E1,8.887548447E0,-4.968359756E1,2.789330244E0
3.005109547E1,1.059706020E1,2.729473412E-1,4.273780346E0
3.010308965E1,4.702355862E0,-4.508419514E0,4.170826912E0
3.015508301E1,4.130124092E0,-8.621783257E0,4.070267200E0
3.020707640E1,6.136526108E0,-1.893392563E1,1.333611012E0
3.025906979E1,1.138956547E1,-7.776604652E0,6.373559475E0
3.031106309E1,1.086282444E1,-7.850827217E0,2.339206457E0
3.036305641E1,4.441379547E0,-1.611346960E0,-7.853221297E-1
3.041504964E1,-5.004034519E0,7.336058140E0,-6.943396926E-1
3.046704363E1,1.143984509E1,2.065540886E1,3.593088150E1
3.051903748E1,-1.512224007E1,1.860351562E1,-1.049889469E1
3.057103074E1,1.416692448E1,-2.699065971E1,9.244295120E0
3.062302410E1,2.420851326E1,-3.450149918E1,8.164477348E0
3.067501739E1,1.939362586E-1,-1.717413330E1,-6.419050694E0
3.072701165E1,-5.171633363E-1,-9.294574738E0,1.565855742E0
3.077901040E1,2.825244188E0,3.591412306E-2,6.447782040E0
3.083100716E1,4.898686409E0,-4.836435318E0,8.245882034E0
3.088300065E1,6.641718388E0,-8.274613380E0,8.205180168E0
3.093499408E1,1.498576641E1,-4.695172787E0,8.717555046E0
3.098698744E1,1.427466679E1,-5.705556870E0,-7.494080067E-1
3.103898080E1,5.619362831E0,6.033572555E-1,-5.746259689E-1
3.109097412E1,2.272166729E0,1.252205729E0,1.747820616E0
3.114296738E1,-3.984073162E0,1.635289669E0,-1.934574008E0
3.119496114E1,-1.508393139E-1,1.659232497E0,-2.008796453E0
3.124695499E1,3.974496126E-1,-8.609811783E0,7.774210453E0
3.129894875E1,2.270730209E1,-4.817280769E0,-3.524372578E0
3.135094207E1,2.868341208E0,-1.286922741E1,2.063864946E0
3.140293527E1,9.071907043E0,-1.830183601E1,2.569056988E0
3.145492849E1,4.065478802E0,6.799740195E-1,4.331243038E0
3.150692165E1,5.375146866E0,-6.366376877E0,4.987274647E0
3.155891518E1,6.553130150E0,-8.224333763E0,6.572284222E0
3.161090940E1,1.418368435E1,-1.749736023E1,5.114171028E0
3.166290279E1,1.341751575E1,-1.030974770E1,7.757450581E0
3.171489608E1,8.233911514E0,-4.597007632E-1,6.392713547E0
3.176688951E1,8.075888634E0,5.813299179E0,6.361588001E0
3.181888326E1,3.859570980E0,7.697593689E0,-2.561874151E0
3.187087962E1,2.133298874E0,-6.584255695E-1,-1.107112694E1
3.192287348E1,8.277008057E0,-8.444606781E0,5.051919818E-1
3.197482823E1,-3.181991339E0,-4.860377789E0,-9.378374100E0
3.202682152E1,1.024031353E1,-3.234665155E0,-7.446194887E-1
3.207881488E1,2.198423195E1,-2.970576668E1,9.344854355E0
3.213080831E1,1.312541485E1,-9.335277557E0,3.110162973E0
3.218280154E1,-1.675992370E0,-1.386285067E0,3.931399345E0
3.223479552E1,5.760625362E0,-6.739883423E0,5.930618763E0
3.228678928E1,1.135843945E1,-2.270011902E1,3.454938650E0
3.233878257E1,1.239276600E1,-1.550771809E1,2.293715239E0
3.239077596E1,8.978530884E0,-8.978530884E0,7.975329399E0
3.244276932E1,4.051113129E0,-1.379102230E0,5.854001999E0
3.249476262E1,4.522785187E0,8.889942169E0,3.471698463E-1
3.254675608E1,1.631458855E1,-7.328875065E0,8.940221786E0
3.259874940E1,-5.638517380E0,1.064494610E1,-1.762425613E1
3.265074359E1,6.423839092E0,6.002447128E0,-7.099024773E0
3.270273701E1,3.419024467E0,1.908236980E0,-4.814886570E0
3.275473030E1,9.457385063E0,-1.780143356E1,1.422678089E1
3.280672370E1,1.433931160E1,-3.742012024E1,2.921015322E-1
3.285871732E1,6.543552876E0,-1.049650097E1,-1.436564922E-1
3.291071561E1,5.913859010E-1,-5.873156071E0,3.181991339E0
3.296271296E1,4.350397110E0,-9.431048393E0,5.796539307E0
3.301470709E1,6.531581879E0,-9.237112045E0,3.126922846E0
3.306670032E1,1.149251938E1,-2.502017260E0,7.082264900E0
3.311869374E1,9.622590065E0,3.112557232E-1,3.146077156E0
3.317068697E1,1.886449051E1,2.849186957E-1,1.723877788E-1
3.322268029E1,7.407886028E0,3.644086361E0,-2.384697676E0
3.327467362E1,3.577046633E0,5.590631485E0,-3.732674360E0
3.332666725E1,-1.015172482E1,1.679104996E1,4.716721475E-1
3.337866123E1,-4.611373425E0,1.084367085E1,-8.813325882E0
3.343065462E1,1.500013161E1,-1.190433407E1,5.061496735E0
3.348264805E1,1.426030064E1,-3.328999710E1,-3.023969173E0
3.353464141E1,6.909877300E0,-2.044471169E1,-2.190761566E0
3.358663460E1,1.005595398E1,-8.356019020E0,4.522785187E0
3.363862802E1,1.012778282E0,-3.426207304E0,1.929785490E0
3.369062135E1,3.960130453E0,-8.820508003E0,3.723097324E0
3.374261484E1,1.013496494E1,-1.090113354E1,-1.276148438E0
3.379460906E1,2.349741364E1,-5.559505939E0,-2.789330244E0
3.384660235E1,1.337681293E1,4.541939259E0,-1.685569525E0
3.389859564E1,5.672037125E0,4.436591148E0,1.675992370E0
3.395058924E1,-3.296916485E0,5.035160065E0,-1.805283189E0
3.400258539E1,-3.014391899E0,5.423032284E0,-2.188367128E0
3.405457965E1,1.573038578E0,-5.411061287E0,1.161702156E1
3.410657301E1,-4.008016109E0,-4.300117493E0,-7.446194649E0
3.415856634E1,1.547419834E1,-3.175287247E1,3.026363373E0
3.421055976E1,1.190672874E1,-2.417259789E1,-3.723097324E0
3.426255302E1,8.097437859E0,-1.173194695E1,1.079817891E0
3.431454641E1,7.549148560E0,-2.521171331E0,5.751048088E0
3.436653987E1,5.846818924E0,-1.750214934E0,4.369551659E0
3.441853412E1,7.889135361E0,-9.847652435E0,4.178009510E0
3.447052752E1,1.211981869E1,-1.593868732E1,-5.435003638E-1
3.452252074E1,7.946598053E0,-1.008468533E1,2.370332003E0
3.457451410E1,9.794978142E0,-1.625712633E0,4.472505569E0
3.462650753E1,8.559532166E0,7.534782887E0,3.423812985E-1
3.467850075E1,-2.075836182E0,4.747847080E0,1.082212210E0
3.473049408E1,-9.177255630E0,-4.539545059E0,2.396190262E1
3.478248773E1,-2.482384109E1,8.952193260E0,-2.205127001E0
3.483448169E1,8.281796455E0,-1.560348892E1,3.284945011E0
3.488647515E1,1.818212318E1,-4.185192490E1,6.656084061E-1
3.493846837E1,1.420762634E1,-1.916138077E1,-1.604164094E-1
3.499046190E1,7.716747761E0,-3.742251635E0,3.234665155E0
3.504245942E1,3.790137053E0,-2.276955366E0,2.363149166E0
3.509445744E1,5.597814560E0,-6.469330311E0,5.473312378E0
3.514645277E1,1.056114578E1,-1.297218132E1,2.145270348E0
3.519844620E1,1.007271385E1,-5.638517380E0,8.810931206E0
3.525043942E1,9.234718323E0,1.077423692E0,2.875524044E0
3.530243275E1,8.293767929E0,1.855562925E0,4.616161823E0
3.535442601E1,-2.916226625E0,7.252258301E0,-4.491659641E0
3.540641953E1,4.438985348E0,8.293767929E0,3.974496126E0
3.545841375E1,-6.931425571E0,-1.987248063E-1,3.797319889E0
3.551040708E1,1.305598068E1,-2.249660683E1,-5.684008598E0
3.556240054E1,1.804564857E1,-3.140570259E1,6.026389599E0
3.561439376E1,7.266623974E0,-1.747341728E1,2.133298874E0
3.566638712E1,2.039922237E0,-4.989668846E0,4.687990189E0
3.571838048E1,4.031958580E0,-2.559479713E0,7.146910191E0
3.577037381E1,3.854782343E0,-7.798152924E0,7.771816254E0
3.582236717E1,1.350849819E1,-2.223084068E1,2.997632027E0
3.587436142E1,1.257473087E1,-1.203362560E1,5.897099018E0
3.592635478E1,5.698374271E0,-5.095016956E0,2.997632027E0
3.597834814E1,3.430995703E0,3.088614464E0,2.686376333E0
3.603034150E1,-1.091789365E0,4.101392746E0,1.103760719E0
3.608233509E1,-3.689577579E0,2.401457548E0,-4.968120098E0
3.613433224E1,1.053480953E-1,-4.994457245E0,6.476513386E0
3.618633039E1,-5.743865490E0,-1.144223976E1,-2.490045786E0
3.623832482E1,5.906675816E0,-1.800015831E1,4.750241280E0
3.629031831E1,1.509590244E1,-3.357970428E1,-1.913025618E0
3.634231171E1,6.043149471E0,-2.499622822E0,4.058295727E0
3.639430480E1,5.248250484E0,-4.091815472E0,4.376734257E0
3.644629806E1,5.006428719E0,-4.063084126E0,7.649707794E0
3.649829152E1,1.769608498E1,-1.784931946E1,8.403904915E0
3.655028498E1,1.607755470E1,-1.364257812E1,5.068679810E0
3.660227906E1,7.247469902E0,-3.967313290E0,1.867534369E-1
3.665427269E1,6.038361073E0,2.176395893E0,-1.802888989E0
3.670626581E1,-2.794118643E0,6.974522591E0,-2.387091875E0
3.675825914E1,-4.501236677E-1,4.201952457E0,6.512427330E-1
3.681025263E1,6.141314983E0,-5.248250484E0,1.159307861E1
3.686224586E1,6.464542150E-1,-1.172236919E1,4.506025314E0
3.691423922E1,2.013585091E0,-6.926637173E0,4.403071404E0
3.696623274E1,1.091310501E1,-1.750693703E1,3.519583941E0
3.701822686E1,9.000079155E0,-1.311583710E1,5.801327705E0
3.707022022E1,5.593026161E0,-3.440572977E0,1.156434774E0
3.712221361E1,5.133325100E0,-5.849213123E0,5.593026161E0
3.717420714E1,1.517730808E1,-1.753327370E1,4.685595989E0
3.722620262E1,1.426508904E1,-1.387482262E1,3.727885962E0
3.727819688E1,1.013017654E1,-5.473312378E0,6.093429565E0
3.733019064E1,3.311282158E0,3.000026226E0,4.939388752E0
3.738218419E1,-6.493273258E0,7.769421577E0,-3.409447432E0
3.743417729E1,2.729473352E0,5.827664852E0,-1.690358043E0
3.748617088E1,-4.812492430E-1,4.788549542E-1,2.746233225E0
3.753816364E1,1.653486252E1,-1.714540100E1,1.229938984E1
3.759015673E1,-4.939388752E0,1.467690468E0,-1.465296149E0
3.764215099E1,1.547659206E1,-3.297874069E1,5.375146866E0
3.769414421E1,1.118844604E1,-1.045340347E1,6.766220570E0
3.774613754E1,-9.337671846E-2,-3.196356773E0,1.630501151E0
3.779813116E1,2.777358770E0,-3.122134447E0,7.000859737E0
3.785012422E1,9.035993576E0,-1.619248009E1,6.284971237E0
3.790211847E1,1.409509563E1,-1.140632534E1,1.025946712E1
3.795411177E1,7.937020779E0,-7.992089272E0,2.806090117E0
3.800610602E1,1.120520592E0,-2.104567528E0,4.946571827E0
3.805809974E1,-1.383890867E0,7.010436535E0,-4.465322495E0
3.811009304E1,7.518023014E0,8.648120880E0,8.858817071E-2
3.816208606E1,5.174027920E0,2.683982134E0,-3.284945011E0
3.821407939E1,6.976916790E0,-5.942590237E0,1.370243454E1
3.826607604E1,7.699987888E0,-8.044763565E0,-2.597788095E0
3.831807477E1,9.261054993E0,-1.497379494E1,6.852414608E0
3.837006966E1,7.929838181E0,-1.957798576E1,-5.051919818E-1
3.842206302E1,3.972101927E0,2.983266354E0,4.472505569E0
3.847405628E1,3.598595142E0,-2.719896078E0,3.050306082E0
3.852604914E1,1.026186180E1,-7.977723598E0,7.249864101E0
3.857804210E1,1.480380154E1,-2.015261078E1,3.830839634E0
3.863003529E1,1.339836216E1,-1.014933109E1,5.509226322E0
3.868202859E1,8.023215294E0,-2.983266354E0,5.406272411E0
3.873402251E1,-7.901107073E-1,2.547508478E0,5.791750908E0
3.878601639E1,-7.743084908E0,2.648067951E0,2.142875910E0
3.883800962E1,9.313728809E-1,2.494834423E0,1.656838179E0
3.889000374E1,6.124555111E0,-1.503604531E0,-4.676018715E0
3.894199736E1,2.897790718E1,-5.360781193E0,8.291373253E0
3.899399056E1,-5.839636326E0,-3.325647593E0,-1.114056110E1
3.904598402E1,1.005595398E1,-1.000806904E1,3.442967176E0
3.909797757E1,4.371945858E0,-2.693559170E0,-3.284945011E0
3.914997159E1,8.858817071E-2,-7.534782887E0,5.011217117E0
3.920196509E1,4.869955063E0,-3.591412306E0,8.241093636E0
3.925395851E1,1.422438622E1,-2.854933357E1,8.344047546E0
3.930398487E1,1.655162239E1,-5.664854050E0,6.519610405E0
3.935597976E1,1.382933140E1,-6.996070862E0,3.399870157E0
3.940797552E1,7.858009815E0,-2.183578730E0,2.585816681E-1
3.945996865E1,9.241901040E-1,7.649707794E0,-9.481328130E-1
3.951196184E1,-3.567469358E0,6.330462456E0,-7.125361919E0
3.956395447E1,5.961744189E-1,5.842030525E0,-5.597814560E0
3.961594773E1,-1.221080124E-1,-2.712713242E0,-1.328822494E0
3.966794106E1,1.296978664E1,-3.542329407E1,3.454938507E1
3.971993448E1,2.415105057E1,-1.583573341E1,1.407833576E0
3.977192867E1,-2.511594296E0,-1.406397057E1,-1.177743816E1
3.982392219E1,7.336058140E0,8.140534163E-1,2.707924843E0
3.987591638E1,3.464515686E0,-5.063891411E0,1.446141958E0
3.992790973E1,1.094183564E0,-1.039354706E1,5.054314137E0
3.997990306E1,7.051139355E0,-1.376468563E1,4.048718929E0
4.003189649E1,1.371440601E1,-1.143026829E1,9.244295120E0
4.008388978E1,1.186842060E1,-3.519583941E-1,3.261002302E0
4.013588327E1,1.161462688E1,3.107768774E0,-1.242628574E0
4.018787759E1,2.458920240E0,4.903474808E0,-3.988861799E0
4.023987081E1,-4.932205975E-1,3.234665155E0,-8.138139725E0
4.029186407E1,1.337681293E1,1.015172482E0,2.354769325E1
4.034385746E1,-1.032411289E1,1.489238977E0,-1.375271416E1
4.039585269E1,1.453803635E1,-3.380237198E1,-4.764606953E0
4.044785161E1,1.064733982E1,-2.362191582E1,4.719115734E0
4.049984756E1,1.228981304E1,-1.125069714E1,1.382214832E1
4.055184076E1,1.192109394E1,-1.618529797E0,1.173434067E1
4.060383408E1,1.037678719E1,-2.355966330E0,7.431828976E0
4.065582754E1,8.181237221E0,-5.473312378E0,2.906649590E0
4.070782084E1,1.081493950E1,-4.956148624E0,-3.684788942E0
4.075981416E1,8.075888634E0,-3.553103924E0,-1.723877788E-1
4.081180779E1,1.040551853E1,-4.786155224E0,-1.154040456E0
4.086380114E1,1.670006752E1,-5.454157829E0,5.458946705E0
4.091579520E1,-4.336031914E0,-4.182797909E0,-1.588840771E1
4.096778849E1,3.538738251E0,-1.532335877E-1,-1.543349552E1
4.101978185E1,2.569056988E0,-3.105374336E0,-1.932898140E1
4.107177524E1,4.185192585E0,-5.080651283E0,-7.977723598E0
4.112376850E1,2.082061386E1,-1.529702187E1,9.960183144E0
4.117576189E1,1.470084763E1,-2.493637276E1,1.094662476E1
4.122775512E1,9.778218269E0,-1.069283104E1,-1.860351562E0
4.127974878E1,-4.436591148E0,-4.058295727E0,6.900300026E0
4.133174286E1,7.096630573E0,-9.771035194E0,9.483722687E0
4.138373612E1,1.485168648E1,-1.539039803E1,6.383136749E0
4.143572958E1,1.202165413E1,-3.699154615E0,2.434977531E0
4.148772394E1,6.098217964E0,2.011190891E0,2.516382933E0
4.153971999E1,5.873156071E0,-3.849993944E0,-1.102084732E1
4.159171362E1,2.964112282E0,7.075081825E0,-1.823240280E1
4.164370691E1,-5.427821159E0,2.032020950E1,-1.644866824E0
4.169570021E1,-6.878751755E0,1.217728138E1,-5.260221958E0
4.174769360E1,6.356799603E0,-2.121566963E1,1.609910393E1
4.179968686E1,1.325709915E1,-3.516231918E1,-6.225114465E-1
4.185168025E1,9.905115128E0,-1.871844101E1,1.082212210E0
4.190367381E1,1.011102295E1,-1.104000092E1,2.241041183E0
4.195566789E1,4.953754425E0,-2.640885115E0,3.866753817E0
4.200766119E1,8.109408379E0,-1.589798450E0,8.518829346E0
4.205965448E1,8.909096718E0,-4.508419514E0,8.825297356E0
4.211164790E1,1.158829021E1,-2.954535007E0,7.582668304E0
4.216364123E1,8.607418060E0,3.687183261E-1,7.182824612E-2
4.221563449E1,5.626545906E0,1.197137404E-2,-1.285725594E0
4.226762792E1,3.351984620E-1,4.173221111E0,-3.050306082E0
4.231962187E1,-6.196382999E0,5.772596359E0,-3.265790939E0
4.237161562E1,-4.381522834E-1,-4.850800991E0,2.201296234E1
4.242360888E1,-2.533142805E0,1.301767254E1,1.817254543E0
4.247560214E1,9.912297249E0,-3.044080925E1,1.604403496E1
4.252759670E1,1.143984509E1,-2.842004204E1,7.795758724E0
4.257959548E1,8.712765694E0,-9.237112045E0,5.116565228E0
4.263159244E1,2.887495518E0,-6.330462456E0,2.729473412E-1
4.268358654E1,9.912297726E-1,-5.492466450E0,1.766974807E0
4.273557993E1,5.930618763E0,-6.864386082E0,8.186025620E0
4.278757326E1,1.257712555E1,-4.458139896E0,1.069043732E1
4.283956655E1,1.407354736E1,1.053480864E0,5.820482254E0
4.289155981E1,-3.519583941E-1,2.540325642E0,-7.063110471E-1
4.294355340E1,-1.834014535E0,9.665687561E0,-6.359193802E0
4.299554752E1,-1.952770615E1,1.136322784E1,-1.272796535E1
4.304754091E1,3.502824068E0,4.094209969E-1,7.486897469E0
4.309953434E1,1.834253883E1,-2.886298370E1,3.102980137E0
4.315152760E1,1.467211628E1,-2.850384140E1,6.076669693E0
4.320352092E1,8.044763565E0,-1.440395737E1,1.771763325E0
4.325551432E1,6.280182838E0,-2.988054991E0,5.286558628E0
4.330750764E1,4.632921696E0,-7.805336118E-1,4.522785187E0
4.335950107E1,6.952973843E0,-2.748627424E0,6.332856655E0
4.341149515E1,4.920234680E0,-7.994483471E0,1.059227180E1
4.346348858E1,4.525179386E0,-1.158110714E1,8.394327164E0
4.351548197E1,1.193785381E1,-1.774397087E1,1.314696312E1
4.356747520E1,3.328042030E-1,-2.171607256E0,-1.412622184E-1
4.361946968E1,-3.309845352E1,2.493158340E1,-1.458592224E1
4.367146844E1,7.518023014E0,-6.531581879E0,1.003680038E1
4.372346503E1,1.113098335E1,-5.077059555E1,-8.205180168E0
4.377545866E1,7.273807049E0,-2.299461555E1,5.868367672E0
4.382745202E1,1.398256540E0,-1.997303963E1,3.256213665E-1
4.387944534E1,2.509200096E0,-6.859597206E0,6.225114316E-2
4.393143870E1,6.352011204E0,1.520364523E0,6.881145954E0
4.398343213E1,8.183630943E0,2.588211060E0,5.197970390E0
4.403542542E1,8.468549728E0,-4.877137661E0,9.457385540E-1
4.408741891E1,3.749434233E0,-1.470084786E0,5.269080734E1
4.413941296E1,-1.603206444E1,-9.735121727E0,-1.801452446E1
4.419140642E1,-8.798959732E0,2.880552101E1,-2.624125242E0
4.424339962E1,4.681764984E1,-4.005621910E0,1.382933140E1
4.429539321E1,-4.010410309E0,-5.305713177E0,-3.378321648E0
4.434738637E1,2.742881203E1,-2.619336700E1,-2.755810261E0
4.439937959E1,4.834040642E0,-2.367698288E1,-6.924242973E0
4.445137305E1,8.789382935E0,-1.832577896E1,-5.695979595E0
4.450336677E1,8.197997093E0,-7.695199013E0,-2.456526041E0
4.455536066E1,8.080677032E0,-1.491633177E0,3.912245035E0
4.460735412E1,3.914639235E0,3.351984620E-1,2.399063349E0
4.465934751E1,8.068706393E-1,-5.059102535E0,-1.268965602E-1
4.471134127E1,4.036747456E0,-5.662459850E0,1.166011810E0
4.476333766E1,7.589851379E0,9.768640995E-1,7.733507752E-1
4.481533135E1,1.353244114E1,5.887521744E0,5.145296574E0
4.486732471E1,8.681640625E0,3.153259993E0,3.969707727E0
4.491931807E1,7.790970325E0,-2.724684715E0,7.515628815E0
4.497131166E1,-6.466936111E0,-4.570670605E0,5.480494976E0
4.502330472E1,1.725314522E1,-3.631396484E1,-6.991282701E-1
4.507529802E1,8.178842545E0,-1.817972946E1,-5.842030525E0
4.512729177E1,1.862745762E0,-1.561785412E1,1.388679445E-1
4.517928569E1,7.429434776E0,-3.296916485E0,6.610592842E0
4.523127895E1,6.179623127E0,1.321639657E0,3.481275558E0
4.528327254E1,9.792584419E0,-7.015225410E0,3.361561775E0
4.533526577E1,8.616994858E0,-1.476070404E1,7.422251701E-1
4.538725903E1,8.734314919E0,-8.959376335E0,2.564268351E0
4.543925242E1,1.036721039E1,-4.438985348E0,2.705530643E0
4.549124568E1,3.849993944E0,6.775797606E-1,2.233858347E0
4.554323980E1,-1.156434774E0,5.411061287E0,1.058269501E0
4.559523359E1,1.913025618E0,9.469356537E0,1.185166001E0
4.564722692E1,1.405439258E0,-1.675992370E0,3.651269197E0
4.569922024E1,2.359078979E1,-1.006313705E1,1.192348838E0
4.575121387E1,5.916253090E0,-1.290753555E1,4.836435318E0
4.580321229E1,1.440156269E1,-2.958366013E1,3.263396502E0
4.585520975E1,2.801301479E0,-5.104593754E0,1.508393139E-1
4.590720437E1,4.932205975E-1,-5.303318501E0,1.632895470E0
4.595919776E1,3.639297783E-1,-5.037554264E0,4.905869007E0
4.601119112E1,4.008016109E0,-1.076465988E1,7.252258301E0
4.606318465E1,1.730821228E1,-1.026904488E1,4.635315895E0
4.611517784E1,1.374792576E1,-7.242681503E0,6.790163517E0
4.616717103E1,9.395133972E0,2.185972929E0,1.845985889E0
4.621916515E1,1.005595401E-1,7.802941799E0,-2.262589693E0
4.627115881E1,2.008557129E1,-2.434977531E0,2.339206457E0
4.632315217E1,-8.315316200E0,9.289786220E-1,7.613793612E-1
4.637514553E1,-5.937801361E0,-4.549122334E0,-5.640911579E0
4.642713889E1,1.527307892E1,-1.852689934E1,6.074275017E0
4.647913215E1,1.255078888E1,-3.272973633E1,2.315263748E0
4.653112554E1,4.893897533E0,-1.357314396E1,1.956122518E0
4.658305576E1,5.176422119E0,3.665634632E0,1.030974770E1
4.663504974E1,5.171633720E0,-4.980091572E0,8.372778893E0
4.668704330E1,8.315316200E0,-8.724737167E0,5.736682415E0
4.673903640E1,1.755482292E1,-1.695146561E1,6.833260536E0
4.679102979E1,8.854028702E0,-9.493299484E0,4.249837875E0
4.684302345E1,7.410280704E0,-4.515602112E0,1.496421814E0
4.689502177E1,3.351984620E-1,1.714300752E0,-2.370332003E0
4.694701915E1,-3.225088120E0,7.407886028E0,-2.770175934E0
4.699901315E1,9.146129489E-1,1.067846537E0,1.592192769E0
4.705100651E1,4.048718929E0,-8.595446348E-1,-8.207573891E0
4.710299980E1,3.963961411E1,-1.563940334E1,7.158881664E0
4.715499319E1,3.739857197E0,-1.701371765E1,6.694392204E0
4.720698659E1,6.572284222E0,-2.815188408E1,3.663240433E0
4.725897978E1,8.379961967E0,-1.517970204E0,8.025609016E0
4.731097344E1,-2.640885115E0,-3.589017868E0,3.833234072E0
4.736296749E1,-1.745426297E0,-9.787795067E0,9.610619545E0
4.741496078E1,1.764580488E0,-1.712145996E1,3.531555414E0
4.746695441E1,1.661387253E1,-1.109267521E1,1.057790565E1
4.751894767E1,1.366412640E1,-4.740664005E0,-2.873129770E-2
4.757094082E1,8.739103317E0,4.788549542E-1,-8.961771011E0
4.762293422E1,5.528380394E0,5.382329941E0,-6.732700825E0
4.767492751E1,1.489238977E0,6.708757877E0,-8.751074791E0
4.772692153E1,1.324273396E1,-1.012778282E0,5.430215359E0
4.777891525E1,-3.193962574E0,-3.234665155E0,-7.620976925E0
4.783090854E1,4.678412914E0,-2.628434944E1,4.886714935E0
4.788290187E1,1.500731468E1,-2.826441383E1,5.705556870E0
4.793489550E1,-1.213897347E0,-1.380778313E1,-9.194015265E-1
4.798689155E1,5.406272411E0,1.268965602E0,5.952167034E0
4.803888584E1,8.696005821E0,7.326480746E-1,8.353624344E0
4.809087917E1,9.457385063E0,-1.205756760E1,8.291373253E0
4.814287256E1,1.479661846E1,-1.718371010E1,5.600208759E0
4.819486589E1,5.569083214E0,-1.313978004E1,4.118152618E0
4.824685918E1,3.196356773E0,-6.040755272E0,3.067065954E0
4.829885264E1,1.268965602E-1,1.101366431E-1,-6.201171875E-1
4.835084626E1,1.587404251E0,-4.501236439E0,-1.716695070E0
4.840284022E1,-3.636903524E0,-1.745426297E0,-5.578660369E-1
4.845483358E1,8.547561169E-1,1.266571403E0,4.812492430E-1
4.850682697E1,-6.696786404E0,-1.715258408E1,3.023969173E0
4.855882016E1,7.132544518E0,-4.327891159E1,4.628133297E0
4.861081365E1,1.584531021E1,-1.955883026E1,1.845985889E0
4.866280688E1,6.150891781E0,-4.218712330E0,7.508445740E0
4.871480021E1,4.467716694E0,2.478074312E0,5.734288216E0
4.876679416E1,5.930618763E0,-6.220325947E0,5.423032284E0
4.881878782E1,9.112609863E0,-1.875674820E1,7.673650742E0
4.887078124E1,1.031692982E1,-1.017087936E1,1.030735302E1
4.892277463E1,7.716747761E0,-1.338399649E0,1.140153694E1
4.897476809E1,4.570670605E0,1.687963724E0,3.380716085E0
4.902676551E1,6.584255695E-1,2.873129845E-1,-3.241847992E0
4.907876356E1,-2.011190891E0,5.004034519E0,-1.140632534E1
4.913075796E1,-8.492492676E0,1.108549237E0,7.494080067E-1
4.918275122E1,-1.254599953E1,-5.169239521E0,-1.565855742E0
4.923474458E1,9.186832428E0,-3.057010078E1,1.674077034E1
4.928673797E1,1.857478333E1,-3.249270248E1,3.873936653E0
4.933873123E1,1.309428883E1,-8.480521202E0,4.925023079E0
4.939072466E1,5.530774593E-1,-4.850800991E0,-2.861158371E0
4.944271795E1,6.905088425E0,-4.369551659E0,-4.381522834E-1
4.949471197E1,1.627627945E1,-8.351230621E0,3.634509087E0
4.954670576E1,2.062907219E1,6.572284222E0,7.577879906E0
4.959869892E1,1.130337143E1,5.712739468E0,1.253642273E1
4.965069224E1,-3.375927448E0,1.970488191E0,9.186832428E0
4.970268570E1,-1.563461494E1,-3.531555414E0,-2.200338602E0
4.975467889E1,-2.846553230E1,9.885960579E0,-1.674795151E1
4.980667229E1,-1.373834896E1,7.082264900E0,-8.856422424E0
4.985866568E1,7.838855743E0,-1.290753555E1,1.162420464E1
4.991065980E1,2.727318382E1,-5.565252304E1,-1.091789365E0
4.996265326E1,1.660668945E1,-1.778467369E1,7.280989647E0
5.001464665E1,4.472505569E0,-6.945791245E0,-7.182824425E-3
5.006664007E1,7.427040577E0,2.873129845E-1,4.972908974E0
5.011863586E1,1.084367085E1,1.225868702E0,6.711152077E0
5.017063066E1,1.484689808E1,-4.546727657E0,7.185218811E0
5.022262402E1,1.597699547E1,-3.715914488E0,9.907508850E0
5.027461731E1,9.318517685E0,1.280937076E0,3.919427872E0
5.032661070E1,6.735095024E0,-3.663240373E-1,3.191568375E0
5.037860403E1,8.360807419E0,1.508393139E-1,1.714300752E0
5.043059725E1,-1.221559048E1,-3.562680960E0,-1.264655972E1
5.048259075E1,-8.873182297E0,9.601042271E-1,-1.075508213E1
5.053458490E1,-3.198751211E0,5.267404318E-1,-7.182824612E-1
5.058657832E1,2.047344398E1,-1.477028084E1,1.041988373E1
5.063857165E1,1.909673500E1,-2.841046524E1,8.406298637E0
5.069056514E1,1.776312447E1,-1.524434757E1,5.446975231E0
5.074255830E1,1.010862827E1,1.807677507E0,7.328875065E0
5.079455169E1,5.411061287E0,-1.829225898E0,5.849213123E0
5.084654508E1,8.430241585E0,-1.545743847E1,6.658478260E0
5.089853874E1,1.573756790E1,-1.213657856E1,9.203592300E0
5.095053299E1,1.244783497E1,-9.411893845E0,4.424619675E0
5.100252612E1,8.516435623E0,-1.443747759E0,1.041509509E0
5.105451941E1,-1.060663700E0,4.094209969E-1,-5.506832004E-1
5.110651267E1,-2.774964571E0,1.798100352E0,-1.264177084E0
5.115850936E1,8.502069473E0,1.987248063E0,1.101605797E1
5.121050768E1,-1.614938354E1,1.169842625E1,-1.468648148E1
5.126250368E1,6.730306625E0,-7.860404015E0,1.359948039E0
5.131449724E1,2.180945015E1,-2.889650345E1,1.719568253E1
5.136649056E1,1.065212822E1,-2.600421906E1,2.092596292E0
5.141848372E1,6.598621368E0,-8.619388938E-2,4.446168423E0
5.147047708E1,1.331216812E0,-4.245049000E0,1.822043180E0
5.152247051E1,7.216344357E0,-9.569916725E0,7.400703430E0
5.157446416E1,1.631698227E1,-1.319245434E1,5.193181992E0
5.162645812E1,1.266571331E1,-1.045340347E1,5.561900616E0
5.167845141E1,7.862798691E0,-1.910631299E0,6.225114346E0
5.173044490E1,3.189173937E0,4.096604347E0,1.920208454E0
5.178243813E1,1.326428294E0,4.163643837E0,2.537931204E-1
5.183443169E1,8.147717476E0,-2.276955366E0,6.253845692E0
5.188642475E1,3.703943014E0,-6.574678421E0,-7.278595567E-1
5.193841804E1,-1.926672935E1,5.219519138E-1,-6.356799603E0
5.199041199E1,2.171607256E0,-9.387951851E0,4.132518291E0
5.204240578E1,2.820695114E1,-4.663568497E1,7.417463303E0
5.209439907E1,1.558194065E1,-4.740664005E0,9.361614585E-1
5.214639253E1,-9.577099234E-3,-1.608952641E0,-1.240234375E0
5.219838576E1,7.937020779E0,-7.343240738E0,6.912271500E0
5.225038215E1,1.299612331E1,-1.979107475E1,3.859570980E0
5.230238087E1,1.536884975E1,-1.142787361E1,6.519610405E0
5.235437583E1,9.524425507E0,-7.022408009E0,5.909070015E0
5.240636915E1,3.246636629E0,-2.624125242E0,3.225088120E0
5.245836255E1,-1.458113313E0,2.444554567E0,-7.625765324E0
5.251035584E1,8.171659470E0,3.375927448E0,-2.406246185E0
5.256234923E1,-9.395133972E0,1.481577206E1,-1.316851139E0
5.261434246E1,-4.788549423E0,-5.707951069E0,-5.640911579E0
5.266633582E1,1.170082092E1,-2.752697754E1,8.832479477E0
5.271833000E1,2.424203300E1,-3.308409119E1,7.525205612E0
5.277032336E1,-1.503604531E0,-1.348455620E1,2.870735407E0
5.282231679E1,7.316903591E0,6.031178474E0,1.850774407E0
5.287431021E1,5.004034638E-1,-5.341627121E0,2.025556564E0
5.292630341E1,8.447001457E0,-1.328343678E1,4.529967785E0
5.297829677E1,1.193785381E1,-1.597220707E1,2.358360767E0
5.303029013E1,9.605830193E0,-1.237840080E1,3.500429869E0
5.308228382E1,6.869174480E0,-2.288926601E0,4.216318130E0
5.313427770E1,4.189980924E-1,8.509252548E0,1.395862222E0
5.318627113E1,-1.489957237E1,5.636122704E0,5.961744189E-1
5.323826452E1,-1.651331329E1,9.050358772E0,-6.002447128E0
5.329025781E1,-5.166844845E0,-7.582668304E0,-3.004814863E0
5.334225300E1,1.769847870E1,-4.327651596E1,-3.399870098E-1
5.339424849E1,1.803607178E1,-2.790527344E1,5.169239521E0
5.344624172E1,8.138139725E0,-1.249093151E1,2.370332032E-1
5.349823525E1,2.686376333E0,-1.810071707E0,3.675211906E0
5.355022854E1,4.534756660E0,-5.796539307E0,5.415849686E0
5.360222180E1,5.164450645E0,-1.041988373E1,4.381523132E0
5.365421529E1,9.526819229E0,-3.711125851E0,6.732700825E0
5.370620858E1,1.171279240E1,-1.898659945E0,9.316123009E0
5.375820276E1,8.734314919E0,-1.333611012E0,5.873156071E0
5.381019622E1,-9.337671846E-2,1.381496549E0,7.175641537E0
5.386218948E1,1.757397652E0,2.818061352E0,-1.055875206E1
5.391227030E1,-8.827691078E0,-1.192348838E0,-7.963357925E0
5.396426363E1,-7.836461544E0,-1.051086664E0,-4.388705730E0
5.401625712E1,1.357553864E1,-1.969530487E1,4.539545059E0
5.406825032E1,3.071375656E1,-2.496270943E1,-9.265843630E-1
5.412024387E1,9.871595383E0,-1.351089287E1,2.363149166E0
5.417223799E1,8.248276711E0,2.248224020E0,5.212336063E0
5.422423152E1,2.401457548E0,-4.654470444E0,7.118178844E0
5.427622468E1,8.593051910E0,-6.914665699E0,8.803748131E0
5.432821817E1,1.543110085E1,-1.333371639E1,7.972935200E0
5.438021329E1,1.244304657E1,-2.834821463E0,3.395081758E0
5.443221224E1,1.277585030E1,5.875550270E0,-2.762993097E0
5.448420807E1,5.640911579E0,6.244268894E0,-2.269772530E0
5.453620139E1,-1.783734679E0,1.046298146E0,-5.027977228E-1
5.458819462E1,-1.144702816E1,-2.995237827E0,9.067118645E0
5.464018814E1,2.150058746E0,-1.021158218E1,-5.609786034E0
5.469218137E1,1.728666425E0,-1.410946178E1,4.259414673E0
5.474417473E1,5.169239521E0,-2.874326897E1,3.076643229E0
5.479616809E1,1.845267677E1,-2.259237671E1,9.141341209E0
5.484816171E1,9.306546211E0,2.968900800E-1,5.593026161E0
5.490015573E1,7.654496670E0,-4.314483166E0,8.226728439E0
5.495214909E1,6.454965115E0,-8.873182297E0,1.194982529E1
5.500414238E1,1.204799080E1,-1.422678089E1,8.463761330E0
5.505613574E1,1.253163433E1,-8.288979530E0,7.881952763E0
5.510812910E1,6.682421207E0,-2.966506481E0,6.713546753E0
5.516012253E1,-1.826831698E0,-2.600182533E0,-4.453351200E-1
5.521211565E1,-2.511594296E0,2.662433624E0,-6.893116951E0
5.526410984E1,1.328822494E0,3.191568375E0,-6.488484740E-1
5.531610346E1,-2.571451187E0,-2.327235222E0,1.217488766E1
5.536809676E1,-3.759011507E0,-3.239453793E0,5.648094177E0
5.542009015E1,3.488458395E0,-1.384369659E1,3.802108288E0
5.547208461E1,6.500456333E0,-2.262829208E1,4.292934895E0
5.552408056E1,9.454991341E0,-1.054917526E1,7.364789486E0
5.557607416E1,6.708757877E0,-2.248224020E0,7.099024773E0
5.562806745E1,4.544333458E0,-3.747040033E0,6.814105988E0
5.568006074E1,1.293387222E1,-1.699695778E1,5.195576191E0
5.573205413E1,2.041358757E1,-1.614459419E1,6.658478260E0
5.578404739E1,1.264895344E1,-6.148497581E0,5.387118340E0
5.583604082E1,9.505270958E0,8.763045669E-1,5.827664852E0
5.588803487E1,3.150865555E0,7.355212212E0,7.422251701E-1
5.594002849E1,-1.680780888E0,6.536370516E-1,-6.680026531E0
5.599202182E1,-1.443747759E0,-1.264177084E0,-7.620976925E0
5.604401508E1,2.863073730E1,-1.795945549E1,-1.010383964E0
5.609600847E1,1.014693642E1,-1.459310532E1,-3.591412306E-2
5.614800180E1,7.295355320E0,-2.853017807E1,2.830032825E0
5.619999516E1,5.643305779E0,-1.056832886E1,8.111803055E0
5.625198852E1,1.054199219E1,-6.656084061E-1,1.336244774E1
5.630398270E1,5.729499817E0,-5.099805355E0,7.245075703E0
5.635597609E1,7.053533554E0,-1.400890160E1,2.861158371E0
5.640796958E1,1.215094471E1,-1.242628670E1,4.015198708E0
5.645996271E1,9.488511086E0,-8.533195496E0,4.582642078E0
5.651195737E1,8.657697678E0,1.422199249E0,5.506832123E0
5.656395612E1,1.175588894E1,5.518803596E0,1.022355318E0
5.661595308E1,5.245856285E0,1.301048946E1,6.002447128E0
5.666794711E1,3.512401104E0,4.235472202E0,2.925803900E0
5.671994050E1,3.507612705E0,2.207521439E0,-1.039115310E0
5.677193386E1,8.233911514E0,-8.655303001E0,-1.438719749E1
5.682392719E1,4.345608711E0,-2.148622131E1,3.428601503E0
5.687592048E1,1.552926636E1,-5.169239521E0,3.533949614E0
5.692791417E1,1.383172512E1,-9.045570374E0,2.777358770E0
5.697990812E1,-9.292180061E0,-5.626545906E0,-2.322446555E-1
5.703190148E1,9.122186661E0,-6.507638931E0,6.747066498E0
5.708389487E1,9.502876282E0,-2.267857170E1,3.423812985E-1
5.713588823E1,1.406157589E1,-1.879745102E1,3.210722446E0
5.718788152E1,1.306555748E1,-1.031214142E1,6.426233768E0
5.723987489E1,9.213169098E0,-8.686429024E0,8.566715240E0
5.729186818E1,8.542772293E0,2.473285913E0,3.620143414E0
5.734386206E1,1.364736676E0,7.778998852E0,-5.004034638E-1
5.739585599E1,8.801354408E0,1.089634418E1,-1.780861664E1
5.744784918E1,3.794925690E0,7.453377247E0,4.127729893E0
5.749984257E1,2.238646984E0,3.246636629E0,-2.147664452E1
5.755183586E1,5.880339146E0,2.727078915E0,8.810931444E-1
5.760383029E1,1.123393726E1,-4.039141655E0,-1.053480864E0
5.765582914E1,1.254121113E1,-1.858436012E1,1.661626697E0
5.770782560E1,1.740637779E0,-2.964351654E1,2.743839025E0
5.775981926E1,1.181814003E1,-2.434977531E0,5.099805355E0
5.781181262E1,9.122186899E-1,-1.136083412E1,1.453324795E0
5.786380588E1,1.082212257E1,-1.476070404E1,6.275394440E0
5.791579917E1,1.280218697E1,-8.616994858E0,3.117345810E0
5.796779260E1,6.835654736E0,-1.889082789E0,2.106961727E0
5.801978592E1,9.258660316E0,2.401457548E0,-2.106961727E0
5.807177958E1,3.519583941E0,5.284164429E0,-3.926610708E0
5.812377350E1,-1.096098995E1,5.667248249E0,8.164477348E0
5.817576726E1,-1.273035908E1,1.841436768E1,-3.780560017E0
5.822776018E1,-2.513988614E-1,-2.971295118E0,-2.418217510E-1
5.827975354E1,3.129077721E1,-4.780169678E1,9.299363136E0
5.833174687E1,1.321639729E1,-1.674555779E1,4.412648678E0
5.838374016E1,3.600989342E0,-1.039115238E1,-2.549902678E0
5.843573362E1,-4.022381604E-1,-1.542870712E1,-2.537931204E-1
5.848772751E1,1.426987767E0,-1.463380718E1,2.743839025E0
5.853972116E1,7.300143719E0,-4.383917332E0,6.715940952E0
5.859171462E1,8.418270111E0,1.424593568E0,6.933819771E0
5.864370781E1,1.048452950E1,8.528407097E0,3.816473961E0
5.869570184E1,3.632114887E0,8.475732803E0,1.096577883E0
5.874769813E1,-1.067846537E0,4.843617916E0,-2.442160249E-1
5.879969189E1,1.053480911E1,-2.473285913E0,-1.599615002E1
5.885168532E1,-6.033572674E0,3.002420664E0,-1.242628574E0
5.890367864E1,4.515602112E0,-6.478907585E0,5.250644684E0
5.895567190E1,2.675841522E1,-2.637772560E1,7.992089272E0
5.900766526E1,1.104478931E1,-2.614787483E1,-2.066259146E0
5.905965865E1,9.294574738E0,-7.316903591E0,2.461314440E0
5.911165264E1,3.545921087E0,-2.997632027E0,3.316070557E0
5.916364629E1,5.188393593E0,-4.721509933E0,5.023188591E0
5.921563958E1,9.426259995E0,-1.173912907E1,1.422199249E0
5.926763304E1,1.634571457E1,-8.609811783E0,9.014444351E0
5.931962627E1,1.093944168E1,-1.932179809E0,-4.620950520E-1
5.937161956E1,5.188393593E0,8.923461914E0,-3.114951611E0
5.942361302E1,-8.822902679E0,1.007750225E1,-3.794925690E0
5.947560631E1,-1.426748371E1,-1.764580488E0,1.069283104E1
5.952760040E1,-1.268965602E-1,3.249030828E0,-7.623371124E0
5.957959412E1,-4.022381604E-1,-3.050306082E0,-1.446141958E0
5.963158732E1,1.589559078E1,-1.970727539E1,1.042946148E1
5.968358078E1,1.324033928E1,-2.373923492E1,2.533142805E0
5.973557440E1,1.685569382E1,-9.469356537E0,7.180429935E0
5.978757279E1,8.116591573E-1,-3.347196102E0,1.556278586E0
5.983957014E1,7.230710030E0,-6.818894863E0,7.201978683E0
5.989156420E1,1.359469223E1,-1.883097076E1,6.672843933E0
5.994355733E1,1.154758739E1,-8.765439987E0,6.924242973E0
5.999555062E1,7.558725357E0,3.153259993E0,6.335251331E0
6.004754405E1,7.381549358E0,7.163670063E0,-8.619389534E-1
6.009953738E1,7.506051540E0,2.686376333E0,-3.035940409E0
6.015153067E1,8.288979530E0,1.412622184E-1,-1.189954638E0
6.020352409E1,-3.306493521E0,-5.760625362E0,2.648067951E0
6.025551841E1,7.623371124E0,-5.573871613E0,1.494985199E1
6.030751164E1,-3.498035431E0,-2.964112282E0,2.887495518E0
6.035950506E1,3.632114887E0,-1.257233715E1,5.947378635E0
6.041149846E1,3.459727049E0,-2.548466110E1,3.016786277E-1
6.046349165E1,1.060424328E1,-6.658478260E0,5.106987953E0
6.051548521E1,5.415849686E0,-7.024802208E0,2.825244188E0
6.056747850E1,7.197190285E0,-1.625473213E1,-5.602602959E-1
6.061947186E1,1.692991638E1,-1.084127617E1,7.206767082E0
6.067146611E1,1.404960442E1,-7.522811413E0,4.197163582E0
6.072345947E1,8.557138443E0,-4.477293789E-1,5.851607800E0
6.077545293E1,3.912245035E0,4.185192585E0,8.593051910E0
6.082744635E1,-1.352765322E0,6.502850533E0,1.733454943E0
6.087944248E1,-2.262589693E0,3.869148016E0,-3.802108288E0
6.093143674E1,2.938972282E1,-1.133449650E1,-1.709512234E0
6.098343006E1,-7.324086666E0,8.413481712E0,-2.394274808E-2
6.103542349E1,7.209161282E0,-1.884294319E1,6.131737709E0
6.108741675E1,1.947742462E1,-2.529072571E1,6.378347874E0
6.113925998E1,3.797319889E0,-1.819648862E0,4.216318130E0
6.119125330E1,3.624932051E0,-7.807730198E0,3.375927448E0
6.124324679E1,5.437397957E0,-8.399115562E0,7.439012051E0
6.129524101E1,1.137998772E1,-1.213657856E1,5.679219723E0
6.134723430E1,1.262740517E1,-8.123774529E0,6.593832970E0
6.139922783E1,7.810124397E0,-9.098244309E-1,5.238673210E0
6.145122109E1,3.076643229E0,3.323253393E0,4.479688168E0
6.150321445E1,-1.245022863E-1,7.719141960E0,6.440598965E-1
6.155520761E1,-1.707117915E0,5.085439682E0,-2.952140808E0
6.160720110E1,-7.783787251E0,3.335224867E0,1.599375606E0
6.165919469E1,1.970967102E1,-1.803607178E1,-1.236882401E1
6.171118871E1,4.257020473E0,-1.796424294E1,1.170800328E0
6.176318210E1,1.131773663E1,-2.714628792E1,4.252232075E0
6.181517536E1,5.207547665E0,-5.901887417E0,3.098191500E0
6.186716889E1,2.341600657E0,-1.170800328E0,4.348002911E0
6.191916661E1,6.888328552E0,-7.345634937E0,7.680833817E0
6.197116440E1,1.233051491E1,-1.745186996E1,4.843617916E0
6.202315969E1,1.598417854E1,-9.931451797E0,5.389512539E0
6.207515295E1,1.198573971E1,-3.162837029E0,2.916226625E0
6.212714638E1,5.830059052E0,4.568276405E0,4.415042877E0
6.217913970E1,5.446975231E0,8.233911514E0,9.624984860E-1
6.223113300E1,-5.746259540E-2,8.035185814E0,-3.524372578E0
6.228312636E1,3.782954216E0,2.267378330E0,-5.461340904E0
6.233512034E1,2.245829821E0,-7.810124397E0,-5.674431324E0
6.238711406E1,3.051742744E1,-6.284971237E0,2.614548206E0
6.243910742E1,3.806896925E0,-1.436325455E1,5.265010357E0
6.249110065E1,1.113337803E1,-2.273842812E1,8.418270111E0
6.254309398E1,-9.122186899E-1,1.197137386E-1,4.424619675E0
6.259508757E1,6.890722752E0,-8.068706512E0,1.016609097E1
6.264708069E1,1.331456184E1,-1.781579971E1,6.541158676E0
6.269907425E1,1.603685188E1,-8.037580490E0,7.910684109E0
6.275106857E1,1.307752895E1,-4.874743462E0,7.448588848E0
6.280306176E1,5.976109982E0,-8.499675393E-1,6.548341751E0
6.285505506E1,1.771763325E0,4.075055599E0,1.541913033E0
6.290704842E1,-8.619389534E-1,5.312895775E0,-8.595446348E-1
6.295904194E1,4.496448040E0,-2.923409462E0,-1.948939681E0
6.301103949E1,2.250618339E-1,-3.179596901E0,-1.045340347E1
6.306303735E1,1.024510193E1,-9.610619545E0,1.802888989E0
6.311503174E1,1.719328690E1,-1.117886925E1,1.510787368E0
6.316702500E1,5.616968632E0,-9.514847755E0,3.215511084E0
6.321901843E1,7.048745155E0,-5.095016956E0,4.704750061E0
6.327101179E1,4.096604347E0,-1.242628574E0,2.248224020E0
6.332300511E1,1.105436707E1,-4.307300568E0,1.010623360E1
6.337499844E1,1.607037163E1,-1.494745731E1,3.670423269E0
6.342699213E1,1.594587040E1,-1.079099655E1,1.228263021E0
6.347898601E1,9.900326729E0,-4.434196949E0,7.206767082E0
6.353097954E1,3.430995703E0,2.676799297E0,6.761432171E0
6.358297276E1,5.818088055E-1,1.135125732E1,6.284971237E0
6.363496609E1,2.535537004E0,1.508393139E-1,4.108575344E0
6.368695945E1,4.956148624E0,-5.930618763E0,-8.648120880E0
6.373895274E1,8.794171333E0,-6.732700825E0,-1.704005432E1
6.379094610E1,1.880463409E1,4.010410309E0,1.802170563E1
6.384294002E1,1.484450340E0,-2.549902678E0,3.615355015E0
6.389493374E1,7.146910191E0,-6.136526108E0,1.240234375E0
6.394692717E1,6.749460697E0,-1.023073673E1,7.424646378E0
6.399892046E1,-5.121353626E0,-6.828471661E0,1.025228500E1
6.405091392E1,4.182797909E0,-1.435846615E1,7.326480865E0
6.410290968E1,1.417650127E1,-1.049171257E1,1.242628670E1
6.415490444E1,1.405918121E1,-5.571477413E0,5.798933506E0
6.420689783E1,9.064723969E0,1.245022863E-1,2.430188894E0
6.425889109E1,3.354378939E0,7.067899227E0,3.976890564E0
6.431088452E1,-9.912297726E-1,6.703969479E0,2.736656189E0
6.436287784E1,3.909850836E0,-3.998438835E0,9.050358534E-1
6.441487107E1,1.464577866E1,-4.096604347E0,-1.666415215E0
6.446686482E1,1.199292278E1,-1.053002071E1,1.254121113E1
6.451885884E1,6.292154312E0,-6.522004604E0,-1.221080184E0
6.457085214E1,-8.942616463E0,-6.294548512E0,4.618556023E0
6.462284550E1,3.146077156E0,-9.991309166E0,5.626545548E-1
6.467483882E1,5.415849686E0,-5.961744308E0,3.589017868E0
6.472683215E1,-1.139674783E0,-1.774397087E1,4.671230316E0
6.477882557E1,9.395133972E0,-1.273275375E1,1.047255802E1
6.483081880E1,1.412143326E1,-1.429621506E1,1.060663700E1
6.488281259E1,1.200249958E1,-8.145322800E0,1.146378803E1
6.493480651E1,7.616188049E0,-8.858816624E-1,4.496448040E0
6.498679987E1,3.146077156E0,3.057488918E0,-2.478074312E0
6.503879316E1,-5.873156071E0,5.892310143E0,-1.230657220E0
6.509078649E1,-8.087860107E0,5.435003638E-1,-6.136526108E0
6.514278321E1,4.483040237E1,-3.311281967E1,1.550292969E1
6.519478163E1,-8.128562927E0,-7.503657341E0,7.829278708E-1
6.524677645E1,7.257047176E0,-3.166428375E1,-2.849186957E-1
6.529876985E1,1.037678719E1,-1.240952587E1,5.190787792E0
6.535076331E1,2.789330244E0,-1.031932473E0,7.000859737E0
6.540275650E1,-7.877163887E-1,-9.047964096E0,4.812492371E0
6.545474989E1,5.255433083E0,-1.489957237E1,1.233769798E1
6.550674308E1,5.269798756E0,-5.317684174E0,1.586207104E1
6.555873648E1,6.852414608E0,-1.987248063E-1,1.487084103E1
6.561073056E1,4.893897533E0,2.157241583E0,7.910684109E0
6.566272449E1,7.302538157E-1,6.210748672E0,4.553910732E0
6.571471754E1,-7.278595567E-1,2.944957972E0,3.390293121E0
6.576671114E1,-3.179596901E0,2.995237827E0,2.150058746E0
6.581870440E1,-1.310386562E1,-2.818061352E0,-8.073494911E0
6.587069756E1,4.494771957E1,-3.035461617E1,9.268238068E0
6.592269092E1,7.158881426E-1,-1.658753586E1,6.143709183E0
6.597468421E1,-5.794145107E0,-2.755570793E1,-4.027170181E0
6.602667829E1,2.017416000E1,-7.793364525E0,3.294522047E0
6.607867198E1,2.918621063E0,-1.150209618E1,6.871568680E0
6.613066524E1,1.008229160E1,-1.969769859E1,7.434223175E0
6.618265857E1,1.523477077E1,-5.030371189E0,1.205277920E1
6.623465393E1,9.957788467E0,2.209915638E0,9.150918007E0
6.628664942E1,5.176422119E0,5.712739468E0,2.157241583E0
6.633864254E1,-2.921015322E-1,4.091815472E0,4.438985348E0
6.639063597E1,-8.274613380E0,4.692778587E0,3.328042030E-1
6.644262933E1,-2.589647675E1,3.450150013E0,-5.722316742E0
6.649462266E1,-1.572080803E1,2.813272953E0,1.884294271E0
6.654661612E1,5.509226322E0,-2.130425644E1,1.228741837E1
6.659860924E1,1.216291618E1,-4.258457184E1,5.911464691E0
6.665060333E1,1.551729488E1,-1.517012501E1,5.111776829E0
6.670259692E1,2.832427025E0,-5.320078850E0,1.692752242E0
6.675459028E1,4.623344421E0,-1.862745762E0,6.340039730E0
6.680658357E1,5.746259689E0,-5.643305779E0,9.768641472E0
6.685857720E1,8.406298637E0,-7.436617374E0,7.122967720E0
6.691057025E1,1.304161453E1,-2.296109438E0,5.865973473E0
6.696256365E1,8.921068192E0,-2.401457548E0,-3.112557232E-1
6.701455727E1,2.066259146E0,5.219519138E-1,3.423812866E0
6.706655156E1,-3.268185139E0,4.757423878E0,-2.083019018E-1
6.711854482E1,-7.807730198E0,8.825297356E0,1.798100352E0
6.717053798E1,3.359167576E0,1.838803053E0,-3.907456398E0
6.722253144E1,3.627326250E0,-5.336838722E0,-3.380716085E0
6.727452689E1,1.599136162E1,-2.853257370E1,8.928250313E0
6.732652555E1,9.560338974E0,-2.772330856E1,1.635289669E0
6.737852210E1,4.685595989E0,-6.447782040E0,2.583422422E0
6.743051553E1,-1.604164094E-1,-3.426207304E0,9.447808266E0
6.748250909E1,3.720703125E0,-2.815667152E0,6.349617004E0
6.753450228E1,9.205986977E0,-1.884054756E1,6.775797606E-1
6.758649554E1,1.721722984E1,-1.457395077E1,3.624932051E0
6.763848897E1,1.232093811E1,-4.422225475E0,2.640885115E0
6.769048266E1,5.597814560E0,3.270579338E0,2.334417820E0
6.774247665E1,-3.759011328E-1,7.130150318E0,2.846792698E0
6.779446997E1,-1.187560320E0,4.101392746E0,7.398309112E-1
6.784646333E1,8.741497040E0,-6.225114465E-1,1.771523857E1
6.789845666E1,-5.988081455E0,2.786935806E0,-4.652075768E0
6.795045005E1,5.554717541E0,-1.707357407E1,6.356799603E0
6.800244331E1,1.525631905E1,-4.157658386E1,6.471724987E0
6.805443667E1,1.274472523E1,-8.348835945E0,3.155654192E0
6.810643072E1,8.375173569E0,-3.421418667E0,2.415823221E0
6.815842434E1,1.362342358E0,-6.522004604E0,-6.368771195E-1
6.821041770E1,3.184385538E0,-1.457395077E1,5.822876453E0
6.826241096E1,6.241874218E0,-1.228502369E1,7.563514233E0
6.831440436E1,9.047964096E0,-7.963357925E0,8.652909279E0
6.836639984E1,8.763045669E-1,-3.126922846E0,6.222720146E0
6.841834474E1,-6.850020409E0,3.859570980E0,5.387118459E-1
6.847034050E1,1.120999432E1,6.567495823E0,-8.102226257E0
6.852233369E1,-7.769421577E0,-1.312062621E0,-1.245022863E-1
6.857432705E1,-4.115758419E0,-9.792584181E-1,-6.028783798E0
6.862632054E1,1.605840111E1,-1.685569382E1,7.989695072E0
6.867831377E1,1.750693703E1,-3.318943787E1,-3.268185139E0
6.873030713E1,3.253819466E0,-9.881172180E0,-3.167625666E0
6.878230045E1,6.019207001E0,1.644866824E0,5.825270653E0
6.883429454E1,4.599401951E0,-9.352037430E0,9.409499764E-1
6.888628813E1,8.353624344E0,-1.916138077E1,3.320859194E0
6.893828149E1,9.471751213E0,-1.377426338E1,6.375953674E0
6.899027478E1,9.622590065E0,-7.233104229E0,4.266597748E0
6.904226814E1,5.844424725E0,1.687963724E0,3.572257996E0
6.909426146E1,-7.266623974E0,5.401484013E0,-2.638490915E0
6.914625482E1,-1.491633177E0,-5.248250484E0,2.970337296E1
6.919824808E1,-1.614698982E1,2.454131603E0,-6.842837334E0
6.925024230E1,7.462954521E0,-8.384750366E0,6.646506786E0
6.930223586E1,7.767027378E0,-2.629392624E1,7.362394810E0
6.935422915E1,1.698737907E1,-2.814948845E1,8.411087036E0
6.940622248E1,5.530774593E0,-8.743891716E0,3.390293121E0
6.945821707E1,3.170019865E0,8.786988258E-1,5.803721905E0
6.951021312E1,2.578634024E0,-5.856396198E0,4.917840481E0
6.956220655E1,8.109408379E0,-1.626430893E1,8.241093636E0
6.961419981E1,1.453803635E1,-1.629064560E1,9.038387299E0
6.966619314E1,4.606584549E0,-8.956981659E0,5.104593754E0
6.971818660E1,-3.852388144E0,-1.302485466E0,1.589798450E0
6.977017979E1,-3.981678963E0,5.360781193E0,-4.556304932E0
6.982217321E1,-2.545114040E0,6.701575279E0,-5.061496735E0
6.987416733E1,-9.816526771E-1,5.260221958E0,3.375927508E-1
6.992616089E1,3.684549332E1,-7.039167881E0,3.308169556E1
6.997815415E1,9.495694160E0,-9.725543976E0,1.486844659E0
7.003014758E1,1.714540100E1,-2.150298119E1,1.104478931E1
7.008214087E1,3.261002302E0,-1.498816013E1,7.901106775E-2
7.013413419E1,7.216344357E0,1.838803053E0,6.873962879E0
7.018612752E1,5.111776829E0,-7.072687626E0,4.913052082E0
7.023812121E1,2.425400496E0,-8.753468513E0,5.365570068E0
7.029011516E1,1.126266861E1,-1.113577175E1,5.001639843E0
7.034210856E1,1.642712021E1,-7.039167881E0,5.499649048E0
7.039410191E1,9.598648071E0,1.070240855E0,-4.620950520E-1
7.044609547E1,3.407052994E0,3.442967176E0,-3.016786277E-1
7.049809006E1,-3.117345810E0,4.814886570E0,-8.140534163E-1
7.055008875E1,-2.485257149E0,5.051919937E0,-1.757397652E0
7.060208498E1,-5.700768471E0,6.064698219E0,6.531581879E0
7.065407867E1,2.151016426E1,-1.500252628E1,-4.501236439E0
7.070607199E1,1.087000751E1,-2.103130913E1,1.874717116E0
7.075806529E1,8.367990494E0,-2.666264343E1,5.552323341E0
7.081005858E1,8.367990494E0,-1.699935079E0,3.610566378E0
7.086205187E1,1.264177084E0,1.209108829E0,1.857957244E0
7.091404523E1,7.790970325E0,-6.205960274E0,7.266623974E0
7.096603892E1,1.397059345E1,-2.522847366E1,3.486064196E0
7.101803291E1,1.303203773E1,-1.600572777E1,6.354405403E0
7.107002620E1,8.813325882E0,-4.738269806E0,5.185999393E0
7.112201956E1,4.767001152E0,1.029538155E0,4.199557781E0
7.117401299E1,-3.897879362E0,5.109382629E0,-3.735068738E-1
7.122600638E1,-2.513988614E-1,3.397475958E0,3.782954216E-1
7.127799954E1,-8.260248303E-1,2.561874092E-1,-1.656838179E0
7.132999300E1,2.885340500E1,-1.867055511E1,8.001666069E0
7.138198692E1,7.561120033E0,3.320859194E0,2.751021862E0
7.143398064E1,8.763045669E-1,-1.616853714E1,1.963305324E-1
7.148597400E1,5.224307537E0,-1.772960472E1,1.011102295E1
7.153796722E1,3.440572977E0,-4.630527496E0,5.353598595E0
7.158996128E1,3.854782343E0,-7.501263142E0,7.886741161E0
7.164195771E1,9.598648071E0,-2.117017746E1,6.957762718E0
7.169395130E1,1.272796535E1,-9.490905762E0,1.080296803E1
7.174594452E1,1.231854343E1,-4.687990189E0,1.016369629E1
7.179793812E1,5.375146866E0,5.315290093E-1,2.940169573E0
7.184993138E1,-8.260248303E-1,5.597814560E0,-1.915419817E0
7.190192467E1,-3.114951611E0,5.918647289E0,-6.581861496E0
7.195391799E1,-1.043903828E1,-2.607365370E0,6.555524349E0
7.200591191E1,-1.333611012E0,5.229096413E0,2.490045726E-1
7.205790580E1,4.568276405E0,-2.232661247E1,4.903474808E0
7.210989913E1,6.292154312E0,-2.960042000E1,7.778998852E0
7.216189249E1,8.037580490E0,-7.398309231E0,7.326480865E0
7.221388555E1,2.600182533E0,-4.620950520E-1,5.351204395E0
7.226587894E1,3.227482557E0,-5.581054688E0,7.759844780E0
7.231787237E1,3.521978140E0,-1.495464039E1,6.706363678E0
7.236986579E1,1.306076908E1,-1.324752235E1,1.037199879E1
7.242185955E1,7.565908432E0,-8.736708641E0,7.929838181E0
7.247385333E1,3.608172178E0,-2.042316437E0,4.410254002E0
7.252584659E1,-1.656838179E0,-1.608952641E0,-2.971295118E0
7.257784009E1,-1.194743156E1,5.885127544E0,-5.353598595E0
7.262983398E1,-1.785889626E1,1.129139996E1,3.195638657E1
7.268183270E1,-3.495641232E0,-5.868367672E0,-6.009629965E-1
7.273382965E1,1.622599983E1,-5.317205429E1,-1.522758722E0
7.278582334E1,1.052283764E1,-1.778227806E1,2.904255390E0
7.283781667E1,7.996877670E0,-1.095380688E1,3.596200705E0
7.288981006E1,4.187586784E0,2.245829821E0,1.081015110E1
7.294180332E1,1.412622184E-1,-2.004008055E0,4.702355862E0
7.299379671E1,4.465322495E0,-1.011820507E1,4.661653042E0
7.304579007E1,1.350131607E1,-2.193873978E1,-6.392713785E-1
7.309778370E1,1.228262997E1,-9.220352173E0,3.452544212E0
7.314977802E1,5.253038883E0,-4.345608711E0,-9.577099234E-3
7.320177101E1,-5.964138508E0,3.016786337E0,-9.026415944E-1
7.325376437E1,-1.268965602E0,9.991309166E0,5.276981831E0
7.330575769E1,-3.466909885E0,8.851634026E0,2.439765930E0
7.335775112E1,4.022381604E-1,-1.779425049E1,8.870788574E0
7.340974455E1,4.793338299E0,-3.692929459E1,4.101392746E0
7.346173777E1,5.456552505E0,-2.435935211E1,2.166818619E0
7.351373143E1,8.300951004E0,-1.103042412E1,5.147690773E0
7.356572541E1,-1.553884387E0,-1.723877907E0,6.265817165E0
7.361771881E1,2.068653345E0,-4.613767624E0,6.287365437E0
7.366971210E1,2.545114040E0,-9.955394745E0,7.209161282E0
7.372170579E1,3.505218267E0,-8.616994858E0,7.484503269E0
7.377370198E1,1.100887585E1,-9.057541847E0,1.434170628E1
7.382569610E1,-1.388679385E0,-2.236252785E0,7.455771923E0
7.387768940E1,-1.234966946E1,-2.066259146E0,-1.197137386E-1
7.392968269E1,-6.751855016E-1,3.857176781E0,-1.466972160E1
7.398167608E1,-1.930743217E1,7.623371124E0,-1.285246754E1
7.403366958E1,1.554602623E1,-2.296109581E1,1.471281910E1
7.408566297E1,2.314545441E1,-2.410555840E1,-8.116591573E-1
7.413765609E1,1.585488796E1,-1.296260357E1,6.258634567E0
7.418965034E1,2.394274712E0,-7.024802208E0,3.993650436E0
7.424164390E1,9.979337692E0,1.264177084E0,7.300143719E0
7.429363700E1,7.206767082E0,-1.316851079E-1,7.269018173E0
7.434563046E1,1.219883060E1,-6.735095024E0,7.968146324E0
7.439762385E1,1.031932449E1,-3.847599506E0,4.510813713E0
7.444961707E1,9.794978142E0,3.488458395E0,7.110996246E0
7.450161053E1,3.818868399E0,6.756643295E0,6.909877300E0
7.455360422E1,-1.946545362E0,5.298530102E0,4.745452881E0
7.460559804E1,-2.717501879E0,-5.332049847E0,7.891529560E0
7.465759157E1,3.495641232E0,-4.022381604E-1,-5.075862408E-1
7.470958476E1,-5.001639843E0,3.998438835E0,3.735068798E0
7.476157832E1,4.070267200E0,-5.104593754E0,9.593858719E0
7.481357647E1,1.049889469E1,-2.030105591E1,8.516435623E0
7.486557447E1,1.143745041E1,-2.692122650E1,4.429408312E-1
7.491756916E1,1.185644913E1,-4.819674969E0,2.217098475E0
7.496956258E1,7.685621977E-1,-4.003227711E0,3.232271075E-1
7.502155578E1,9.569916725E0,-6.282577038E0,6.239480019E0
7.507354910E1,1.209587669E1,-8.705583572E0,9.356825829E0
7.512554246E1,1.347497845E1,-4.903474808E0,6.055120945E0
7.517753582E1,8.253065109E0,5.889915824E-1,7.620976925E0
7.522952988E1,2.449343204E0,6.423839092E0,1.185166001E0
7.528152356E1,2.312869549E0,9.375980377E0,6.273000240E-1
7.533351689E1,-7.326480746E-1,1.247417212E0,2.703136206E0
7.538551018E1,6.114977837E0,-4.767001152E0,1.671682739E1
7.543750361E1,-5.743865490E0,3.294522047E0,-1.185166001E0
7.548949684E1,-2.480468750E0,-2.830032825E0,2.423006058E0
7.554149009E1,1.973840141E1,-2.027471924E1,1.535927296E1
7.559348359E1,3.430995703E0,-1.296260357E1,-2.760598898E0
7.564547770E1,1.279500484E1,-1.186123753E1,4.494053841E0
7.569744743E1,4.592218876E0,-7.534782887E0,5.317684174E0
7.574944122E1,1.182771778E1,-6.706363678E0,6.299336910E0
7.580143415E1,1.765059471E1,-2.918621063E0,6.529187202E0
7.585342774E1,8.863605499E0,1.434170604E0,4.101392746E0
7.590542566E1,6.165257454E0,7.920260906E0,1.778946161E0
7.595742328E1,2.140481710E0,1.009665680E1,2.075836182E0
7.600941748E1,-6.368771195E-1,1.130097747E0,4.204346657E0
7.606141087E1,1.179419804E1,-1.367609787E1,1.509350872E1
7.611340423E1,-3.019180536E0,1.690358043E0,-5.961744189E-1
7.616539755E1,-1.714300752E0,-6.960156918E0,2.868341208E0
7.621739085E1,1.097535610E1,-2.117975426E1,8.312922478E0
7.626938417E1,1.540955257E1,-1.497140026E1,4.087027073E0
7.632137750E1,3.328042030E0,-9.344854355E0,1.233051538E0
7.637337165E1,4.850800991E0,-6.244268894E0,6.261028767E0
7.642536524E1,9.648927689E0,-1.479661846E1,9.751881599E0
7.647735857E1,9.359220505E0,-9.950606346E0,6.610592842E0
7.652935196E1,8.001666069E0,-4.094210148E0,6.684815407E0
7.658134525E1,2.379909277E0,1.400650740E0,5.698373914E-1
7.663333854E1,-4.563488007E0,7.690410614E0,-1.189954638E0
7.668533194E1,-2.837215662E0,7.149304390E0,-2.664827824E0
7.673732530E1,2.123721838E0,-1.098972130E1,4.317595673E1
7.678931948E1,5.626545906E0,1.390355396E1,-1.053480864E0
7.684131294E1,5.298530102E0,-2.516382790E1,2.013106346E1
7.689330623E1,1.251487446E1,-1.922842026E1,-1.166969585E1
7.694529969E1,1.091789365E0,-3.797319889E0,-1.596981287E0
7.699729568E1,-1.652049661E0,-7.723930359E0,-1.587404251E0
7.704929027E1,2.968900800E-1,-4.228289127E0,3.081431627E0
7.710128367E1,8.123774529E0,-1.257712555E1,3.969707727E0
7.715327692E1,1.604403496E1,-6.471724987E0,7.817307472E0
7.720527022E1,1.061142635E1,-2.071047783E0,4.711932659E0
7.725726368E1,2.887495518E0,1.125309110E0,1.829225898E0
7.730925687E1,-4.350397110E0,7.429434776E0,1.436564922E-1
7.736125033E1,-5.449369431E0,8.942616463E0,-2.413429022E0
7.741324451E1,1.896026230E1,6.859597206E0,3.378561020E1
7.746523791E1,5.504437923E0,-2.863552570E0,-3.909850836E0
7.751723130E1,1.239037228E1,-2.914071846E1,3.917033672E0
7.756922449E1,3.677606106E0,-2.553973007E1,3.914639235E0
7.762121788E1,1.798100352E0,-7.905895233E0,6.732700825E0
7.767321134E1,2.463708878E0,-1.637683988E0,9.706390381E0
7.772520467E1,1.558672905E0,-4.716721535E0,5.633728504E0
7.777719842E1,7.589851379E0,-1.657795906E1,6.634535313E0
7.782919238E1,1.494745731E1,-1.332653332E1,9.905115128E0
7.788118577E1,9.280209541E0,-8.765439987E0,3.991255999E0
7.793317896E1,3.150865555E0,2.751021862E0,1.644866824E0
7.798517232E1,-2.413429022E0,6.684815407E0,-5.650488734E-1
7.803716938E1,4.501236677E-1,8.047157288E0,-5.590631485E0
7.808916757E1,8.985713005E0,-1.090113354E1,5.351204395E0
7.814116326E1,-5.858790398E0,-1.288359261E1,-4.304905891E0
7.819315675E1,-6.416656494E0,-1.083409309E1,-3.306493521E0
7.824514994E1,2.044710732E1,-2.109356117E1,1.115971470E1
7.829714337E1,5.444581032E0,-1.871604538E1,4.989668846E0
7.834913663E1,5.147690773E-1,-1.795706153E-1,5.684008598E0
7.840112992E1,4.297723293E0,-4.450956821E0,8.870788574E0
7.845312391E1,6.529187202E0,-1.365694332E1,6.921848297E0
7.850511777E1,1.400171947E1,-1.259867382E1,8.233911514E0
7.855711093E1,1.200728798E1,-1.106873226E1,6.500456333E0
7.860910452E1,8.700794220E0,-2.248224020E0,2.193155766E0
7.866109768E1,6.313702583E0,6.064698219E0,-2.583422422E0
7.871309097E1,1.338399649E0,6.220325947E0,-2.133298874E0
7.876508436E1,1.125309110E0,3.098191500E0,-1.790917516E0
7.881707766E1,-1.678386688E0,1.733454943E0,1.472478986E0
7.886907171E1,1.429860878E1,2.612153769E0,-7.862798691E0
7.892106543E1,3.967313290E0,-3.993650436E0,7.087053657E-1
7.897305869E1,6.792557716E0,-2.080864143E1,7.213950157E0
7.902505198E1,9.490905762E0,-1.840000153E1,5.420638084E0
7.907704541E1,8.032792091E0,-1.173194647E0,4.139701366E0
7.912904226E1,5.707951069E0,-8.004060745E0,4.216318130E0
7.918104055E1,6.711152077E0,-2.158199310E1,3.100585938E0
7.923303534E1,1.295781517E1,-1.258430862E1,7.101418972E0
7.928502867E1,7.041562080E0,-7.173247337E0,1.013017654E1
7.933702200E1,4.913052082E0,1.391073704E0,8.382355690E0
7.938901542E1,1.237840056E0,7.343240738E0,2.875524044E0
7.944100872E1,1.958516836E0,6.246663094E0,-2.154847383E-1
7.949300197E1,9.577099234E-3,-1.680780888E0,4.884320498E-1
7.954499543E1,9.426259995E0,-6.153286457E0,1.957319641E1
7.959698969E1,-4.735875607E0,6.881145954E0,-3.845205307E0
7.964898298E1,3.557892323E0,-2.163227272E1,2.446948767E0
7.970097637E1,2.456525993E1,-3.441291046E1,8.724737167E0
7.975296976E1,1.869928598E0,1.565855742E0,1.206714511E0
7.980496305E1,3.720703125E0,-8.561926842E0,5.303318501E0
7.985695648E1,2.406246185E0,-9.059935570E0,8.071100235E0
7.990894974E1,1.274951363E1,-1.430100346E1,3.749434233E0
7.996094313E1,1.385087967E1,-9.385557175E0,4.163643837E0
8.001293742E1,1.070001411E1,-8.044763207E-1,2.317657948E0
8.006493088E1,6.828471661E0,2.339206457E0,1.084606528E0
8.011692407E1,-2.130904645E-1,6.478907585E0,1.089395046E0
8.016891736E1,2.480229187E1,5.312895775E0,1.423396397E1
8.022091292E1,-1.785650063E1,1.584770489E1,-1.171279240E1
8.027290811E1,-5.554717779E-1,-3.280156553E-1,8.116591573E-1
8.032490147E1,1.862745857E1,-3.517189789E1,8.590658188E0
8.037689489E1,1.368328094E1,-2.612393188E1,3.687183142E0
8.042888812E1,8.221940041E0,-5.751048088E0,3.778165579E0
8.048088134E1,3.155654192E0,-1.525153041E0,2.798907280E0
8.053287480E1,5.372752666E0,-4.915446281E0,4.965725899E0
8.058486823E1,1.016130257E1,-1.371680069E1,5.322473049E0
8.063686265E1,1.536884975E1,-8.274613380E0,6.129343510E0
8.068885604E1,1.057072353E1,-2.296109438E0,4.192375183E0
8.074084923E1,8.887548447E0,3.337619066E0,3.071854591E0
8.079284246E1,1.721483588E0,2.133298874E0,-2.506805658E0
8.084483588E1,-8.607418060E0,3.256213665E-1,-2.844398499E0
8.089682908E1,-8.485309601E0,8.782199860E0,4.075055599E0
8.094882254E1,-1.578784847E1,4.225894928E0,-3.505218267E0
8.100081619E1,1.874717140E1,-4.399480057E1,-4.817280769E0
8.105281025E1,2.228351593E1,-2.032020950E1,4.805309772E0
8.110480347E1,2.868341208E0,-9.876383781E0,1.130097747E0
8.115679683E1,1.743032098E0,-1.575432777E0,5.403878212E0
8.120879042E1,7.948992252E-1,-5.391906738E0,4.166038036E0
8.126078595E1,5.458946705E0,-1.114056110E1,4.673624516E0
8.131278473E1,1.606797791E1,-8.329682350E0,6.344828010E-1
8.136478036E1,1.394425678E1,-8.217150688E0,8.186025620E0
8.141677368E1,9.818921089E0,-1.769369125E0,4.024775982E0
8.146876684E1,3.936187744E0,3.840416908E0,2.312869549E0
8.152076017E1,-1.467690468E0,5.427821159E0,-6.572284222E0
8.157275343E1,5.576265812E0,1.252205729E0,4.221106529E0
8.162474692E1,-7.666468143E0,2.255406857E0,-2.944957972E0
8.167674021E1,4.201952457E0,-8.516435623E0,4.019987583E0
8.172873393E1,2.148861694E1,-2.888213730E1,7.187613010E0
8.178072779E1,1.285725594E0,-2.489806366E1,3.720703125E0
8.183272108E1,9.783006668E0,-5.490072250E0,8.545166969E0
8.188471451E1,-1.170800328E0,-5.770202279E-1,4.204346657E0
8.193670797E1,1.838803053E0,-7.304932594E0,4.271386147E0
8.198870116E1,7.345634937E0,-1.358272076E1,7.247469902E0
8.204069448E1,6.792557716E0,-1.072874546E1,9.273026466E0
8.209268788E1,3.210722446E0,-4.956148624E0,6.450176239E0
8.214468183E1,4.716721535E0,1.149251938E0,3.902668059E-1
8.219667559E1,5.030371189E0,3.390293121E0,5.698373914E-1
8.224866894E1,-2.138087511E0,3.196356773E0,3.545921087E0
8.230066210E1,-1.764101601E1,3.205934048E0,-5.291347504E0
8.235265710E1,4.189980924E-1,-2.001374245E1,3.407052994E0
8.240465289E1,2.849186957E-1,-2.800822639E1,8.277008057E0
8.245664621E1,6.258634567E0,-3.163076401E1,-2.145270348E0
8.250863947E1,1.584052181E1,-1.036242104E1,6.031178474E0
8.256063300E1,9.325700760E0,-4.206740856E0,6.512427330E0
8.261262622E1,1.122914886E1,-4.532361984E0,7.070293427E0
8.266461952E1,1.167927265E1,-5.858790398E0,8.873182297E0
8.271661288E1,6.270605564E0,-1.201686573E1,4.328848839E0
8.276860696E1,-2.707924843E0,-8.399115562E0,3.179596901E0
8.282060079E1,-2.727078915E0,-1.917814136E0,8.631361008E0
8.287259405E1,-1.067846584E1,-2.825244367E-1,-1.065452290E1
8.292458721E1,-7.336058140E0,3.677606106E0,-4.896292210E0
8.297658281E1,-2.736656189E0,-1.620923996E0,4.678412914E0
8.302857624E1,5.442186832E0,-1.379581165E1,1.042467213E1
8.308056953E1,6.251451492E0,-2.947112846E1,2.609759569E-1
8.313256289E1,2.061231232E1,-2.038964462E1,1.494027495E0
8.318455697E1,1.504801750E1,-1.293626690E1,3.062277555E0
8.323655056E1,9.747093201E0,-5.899493217E0,3.821262598E0
8.328854396E1,-9.122186899E-1,-4.486870766E0,1.618529797E0
8.334053718E1,8.684034348E0,-2.904255390E0,6.287365437E0
8.339253234E1,7.683228016E0,1.927391171E0,2.564268351E0
8.344453103E1,5.700768471E0,4.776578426E0,1.453803635E1
8.349652772E1,1.328822494E0,-4.108575344E0,1.227544689E1
8.354852171E1,-6.670449734E0,-5.652883053E0,4.441379547E0
8.360051487E1,-9.287391663E0,-5.760625362E0,-1.256994247E0
8.365250820E1,5.739076614E0,-2.451737404E0,-2.729473412E-1
8.370450162E1,-1.676950073E1,7.470137596E0,-1.041509509E0
8.375649488E1,9.962577820E0,-2.298982620E1,9.483722687E0
8.380848847E1,1.256276035E1,-2.756289101E1,6.026389599E0
8.386048266E1,1.195940304E1,-1.626191521E1,1.664021015E0
8.391247588E1,-5.880339146E0,-1.732257843E1,4.774183750E0
8.396446924E1,4.506025314E0,-6.945791245E0,1.039115238E1
8.401646260E1,6.919454098E0,-1.484450340E0,1.015651417E1
8.406845593E1,9.478934288E0,-4.118152618E0,1.117886925E1
8.412044936E1,1.392749691E1,-6.007235527E0,2.727078915E0
8.417244258E1,7.937020779E0,2.454131603E0,2.789330244E0
8.422443641E1,7.055927753E0,5.377541065E0,3.763799906E0
8.427643022E1,2.334417820E0,3.914639235E0,-2.674404860E0
8.432842365E1,1.903448462E0,7.199584484E0,-5.482889414E-1
8.438041694E1,-5.401484013E0,-1.934574008E0,-1.368328094E1
8.443241027E1,-3.450150013E0,1.956122518E0,-7.606611252E0
8.448440522E1,4.117195129E1,-4.718157959E1,6.213143349E0
8.453640398E1,-2.731867552E0,-1.942954063E1,1.026186180E1
8.458840020E1,1.255797100E1,-1.947742462E1,2.377514839E0
8.464039360E1,1.802888989E0,-1.309189510E1,6.864386082E0
8.469238696E1,4.534756660E0,-3.672817469E0,4.008016109E0
8.474438032E1,8.157294273E0,-4.223500729E0,1.094662476E1
8.479637368E1,1.163378143E1,-2.183099747E1,8.739103317E0
8.484836697E1,1.656359291E1,-9.153312683E0,1.045819283E1
8.490036033E1,7.992089272E0,-7.520417213E0,1.288119793E0
8.495235468E1,-4.932205975E-1,5.099805593E-1,-5.444581032E0
8.500434800E1,1.378862858E1,2.645673752E0,1.549574661E1
8.505634130E1,-1.268726254E1,3.331872940E1,-1.673837471E1
8.510833472E1,-3.723097324E0,1.286922741E1,1.987248063E0
8.516032805E1,1.313259697E1,-4.070985413E1,9.129369736E0
8.521232144E1,1.468169308E1,-2.969858551E1,4.977697372E0
8.526431477E1,5.025582790E0,-1.485408115E1,-7.182824612E-1
8.531630802E1,5.751048088E0,-1.065452290E1,-7.948992252E-1
8.536830198E1,3.720703125E0,-3.486064196E0,2.537931204E0
8.542029570E1,1.245022893E0,-4.144489765E0,4.841223717E0
8.547228906E1,3.239453793E0,-1.022594738E1,5.207547665E0
8.552428229E1,6.799740314E0,-8.097437859E0,6.043149471E0
8.557627651E1,1.336244774E1,-6.754249096E0,-9.912297726E-1
8.562827280E1,1.118126392E0,3.019180536E0,-2.995237827E0
8.568026629E1,-1.904645538E1,1.726750946E1,1.301048946E1
8.573225982E1,1.944151115E1,2.301855850E1,-5.365570068E0
8.578425314E1,-9.313728809E-1,6.632141471E-1,4.857983589E0
8.583624634E1,4.091815472E0,-1.876153755E1,2.035133600E0
8.588823980E1,1.474155045E1,-3.000265694E1,3.510006905E0
8.594023309E1,1.021876526E1,-2.319094658E1,8.188419938E-1
8.599222737E1,5.806116581E0,-1.205756760E1,4.333637357E-1
8.604422073E1,4.051113129E0,1.675992459E-2,5.791750908E0
8.609621402E1,-2.490045726E-1,-5.755836487E0,4.594613552E0
8.614820738E1,7.020013809E0,-1.160744381E1,6.612987041E0
8.620020074E1,1.343667030E1,-8.985713005E0,4.549122334E0
8.625219407E1,1.208869362E1,-5.877944469E0,2.042316437E0
8.630418746E1,7.553936958E0,-2.944957912E-1,-4.376734257E0
8.635618072E1,-4.300117493E0,1.278542757E0,-8.068706393E-1
8.640817491E1,-9.478934288E0,2.619336605E0,5.286558628E0
8.646016836E1,3.002420664E0,8.219545364E0,-4.910657406E0
8.651216166E1,-1.137998772E1,1.118126392E0,-5.887521744E0
8.656415511E1,1.478464699E1,-2.583901405E1,1.287640953E1
8.661614917E1,1.845267677E1,-3.132190323E1,6.107795238E0
8.666814789E1,1.160983849E1,-1.251008606E1,3.045517445E0
8.672014475E1,5.411061287E0,6.632141471E-1,1.968093872E0
8.677213837E1,-7.446194887E-1,-3.478881359E0,1.841197371E0
8.682413210E1,3.160442829E0,-4.826858044E0,5.011217117E0
8.687612519E1,7.824490070E0,-2.218774414E1,4.807703972E0
8.692811845E1,6.835654736E0,-1.320681953E1,5.104593754E0
8.698011181E1,6.845231533E0,1.640078187E0,2.334417820E0
8.703210524E1,7.767027378E0,1.194503689E1,1.508393139E-1
8.708409866E1,7.759844780E0,1.089873886E1,1.326428294E0
8.713609278E1,1.910870743E1,3.313676357E0,5.988081455E0
8.718808624E1,-5.032765865E0,2.312869549E0,-1.247417212E0
8.724007963E1,-2.585816681E-1,-5.315289974E0,3.064671755E-1
8.729207279E1,1.528265572E1,-2.379190826E1,1.843591630E-1
8.734406609E1,1.570404816E1,-2.450779724E1,4.393494129E0
8.739605951E1,8.456578255E0,-1.205517387E1,-1.168406129E0
8.744805267E1,8.542772293E0,6.857203007E0,6.093429565E0
8.750004679E1,5.851607800E0,-4.956148624E0,3.023969173E0
8.755204052E1,8.514040947E0,-1.789480972E1,3.902667999E0
8.760403374E1,1.410227871E1,-1.864182281E1,1.989642382E0
8.765602710E1,5.628940105E0,-9.689630508E0,3.213116884E0
8.770802099E1,6.505244732E0,-5.291347504E-1,3.478881359E0
8.776001725E1,2.947352171E0,8.001666069E0,1.034326673E0
8.781201114E1,1.771763325E0,5.985687256E0,1.448536277E0
8.786400470E1,5.205153465E0,2.001613855E0,-2.490045726E-1
8.791599799E1,-7.999272346E0,-4.922628880E0,-1.027143836E0
8.796799135E1,8.011243820E0,-2.558522034E1,1.676471138E1
8.801998451E1,9.754275322E0,-1.792354202E1,1.704963112E1
8.807197787E1,-7.733507752E-1,-2.168734169E1,-2.025556564E0
8.812397146E1,5.679219723E0,-4.992063046E0,5.739076614E0
8.817596551E1,3.840416908E0,-4.592218876E0,1.668809533E0
8.822795880E1,4.719115734E0,-1.019003391E1,4.307300568E0
8.827995210E1,1.165532970E1,-2.077991104E1,2.087807655E0
8.833194549E1,9.838075638E0,-1.041749001E1,6.198777676E0
8.838393895E1,5.784567833E0,-5.626545906E0,6.656084061E0
8.843593221E1,1.850774407E0,-2.169213057E0,5.276981831E0
8.848792557E1,-3.629720688E0,5.106987953E0,-3.098191500E0
8.853991932E1,7.264229774E0,9.926663399E0,2.832427025E0
8.859191321E1,2.739050388E0,1.904166794E1,2.628913641E0
8.864390667E1,-1.917814136E0,-9.356825829E0,3.026363373E0
8.869589980E1,1.797142601E1,-3.848796844E1,2.068653345E0
8.874789352E1,1.358750916E1,-2.428991699E1,2.997632027E0
8.879989177E1,6.021601200E0,-6.943397045E0,-1.709512234E0
8.885188916E1,3.778165579E0,3.059883118E0,4.692778587E0
8.890388329E1,4.053507328E0,-4.506025314E0,1.503604531E0
8.895587658E1,1.008468533E1,-1.212221336E1,4.331243038E0
8.900786984E1,1.536166763E1,-1.583333969E1,3.189173937E0
8.905986327E1,7.757450581E0,-1.010623360E1,2.832427025E0
8.911185656E1,3.502824068E0,-9.577099234E-2,1.989642382E0
8.916384989E1,-2.796513081E0,3.773377180E0,2.561874092E-1
8.921584321E1,-4.472505569E0,1.903448462E0,-3.806896925E0
8.926783740E1,1.698977470E1,1.987248063E-1,9.727938652E0
8.931983092E1,-6.009629965E-1,3.639297783E-1,9.792584181E-1
8.937182418E1,6.481301785E0,-1.845507050E1,1.084606528E0
8.942381754E1,1.562503719E1,-3.024448013E1,8.090254784E0
8.947581110E1,1.028580475E1,-1.429142666E1,6.177229285E-1
8.952780412E1,7.446194649E0,3.148471355E0,6.205960274E0
8.957979775E1,4.151672363E0,-7.374366522E-1,3.517189741E0
8.963179084E1,5.628940105E0,-7.017619610E0,4.551516533E0
8.968378493E1,1.544546700E1,-2.310954094E1,3.057488918E0
8.973577855E1,7.987300873E0,-1.638881111E1,5.506832123E0
8.978777185E1,5.791750908E0,-5.964138508E0,7.558725357E0
8.983976547E1,3.184385598E-1,-4.649681568E0,3.490852594E0
8.989176179E1,-5.126142502E0,3.493247032E0,-3.009603500E0
8.994375592E1,-2.741444588E0,3.646480560E0,-2.798907280E0
8.999574924E1,6.665660858E0,2.844398499E0,1.296739197E1
9.004774264E1,1.467690468E0,-5.734288216E0,-1.019961119E0
9.009973590E1,3.620143414E0,-2.276237106E1,4.539545059E0
9.015172939E1,4.664047241E0,-3.295958710E1,2.293715239E0
9.020372262E1,9.926663399E0,-9.251478195E0,3.634509087E0
9.025567404E1,7.884346962E0,8.930644989E-1,8.547560692E0
9.030766806E1,2.032739401E0,-5.621757030E0,4.826858044E0
9.035966165E1,6.799740195E-1,-1.297936344E1,7.252258301E0
9.041165494E1,1.083409309E1,-1.567771149E1,1.111182976E1
9.046364826E1,3.596200705E0,-6.955368519E0,1.311823177E1
9.051564172E1,1.556278586E0,2.176395893E0,6.596227169E0
9.056763505E1,1.838803053E0,1.810071707E0,4.130124092E0
9.061962831E1,7.685622215E0,7.034379482E0,-2.106961906E-1
9.067162203E1,7.376760483E0,1.558672905E0,-2.442160249E-1
9.072361605E1,-7.594639778E0,-3.184385538E0,-8.037580490E0
9.077560934E1,2.434977531E0,-1.740398407E1,-5.027977005E-2
9.082760277E1,8.595446587E0,-2.053330040E1,9.067118645E0
9.087959606E1,1.412622094E0,-2.300179863E1,1.666415215E0
9.093159355E1,1.425072384E1,-1.248374844E1,7.139727592E0
9.098359168E1,6.866780281E0,-6.354405403E0,9.050358772E0
9.103558707E1,6.522004604E0,-7.029590607E0,1.047255802E1
9.108758036E1,9.689630508E0,-1.560348892E1,1.161941528E1
9.113957376E1,4.604190350E0,-1.014214802E1,8.736708641E0
9.119156708E1,5.044736862E0,-1.013735962E1,8.356019020E0
9.124356051E1,1.125309169E-1,-6.110189438E0,2.502017260E0
9.129555373E1,-1.019961119E0,3.196356773E0,1.606558442E0
9.134754769E1,-7.893924236E0,5.200365067E0,1.565855742E0
9.139954148E1,-1.872083473E1,1.106394386E1,-2.523565531E0
9.145153474E1,-3.629720688E0,1.197137386E-1,1.972882390E0
9.150352806E1,-6.162863255E0,-1.472478962E1,7.369577885E0
9.155552132E1,1.719089317E1,-3.432192993E1,4.726298332E0
9.160751478E1,1.687245369E1,-1.637684059E1,1.102802944E1
9.165950814E1,1.029538155E1,-1.281894779E1,8.877970695E0
9.171150140E1,1.496421719E1,-3.074248791E0,1.226587009E1
9.176349529E1,7.637736797E0,7.805336118E-1,7.043956280E0
9.181548917E1,2.693559170E0,-1.680780888E0,6.294548512E0
9.186748237E1,4.405465722E-1,1.656838179E0,1.635289669E0
9.191947586E1,-1.362342358E0,1.692752242E0,-7.853221297E-1
9.197146915E1,2.008796453E0,1.716455650E1,-5.217124939E0
9.202346641E1,-5.195576549E-1,2.734261751E0,2.719896078E0
9.207546453E1,1.094662476E1,-2.284377670E1,7.994483471E0
9.212745905E1,6.912271500E0,-1.993473244E1,-5.363175869E-1
9.217945245E1,3.004814863E0,-1.158350182E1,1.980065227E0
9.223144577E1,4.527573586E0,-1.041749001E1,1.184447765E1
9.228343910E1,1.319963741E1,-1.807438087E1,1.068325424E1
9.233543252E1,1.230896664E1,-9.811738014E0,1.104000092E1
9.238742575E1,4.884320736E0,-2.360754967E0,9.713572502E0
9.243941914E1,2.300898075E0,5.351204395E0,4.201952457E0
9.249141313E1,-3.069460392E0,8.087860107E0,2.657645047E-1
9.254340672E1,-8.810931444E-1,4.398283005E0,-1.268965602E-1
9.259540018E1,-4.632921696E0,-3.404658794E0,6.943396926E-1
9.264739347E1,3.618228149E1,-3.216708374E1,-7.759844780E0
9.269938676E1,5.844424725E0,-4.632921696E0,3.514795303E0
9.275138016E1,5.437397957E0,-1.497858334E1,1.379102325E1
9.280337335E1,-5.602602959E-1,-3.711604691E1,-8.212362289E0
9.285536681E1,8.830085754E0,2.178790092E0,3.948159218E0
9.290736106E1,1.240473747E1,-7.041562080E0,8.825297356E0
9.295935445E1,1.065452290E1,-2.639209175E1,2.128510237E0
9.301134781E1,1.409988403E1,-1.217728138E1,3.076643229E0
9.306334120E1,1.009186840E1,-5.731894016E0,1.932179809E0
9.311533686E1,5.071074009E0,5.985686779E-1,2.628913641E0
9.316733182E1,-5.461340904E0,5.104593754E0,-3.591412306E0
9.321932514E1,-8.207573891E0,7.632947922E0,-1.412622184E-1
9.327131857E1,-5.631334305E0,6.057515144E-1,8.126168251E0
9.332331183E1,-1.001525116E1,-9.768640995E-1,-3.742251635E0
9.337530542E1,1.647979355E1,-2.476398468E1,1.239276600E1
9.342729851E1,3.450150013E0,-4.138743591E1,-3.938581944E0
9.347929177E1,8.463761330E0,-8.447001457E0,1.034326673E0
9.353128602E1,2.221887112E0,-4.922628880E0,-4.668835998E-1
9.358327955E1,3.253819466E0,-6.756643295E0,4.175615311E0
9.363527280E1,6.198777676E0,-1.216530991E1,1.829225898E0
9.368726623E1,1.682696342E1,-2.628913641E0,7.046350956E0
9.373925972E1,1.102324104E1,-1.417410731E0,4.012804508E0
9.379125285E1,5.013611317E0,1.197137404E-2,3.098191500E0
9.384324624E1,-4.508419514E0,1.005595401E-1,7.565908432E-1
9.389523960E1,-7.798152924E0,1.982459545E0,-8.217150688E0
9.394723379E1,2.687573433E1,3.205694580E1,-2.830511665E1
9.399922728E1,-1.302724934E1,4.652075768E0,-6.579467297E0
9.405122054E1,1.820845985E1,-3.002420616E1,4.307300568E0
9.410321393E1,2.250378799E1,-2.310954094E1,9.184437752E0
9.415521022E1,7.685622215E0,-1.188278580E1,-1.067846537E0
9.420720858E1,-7.925049663E-1,-1.822043180E0,5.645699978E0
9.425920487E1,3.430995703E0,-2.988054991E0,8.854028702E0
9.431119826E1,7.273807049E0,-7.814912796E0,1.062100315E1
9.436319155E1,1.757158279E1,-1.559630585E1,9.567522049E0
9.441518491E1,1.306076908E1,-1.090831566E1,6.079063892E0
9.446717834E1,5.751048088E0,-1.063058019E0,3.469304085E0
9.451917163E1,8.667274714E-1,4.601796150E0,1.316851079E-1
9.457116529E1,-2.801301479E0,3.572257996E0,-1.999219418E0
9.462315938E1,-1.194743156E0,4.424619675E0,-1.953728199E0
9.467515270E1,6.244268894E0,-3.098191500E0,8.499675751E0
9.472714593E1,4.573064744E-1,-1.101366401E0,-2.272166729E0
9.477913952E1,4.841223717E0,-5.758230686E0,5.877944469E0
9.483113268E1,1.304879761E1,-2.740965843E1,5.933012962E0
9.488312587E1,1.806001472E1,-3.466909885E0,2.980872154E0
9.493511936E1,-4.917840481E0,-8.583475113E0,2.731867552E0
9.498711325E1,4.956148624E0,-5.128536701E0,6.703969479E0
9.503910697E1,1.043185520E1,-9.136552811E0,1.024989033E1
9.509110030E1,1.658992958E1,-7.357606411E0,8.648120880E0
9.514309356E1,9.974549294E0,-1.522758722E0,6.320885658E0
9.519508698E1,4.699961662E0,5.566689014E0,1.027143836E0
9.524708297E1,2.585816681E-1,9.301757812E0,-2.679193497E0
9.529908173E1,-6.608198285E-1,4.874743462E0,-9.189227104E0
9.535107695E1,1.301288319E1,-1.041509509E0,2.929155731E1
9.540307041E1,3.964919090E0,3.299310684E0,2.276955366E0
9.545506364E1,5.552323341E0,-1.274233055E1,5.207547665E0
9.550705696E1,1.567771149E1,-2.253730965E1,7.649707794E0
9.555905022E1,1.259628010E1,-1.148054790E1,3.737462997E0
9.561104385E1,6.244268894E0,-1.424593568E0,2.839609861E0
9.566303697E1,5.695979595E0,-6.363982677E0,4.132518291E0
9.571503109E1,6.538764477E0,-1.956601334E1,2.087807655E0
9.576702468E1,1.447817993E1,-1.083409309E1,4.697566986E0
9.581901791E1,9.205986977E0,-8.257853508E0,5.377541065E0
9.587101130E1,2.365543604E0,-1.039115310E0,4.628133297E0
9.592300470E1,1.795706153E-1,7.063110828E0,-2.921015322E-1
9.597499799E1,-6.361588001E0,4.649681568E0,-4.826858044E0
9.602699134E1,-4.838829517E0,1.034087276E1,1.330737972E1
9.607898474E1,-5.063891411E0,1.209827042E1,-2.928198099E0
9.613097916E1,1.367130876E0,-1.813663101E1,7.333663940E0
9.618297242E1,2.774006844E1,-4.760776138E1,8.044763207E-1
9.623496564E1,6.442993641E0,-1.165293503E1,-1.565855742E0
9.628695907E1,4.764606953E0,-2.116539001E0,5.739076614E0
9.633895412E1,8.379961848E-1,-4.822069645E0,2.834821463E0
9.639094975E1,4.862771988E0,-6.138920784E0,5.518803596E0
9.644294297E1,1.262979984E1,-1.490436077E1,3.747040033E0
9.649493633E1,1.664978790E1,-5.990475655E0,3.057488918E0
9.654692976E1,1.185644913E1,2.873129845E-1,1.319245458E0
9.659892309E1,-1.242628574E0,4.972908974E0,2.657645047E-1
9.665091648E1,-1.476549244E1,1.121957207E1,6.842837334E0
9.670291000E1,-1.589798450E0,5.370358467E0,-1.061142635E1
9.675490399E1,-1.101366425E1,-5.794144869E-1,-2.875524044E0
9.680689748E1,1.660429573E1,-3.068023682E1,1.759791970E0
9.685889074E1,1.647261047E1,-3.048869514E1,6.644112587E0
9.691088400E1,2.451737404E0,-1.431058025E1,-1.675992370E0
9.696287736E1,3.598595142E0,-2.525959969E0,3.897879362E0
9.701487078E1,6.596227169E0,-2.662433624E0,5.854001999E0
9.706686418E1,9.454991341E0,-6.914665699E0,5.952167034E0
9.711885780E1,9.926663399E0,-1.490436077E1,3.893090725E0
9.717085179E1,1.456916237E1,-8.626572609E0,7.479714394E0
9.722284498E1,7.946598053E0,-6.287365437E0,1.965699673E0
9.727483840E1,-1.482056141E0,-5.147690773E-1,1.575432777E0
9.732683173E1,-1.006792545E1,5.425426483E0,-4.460534096E0
9.737882718E1,6.993676662E0,6.249057055E-1,1.144702816E1
9.743082577E1,-3.773377180E0,5.114171028E0,3.023969173E0
9.748282177E1,-1.271359921E0,-5.435003757E0,2.889889717E0
9.753480245E1,2.633702278E1,-3.407052994E1,1.243586349E1
9.758679575E1,1.118844604E1,-1.682696342E1,3.222693920E0
9.763878907E1,6.261028767E0,-3.622537851E0,1.798100352E0
9.769078236E1,5.674431324E-1,-1.738243461E0,1.496421814E0
9.774277566E1,6.392713785E-1,-7.065505028E0,4.163643837E0
9.779476908E1,3.550709486E0,-1.319005966E1,3.102980137E0
9.784676274E1,1.211981869E1,-5.025582790E0,4.728692532E0
9.789875666E1,1.279261017E1,-7.980117798E0,5.487678051E0
9.795075012E1,8.736708641E0,2.490045786E0,2.925803900E0
9.800274338E1,3.023969173E0,6.493273258E0,1.704723716E0
9.805473674E1,-3.550709486E0,7.690410614E0,-2.609759569E-1
9.810673013E1,-1.255318260E1,-7.465348721E0,1.115253162E1
9.815872342E1,-1.017087936E1,2.059076309E0,-6.677632332E0
9.821071681E1,1.376229191E1,-3.288536453E1,3.529160976E0
9.826271083E1,1.006792545E1,-2.857327461E1,6.957762718E0
9.831470436E1,5.557111740E0,-1.241910362E1,1.292908341E-1
9.836669772E1,4.793338299E0,2.968900800E-1,5.509226322E0
9.841869104E1,1.048692346E0,-9.581888199E0,1.331216812E0
9.847068547E1,3.828445435E0,-8.906702042E0,2.633702382E-2
9.852268162E1,7.869981289E0,-1.040791225E1,1.771763325E0
9.857467505E1,9.050358772E0,-9.478934288E0,8.262641907E0
9.862666847E1,8.590658188E0,2.035133541E-1,2.432583094E0
9.867866170E1,-6.984099388E0,4.391099930E0,4.915446281E0
9.873065509E1,-1.191630554E1,-2.789330244E0,-7.565908432E-1
9.878264845E1,-8.159688950E0,2.042316437E0,-4.932205975E-1
9.883464178E1,5.913858891E0,-1.020679379E1,7.948992252E0
9.888663557E1,9.407105446E0,-3.786066818E1,8.379961848E-1
9.893862955E1,-1.553884387E0,-2.297785568E1,-1.977671027E0
9.899062275E1,5.427821159E0,-1.432973480E1,-1.218685865E0
9.904261607E1,7.369577885E0,-7.635342598E0,2.128510237E0
9.909460946E1,-2.298503876E0,-4.101392746E0,4.599401951E0
9.914660282E1,3.275367975E0,-8.461367607E0,4.656864643E0
9.919859612E1,4.996851444E0,-1.001764584E1,6.112583637E0
9.925058948E1,5.001639843E0,-9.967366219E0,8.995290756E0
9.930258340E1,9.050358534E-1,-5.590631485E0,7.884346962E0
9.935457712E1,-4.012804508E0,-9.313728809E-1,-8.403904438E-1
9.940657051E1,3.984073162E0,3.289733648E0,-6.105400562E0
9.945856384E1,-6.691998005E0,8.626572609E0,2.628913641E0
9.951055812E1,-6.081458092E0,3.308887720E0,4.620950520E-1
9.956255701E1,1.056114578E1,-3.639297867E1,3.263396502E0
9.961455364E1,2.072005463E1,-2.561874008E1,7.477320194E0
9.966654710E1,4.357580185E0,-1.497140026E1,5.159662247E0
9.971854049E1,2.664827824E0,-9.624984741E0,4.517996788E0
9.977053381E1,1.204320192E0,-2.825244367E-1,8.152505875E0
9.982252717E1,-1.553884387E0,-5.286558628E0,7.771816254E0
9.987452053E1,2.169213057E0,-1.169363785E1,5.121353626E0
9.992651382E1,4.869955063E0,-1.268726254E1,4.877137661E0
9.997850712E1,4.467716694E0,-6.416656375E-1,3.366350412E0
1.000305014E2,7.532388687E0,6.917059898E0,9.792584181E-1
1.000824948E2,4.189980984E0,1.122914910E0,-1.496421814E0
1.001344882E2,-8.284190893E-1,1.489238930E1,-2.102173328E0
1.001864815E2,-1.137280583E0,1.019961071E1,2.801301479E-1
1.002384748E2,1.250050831E1,-1.594826412E1,1.394186211E1
1.002904682E2,1.634331894E1,-2.592281342E1,-1.884294271E0
1.003424616E2,2.166339874E1,-1.952770615E1,1.201925993E0
1.003944549E2,4.381523132E0,-1.943911743E1,4.201952457E0
1.004464491E2,1.800494671E0,-1.068804264E1,2.937775135E0
1.004984425E2,4.245049000E0,-3.340013266E0,5.899493217E0
1.005504359E2,5.652883053E0,3.957736254E0,1.401608467E1
1.006024298E2,6.835654736E0,-2.427794695E0,8.384750366E0
1.006544260E2,1.326667690E1,-1.675992459E-2,7.589851379E0
1.007064200E2,1.055875206E1,1.508393139E-1,4.774183750E0
1.007584132E2,4.041535854E0,2.286532402E0,-5.315290093E-1
1.008104066E2,-3.720703125E0,-5.961744189E-1,-9.337671995E-1
1.008624001E2,-6.893116951E0,1.515576005E0,-9.984126091E-1
1.009143931E2,3.371139050E0,-3.622537851E0,1.695385933E1
1.009663866E2,-2.681587696E0,2.502017260E0,2.820455790E0
1.010183800E2,2.607365370E0,-2.148382759E1,7.781393051E0
1.010703742E2,2.396669149E0,-3.506175995E1,1.245022863E-1
1.011223676E2,1.134407425E1,-1.707836151E1,5.542746067E0
1.011743608E2,3.272973776E0,-7.872375488E0,1.170800328E0
1.012263542E2,8.834874034E-1,-3.031152010E0,2.092596292E0
1.012783476E2,4.728692532E0,-4.769395351E0,2.837215662E0
1.013303409E2,1.559870052E1,-7.960963726E0,-8.995290756E0
1.013823343E2,2.105046463E1,-8.193208694E0,2.475680113E0
1.014343278E2,1.404242134E1,-3.940976381E0,9.806949615E0
1.014863220E2,6.945791245E0,2.710319042E0,1.496421814E0
1.015383153E2,2.916226625E0,5.011217117E0,-2.930592299E0
1.015903085E2,-1.031692982E1,4.666441441E0,-6.026389599E0
1.016423025E2,1.827310562E1,-1.177743816E1,1.127703476E1
1.016943009E2,6.083852291E0,-2.346389294E0,7.972935200E0
1.017462983E2,1.521082783E1,-2.948310089E1,4.867560863E0
1.017982930E2,1.278303337E1,-2.675362587E1,3.426207304E0
1.018502864E2,6.261028767E0,-2.454131603E0,1.534730196E0
1.019022798E2,2.181184292E0,-5.535563469E0,2.868341208E0
1.019542730E2,2.966506481E0,-1.001764584E1,1.781340480E0
1.020062663E2,3.117345810E0,-1.334808159E1,1.355159521E0
1.020582596E2,1.015651417E1,-4.486870766E0,3.201145411E0
1.021102534E2,1.415734673E1,1.362342358E0,4.357580185E0
1.021622473E2,7.951386452E0,5.236279011E0,3.282550812E0
1.022142406E2,2.923409462E0,3.572257996E0,3.193962574E0
1.022662339E2,3.261002302E0,-4.053507328E0,6.057515144E0
1.023182272E2,2.830032825E0,-1.172236919E1,-7.925049782E0
1.023702208E2,-9.744698524E0,2.037527800E0,-4.132518291E0
1.024222140E2,5.209941864E0,-9.493299484E0,6.689603806E0
1.024742075E2,1.607276726E1,-3.930202103E1,5.901887417E0
1.025262013E2,2.061709976E1,-1.661866188E1,7.822095871E0
1.025781952E2,5.578660369E-1,-3.179596901E0,1.036720991E0
1.026301883E2,1.640078187E0,-5.973715782E0,1.556278586E0
1.026821817E2,7.944203854E0,-1.381257153E1,3.696760416E0
1.027341754E2,1.131773663E1,-9.004867554E0,6.162863255E0
1.027861737E2,8.320104599E0,-6.378347874E0,1.630501151E0
1.028381712E2,6.962551117E0,5.746259540E-2,5.650488377E0
1.028901650E2,1.113337755E0,5.937801361E0,1.017566800E0
1.029421583E2,7.853221297E-1,7.618582249E0,-3.663240373E-1
1.029941517E2,2.026035309E1,1.027143836E0,1.087958431E1
1.030461450E2,-4.807703972E0,2.913832426E0,1.745426297E0
1.030981384E2,7.853221297E-1,-7.010436535E0,2.774964571E0
1.031501317E2,1.300809479E1,-1.997064590E1,9.222746849E0
1.032021250E2,1.289556408E1,-3.244242477E1,1.101366431E-1
1.032541192E2,9.969759941E0,4.271386147E0,3.945764780E0
1.033061127E2,1.611346960E0,-5.525986195E0,5.099805593E-1
1.033581059E2,5.358386993E0,-8.549955368E0,3.577046633E0
1.034100994E2,1.342948723E1,-1.776551819E1,1.405439258E0
1.034620927E2,1.503843975E1,-1.472000122E1,2.822849989E0
1.035140860E2,7.333663940E0,-4.764606953E0,4.072661400E0
1.035660794E2,3.150865555E0,3.038334846E0,3.967313290E0
1.036180731E2,-3.998439014E-1,5.911464691E0,4.980091453E-1
1.036700672E2,2.255406857E0,4.654470444E0,3.213116884E0
1.037220604E2,-2.705530643E0,7.063110471E-1,1.611346960E0
1.037740537E2,9.471751213E0,-1.847183037E1,1.914941025E1
1.038260474E2,-1.898659945E0,-2.985660791E0,5.288952827E0
1.038780435E2,5.928224564E0,-1.678865433E1,3.251425266E0
1.039300376E2,8.528407097E0,-1.438480282E1,4.175615311E0
1.039820312E2,5.344021320E0,2.873129770E-2,4.932205975E-1
1.040340244E2,3.277762175E0,-1.017087936E1,1.755003452E0
1.040860177E2,1.339596748E1,-1.603445816E1,1.283331299E1
1.041380114E2,5.767807961E0,-1.698498535E1,1.793311834E0
1.041900043E2,5.930618763E0,-9.692024231E0,9.392740250E0
1.042419981E2,4.051113129E0,-3.258608103E0,1.130337143E1
1.042939920E2,6.153286099E-1,5.226701736E0,5.906675816E0
1.043459853E2,1.374313712E0,3.517189741E0,7.005648136E0
1.043979787E2,1.304879785E0,1.541913033E0,2.557085514E0
1.044499721E2,3.373533249E0,-3.591412306E0,-7.999272346E0
1.045019655E2,-2.861158371E0,-6.986494064E0,-3.849993944E0
1.045539589E2,3.263636017E1,-1.855562973E1,5.178816319E0
1.046059520E2,-6.703969240E-1,-2.657644987E0,2.961717844E0
1.046579460E2,2.528354168E0,-7.436617374E0,1.486844659E0
1.047099397E2,1.970488191E0,-7.168458939E0,2.774964571E0
1.047619331E2,4.652075768E0,-1.627388573E1,3.519583941E0
1.048139675E2,1.509111404E1,-1.276627350E1,6.409473896E0
1.048659610E2,1.243586349E1,-7.941809654E0,1.007989645E0
1.049179584E2,8.260248184E0,-8.284190893E-1,9.174860954E0
1.049699564E2,4.661653042E0,9.249083519E0,-3.936187744E0
1.050219518E2,1.474873304E0,5.770202160E0,-2.667222023E0
1.050739451E2,-4.652075768E0,3.074248791E0,4.989668846E0
1.051259385E2,8.384750366E0,-3.392687321E0,-2.614069176E1
1.051779318E2,6.510033131E0,-1.067607117E1,4.436591148E0
1.052299251E2,2.906649590E0,-2.207042503E1,8.466156006E0
1.052819184E2,1.488760090E1,-3.342168045E1,7.249864101E0
1.053339127E2,4.455745220E0,1.182771802E0,5.233884811E0
1.053859061E2,1.565855742E0,-2.569056988E0,4.024775982E0
1.054378995E2,5.937801361E0,-7.680833817E0,7.776604652E0
1.054898928E2,8.080677032E0,-2.178550720E1,1.896265626E0
1.055418860E2,1.115971470E1,-1.064733982E1,8.535589218E0
1.055938795E2,8.600234985E0,-9.095849991E0,6.330462456E0
1.056458728E2,4.599401951E0,-7.709565163E-1,6.799740195E-1
1.056978661E2,-3.624932051E0,3.459727049E0,2.856369734E0
1.057498604E2,-1.805283189E0,9.361614585E-1,7.254652381E-1
1.058018538E2,5.961744308E0,6.569890022E0,6.672843933E0
1.058538472E2,-4.302511692E0,1.546701550E0,2.241041183E0
1.059058405E2,-3.040728867E-1,-6.569890022E0,1.711906433E0
1.059578339E2,-1.908236980E0,-3.202103043E1,2.648067951E0
1.060098313E2,1.457634544E1,-2.357881737E1,4.175615311E0
1.060618294E2,1.273993587E1,1.611346960E0,8.537983894E0
1.061138238E2,1.398256540E0,-8.782199860E0,-2.154847383E-1
1.061658172E2,4.395888329E0,-1.942714500E1,-3.000026226E0
1.062178105E2,1.346300697E1,-1.033608437E1,4.735875607E0
1.062698038E2,1.115492630E1,-8.389538765E0,2.966506481E0
1.063217972E2,8.035185814E0,3.790137053E0,8.164477348E-1
1.063737905E2,4.415042877E0,9.447808266E0,8.288979530E0
1.064257842E2,-1.805283189E0,5.492466450E0,1.946545362E0
1.064777782E2,-4.460534096E0,-1.626191521E1,2.899466753E0
1.065297715E2,-1.590037918E1,-1.036720991E0,-4.288146019E0
1.065817649E2,3.193962574E0,-9.526819229E0,8.743891716E0
1.066337582E2,8.032792091E0,-4.661892319E1,3.696760416E0
1.066857515E2,1.002004051E1,-1.869210434E1,6.368771195E-1
1.067377448E2,6.304125786E0,2.540325642E0,3.711125851E0
1.067897382E2,9.313728809E-1,-6.028783798E0,-1.573038578E0
1.068417322E2,1.201925993E0,-9.335277557E0,3.883513689E0
1.068937260E2,7.896318436E0,-1.522279930E1,-6.536370516E-1
1.069457192E2,1.185884285E1,-1.426030064E1,5.427821159E0
1.069977126E2,1.180856323E1,-3.955342054E0,4.690384388E0
1.070497059E2,7.005648136E0,3.426207304E0,5.411061049E-1
1.071017016E2,1.552447796E1,3.952947617E0,1.180377483E0
1.071536967E2,-9.787795067E0,1.003440571E1,-4.381522834E-1
1.072056901E2,-9.577098846E0,4.592218876E0,1.872322917E0
1.072576832E2,9.110215187E0,-1.749736023E1,1.023552513E1
1.073096766E2,2.089723015E1,-3.221736145E1,5.638517380E0
1.073616699E2,5.226701736E0,-1.113816643E1,2.633702382E-2
1.074136632E2,4.822069645E0,-4.245049000E0,7.187613010E0
1.074656570E2,1.197137356E0,-4.422225475E0,4.017592907E0
1.075176509E2,2.592999697E0,-1.036242104E1,3.507612705E0
1.075696442E2,5.413455486E0,-1.437522602E1,3.775771379E0
1.076216375E2,7.953781128E0,-3.076643229E0,9.232323647E0
1.076736309E2,4.039141655E0,9.366402626E0,5.619362831E0
1.077256242E2,3.603383541E0,7.994483471E0,-1.125309169E-1
1.077776175E2,1.877111435E0,6.981705189E0,-2.343995094E0
1.078296110E2,1.215812778E1,6.608198285E-1,1.442790031E1
1.078816049E2,-1.015890789E1,8.983319283E0,-3.351984739E0
1.079335986E2,-8.212362528E-1,-1.794269562E1,1.232812119E1
1.079855920E2,2.083019018E-1,-3.272016144E1,1.280458164E1
1.080375853E2,9.217958450E0,-2.261153221E1,3.246636629E0
1.080895786E2,1.017806244E1,-6.610592842E0,8.339259148E0
1.081415751E2,1.225868702E0,-1.240234375E0,6.059909344E0
1.081935736E2,3.167625666E0,-7.929838181E0,5.854001999E0
1.082455686E2,7.786181450E0,-1.709991074E1,8.827691078E0
1.082975619E2,5.609786034E0,-7.489291668E0,1.189475727E1
1.083495553E2,-3.902668059E-1,4.216318130E0,1.263219357E1
1.084015486E2,1.486844659E0,6.249057293E0,5.384724140E0
1.084535420E2,7.383943558E0,7.723930359E0,-1.556278586E0
1.085055354E2,4.577853203E0,7.778998852E0,-3.948159218E0
1.085575285E2,-4.898686409E0,-3.442967176E0,1.400411320E1
