"Time (s)","Gyroscope x (rad/s)","Gyroscope y (rad/s)","Gyroscope z (rad/s)"
5.198907500E-2,-5.870873332E-1,4.958393052E-2,3.999475539E-1
1.039822430E-1,-4.600273371E-1,-3.132700324E-1,5.343378782E-1
1.559758020E-1,-4.282623529E-1,-4.409408569E-1,3.700151443E-1
2.079690280E-1,-3.873343766E-1,1.839742959E-1,1.281124949E-1
2.599629810E-1,-2.022422254E-1,1.216660291E-1,7.741067559E-2
3.119567040E-1,-9.350819141E-2,3.415775001E-1,-3.743198887E-2
3.639499630E-1,-8.678868413E-2,6.231864095E-1,-4.781670123E-2
4.159432890E-1,1.251815557E-1,2.975952029E-1,1.030670181E-1
4.679366490E-1,2.827847898E-1,5.578237772E-1,1.275016218E-1
5.199300410E-1,5.625610948E-1,-6.248112917E-1,2.594485283E-1
5.719233670E-1,8.044636846E-1,-1.675499558E0,3.339740932E-1
6.239166930E-1,1.298653722E0,-3.906379461E0,-7.652736455E-2
6.759108110E-1,1.562547445E0,-9.167151451E0,-9.036388993E-1
7.279043360E-1,4.990310967E-1,-9.329030037E0,-1.606133938E0
7.798976940E-1,-4.954575300E-1,-2.604625463E0,-3.465298116E-1
8.318910210E-1,-9.609368443E-1,4.845199883E-1,5.422791243E-1
8.838852090E-1,-7.422470450E-1,-2.348062277E0,6.229133010E-1
9.358839970E-1,9.028130174E-1,-7.842471600E-1,1.417649031E0
9.878808540E-1,2.252214432E0,-3.037729025E0,9.472827911E-1
1.039874314E0,2.174023628E0,1.106704548E-1,6.174155474E-1
1.091867640E0,2.759232521E0,1.354392052E0,6.824769825E-2
1.143861100E0,2.395156622E0,2.858342171E0,-4.613724649E-1
1.195854459E0,1.993207574E0,2.392252207E0,-6.308832765E-2
1.247847652E0,1.010325313E0,2.511370897E0,2.643354535E-1
1.299841044E0,-7.172015905E-1,3.114905834E0,1.178189874E0
1.351834435E0,-2.332329273E0,7.697940469E-1,2.073718309E0
1.403828753E0,-3.726323843E0,-2.100338042E-1,3.115854502E0
1.455822113E0,-4.847872734E0,-1.550883055E0,3.478708267E0
1.507815405E0,-4.152707577E0,-2.345007896E0,3.004066229E0
1.559808831E0,-3.496027470E0,-3.597892284E0,3.551401377E0
1.611802157E0,-1.843637109E0,-2.825758696E0,2.499491453E0
1.663795384E0,-3.079219162E-1,-4.751493335E-1,-2.017547488E-1
1.715788742E0,1.111118078E0,-1.147388145E-1,-3.074344099E-1
1.767782630E0,1.929066658E0,-4.873666167E-1,-1.282375336E0
1.819776386E0,2.527103662E0,7.581876516E-1,-1.813828111E0
1.871769579E0,3.781820774E0,-8.862615824E-1,-2.749673605E0
1.923763138E0,3.790373087E0,6.250189543E-1,-2.983634949E0
1.975757095E0,1.976714134E0,1.913333774E0,-3.097867012E0
2.027753183E0,4.699081182E-2,1.704417825E0,-1.383778930E0
2.079747110E0,-7.734012604E-1,4.507067204E0,4.329342246E-1
2.131740435E0,1.935984641E-1,7.453594208E-1,9.454501867E-1
2.183733727E0,-3.853994608E0,-3.113476276E0,2.172067642E0
2.235727054E0,-4.321917534E0,-4.137897491E0,3.287507534E0
2.287720479E0,-1.692753434E0,9.112276882E-2,2.918545008E0
2.339713772E0,-4.398688078E-1,-2.093331337E0,6.888867617E-1
2.391707496E0,7.531510592E-1,-2.524602413E0,8.587073088E-1
2.443701448E0,1.000551462E0,-8.019621968E-1,-6.812839508E-1
2.495694773E0,1.257725716E0,-7.689754963E-1,-2.406367540E0
2.547688099E0,2.182575703E0,7.606310844E-1,-2.262814045E0
2.599681491E0,1.284603715E0,3.519622087E-1,-1.577423215E0
2.651674784E0,-7.275863290E-1,1.333622694E0,-8.156743050E-1
2.703668177E0,1.514487565E-1,4.982931614E0,7.496721298E-2
2.755661502E0,7.757530808E-1,1.565140605E0,-6.421886086E-1
2.807655190E0,-2.828351736E0,-2.035910130E0,1.096944809E0
2.859649212E0,-4.475244522E0,-2.202676296E0,2.067609549E0
2.911642471E0,-1.529041529E0,-4.003507137E0,1.892291307E0
2.963635730E0,-1.081689596E-1,7.563550472E-1,1.824485183E0
3.014171781E0,4.318359196E-1,1.015074775E-1,-5.270362273E-2
3.066169871E0,1.155100346E0,8.308805823E-1,4.659209549E-1
3.118167497E0,2.122710943E0,-2.109824657E0,5.966461301E-1
3.170162456E0,1.496573925E0,-3.676370382E-1,-1.050857425E0
3.222155882E0,7.971333265E-1,-8.602815121E-2,-1.723420024E0
3.274149241E0,1.347522974E0,5.840910077E-1,-3.724003553E0
3.326142500E0,1.566212654E0,-1.308369517E0,-3.141539395E-1
3.378135859E0,-9.456652403E-1,-2.480009079E0,-2.718519449E0
3.430129152E0,-7.388461113E0,5.556534290E0,4.807340145E0
3.482123138E0,-5.120929241E0,-2.883790970E0,4.136610508E0
3.534116895E0,-2.008570910E0,1.066063762E0,2.996124744E0
3.586110220E0,1.003605723E0,1.544982076E0,-1.304977417E0
3.638103479E0,2.106217623E0,-4.483036041E0,-2.668428659E0
3.690096839E0,1.322477460E0,6.668815762E-2,-1.277488351E0
3.742090232E0,1.468474269E0,-1.835546255E0,-8.364437222E-1
3.794083491E0,1.612638474E0,-1.902741313E0,-8.211721182E-1
3.846077181E0,2.320020437E0,-1.635182381E0,-1.005653381E0
3.898071167E0,1.893025637E0,-2.861188889E0,-2.250596762E0
3.950064459E0,2.699566483E-1,2.437456131E0,-2.772886515E0
4.002058019E0,2.528936386E0,4.962162018E0,-3.595721960E0
4.054051278E0,-2.942583799E0,3.832061529E0,2.420689583E0
4.106044769E0,-7.483756065E0,-6.559654474E-1,6.388259888E0
4.158042857E0,-2.355542183E0,7.514680624E-1,5.996695042E0
4.210040378E0,-7.269754410E-1,3.946904182E0,-1.305588245E0
4.262034572E0,6.871775985E-1,7.646200806E-2,-1.501065016E0
4.314027932E0,1.802617550E0,-2.179463387E0,-1.158980608E0
4.366021191E0,2.869188309E0,-5.166594028E0,-2.223718643E0
4.418014584E0,1.861871481E0,-1.338912725E0,-1.833986640E0
4.470007910E0,6.920645237E-1,-7.304909825E-1,-1.725863576E0
4.522001236E0,-2.486679703E-1,2.556575060E0,-2.001363754E0
4.573994727E0,1.445261359E0,6.182671070E0,-2.048400402E0
4.625988946E0,-2.274908066E0,4.471026421E0,2.832722664E-1
4.677982273E0,-5.216835022E0,-1.359071255E0,1.563034892E0
4.729975532E0,-2.627377272E0,-4.961343765E0,3.031554937E0
4.781968925E0,-1.950538516E0,3.996995211E0,3.225199223E0
4.833962418E0,-4.111581147E-1,-3.387754917E0,-5.957627892E-1
4.885955710E0,-2.853198946E-1,-1.536222339E0,1.568231732E-1
4.937949036E0,6.444169879E-1,1.306744576E0,-1.045970440E0
4.989942692E0,2.031081200E0,-5.392901897E-1,-1.626292467E0
5.041936679E0,3.121475697E0,-1.673056006E0,-3.934141397E0
5.093929939E0,1.808726192E0,4.295421243E-1,-3.537078857E0
5.145923265E0,1.457478642E0,1.393487453E0,-2.287859678E0
5.197916789E0,9.718407989E-1,-7.097215652E-1,-1.276266694E0
5.249912711E0,-1.888031811E-1,2.420962811E0,-6.886143088E-1
5.301907271E0,-1.307709813E-1,7.524026930E-2,-1.038640141E0
5.353900663E0,3.035542071E-1,-4.326758534E-2,-3.764621913E-1
5.405894088E0,-5.003444552E-1,1.176630259E0,3.150673866E0
5.457887281E0,-3.362247944E0,-2.363944530E0,3.920363903E0
5.509880607E0,-4.507009983E0,1.122263312E0,7.096863270E0
5.561873933E0,-3.746482372E0,1.179073691E0,6.054116249E0
5.613867921E0,-8.308225870E-1,1.304301143E0,5.868723392E-1
5.665861676E0,1.282160282E0,-2.758563757E0,-1.770456672E0
5.717854968E0,2.982809067E0,-1.580815434E0,-4.363579750E0
5.769848295E0,2.758621693E0,-2.766180933E-1,-5.096007347E0
5.821841654E0,1.920514584E0,1.292083859E0,-3.241420269E0
5.873834947E0,2.025583267E0,1.485441029E-1,-1.325135946E0
5.925828373E0,2.133095741E0,4.686374962E-1,3.791781068E-1
5.977821632E0,2.133095741E0,-4.202038288E0,-5.768259764E-1
6.029815420E0,1.753137469E0,-2.805600405E0,-3.201102972E0
6.081809375E0,8.905956745E-1,3.097190619E0,-2.424082518E0
6.133802634E0,-3.232744694E0,-1.299206495E0,3.523301601E0
6.185795960E0,-4.115444660E0,-3.225875378E0,7.916644573E0
6.237789386E0,-4.532666206E0,6.091041088E0,9.821322441E0
6.289786439E0,-1.635331988E0,-2.325460196E0,6.247459054E-1
6.341784826E0,-4.294840693E-1,-1.792174816E0,-2.320235252E0
6.393779320E0,4.984202385E-1,1.602403402E0,-3.024563074E0
6.445772613E0,1.789178491E0,-3.253364563E0,-3.074654102E0
6.497766072E0,1.099511623E0,4.069401026E-1,-1.710591912E0
6.549759432E0,1.370735884E0,1.228877604E-1,-1.572536349E0
6.601752658E0,1.426324606E0,7.771244645E-1,-1.508395553E0
6.653746016E0,9.158396721E-2,1.642109632E0,-1.640342355E0
6.705739376E0,2.257712126E0,-7.256040573E-1,-2.694695711E0
6.757733397E0,-2.554073572E0,7.794133186E0,1.275016218E-1
6.809726987E0,-6.287070751E0,-1.935728192E0,5.076732159E0
6.861720347E0,-2.728169918E0,-4.266179085E0,6.011355400E0
6.913713706E0,-1.703749061E0,3.186883777E-2,1.662606001E0
6.965706998E0,-8.546463251E-1,2.669584990E0,-7.087728977E-1
7.017700425E0,9.357997179E-1,2.126525879E0,-2.364217758E0
7.069693684E0,2.145923853E0,-2.576812804E-1,-3.336104155E0
7.121687010E0,2.761065245E0,5.486608148E-1,-4.467426777E0
7.173681195E0,1.529560804E0,1.130204558E0,-2.579853058E0
7.225674718E0,1.072633505E0,1.520547509E0,-1.091785431E0
7.277668045E0,5.198005438E-1,2.510149240E0,-2.154949307E-2
7.329661570E0,1.681055307E0,-6.773456931E-1,9.466719627E-1
7.381656890E0,1.259558320E0,-3.625381231E0,3.669608235E-1
7.433652082E0,-4.985118508E-1,2.365374088E0,-1.070706248E-1
7.485645474E0,-2.381198406E0,-3.650426865E0,2.587455988E0
7.537638800E0,-5.196065426E0,1.790549874E0,6.717515945E0
7.589632126E0,-4.651173592E0,1.970144272E0,7.388856888E0
7.641625385E0,-9.890366197E-1,-3.815360546E0,3.706260026E-1
7.693618811E0,3.634189963E-1,2.621650398E-1,-2.414308548E0
7.745612103E0,1.358518481E0,2.352545977E0,-2.627500772E0
7.797606423E0,2.547873020E0,-3.364542007E0,-3.525472641E0
7.849600015E0,7.433772087E-1,8.040025234E-1,-2.764334440E0
7.901593007E0,1.392116070E0,5.914213657E-1,-2.303131104E0
7.953586500E0,6.877884269E-1,1.977474570E0,-1.784506559E0
8.005579826E0,3.847992718E-1,4.049529552E0,-1.438145995E0
8.057573052E0,2.699566483E-1,4.136272430E0,-1.422874331E0
8.109566511E0,-7.212791592E-2,1.075226665E0,-1.532219291E0
8.161560134E0,-2.100811243E0,-1.129996777E0,-2.298545390E-1
8.213554088E0,-5.078168392E0,-2.205119610E0,2.643655539E0
8.265547447E0,-4.596195698E0,-4.231970787E0,4.101180077E0
8.317540905E0,-3.438606262E0,2.185168982E0,5.174470425E0
8.369534165E0,-3.354108334E-1,-1.192305088E0,-6.318038702E-1
8.421530252E0,1.085461617E0,8.174415231E-1,-2.053898096E0
8.473528743E0,2.155697823E0,-1.039588690E0,-3.024563074E0
8.525524935E0,8.643285036E-1,-1.675499558E0,-1.922562122E0
8.577518428E0,6.700733900E-1,1.777721643E0,-2.296411514E0
8.629511955E0,7.030600309E-1,2.566672266E-1,-2.711189270E0
8.681505247E0,4.629900455E-1,2.576122522E0,-2.472951651E0
8.733498539E0,1.112950683E0,2.777097225E0,-3.154066324E0
8.785491765E0,1.281549454E0,-2.066557109E-2,-1.417987466E0
8.837485454E0,-9.902583361E-1,-6.017529964E0,-1.662944436E0
8.889479507E0,-1.667707920E0,-2.195956707E0,1.142759681E0
8.941472801E0,-4.777623177E0,3.525730968E-1,5.647279739E0
8.993466226E0,-5.419641972E0,2.916374445E0,6.548305988E0
9.045459585E0,-3.725712776E0,7.461822987E0,3.854390383E0
9.097452911E0,9.097310901E-2,1.841862559E0,-1.260384202E0
9.149446104E0,1.239399791E0,8.705868125E-1,-4.438716412E0
9.201439529E0,9.303019643E-1,3.739533722E-1,-4.998879433E0
9.253433847E0,3.233004361E-2,8.107220531E-1,-3.214542150E0
9.305427138E0,-8.862127364E-2,2.171729803E0,-2.283583403E0
9.357420498E0,1.753748298E0,8.376001120E-1,2.753310204E-1
9.409413824E0,7.598705292E-1,-4.027330875E0,-2.463479042E-1
9.461407416E0,-4.327414989E0,-6.848306656E0,-2.231049061E0
9.513403037E0,-6.712843895E0,7.281006813E0,7.426429391E-1
9.565401792E0,-6.571123123E0,1.392265797E0,8.324401379E-1
9.617397217E0,-3.751980305E0,1.359279037E0,6.446902275E0
9.669390643E0,-3.825894833E0,8.166150093E0,8.299045563E0
9.721383836E0,-5.400507450E-1,-2.008420944E0,5.600243092E0
9.773377228E0,2.565175891E-1,-3.351102829E0,-3.360538721E0
9.825370554E0,6.340323091E-1,1.415478587E0,-3.360538721E0
9.877364279E0,1.762300372E0,1.353781223E0,-4.997657776E0
9.929357205E0,1.248562694E0,1.468623877E0,-4.843719959E0
9.981351257E0,8.093506694E-1,1.771002173E0,-3.692849636E0
1.003334505E1,2.931694984E-1,9.328950644E-1,-1.807108641E0
1.008533841E1,9.584017396E-1,-4.861449003E-1,-4.913048744E-1
1.013733153E1,1.536891103E0,-2.405483484E0,4.931087419E-2
1.018932482E1,1.361771375E-1,-1.135494590E0,7.017149925E-1
1.024131808E1,-1.123427033E0,4.978655815E0,5.355286598E0
1.029331164E1,-2.291401386E0,-5.719427109E0,6.972246647E0
1.034530537E1,-8.803026080E-1,2.505872965E0,6.895277977E0
1.039721831E1,-6.310696602E-1,4.606638908E0,-2.469587773E-1
1.044921171E1,-9.426109195E-1,2.176616669E0,-1.303755641E0
1.050120497E1,5.798638240E-2,1.063620210E0,-1.997087598E0
1.055319829E1,1.686553121E0,1.662591994E-1,-3.279904842E0
1.060519311E1,2.510610342E0,8.333240151E-1,-3.573730946E0
1.065718897E1,1.826441288E0,1.047126889E0,-2.722184896E0
1.070918237E1,1.833160758E0,1.172965050E0,-1.455250263E0
1.076117562E1,1.186254501E0,-8.734334707E-1,-9.607505053E-2
1.081316905E1,3.169932663E-1,-3.236547112E-1,9.747717381E-1
1.086516231E1,-4.343709946E-1,-3.487936735E0,2.254534483E0
1.091715557E1,1.807702929E-1,8.308805823E-1,2.699855328E0
1.096914929E1,-1.423361778E0,2.468934059E-1,5.156144619E0
1.102114334E1,-1.904723644E0,9.504556656E0,7.032111168E0
1.107313660E1,-8.815243244E-1,-4.634530544E0,7.377559543E-1
1.112513000E1,-6.707758904E-1,1.052013755E0,-4.283857346E-1
1.117712332E1,1.333472967E0,-9.858326316E-1,-3.885272264E0
1.122911668E1,1.905853748E0,2.403858662E0,-4.993381977E0
1.128111004E1,3.052447796E0,6.531187892E-1,-5.011707306E0
1.133310333E1,1.985266209E0,2.546801090E0,-3.665971518E0
1.138509709E1,6.083759665E-1,1.458239079E0,-1.198686719E0
1.143709111E1,-4.093255401E-1,1.437469721E0,-8.999736905E-1
1.148908440E1,1.029873013E0,5.884568691E0,6.223024726E-1
1.154107769E1,2.496560574E0,-2.116544247E0,-1.833375812E0
1.159307112E1,-1.089218497E0,1.980241835E-1,5.312835574E-1
1.164506611E1,-6.889995098E0,-1.953443289E0,4.032763004E0
1.169706490E1,-5.010973454E0,-3.475719452E0,5.002817154E0
1.174906095E1,-2.448393822E0,1.274368763E0,3.040107250E0
1.180105435E1,-9.945344329E-1,-1.449479342E0,-6.641797423E-1
1.185304781E1,7.971333265E-1,-7.402648330E-1,-1.117441773E0
1.190504100E1,2.348120213E0,-2.527656555E0,-2.098491192E0
1.195703439E1,2.704865456E0,-3.299790382E0,-2.554807663E0
1.200902768E1,2.913781404E0,-4.556016326E-1,-1.967766166E0
1.206102101E1,3.525257587E0,-1.921678185E0,-1.442422032E0
1.211301516E1,3.564963818E0,2.304000407E-1,4.870000854E-2
1.216500872E1,2.038411617E0,-6.089287996E-1,-6.537950635E-1
1.221700204E1,9.999406338E-1,-1.353573442E0,-2.619559288E0
1.226899544E1,-1.318292975E0,4.254169464E0,1.567921877E0
1.232098866E1,-3.536344767E0,-4.589937687E0,4.539781094E0
1.237298212E1,-3.290165901E0,9.005192518E-1,7.868997097E0
1.242497552E1,-2.979846478E0,4.857093334E0,6.647266388E0
1.247696871E1,-1.582797647E0,-5.667791367E-1,1.401155591E0
1.252896260E1,-4.117689729E-1,-8.606052995E-1,-1.769845843E0
1.258095642E1,8.527220488E-1,2.438678026E0,-2.269533634E0
1.263294978E1,2.717693567E0,-2.409148693E0,-3.742940664E0
1.268494300E1,1.863704085E0,2.517803311E-1,-2.731347561E0
1.273693736E1,1.376844525E0,3.770076931E-1,-2.584129095E0
1.278893362E1,7.336033583E-1,5.566021204E-1,-1.573758006E0
1.284092711E1,4.593248665E-1,1.342785597E0,-6.391342878E-1
1.289292043E1,1.361572862E0,-4.586272240E0,-2.750284433E0
1.294491373E1,-2.098978758E0,6.646317959E0,1.247217655E0
1.299690702E1,-4.458140373E0,-3.543525457E0,3.945409536E0
1.304890051E1,-2.740998268E0,4.527550042E-1,7.273403168E0
1.310089380E1,-1.788048387E0,4.751413345E0,5.238611221E0
1.315288749E1,-8.754156828E-1,1.317129254E0,1.481789947E0
1.320488145E1,4.300033152E-1,-5.803116322E0,-2.414308548E0
1.325687471E1,5.002527833E-1,-3.334285915E-1,-2.870014191E0
1.330886817E1,1.803228378E0,8.834149837E-1,-3.337937117E0
1.336086149E1,2.571696758E0,-2.551480293E0,-3.471105576E0
1.341285475E1,1.897912502E0,4.714047164E-2,-3.590224266E0
1.346484808E1,5.973803997E-1,5.773715377E-1,-2.745397806E0
1.351684147E1,-1.393230855E-1,2.070326090E0,-1.562762499E0
1.356883539E1,1.147770047E0,2.929202557E0,-2.234714270E0
1.362082918E1,-8.998503685E-1,3.428890467E0,1.233167768E0
1.367282247E1,-4.248613834E0,2.041328400E-1,2.184895754E0
1.372481593E1,-3.169825792E0,-2.314464569E0,4.873313427E0
1.377681005E1,-3.052539587E0,2.866894484E0,5.960653782E0
1.382880888E1,-1.149694204E0,-1.767740130E0,7.866252661E-1
1.388080557E1,-8.094422817E-1,3.043147326E-1,-1.004431725E0
1.393279906E1,5.863848329E-1,2.390419483E0,-2.654989481E0
1.398479252E1,2.362170219E0,3.672338426E-1,-3.220039845E0
1.403678588E1,2.139815092E0,-1.087847114E0,-2.539536238E0
1.408877910E1,3.095819235E0,3.309056908E-2,-2.388041496E0
1.414077256E1,2.230223179E0,2.377304286E-1,-8.388872147E-1
1.419276582E1,1.020099163E0,7.197031379E-1,-2.298545390E-1
1.424475921E1,1.565601826E0,-4.959187210E-1,-1.399661541E0
1.429675337E1,1.843545556E0,-8.526640534E-1,-2.989743710E0
1.434874679E1,3.721696511E-2,1.014140129E0,-1.943331599E0
1.440074008E1,-2.676857471E0,-5.380684137E-1,3.253909826E0
1.445273351E1,-4.446533680E0,-1.923510909E0,6.626497269E0
1.450472684E1,-4.172866344E0,-3.352611661E-1,7.467658043E0
1.455672013E1,-3.015276670E0,3.742875338E0,5.667438507E0
1.460871345E1,3.188258410E-1,-9.821674824E-1,-4.894722700E-1
1.466070721E1,1.547886729E0,-1.680386424E0,-2.919494152E0
1.471270126E1,2.349341869E0,-8.367815614E-1,-4.348918915E0
1.476469466E1,2.459297657E0,6.415123343E-1,-3.353208542E0
1.481668798E1,2.289477110E0,5.340000391E-1,-2.697139263E0
1.486868191E1,1.825219512E0,4.991807640E-1,-2.215166569E0
1.492067796E1,4.318359196E-1,2.783816576E0,-1.658668280E0
1.497267196E1,-1.686644793E0,3.259680986E0,-2.525485992E0
1.502466518E1,-2.607829571E0,4.398944378E0,-3.281737328E0
1.507665844E1,-2.643870592E0,4.648788452E0,2.424965858E0
1.512865204E1,-4.787396908E0,-1.013321638E0,3.434115171E0
1.518064529E1,-5.423918247E0,-3.697463274E0,3.896540165E0
1.523263849E1,-2.799030304E0,-4.229527473E0,4.735868931E0
1.528463188E1,5.271309018E-1,-1.757355452E0,1.127488017E0
1.533662606E1,1.481913328E0,1.699243933E-1,-1.685546398E0
1.538861959E1,3.863065958E0,-5.034647465E0,-4.325095177E0
1.544061285E1,3.618109226E0,-1.979099512E0,-3.755157948E0
1.549260628E1,2.506945133E0,1.341563940E0,-3.283569813E0
1.554459950E1,2.553370953E0,-1.923187077E-1,-1.199908614E0
1.559659306E1,1.594312549E0,3.751751184E-1,-3.110996187E-1
1.564858625E1,8.007985353E-1,-5.118012428E-1,-5.666996818E-3
1.570057974E1,2.287033796E0,-4.681567192E0,-3.548074484E0
1.575257390E1,-5.461593866E-1,-3.275966644E0,2.382205248E0
1.580456739E1,-4.816718102E0,-4.877044201E0,5.197683334E0
1.585656052E1,-2.830795527E0,2.416075945E0,8.657012939E0
1.590855431E1,-7.007082701E-1,1.562697172E0,3.005287886E0
1.596055266E1,-1.723098159E-1,-2.936936378E0,-1.557875633E0
1.601255015E1,6.199824214E-1,3.417284012E0,-1.692265987E0
1.606454502E1,2.265042543E0,2.188223124E0,-2.520599127E0
1.611653824E1,3.376817226E0,-1.910071731E0,-2.148582220E0
1.616853160E1,3.747001648E0,-4.083530426E0,-1.882244945E0
1.622052493E1,3.718291044E0,-2.180685043E0,-1.619572997E0
1.627251829E1,3.816640139E0,-1.892967582E0,-6.470754743E-1
1.632451178E1,1.982211947E0,-2.053014278E0,-7.790223956E-1
1.637650550E1,3.292105496E-1,1.419754624E0,-3.013567448E0
1.642849926E1,-9.102350473E-1,4.597475529E0,8.348836303E-1
1.648049261E1,-2.313392639E0,2.432282120E-1,4.571546555E0
1.653248601E1,-3.800849438E0,2.241979361E0,6.650931835E0
1.658447946E1,-3.147223711E0,-4.953078628E-1,7.077926159E0
1.663647262E1,-5.559331775E-1,-6.621064663E0,2.505600214E0
1.668846595E1,-1.405448169E-1,1.014140129E0,-2.260981560E0
1.674045934E1,1.853930235E0,3.664073467E0,-3.223094225E0
1.679245340E1,3.517927170E0,-4.934752882E-1,-4.520572186E0
1.684444692E1,3.422021151E0,-1.056082129E0,-2.303131104E0
1.689644025E1,2.378663301E0,-2.146476507E0,-1.906068683E0
1.694843360E1,1.335916519E0,1.041018248E0,-9.299061298E-1
1.700042733E1,8.985369802E-1,1.712970018E0,1.714839190E-1
1.705242552E1,3.756363094E-1,5.661602974E0,-7.499592844E-3
1.710442297E1,5.564524531E-1,2.420064807E-1,1.278982639E0
1.715641706E1,-6.396216750E-1,-5.594487190E-1,3.543459892E0
1.720841035E1,-3.018331051E0,-3.040783405E0,5.185465813E0
1.726040375E1,-2.715952635E0,-8.629590034E0,3.710837126E0
1.731239711E1,-1.836306810E0,1.190680146E0,4.087740898E0
1.736439026E1,-3.818365932E-1,-1.527670145E0,2.430463552E0
1.741638362E1,2.703643799E0,-3.916153431E0,-3.911229670E-1
1.746837698E1,4.447053432E0,-4.250583351E-1,-3.058771372E0
1.752037120E1,4.370083809E0,-2.265271544E-1,-3.469883680E0
1.757236473E1,3.409803867E0,5.755388737E-1,-2.628111601E0
1.762435812E1,1.637073040E0,1.705352515E-1,-1.341018438E0
1.767633772E1,7.020369172E-2,1.927994490E0,-7.680267692E-1
1.772833115E1,-7.202559114E-1,1.643942237E0,-7.374835610E-1
1.778032440E1,-2.468353659E-1,3.822287560E0,1.204809546E-2
1.783231776E1,-1.946262479E0,1.048959494E0,1.390160084E0
1.788431149E1,-5.494778633E0,-3.230151653E0,4.544056892E0
1.793630547E1,-5.252875805E0,-4.136675835E0,5.093835831E0
1.798829883E1,-9.682672024E-1,-7.142743587E0,1.858082891E0
1.804029202E1,7.103904486E-1,2.914865613E-1,-1.101559162E0
1.809228562E1,2.139815092E0,-7.622559667E-1,-1.623849034E0
1.814428181E1,3.503266335E0,-2.018805742E0,-1.748465538E0
1.819627610E1,4.086031914E0,-2.453742027E0,-2.185844898E0
1.824826942E1,3.789151430E0,2.621650398E-1,-2.040459156E0
1.830026282E1,2.342011452E0,8.333240151E-1,-1.308031797E0
1.835225608E1,9.647089243E-2,1.370274544E0,-6.880034804E-1
1.840424957E1,6.837109476E-2,7.531461239E0,-1.064597592E-1
1.845624286E1,5.521764159E-1,-5.881593823E-1,8.220553994E-1
1.850823652E1,-2.152734756E0,-1.422277540E-1,4.132945061E0
1.856023041E1,-4.825881481E0,-9.944171906E0,3.115243673E0
1.861222376E1,-4.465470791E0,1.201064944E0,5.712031841E0
1.866421722E1,-1.645716786E0,5.802102089E0,-1.727343537E-2
1.871621042E1,-3.604562879E-1,-5.438429356E0,-6.562384367E-1
1.876820384E1,-8.617781103E-2,-5.510511875E0,3.614630103E-1
1.882019720E1,1.657231569E0,-2.524602413E0,-2.504106045E0
1.887219049E1,3.047560692E0,8.192741871E-1,-4.199256897E0
1.892418415E1,3.823359966E0,9.035735726E-1,-3.031893253E0
1.897617814E1,2.801382065E0,6.628926396E-1,-2.713632584E0
1.902817143E1,1.539945483E0,4.429811537E-1,-1.483960986E0
1.908016495E1,3.487582505E-1,2.166231871E0,2.203531563E-1
1.913215828E1,1.279105902E0,2.978071928E0,-1.536495328E0
1.918415570E1,-1.896782398E0,-3.297633827E-1,9.723282456E-1
1.923615376E1,-4.937058449E0,-2.777500391E0,3.869051218E0
1.928814915E1,-4.237007141E0,-2.737183332E0,5.194628716E0
1.934014255E1,-5.999154449E-1,1.210227847E0,3.579501152E0
1.939213591E1,-1.445353031E0,2.469221115E0,-1.064296484E0
1.944412933E1,-5.003444552E-1,5.147254467E0,-1.165700078E0
1.949612249E1,7.366576791E-1,-7.439299822E-1,-2.446073771E0
1.954811598E1,3.215548754E0,-3.071613908E-1,-2.975083113E0
1.960010980E1,2.438528299E0,-1.086625338E0,-2.348946095E0
1.965210349E1,1.854541063E0,1.926772833E0,-1.576201558E0
1.970409685E1,1.277884245E0,6.780707836E0,1.915504098E0
1.975609018E1,-9.908692837E-1,-4.283894062E0,9.466719627E-1
1.980808350E1,-4.089788437E0,-1.664503932E0,2.860512733E0
1.986007690E1,-3.013444185E0,-1.224070072E0,2.726733208E0
1.991207022E1,-2.327442408E0,2.144240856E0,2.699855328E0
1.996406381E1,-5.492137074E-1,5.453908920E0,-1.666609645E0
2.001605813E1,-1.381013691E-1,-4.001063347E0,-1.169365287E0
2.006805129E1,6.077650785E-1,-1.982764721E0,4.433189631E-1
2.012004458E1,2.591244698E0,-1.889913201E0,-2.375824213E0
2.017203794E1,3.949198008E0,-3.028853238E-1,-4.469870090E0
2.022403134E1,4.872215271E0,1.260318875E0,-3.490042210E0
2.027602856E1,4.460492134E0,1.338833272E-1,-8.920324445E-1
2.032802668E1,3.723177671E0,-2.903949499E0,1.838535190E0
2.038002117E1,1.897912502E0,-4.853831768E0,1.935662746E0
2.043201450E1,-1.700083733E0,1.335455298E0,9.228482246E-1
2.048400792E1,1.600008905E-1,1.632048637E-1,-2.606120348E0
2.053600125E1,-2.560182095E0,6.825301170E0,2.098763704E0
2.058799461E1,-5.235161304E0,-5.623521328E0,3.981450558E0
2.063998793E1,-4.340854168E0,6.927315712E0,8.457260132E0
2.069198129E1,-2.975570202E0,-3.761891425E-1,2.397476912E0
2.074397551E1,-1.281641126E0,-1.717649221E0,-1.370339990E0
2.079596887E1,-5.351637602E-1,1.297581673E0,-2.521821022E0
2.084796240E1,3.292105496E-1,1.273757935E0,-4.072807789E0
2.089995562E1,2.012144327E0,-1.009656429E0,-2.614061594E0
2.095194895E1,3.295572281E0,-1.885026217E0,-2.315348387E0
2.100394231E1,4.054877758E0,-2.729242086E0,-1.571615785E-1
2.105593560E1,3.762471676E-1,-1.618078232E0,-5.236807466E-1
2.110792916E1,-1.865017414E0,2.270689964E0,-1.299738046E-2
2.115992338E1,-7.446905375E-1,-4.085650146E-1,-1.860864758E0
2.121191660E1,-2.596223116E0,4.639014721E0,1.787222505E0
2.126390993E1,-3.623698473E0,-4.437831879E0,4.378512859E0
2.131590339E1,-2.406854868E0,4.785622120E0,7.796914577E0
2.136789894E1,-1.313406110E0,2.767934322E0,4.701660633E0
2.141989397E1,1.483944356E-1,-3.332165956E0,-6.733427048E-1
2.147188729E1,1.398224711E0,-2.800713301E0,-2.989132881E0
2.152388062E1,2.384161234E0,-1.177644253E0,-5.056911469E0
2.157587394E1,2.390269756E0,1.530321240E0,-4.010499477E0
2.162786730E1,2.002370596E0,1.293916345E0,-3.728890657E0
2.167986066E1,1.106842041E0,1.887066483E0,-2.251818657E0
2.173185416E1,-4.769330099E-2,9.011300802E-1,-1.599414468E0
2.178384831E1,-4.838510752E-1,6.781642437E-1,-8.089547753E-1
2.183584160E1,-8.491485119E-1,-1.519728899E0,5.709897876E-1
2.188783489E1,1.332862139E0,-2.943331897E-1,-8.291133642E-1
2.193982845E1,-5.120318413E0,-1.428709984E0,5.118270397E0
2.199182164E1,-3.518018723E0,1.654326916E0,7.171388626E0
2.204381497E1,-1.315238595E0,2.667141676E0,2.814697742E0
2.209580840E1,-2.181247175E-1,-2.450076580E0,-2.221885920E0
2.214780218E1,5.448459983E-1,5.749280453E-1,-2.266479254E0
2.219979597E1,2.059180975E0,1.012307525E0,-3.855339766E0
2.225178937E1,1.791621923E0,-1.233844042E0,-3.441783905E0
2.230378266E1,1.415939808E0,9.383928776E-1,-2.311072588E0
2.235577598E1,9.626777768E-1,-3.731348217E-1,-1.119885206E0
2.240777234E1,1.407387733E0,-1.145268440E0,-2.460381947E-2
2.245977099E1,9.254150391E-1,-3.773821592E0,-4.796984196E-1
2.251176602E1,8.765458465E-1,-6.272547841E-1,-2.682478428E0
2.256375934E1,-2.770930767E0,3.009836912E0,1.552650213E0
2.261575270E1,-4.125218868E0,-1.899687052E0,6.043731213E0
2.266774603E1,-1.951760292E0,2.282907248E0,7.142678261E0
2.271973939E1,-3.781713843E-1,-4.232257605E-1,9.100199938E-1
2.277173278E1,-1.299967051E0,2.378813267E0,-1.875525475E0
2.282372614E1,-7.782881260E-1,6.073936939E0,-3.222483397E0
2.287572013E1,8.295091987E-1,2.491212368E0,-3.735610008E0
2.292771375E1,1.852097631E0,2.047724009E0,-2.297022343E0
2.297970697E1,1.943116546E0,6.506753564E-1,-8.309459090E-1
2.303170043E1,1.971827149E0,4.497006536E-1,-5.212372541E-1
2.308369379E1,1.256504059E0,1.092330933E0,-6.043149233E-1
2.313568702E1,1.439152718E0,1.733128548E0,7.161173504E-3
2.318768041E1,1.662118554E0,-2.643720865E0,1.980255842E0
2.323967370E1,1.795897961E0,-4.056041241E0,-6.446320415E-1
2.329166769E1,-3.346976519E0,-1.112281680E0,3.719389200E0
2.334366145E1,-6.821578026E0,4.533658326E-1,5.982034206E0
2.339565477E1,-2.707400560E0,-1.283324003E0,4.743199348E0
2.344764803E1,-6.945996284E-1,9.090713263E-1,-7.997918129E-1
2.349964319E1,5.191896558E-1,4.037312031E0,-2.588405371E0
2.355163881E1,1.630964398E0,9.848185778E-1,-2.293968201E0
2.360363211E1,1.699381351E0,-1.811111569E0,-5.670521855E-1
2.365562537E1,1.073855400E0,-7.457626462E-1,-8.749282360E-1
2.370761869E1,4.080121815E-1,5.474390984E-1,3.831529990E-2
2.375961245E1,-3.238043785E-1,6.848837733E-1,1.116492391E0
2.381160581E1,-5.258022621E-2,2.681802273E0,3.369363546E0
2.386359874E1,-1.949927688E0,-4.256692231E-1,2.720624447E0
2.391559276E1,-5.675396323E-1,-6.495837212E0,1.201402664E0
2.396758638E1,-7.434688210E-1,-1.962606192E0,1.543487310E0
2.401957981E1,-8.312349021E-2,5.993626714E-1,-1.153482795E0
2.407157323E1,6.126520634E-1,-1.020041108E0,-2.001805231E-3
2.412356642E1,1.175258875E0,-1.977267027E0,-2.457370460E-1
2.417555998E1,3.078104258E0,-1.776903152E0,-1.774732828E0
2.422755324E1,5.955279350E0,2.741667032E0,-3.245696306E0
2.427954654E1,5.062194347E0,7.661288381E-1,-1.940888047E0
2.433154075E1,3.076271534E0,1.415374782E-2,-8.315567970E-1
2.438353448E1,1.851486683E0,1.302181333E-1,-6.666231751E-1
2.443552754E1,1.721372485E0,-1.061867028E-1,-1.266492963E0
2.448752106E1,1.899332702E-1,2.307952642E0,-5.731608272E-1
2.453951622E1,-1.832030654E0,8.467630744E-1,-2.683390379E-1
2.459151488E1,-4.539385319E0,5.141652748E-2,3.506197214E0
2.464351147E1,-5.860075951E0,-2.666322947E0,5.310082436E0
2.469550513E1,-3.418447733E0,-5.971714973E0,3.957626820E0
2.474749875E1,-1.619251072E-1,-5.671779633E0,2.137248278E0
2.479949198E1,1.549108386E0,-1.629684567E0,-6.186660007E-2
2.485148527E1,4.461713791E0,-8.202881217E-1,-1.763737202E0
2.490347850E1,6.115937233E0,2.065762877E-1,-2.321457148E0
2.495547239E1,5.205136776E0,-2.156250477E0,-9.696123600E-1
2.500744629E1,2.428754330E0,-1.430542588E0,-1.322081566E0
2.505943961E1,1.288467497E-1,1.824147463E0,-2.099713087E0
2.511143304E1,-7.762569934E-2,2.648815393E0,-1.983037829E0
2.516342633E1,8.203461766E-1,2.010461330E0,-2.130256414E0
2.521541962E1,1.923767328E-1,2.362319708E0,-2.377045870E0
2.526741302E1,-1.004308343E0,4.163150311E0,1.031582117E0
2.531940628E1,-4.581535339E0,-2.450687408E0,3.953961372E0
2.537140040E1,-6.562571526E0,-5.081073284E0,5.787778854E0
2.542339405E1,-3.526570797E0,-8.115241051E0,5.525106907E0
2.547538734E1,-3.024241030E-1,-6.224001884E0,4.293602467E0
2.552738064E1,2.196625471E0,-2.329125166E0,-6.568493843E-1
2.557937403E1,4.260739326E0,-7.359887958E-1,-1.560929894E0
2.563136925E1,4.046325684E0,-1.368234277E0,-2.142473698E0
2.568336807E1,3.197833776E0,4.103181884E-2,-1.670274734E0
2.573536400E1,1.327975273E0,7.306986451E-1,-1.176695704E0
2.578735739E1,-2.718808651E-1,2.612163544E0,-1.888353586E0
2.583935075E1,-7.151705027E-2,3.869935036E0,-2.210279703E0
2.589134401E1,1.853930235E0,1.962813854E0,-4.222770929E-1
2.594333737E1,1.637073040E0,1.216660291E-1,-3.434754610E-1
2.599533063E1,-1.502163410E0,-2.257653952E0,3.979007006E0
2.604732402E1,-4.135603428E0,-3.424406767E0,5.398046970E0
2.609931844E1,-4.226622581E0,-7.885555744E0,5.519609451E0
2.615131170E1,-2.986565828E0,-2.054847002E0,3.131125927E0
2.620330509E1,-7.599621415E-1,2.697073936E0,9.631652832E-1
2.625529838E1,1.621801376E0,-9.662849903E-1,-1.527332306E0
2.630729171E1,2.532601595E0,-1.120833874E0,-2.900557280E0
2.635928510E1,3.205163956E0,6.720556021E-1,-3.221261740E0
2.641127836E1,2.494727850E0,1.567584157E0,-3.314724207E0
2.646327169E1,1.288269043E0,3.849776506E0,-1.053911686E0
2.651526591E1,1.548497558E0,1.389822245E0,3.602412641E-1
2.656725943E1,-2.343935728E0,-7.714189291E-1,2.240484715E0
2.661925272E1,-4.476466179E0,-8.453336954E-1,4.047423840E0
2.667124605E1,-3.111182690E0,-4.461044788E0,3.156171560E0
2.672324044E1,-2.037281275E0,-1.909460902E0,2.464672089E0
2.677523676E1,-1.025077581E0,1.931048870E0,4.616449177E-1
2.682723002E1,-1.230328321E0,8.363783360E-1,4.249930084E-1
2.687922345E1,-5.681505203E-1,-2.850193262E0,1.082636416E-2
2.693121677E1,1.086072683E0,-2.063398838E0,-1.404548407E0
2.698321000E1,2.872242689E0,-2.533765078E0,-3.372145176E0
2.703520366E1,3.882613659E0,-9.406285882E-1,-4.990327835E0
2.708719679E1,3.576570272E0,-7.170519233E-1,-3.428344965E0
2.713919077E1,2.491062641E0,1.866297126E0,-2.092993736E0
2.719118449E1,4.287815988E-1,1.989081025E0,-4.980243742E-1
2.724317775E1,-3.745062053E-1,1.407537341E0,3.730694652E-1
2.729517108E1,-5.876981616E-1,1.089276552E0,6.748369336E-1
2.734716451E1,-1.158246279E0,-6.981151104E-1,1.614958525E0
2.739915773E1,-1.069670916E0,-2.423198462E0,1.117714286E0
2.745115119E1,-2.433732986E0,1.031855226E0,6.278303623E0
2.750314452E1,-4.963325977E0,3.315880299E0,6.496993542E0
2.755513867E1,-2.397691965E0,6.861055493E-1,2.705963850E0
2.760713216E1,-3.268587291E-1,-4.615593910E0,-1.273823261E0
2.765912548E1,8.435590863E-1,-1.848985195E0,-2.862072945E0
2.771111881E1,2.212507963E0,-1.487963915E0,-4.739872456E0
2.776311316E1,2.550316572E0,2.572781146E-1,-3.449114561E0
2.781511199E1,2.458686829E0,-5.600595474E-1,-2.709967613E0
2.786710861E1,2.139204264E0,-2.637899518E-1,-1.591473103E0
2.791910207E1,1.376233697E0,2.165621042E0,-1.264660239E0
2.797109556E1,2.025583267E0,-2.296138763E0,-2.229827404E0
2.802308882E1,1.517954350E0,-3.392641783E0,-4.001336575E0
2.807508211E1,-5.620418787E-1,1.978696465E0,-1.369118214E0
2.812707547E1,-3.177766800E0,-2.691368341E0,3.093863249E0
2.817906887E1,-3.335370064E0,6.537296772E-1,8.005830765E0
2.823106232E1,-2.987787724E0,3.258459091E0,8.880589485E0
2.828305651E1,-1.918162704E0,6.337219715E0,5.922780037E0
2.833504983E1,2.772870064E-1,-2.784219980E0,-1.649505377E0
2.838704316E1,6.883993149E-1,-2.833699942E0,-4.213917255E0
2.843903659E1,3.524234295E-1,9.756556153E-1,-3.339158773E0
2.849102981E1,1.250395417E0,-7.561473250E-1,-2.686754704E0
2.854302324E1,1.054307580E0,7.154270411E-1,-2.452793121E0
2.859501656E1,1.073244333E0,2.858342171E0,-1.954327106E0
2.864701055E1,1.066524863E0,4.246228218E0,-2.126590967E0
2.869900421E1,3.634189963E-1,8.363783360E-1,-2.503494978E0
2.875099750E1,-7.862293720E-1,6.103582382E-1,-1.221288800E0
2.880299083E1,-6.127436757E-1,-5.402388096E0,-1.987313867E0
2.885498475E1,-5.689033508E0,2.848568678E0,5.499450684E0
2.890698107E1,-5.882067204E0,-9.387960434E-1,7.253244400E0
2.895897483E1,-2.400135279E0,1.173899770E-1,5.837259293E0
2.901096816E1,5.460677147E-1,4.613071084E-1,-2.246320724E0
2.906296152E1,1.301707983E0,7.099292874E-1,-3.133908033E0
2.911495491E1,2.868577480E0,-2.595462561E0,-4.020273209E0
2.916694814E1,2.482510567E0,-7.842471600E-1,-2.705080509E0
2.921894186E1,1.914405942E0,-6.437481046E-1,-1.521834612E0
2.927093565E1,-3.195283413E-1,1.597516537E0,-2.019689798E0
2.932292927E1,-8.912982345E-1,5.039131165E0,-1.788782597E0
2.937492280E1,-1.478752047E-1,3.454546928E0,-1.516637951E-1
2.942691596E1,9.577909112E-1,-2.410370350E0,-1.507784724E0
2.947890935E1,-3.244961977E0,-1.511176705E0,2.757276535E0
2.953090261E1,-4.954163074E0,-6.001646996E0,5.730357647E0
2.958289607E1,-3.741595507E0,3.800620437E-1,7.572727203E0
2.963488926E1,-1.970086217E0,3.543122292E0,2.179398060E0
2.968688331E1,1.111118078E0,-2.692589998E0,-2.789990664E0
2.973887697E1,1.327975273E0,-6.687935591E-1,-2.895059586E0
2.979087029E1,3.034121752E0,-1.028086152E-2,-3.395358086E0
2.984286369E1,2.333459377E0,-2.192291498E0,-2.896281242E0
2.989485734E1,2.753734589E0,-3.105027974E-2,-2.060006857E0
2.994685590E1,3.732340813E0,2.609432936E-1,-3.227060437E-1
2.999885336E1,3.148964643E0,-3.495267153E0,1.574340165E-1
3.005084805E1,3.648652315E0,-3.749387026E0,-2.376435041E0
3.010284134E1,8.649393916E-1,2.146073580E0,-7.625290751E-1
3.015483457E1,-3.290165901E0,-8.380032778E-1,3.167166948E0
3.020682796E1,-3.329261541E0,5.382761359E-1,7.324715614E0
3.025882119E1,-4.786174774E0,5.172910690E0,9.817046165E0
3.031081458E1,-1.158246279E0,1.406028569E-1,2.056613922E0
3.036280880E1,1.278235577E-2,-1.169092298E0,-3.467440367E0
3.041480222E1,4.403880239E-1,3.555339575E0,-3.813801050E0
3.046679562E1,2.552760124E0,1.119208932E0,-4.201700211E0
3.051878904E1,1.900966763E0,-1.392668962E0,-3.012345791E0
3.057078240E1,2.269929409E0,-4.815450683E-2,-2.044735193E0
3.062277563E1,4.110665023E-1,1.632946610E0,-1.196243405E0
3.067476892E1,-2.529440224E-1,3.075810194E0,4.653101265E-1
3.072676267E1,9.040347338E-1,3.752038002E0,-2.446073771E0
3.077875659E1,-2.322555304E0,5.266696811E-1,-6.146996617E-1
3.083075002E1,-4.896741867E0,-3.853234053E0,3.576446772E0
3.088274331E1,-4.493570805E0,2.455171347E0,5.782892227E0
3.093473654E1,-2.569344997E0,8.535723686E0,-9.118813276E-2
3.098673039E1,-5.565440655E-1,-2.717635632E0,1.143981457E0
3.103872878E1,1.384174824E0,-4.562448502E0,-7.301532030E-1
3.109072610E1,3.206385851E0,-2.283310652E0,-2.025187492E0
3.114271993E1,4.972397327E0,-1.027982354E0,-2.759447575E0
3.119471326E1,3.931482792E0,-3.096982956E0,-2.681867599E0
3.124670662E1,1.970605493E0,4.532113075E0,-1.395996332E0
3.129870008E1,1.709964573E-1,1.480841160E0,-1.298868775E0
3.135069333E1,5.986021161E-1,-5.698334575E-1,-1.267714620E0
3.140268663E1,1.413496375E0,-1.213074565E0,-5.059656501E-1
3.145468028E1,5.717240572E-1,-4.638806820E0,-9.922143817E-1
3.150667427E1,-1.456348538E0,-8.251751065E-1,8.318293095E-1
3.155866780E1,-1.914497495E0,-2.932660103E0,1.985753655E0
3.161066149E1,-4.114833832E0,4.474081039E0,5.900178432E0
3.166265455E1,-3.721436739E0,3.375134230E0,4.584985256E0
3.171464771E1,-9.389456511E-1,-2.299192905E0,1.006536722E0
3.176664093E1,2.730109692E-1,-2.881958485E0,-1.791226029E0
3.181863439E1,1.546665072E0,5.394978523E-1,-3.026395798E0
3.187062844E1,1.260779977E0,-1.618078232E0,-2.314126730E0
3.192262207E1,1.017655730E0,1.813151836E0,-1.761904597E0
3.197461536E1,1.981601119E0,2.913320303E0,-5.829346180E-1
3.202660865E1,2.407373905E0,-1.737196922E0,-1.790615201E0
3.207860231E1,1.764133096E0,2.148413099E-2,-2.598179102E0
3.213059850E1,6.883993149E-1,-4.360539317E-1,-2.366050243E0
3.218259266E1,6.731277108E-1,-6.452466011E0,-5.786895275E0
3.223458609E1,-1.322569132E0,4.045253277E0,1.160474777E0
3.228654080E1,-5.648106098E0,2.756040692E-1,5.578863144E0
3.233853410E1,-4.457529068E0,-8.215098977E-1,7.708339214E0
3.239052756E1,-4.361012459E0,6.348215103E0,5.394992828E0
3.244252082E1,-7.000974417E-1,1.000090241E0,-1.353846550E0
3.249451460E1,5.179678798E-1,-2.797048092E0,-3.430788279E0
3.254650849E1,2.858391106E-1,-6.113722324E-1,-2.651935339E0
3.259850185E1,-2.016313523E-1,3.537948430E-1,-2.317791939E0
3.265049518E1,5.234656930E-1,1.644553065E0,-1.768013239E0
3.270248854E1,1.619968891E0,-9.809457660E-1,-1.147984982E0
3.275448190E1,1.053085804E0,-1.543552637E0,-1.910955667E0
3.280647526E1,-1.699472904E0,1.725798249E0,-2.269533634E0
3.285846851E1,-3.418447733E0,6.185114384E0,-2.619559288E0
3.291046270E1,-4.764183998E0,3.711110115E0,-3.924978495E0
3.296245619E1,-6.256527901E0,4.006769180E0,6.730042696E-1
3.301444952E1,-7.356695652E0,-1.150259282E-2,3.251466513E0
3.306644301E1,-5.295636654E0,4.035479546E0,5.900789261E0
3.311843633E1,-1.857076168E0,1.667765975E0,4.885229766E-1
3.317043392E1,1.332862139E0,6.607729197E-2,-3.921924114E0
3.322243184E1,2.860636234E0,-2.916777611E0,-4.816230774E0
3.327442624E1,2.079339504E0,-1.328528047E0,-4.526680470E0
3.332641953E1,1.274829984E0,-1.239952683E0,-2.467453957E0
3.337841302E1,1.301097155E0,-1.629971713E-1,-3.697426617E-1
3.343040618E1,-8.190175891E-2,7.157508284E-2,-3.288146853E-1
3.348239951E1,-1.726961970E0,2.601167917E0,-1.293981791E0
3.353439290E1,-3.113015175E0,3.966451883E0,-2.787547350E0
3.358638646E1,-1.269423842E0,2.181503773E0,-2.278696537E0
3.363838031E1,-2.993896484E0,-2.779943943E0,-3.972316384E-1
3.369037387E1,-4.902850151E0,-3.018181324E0,3.550790548E0
3.374236726E1,-3.480756044E0,3.934075832E0,7.591663837E0
3.379436055E1,-2.144182920E0,-3.241758108E0,2.717570305E0
3.384635388E1,-1.008584380E0,-3.254586220E0,-1.708148479E0
3.389834724E1,-1.973552853E-1,5.468282700E-1,-2.350778580E0
3.395034050E1,1.575574130E-1,-1.566765547E0,-3.456444740E0
3.400233399E1,5.479003191E-1,-1.843487382E0,-3.003182888E0
3.405432817E1,6.908427477E-1,7.380290627E-1,-2.492499590E0
3.410632156E1,-7.945829630E-2,3.953012943E0,-2.951259375E0
3.415831492E1,-2.875648066E-2,2.083765030E0,-2.541368723E0
3.421030832E1,-4.392579198E-1,2.707458496E0,-5.756042600E-1
3.426230417E1,-7.746229172E-1,-2.558487058E-1,4.747828096E-2
3.431429896E1,-1.356777430E0,-4.915528774E0,-3.388027906E0
3.436629222E1,-3.068421841E0,5.087389469E0,3.759095430E0
3.441828555E1,-3.118512869E0,-5.641236782E0,5.673547268E0
3.447027904E1,-2.377533436E0,6.108756542E0,6.382761955E0
3.452227230E1,-1.442298651E0,1.796047568E0,1.415205598E0
3.457426563E1,-6.738302112E-1,-1.392668962E0,-1.585364461E0
3.462625905E1,6.480821967E-1,9.945924878E-1,-2.950037479E0
3.467825317E1,1.505126119E0,5.645433068E-1,-5.251777649E0
3.473024673E1,1.856984496E0,1.917609811E0,-5.373950481E0
3.478223999E1,1.252227902E0,1.409980893E0,-3.006847858E0
3.483423341E1,6.291453838E-1,1.642720461E0,-1.202962875E0
3.488622667E1,-3.696192801E-1,4.126498699E0,-8.773717284E-1
3.493822010E1,-1.052566648E0,4.987207413E0,-2.056341648E0
3.499021332E1,-6.113233790E-2,2.223653316E0,-8.370545506E-1
3.504220675E1,-5.852547288E-1,-1.902130485E0,1.299450845E-1
3.509420097E1,-3.791686296E0,-5.712707996E0,3.884322882E0
3.514619443E1,-3.273672581E0,-6.983918667E0,7.908092499E0
3.519818759E1,-1.496665597E0,-7.503257692E-2,3.347983122E0
3.525018105E1,-4.765206873E-1,-3.410460800E-2,-1.871249557E0
3.530217777E1,9.883341789E-1,1.325681448E0,-2.728904247E0
3.535417606E1,2.081783056E0,-3.715893254E-2,-3.882217884E0
3.540617205E1,2.792829990E0,6.079148054E-1,-3.692238808E0
3.545816548E1,1.635851264E0,1.469845533E0,-2.219442606E0
3.551015867E1,1.403722525E0,4.124378860E-1,-7.387052774E-1
3.556215203E1,-2.639396191E-1,3.248685360E0,-5.597218275E-1
3.561414529E1,-5.956394076E-1,5.419700146E0,1.171169207E-1
3.566613871E1,5.979912877E-1,9.877691045E-3,-3.306473196E-1
3.571813286E1,-1.985968709E0,1.265529543E-1,2.789652348E0
3.577012636E1,-3.453877926E0,-7.474443436E0,3.037052631E0
3.582211975E1,-3.400121927E0,-1.114725232E0,6.360770702E0
3.587411298E1,-3.842998981E0,5.973144054E0,4.823833466E0
3.592610640E1,-1.050734043E0,-1.928397655E0,-6.544058919E-1
3.597809969E1,9.712299109E-1,-2.475121975E0,-2.107043505E0
3.603009302E1,2.276648998E0,-9.846109152E-1,-3.259746075E0
3.608208641E1,3.622385025E0,-2.818428516E0,-4.946345329E0
3.613408043E1,2.622398615E0,1.642720461E0,-3.061214924E0
3.618607399E1,2.701200247E0,1.651883364E0,-1.520612836E0
3.623806742E1,2.126376152E0,9.976468086E-1,-9.060823917E-1
3.629006064E1,2.482510567E0,2.262748718E0,-1.640953302E0
3.634205420E1,2.017031193E0,-8.288402557E-1,-7.008316517E-1
3.639405075E1,7.073361278E-1,-1.414659977E0,-1.486094594E-1
3.644604911E1,6.287330389E-2,-3.305288076E0,8.840624988E-2
3.649804407E1,-4.477687836E0,2.835453153E-1,7.510418892E0
3.655003759E1,-4.494181633E0,-5.059796944E-2,7.500034332E0
3.660203095E1,-1.382433891E0,1.273757935E0,2.545306206E0
3.665402405E1,2.840065360E-1,-1.685884237E0,-1.571314573E0
3.670601734E1,1.329807878E0,-8.758769035E-1,-3.253026724E0
3.675801070E1,2.062846184E0,-2.511773825E0,-4.679397106E0
3.681000406E1,1.683498740E0,2.538859844E0,-2.784492970E0
3.686199821E1,1.092792153E0,9.060170054E-1,-1.936612010E0
3.691399190E1,6.499148011E-1,2.461280107E0,-1.115609169E0
3.696598499E1,7.386887819E-2,2.383699894E0,-1.269547224E0
3.701797842E1,1.160185859E-1,-8.178447485E-1,-7.625290751E-1
3.706997184E1,2.377793007E-2,3.342471421E-1,-9.647253752E-1
3.712196507E1,6.062837783E-3,-7.487882137E0,-2.894448757E0
3.717395850E1,-2.577897310E0,9.432798028E-1,5.418816566E0
3.722595185E1,-2.256582022E0,-1.068299413E0,6.886725426E0
3.727794604E1,-2.535747528E0,2.754495144E0,5.351010323E0
3.732993950E1,-1.191645339E-1,2.925537586E0,3.724585772E-1
3.738193282E1,1.252227902E0,-1.449479342E0,-2.587183475E0
3.743392638E1,1.768409014E0,-2.729242086E0,-3.134518862E0
3.748592154E1,1.345690250E0,-4.783074837E-3,-3.139405727E0
3.753791623E1,1.200915337E0,1.125928521E0,-2.538924932E0
3.758990972E1,1.525895476E0,2.143629789E0,-1.694709301E0
3.764190351E1,1.732978940E0,2.961578608E0,-1.597581744E0
3.769389660E1,6.731277108E-1,-1.798894286E0,-7.845202088E-1
3.774589013E1,-3.669773042E-2,1.452741504E0,-1.285429716E0
3.779788302E1,7.020369172E-2,2.677526236E0,4.414863586E-1
3.784987598E1,-3.388515472E0,-9.946718812E-2,6.642379284E0
3.790187010E1,-4.237007141E0,-3.253364563E0,5.513500690E0
3.795386349E1,-3.536955595E0,3.460044622E0,3.862331867E0
3.800585682E1,-3.711006371E-3,1.840640903E0,-8.559914231E-1
3.805785031E1,1.580262542E0,-3.247866631E0,-2.006861687E0
3.810984347E1,3.349328279E0,-2.362722874E0,-3.309226274E0
3.816183762E1,2.202123404E0,-1.518507242E0,-2.082608938E0
3.821383098E1,2.061624289E0,1.497658342E-1,-1.199908614E0
3.826582507E1,1.183200240E0,9.662055224E-2,-1.699897498E-1
3.831781902E1,3.204553127E0,-1.731088281E0,9.845455885E-1
3.836981225E1,2.330404997E0,-6.093887806E0,-7.704702616E-1
3.842180548E1,-3.561802804E-1,1.357159317E-1,-7.564204335E-1
3.847379867E1,-3.115870953E-1,-1.913126111E0,-1.727696180E0
3.852579442E1,-1.702527165E0,1.708693981E0,4.311928749E0
3.857779348E1,-2.414185286E0,-1.291265249E0,5.525717735E0
3.862978890E1,-3.825894833E0,7.541846275E0,7.971011162E0
3.868178223E1,-1.458181143E0,4.311590672E0,3.600270510E0
3.873377549E1,1.035981655E0,-4.883152962E0,-1.931114316E0
3.878576855E1,1.722594142E0,-2.890510559E0,-4.299438953E0
3.883776131E1,1.378677011E0,-1.732309937E0,-4.800348282E0
3.888975460E1,1.028040409E0,1.398374438E0,-3.122301579E0
3.894174786E1,1.211299896E0,7.429159880E-1,-2.058785200E0
3.899374159E1,2.149588823E0,2.370871782E0,-4.888614118E-1
3.904573561E1,3.958361149E0,-2.420755148E0,-6.055366993E-1
3.909772890E1,5.014546871E0,-6.330903530E0,-4.234988093E-1
3.914972272E1,3.574737549E0,-6.420089722E0,-6.818948388E-1
3.920171661E1,-3.561802804E-1,-4.236857414E0,-3.609161139E0
3.925370984E1,-2.810025930E0,9.332902908E0,3.851336241E0
3.930570316E1,-3.711663008E0,-5.783855319E-1,5.760900974E0
3.935769669E1,-1.930990815E0,6.736114979E0,5.354675293E0
3.940969074E1,-3.574019670E-1,3.277395964E0,1.897789121E0
3.946168430E1,9.834471941E-1,-5.203246117E0,-2.143695354E0
3.951367782E1,1.360351086E0,-3.591783762E0,-4.480865955E0
3.956370415E1,8.576090336E-1,-3.719130754E-1,-2.332452536E0
3.961569848E1,6.816797853E-1,1.163802147E0,-1.937222958E0
3.966769470E1,7.299381495E-1,7.319204211E-1,-1.838873625E0
3.971968793E1,2.412459552E-1,9.848185778E-1,-1.844371319E0
3.977168125E1,-4.551404119E-1,1.452741504E0,-1.025201082E0
3.982367372E1,-1.221776247E0,-2.032244921E0,-1.000766516E0
3.987566701E1,-1.580965042E0,1.173899770E-1,2.252400666E-1
3.992766034E1,-3.753201962E0,1.004977226E0,5.855585098E0
3.997965359E1,-1.560806513E0,3.428890467E0,5.886739254E0
4.003164781E1,-3.244351149E0,5.380604744E0,3.486038923E0
4.008364137E1,-6.231283545E-1,-1.636080295E-1,1.393214345E0
4.013563546E1,3.896862268E-1,5.874691159E-2,-2.793045282E0
4.018762901E1,1.137385249E0,2.130190849E0,-4.075251102E0
4.023962234E1,1.147770047E0,-2.637612343E0,-3.473549128E0
4.029161570E1,9.400758147E-1,-9.754479527E-1,-1.721587539E0
4.034360906E1,1.020709991E0,-1.929008603E0,-1.105835319E0
4.039560242E1,-5.669287443E-1,4.851308465E-1,-1.266492963E0
4.044759673E1,-2.062937737E0,4.569986820E0,-2.158967018E0
4.049959003E1,-2.729391813E0,4.232178211E0,-3.138794899E0
4.055158335E1,-3.450823545E0,3.902921915E0,-2.692252398E0
4.060357668E1,-3.107517242E0,-1.411605716E0,-1.165089250E0
4.065557117E1,-4.988371372E0,-4.971404672E-1,2.523315191E0
4.070757002E1,-4.581535339E0,9.646601081E-1,3.522079945E0
4.075956664E1,-2.094702721E0,-2.216402441E-1,7.695209980E-1
4.081155997E1,-1.409571525E-2,-1.993149400E0,-1.373394251E0
4.086355336E1,1.289490700E0,2.733114958E0,-3.137573004E0
4.091554669E1,2.520384312E0,1.782608628E0,-4.217583179E0
4.096754005E1,1.984044552E0,-1.412827492E0,-4.107626915E0
4.101953341E1,1.209467411E0,9.548862576E-1,-1.512060642E0
4.107152693E1,1.062248945E0,-8.147904277E-1,1.183687568E0
4.112352042E1,7.604814172E-1,-9.436829686E-1,1.420092583E0
4.117551448E1,1.392726898E0,-2.028579473E0,-1.904236197E0
4.122750770E1,-2.601721048E0,-7.390431166E-1,-2.268922806E0
4.127950106E1,-3.375687361E0,-5.853921548E-2,-2.713021755E0
4.133149452E1,-5.893063068E0,1.172354221E0,1.364503741E0
4.138348771E1,-5.614508152E0,4.338181615E-1,6.196447849E0
4.143548111E1,-5.417809486E0,5.784997463E0,7.466436386E0
4.148747440E1,-3.450823545E0,6.696408749E0,2.049894571E0
4.153946786E1,-2.743242979E-1,2.122249842E0,-1.186770722E-1
4.159146204E1,1.840491176E0,-5.147047043E0,-4.566997528E0
4.164345540E1,1.953501225E0,-9.381851554E-1,-5.530332088E0
4.169544879E1,1.116005063E0,1.216336489E0,-4.401453018E0
4.174744268E1,1.980379224E0,-5.484531522E-1,-2.692863226E0
4.179943901E1,1.913184047E0,-1.658395290E0,3.529108763E-1
4.185143280E1,-9.529955983E-1,-1.032258391E0,4.152191579E-1
4.190342606E1,-1.153970242E0,-4.255183697E0,-3.760044575E0
4.195541945E1,-4.468524933E0,2.743499756E0,1.583193541E0
4.200741281E1,-4.295650482E0,1.604236007E0,5.592302322E0
4.205940607E1,-4.555268288E0,5.194901943E0,6.675977230E0
4.211139956E1,-2.718808651E-1,-3.158069611E0,-1.548712611E0
4.216339289E1,-1.299356222E0,4.062968731E0,-9.555624127E-1
4.221538707E1,-5.864764452E-1,1.416089535E0,-1.865751743E0
4.226738047E1,1.075687885E0,1.322016239E0,-3.535246372E0
4.231937369E1,2.527103662E0,1.287196875E0,-4.752700806E0
4.237136712E1,2.666380882E0,-2.692877054E-1,-5.268270969E0
4.242336051E1,1.115394115E0,2.224264145E0,-3.057549715E0
4.247535377E1,-7.306406498E-1,2.637820005E0,-5.560565591E-1
4.252734713E1,-1.489335299E0,2.386754513E0,1.317776740E-1
4.257934102E1,-1.299967051E0,1.829645276E0,1.971402615E-1
4.263133490E1,-1.109987974E0,1.234986261E-1,1.308304191E0
4.268332813E1,-2.183278322E0,-3.682802677E0,2.195891380E0
4.273532142E1,-5.172852516E0,-1.409773231E0,7.330214024E0
4.278731544E1,-3.680509090E0,-4.849231541E-1,6.729733467E0
4.283931396E1,-3.769496679E-1,-1.709707975E0,-1.319027185E0
4.289131133E1,-2.908176482E-1,2.802753687E0,-2.586572647E0
4.294330582E1,5.533980727E-1,1.222445250E0,-2.931100607E0
4.299529908E1,2.009089947E0,-6.892392784E-2,-3.483933687E0
4.304729254E1,2.971813679E0,-9.027550220E-1,-2.202949286E0
4.309928586E1,2.980365753E0,-1.678840965E-1,-1.565816760E0
4.315127902E1,4.697095752E-1,3.477759838E0,-5.273458958E-1
4.320327252E1,1.016433954E0,1.199843168E0,-2.805873394E0
4.325526670E1,-1.704970717E0,1.879125357E0,1.235000372E0
4.330726013E1,-3.931574345E0,-1.415881872E0,1.908784628E0
4.335925362E1,-2.934031487E0,-4.231359959E0,3.928305149E0
4.341124691E1,-3.116069317E0,-5.991549492E-1,4.255729198E0
4.346324014E1,-1.542480588E0,1.362944245E0,5.648811460E-1
4.351523353E1,-5.785351992E-1,-1.402442694E0,-3.715752959E-1
4.356722692E1,1.205802083E0,1.228877604E-1,-1.901792765E0
4.361922028E1,2.072619915E0,5.065111518E-1,-3.171781540E0
4.367121423E1,2.982198238E0,1.094163418E0,-2.639718056E0
4.372320786E1,2.785499811E0,-1.071353793E0,-9.525080919E-1
4.377520122E1,9.657320976E-1,-1.370066881E0,4.457624257E-1
4.382719441E1,1.068357587E0,3.087416649E0,-1.697763681E0
4.387918840E1,-2.776428461E0,4.730033398E0,1.002260685E0
4.393118685E1,-4.720201492E0,-3.809862852E0,5.076732159E0
4.398318394E1,-4.979009926E-1,-4.043213367E0,5.055351734E0
4.403517794E1,1.133720040E0,-7.476886749E0,-3.419181824E0
4.408717116E1,9.341656417E-2,1.340342164E0,-2.275642395E0
4.413916452E1,-7.037625909E-1,1.703806996E0,5.764876008E-1
4.419115798E1,2.320829779E-1,-2.297971249E0,6.332980394E-1
4.424315124E1,2.145313025E0,-1.129385948E0,-1.309253454E0
4.429514463E1,3.053669453E0,-8.850399256E-1,-3.044721603E0
4.434713802E1,1.204580426E0,-1.505222702E1,-1.217715645E1
4.439913208E1,1.179535031E0,6.326224327E0,-6.458537579E-1
4.445112564E1,2.011273801E-2,-7.891053200E0,2.853182316E0
4.450311890E1,3.756363094E-1,-8.926469803E0,5.374223232E0
4.455511242E1,-1.662011594E-1,1.934103251E0,5.869023800E0
4.460710558E1,9.529039860E-1,9.866512418E-1,1.968038559E0
4.465909887E1,-8.424290419E-1,2.646372080E0,-1.212125897E0
4.471109227E1,-1.318292975E0,4.802115917E0,-4.735897779E-1
4.476308579E1,-1.425194502E0,2.123471498E0,-2.280219495E-1
4.481507994E1,-8.723613620E-1,1.441745877E0,-6.177539825E-1
4.486707333E1,-1.326035708E-1,3.068480015E0,-1.909123063E0
4.491906679E1,8.594415784E-1,1.884012222E0,-2.953702688E0
4.497106025E1,2.368889570E0,-1.838600636E0,-1.826656222E0
4.502305647E1,1.719539762E0,-3.583231688E0,1.103973985E-1
4.507505057E1,-1.197754070E-1,1.015074775E-1,1.930775881E0
4.512704399E1,-5.241681933E-1,3.574600220E-1,1.539211154E0
4.517903728E1,6.409504265E-2,-7.903558016E-1,-7.164043933E-2
4.523103088E1,-1.746509552E0,2.922483206E0,3.307666063E0
4.528302404E1,-1.109987974E0,1.006809711E0,5.135375023E0
4.533501723E1,-1.165576696E0,4.907795429E0,4.126836300E0
4.538701085E1,-2.315637320E-1,-3.677915812E0,2.478420883E-1
4.543900497E1,-2.266768217E-1,-2.687092304E0,-3.355342448E-1
4.549099823E1,6.065434217E-1,-8.297382295E-2,-2.323289871E0
4.554299172E1,9.840580821E-1,1.413035154E0,-4.799737453E0
4.559498505E1,2.095221996E0,1.667155147E0,-5.200464725E0
4.564697831E1,1.709766030E0,-1.929295659E-1,-3.066712618E0
4.569897164E1,1.099511623E0,6.152451634E-1,-9.292952418E-1
4.575096496E1,7.103904486E-1,7.258117795E-1,-4.228879809E-1
4.580295892E1,9.522930980E-1,-1.435429454E0,-7.362618446E-1
4.585495277E1,-6.357580423E-2,-1.668780088E0,-6.391342878E-1
4.590694603E1,-1.260260820E0,1.382491946E0,-2.274110913E-1
4.595893949E1,-8.509810567E-1,3.733424842E-1,2.579514742E0
4.601093278E1,-3.047041655E0,6.934359074E-1,6.439572334E0
4.606293063E1,-2.810025930E0,2.780762434E0,5.864137173E0
4.611492853E1,-1.717798829E0,1.804599762E0,7.921229601E-1
4.616692362E1,-3.293021917E-1,-9.045875669E-1,-1.158980608E0
4.621891701E1,4.208403230E-1,-8.160121441E-1,-1.903014421E0
4.627091040E1,2.506945133E0,-6.431372762E-1,-2.517544985E0
4.632290383E1,2.480678082E0,-3.932035685E0,-2.255784869E-1
4.637489712E1,3.211272717E0,-4.589937687E0,-9.256300926E-1
4.642689031E1,3.613832951E0,-4.125069141E0,-1.237782240E0
4.647888427E1,3.023736954E0,-2.763450384E0,-1.523667097E0
4.653087799E1,-4.099363983E-1,1.016583562E0,-4.381595850E-1
4.658287145E1,-1.102657557E0,4.508900166E0,-3.440863490E-1
4.663486474E1,-3.393402338E0,1.899894834E0,1.566700220E0
4.668685810E1,-2.952357769E0,9.298407435E-1,5.837259293E0
4.673885143E1,-3.855827093E0,4.866256237E0,8.417553902E0
4.679084475E1,-1.706803322E0,4.564201832E-1,3.064541817E0
4.684277484E1,-3.067001700E-1,-3.491601706E0,-2.396593571E0
4.689476902E1,6.138737798E-1,4.252660573E-1,-3.262800455E0
4.694676252E1,2.309024811E0,-1.416168809E-1,-4.321430206E0
4.699875578E1,2.031081200E0,-2.178852558E0,-3.995838881E0
4.705074907E1,1.837436914E0,2.817127407E-1,-3.009902239E0
4.710274246E1,1.904632092E0,-3.890173137E-1,-1.790004373E0
4.715474008E1,1.807504416E0,-2.595138848E-1,-1.409435272E0
4.720673803E1,1.910129786E0,-3.749673963E-1,-1.841928005E0
4.725873233E1,2.508777857E0,-4.177279770E-1,-1.479986012E-1
4.731072572E1,1.288269043E0,-1.097620964E0,7.924327254E-2
4.736271908E1,-2.204047680E0,4.072131634E0,4.894083023E0
4.741471234E1,-5.652381897E0,8.287101746E0,5.854363441E0
4.746670580E1,-3.516797066E0,-4.731657982E0,4.649126053E0
4.751869906E1,-2.634096622E0,2.147295237E0,2.501934767E0
4.757069252E1,-1.015303850E0,2.147906065E0,-1.709981084E0
4.762268670E1,6.898195297E-2,1.981750727E0,-2.647659063E0
4.767468006E1,3.189281702E0,-1.746359825E0,-1.824212909E0
4.772667355E1,3.331002474E0,-6.900229931E0,-6.800622344E-1
4.777866694E1,4.060986519E0,-3.916764259E0,-4.424356520E-1
4.783066010E1,2.486786604E0,-3.291848898E0,-7.020534277E-1
4.788265343E1,1.661095321E-1,-2.556977987E0,-9.653363228E-1
4.793464669E1,-1.546145797E0,9.988685250E-1,-1.378281236E0
4.798664068E1,-1.154581189E0,9.298407435E-1,-2.378267527E0
4.803863443E1,-2.134408951E0,7.184490204E0,2.765828609E0
4.809062776E1,-5.143531322E0,-1.834324479E0,4.663176060E0
4.814262108E1,-2.516810656E0,2.991510868E0,7.638089657E0
4.819461458E1,-1.856465340E0,4.371455669E0,4.124392986E0
4.824661033E1,6.181498170E-1,-5.235621929E0,2.893809080E-1
4.829860512E1,1.215576053E0,-2.919221163E0,-3.592056990E0
4.835059838E1,2.674322367E0,3.037038743E-1,-4.749646664E0
4.840259178E1,2.838034153E0,1.620118499E0,-4.658627510E0
4.845458517E1,2.756788969E0,1.827201724E0,-3.509590149E0
4.850657843E1,2.118434906E0,5.651541948E-1,-1.645840168E0
4.855857185E1,1.268110514E0,3.220298588E-1,-9.561733603E-1
4.861056544E1,6.535800099E-1,-9.204701185E-1,-1.031920671E0
4.866255950E1,2.833956480E-1,5.193393230E-1,-1.068572521E0
4.871455279E1,-2.713509321E0,7.856441975E0,2.539808512E0
4.876654625E1,-5.944375515E0,-2.379216194E0,3.474432468E0
4.881853944E1,-5.353669167E0,-1.000525761E1,4.545890331E0
4.887053280E1,-7.544643879E-1,-3.853234053E0,5.682710171E0
4.892252616E1,2.186439335E-1,-2.348062277E0,-5.865998268E-1
4.897451949E1,1.940062284E0,-2.045683861E0,-1.914010048E0
4.902651317E1,4.028610706E0,2.432282120E-1,-2.922548532E0
4.907850710E1,5.202082634E0,-4.783074837E-3,-2.457680225E0
4.913050052E1,4.020058155E0,-2.707251072E0,-1.314751267E0
4.918249385E1,2.329183340E0,-1.246061325E0,-1.390498519E0
4.923448727E1,1.475193739E0,2.438678026E0,-7.038859725E-1
4.928648386E1,2.908283710E0,9.646601081E-1,-2.182179928E0
4.933848231E1,1.596145034E0,3.055364788E-1,-2.864516258E0
4.939047721E1,-1.075581014E-1,4.959718704E0,2.460396051E0
4.944247050E1,-3.505190611E0,-2.363944530E0,6.051062107E0
4.949446379E1,-5.095273018E0,-4.788468838E0,8.197642326E0
4.954645718E1,-2.150902271E0,-1.134366417E1,5.389494419E0
4.959845051E1,4.043469727E-1,-4.403299987E-1,4.005583823E-1
4.965044387E1,1.644403458E0,2.285350800E0,-9.848839641E-1
4.970243716E1,3.117199421E0,-3.423795938E0,-2.310461760E0
4.975443112E1,4.626036644E0,-3.007796526E0,-3.391082287E0
4.980642497E1,3.464781761E0,-5.747203231E-1,-2.709356785E0
4.985841813E1,1.624855757E0,2.126525879E0,-3.314724207E0
4.991041152E1,1.584538579E0,5.802712917E0,-1.823601961E0
4.996240491E1,2.267486095E0,2.376980543E0,2.289052606E-1
5.001439811E1,1.720761538E0,-6.987259984E-1,-2.643641457E-2
5.006639157E1,-1.830198169E0,-2.717311978E-1,3.730384827E0
5.011838483E1,-4.382392883E0,-3.959524632E0,7.035777092E0
5.017037888E1,-3.084915400E0,-1.057458401E1,8.164655685E0
5.022237254E1,5.187772959E-2,-1.457420707E0,7.994533777E-1
5.027436580E1,-2.761569023E-1,3.657964945E0,-5.389523506E-1
5.032635919E1,4.917007089E-1,-5.893810987E-1,-1.868195057E0
5.037835461E1,1.254060507E0,3.574600220E-1,-2.921326876E0
5.043034987E1,2.541153669E0,1.961915940E-1,-3.804027081E0
5.048234323E1,2.463573694E0,-5.741094947E-1,-4.019662380E0
5.053433659E1,2.621176958E0,5.657650828E-1,-2.408810854E0
5.058632992E1,1.839880228E0,1.642720461E0,-9.134128094E-1
5.063832324E1,1.563769221E0,-1.177931428E-1,-3.829683304E0
5.069031657E1,1.049420595E0,6.642652512E0,-1.879190683E0
5.074230996E1,-1.172296286E0,3.446318507E-1,7.496721298E-2
5.079430391E1,-4.507009983E0,1.112489462E0,2.945423126E0
5.084629760E1,-5.321903706E0,-2.691368341E0,4.844603062E0
5.089829086E1,-3.713495493E0,-1.487353086E0,7.609990120E0
5.095028429E1,-1.668318868E0,-5.259445667E0,4.018712997E0
5.100227758E1,-1.603567123E0,1.109435201E0,1.472626925E0
5.105427087E1,-5.015661716E-1,3.478981495E0,-8.242264390E-1
5.110626430E1,1.624244928E0,3.727316558E-1,-3.017232656E0
5.115825789E1,1.326753497E0,-1.603417516E0,-2.924991846E0
5.121025217E1,1.926012278E0,-2.741746604E-1,-3.105197191E0
5.126224526E1,9.180846810E-1,1.881568789E0,-2.411865234E0
5.131423869E1,1.099511623E0,3.090471268E0,-1.788171768E0
5.136623188E1,2.239386320E0,4.521441460E-1,-1.657446623E0
5.141822771E1,2.244884014E0,-3.041070700E-1,-3.772873163E0
5.147022630E1,-1.532095790E0,6.026289463E0,1.570976138E0
5.152222272E1,-6.070213795E0,-3.372483253E0,3.614931345E0
5.157421628E1,-4.699431896E0,-4.574666023E0,6.594120979E0
5.162620981E1,-4.341465473E0,1.388600588E0,7.259964466E0
5.167820303E1,-1.359220982E0,9.548862576E-1,1.341901779E0
5.173019629E1,1.006049275E0,-2.353559971E0,-2.408810854E0
5.178218979E1,1.749472260E0,-1.841654897E0,-3.964684486E0
5.183418331E1,1.579651713E0,-1.027371407E0,-2.766166925E0
5.188617726E1,2.211897135E0,-1.043864846E0,-3.105197191E0
5.193817066E1,2.252214432E0,5.935777724E-2,-2.069780827E0
5.199016415E1,1.721372485E0,5.028459430E-1,-1.366063833E0
5.204215727E1,1.506958723E0,-4.021326080E-2,-2.323900700E0
5.209415100E1,9.260258675E-1,3.183646500E-1,-2.881009817E0
5.214614403E1,1.858206272E0,1.039796472E0,-5.406326771E0
5.219813725E1,-8.619766831E-1,9.188451767E-1,2.133583069E0
5.225013114E1,-5.737902641E0,-8.282294273E-1,7.011342049E0
5.230212503E1,-3.726323843E0,-2.803767681E0,7.956350803E0
5.235411829E1,-2.518032551E0,5.152141094E0,7.390689373E0
5.240611171E1,9.158396721E-2,5.508171767E-2,-1.573758006E0
5.245810504E1,7.659791708E-1,-2.698087931E0,-3.728279829E0
5.251010053E1,1.175258875E0,-1.335247517E0,-3.933530569E0
5.256209948E1,1.412274599E0,9.170125723E-1,-3.088093042E0
5.261409511E1,1.690829277E0,5.327783227E-1,-2.662320137E0
5.266608837E1,1.540556312E0,1.213282228E0,-1.560319066E0
5.271808166E1,7.128339410E-1,2.648815393E0,2.032489181E-1
5.277007515E1,-5.608201027E-1,-2.005977631E0,-1.849516667E-2
5.282206838E1,3.915188015E-1,3.104234040E-1,-7.820767164E-1
5.287406167E1,-3.531457663E0,4.808548093E-1,2.722457170E0
5.292605510E1,-3.848496914E0,-5.631463051E0,6.101763725E0
5.297804908E1,-3.303605080E0,4.942614555E0,1.011026192E1
5.303004258E1,-2.808193445E0,7.615760803E0,4.534894466E0
5.308203604E1,1.881006807E-1,9.390037060E-1,-1.383778930E0
5.313402936E1,1.170982957E0,-2.305301428E0,-2.965309143E0
5.318602262E1,1.837436914E0,-4.977513552E-1,-4.518128395E0
5.323801605E1,1.826441288E0,1.257875323E0,-2.972639322E0
5.329000927E1,2.123321772E0,1.309188128E0,-3.096645117E0
5.334200297E1,1.072022676E0,1.984194160E0,-2.377656698E0
5.339399688E1,-6.048024297E-1,5.286531925E0,-2.932933331E0
5.344599034E1,-9.004611969E-1,3.092303753E0,-2.151636600E0
5.349798373E1,1.858817101E0,-2.980307579E0,-2.923770189E0
5.354997709E1,-3.248016357E0,-2.227721691E0,3.729163170E0
5.360197168E1,-3.041543961E0,-9.580095291E0,6.069998741E0
5.365396767E1,-2.580340624E0,-1.698101521E0,5.130487919E0
5.370596100E1,-5.143943429E-1,2.598724604E0,-4.057837129E-1
5.375795439E1,5.595067739E-1,7.197031379E-1,-2.191953659E0
5.380994768E1,2.616900921E0,-9.161940217E-1,-3.547463655E0
5.386194104E1,3.908880949E0,-2.799595520E-2,-4.170546532E0
5.391393450E1,3.336500168E0,-1.831270099E0,-2.998295784E0
5.396592770E1,2.309635639E0,-4.754260063E0,-2.946983099E0
5.401792191E1,1.292545080E0,2.445397377E0,-1.350181341E0
5.406991544E1,2.818486214E0,5.298138142E0,5.905374885E-1
5.412190870E1,4.685901165E0,-2.114100933E0,-6.797525287E-2
5.417198958E1,2.015198708E0,-3.769545555E0,-3.734078705E-1
5.422398291E1,-2.494208574E0,-1.170313954E0,2.884947300E0
5.427597637E1,-2.522919178E0,-3.051167965E0,6.932540417E0
5.432796960E1,-1.089218497E0,1.932881474E0,7.804244995E0
5.437996302E1,-1.845469713E0,1.802767158E0,1.951545238E0
5.443195714E1,-1.387931585E0,7.160379291E-1,2.484529465E-1
5.448395073E1,3.053868115E-1,1.497945428E0,-2.738067150E0
5.453594409E1,2.046963692E0,1.198621511E0,-3.405132055E0
5.458793738E1,2.754956484E0,8.040025234E-1,-3.110084295E0
5.463993177E1,2.089113235E0,-6.004805677E-3,-2.099713087E0
5.469193072E1,4.513836205E-1,1.165634751E0,-1.129048228E0
5.474392718E1,-1.510104775E0,4.554104328E0,-1.909734011E0
5.479592061E1,-6.408434510E-1,4.784400463E0,-2.947593927E0
5.484791390E1,-1.219332933E0,2.483270884E0,-1.860864758E0
5.489990729E1,-7.294189334E-1,-1.893578410E0,-2.332452536E0
5.495190062E1,-4.486240387E0,9.817642570E-1,4.216633797E0
5.500389401E1,-5.960868835E0,-5.403610229E0,5.300919533E0
5.505588724E1,-4.119110584E0,-2.814152241E0,4.392562866E0
5.510788079E1,-9.786519408E-1,4.277095199E-1,8.690920472E-1
5.515987501E1,1.116005063E0,-6.242004633E-1,-2.426525831E0
5.521186830E1,2.709752560E0,6.580057144E-1,-4.008666992E0
5.526386160E1,3.085434675E0,-1.024317145E0,-4.005001545E0
5.531585499E1,1.991985679E0,6.995445490E-1,-2.794877768E0
5.536784832E1,1.703046560E0,1.441745877E0,-1.708759308E0
5.541984174E1,1.743974447E0,1.776499987E0,-6.470754743E-1
5.547183493E1,4.116773605E-1,1.020859718E0,-1.464413166E0
5.552382889E1,-1.420918345E0,2.341550350E0,-2.317181110E0
5.557582261E1,-7.233102322E-1,3.397125483E0,-1.629346848E0
5.562781600E1,-2.054996490E0,-4.323600769E0,-2.579543591E-1
5.567980936E1,-4.290152550E0,-2.383492470E0,4.647904396E0
5.573180335E1,-5.717744827E0,-2.969311953E0,6.114591599E0
5.578379957E1,-2.541856289E0,-3.818414688E0,2.994903088E0
5.583579337E1,5.857739449E-1,-1.158707500E0,-1.548712611E0
5.588778666E1,1.612638474E0,-2.188730240E-2,-2.110097647E0
5.593978005E1,2.344455004E0,-4.957067490E0,-2.774719238E0
5.599177335E1,1.238788962E0,-4.476603568E-1,-2.474173307E0
5.604376660E1,1.114783168E0,1.188847661E0,-1.758239388E0
5.609576010E1,1.232680321E0,6.354036927E-1,-2.338561296E0
5.614775398E1,1.210689068E0,2.513814211E0,-2.729515076E0
5.619974767E1,6.676298976E-1,1.523601770E0,-1.962879300E0
5.625174110E1,-2.914285362E-1,6.488426924E-1,-1.724030852E0
5.630373429E1,4.452749491E-1,5.772169590E0,3.347983122E0
5.635572765E1,-3.311546326E0,1.325577614E-3,5.774950504E0
5.640772108E1,-5.094662189E0,1.523601770E0,5.958821297E0
5.645971444E1,-3.432497501E0,1.614009738E0,3.837286472E0
5.651170770E1,-5.156160593E-1,-8.001296520E-1,-1.258551598E0
5.656370185E1,1.336527348E0,9.616057277E-1,-2.542590380E0
5.661569537E1,2.521605968E0,-1.470248818E0,-4.710551262E0
5.666768880E1,3.683059514E-1,-1.362125635E0,-3.516920328E0
5.671968202E1,-7.212791592E-2,1.431971908E0,-2.255483627E0
5.677167608E1,-3.134196699E-1,-7.075652480E-2,-1.672718287E0
5.682367460E1,-1.373270869E0,1.599959970E0,-2.472951651E0
5.687567199E1,-1.048290491E0,3.563280821E0,-4.504078388E0
5.692766639E1,5.906608701E-1,3.507405221E-1,-5.052024841E0
5.697965965E1,1.164874315E0,-2.107992172E0,-3.176668406E0
5.703165314E1,4.214512110E-1,-2.414035559E0,2.391368151E0
5.708364647E1,-2.729391813E0,2.061774254E0,5.180579185E0
5.713563969E1,-5.915665150E0,1.175408602E0,6.562355995E0
5.718763332E1,-5.839306831E0,1.223023701E1,5.678433895E0
5.723962740E1,-2.559571266E0,4.364735603E0,6.449044943E-1
5.729162073E1,1.984854043E-1,-5.696214199E0,-3.824185610E0
5.734361415E1,-6.878800392E-1,-2.556977987E0,-4.805235386E0
5.739560751E1,-1.098381519E0,-1.511787653E0,-2.821145058E0
5.744760074E1,-1.399538040E0,-1.886535138E-1,-1.750298142E0
5.749959413E1,-4.966792464E-1,-1.835546255E0,-7.136597633E-1
5.755158746E1,2.690815687E0,-7.095096111E0,-1.221288800E0
5.760358115E1,2.073230743E0,-3.080489397E0,-2.121093273E0
5.765557520E1,-3.232133865E0,1.474121690E0,-1.618962169E0
5.770756846E1,-2.588892937E0,-1.569208980E0,-5.100893974E0
5.775956179E1,-4.183250904E0,6.571181297E0,-1.846814871E0
5.781155508E1,-5.056787968E0,2.304287672E0,2.140913486E0
5.786354900E1,-4.365900040E0,8.111783028E0,6.050451279E0
5.791554756E1,-4.771513939E0,3.019610882E0,6.378485680E0
5.796754465E1,-2.995728970E0,-6.785674691E-1,4.867815971E0
5.801953854E1,4.672660828E-1,-9.119179845E-1,-2.411254406E0
5.807153173E1,2.230834007E0,-7.170519233E-1,-4.030658245E0
5.812352509E1,1.555827975E0,-2.560032368E0,-4.290886879E0
5.817551845E1,3.420387208E-1,2.566959620E0,-2.743564844E0
5.822751181E1,2.223091274E-1,6.546643376E-2,-1.746632934E0
5.827950513E1,1.705841348E-2,-3.651935756E-1,-1.033753157E0
5.833149876E1,-5.333311558E-1,-1.904861182E-1,-1.312918544E0
5.838349268E1,-1.257817388E0,1.425252438E0,-9.885491729E-1
5.843548647E1,-3.103653491E-1,3.843380809E-1,3.229785264E-1
5.848747946E1,-3.797183990E0,-1.519118071E0,3.919753075E0
5.853947276E1,-2.048887968E0,-2.214282751E0,7.795082092E0
5.859146608E1,-2.063548565E0,6.692132950E0,4.828720570E0
5.864345944E1,1.874898225E-1,-2.795826435E0,-2.804651499E0
5.869545280E1,3.878535926E-1,2.212046862E0,-3.877941847E0
5.874744652E1,6.706842184E-1,1.700141788E0,-3.855950594E0
5.879944044E1,1.002994895E0,1.297581673E0,-2.287859678E0
5.885143387E1,2.158141136E0,-1.173368335E0,-6.849491596E-1
5.890342706E1,2.638892174E0,-1.648010612E0,-4.595398903E-1
5.895542082E1,1.394559622E0,1.176019430E0,-7.332075238E-1
5.900741701E1,4.409989119E-1,5.156741142E-1,-1.389276743E0
5.905941110E1,1.961442471E0,-1.425655603E0,-4.366633892E0
5.911140460E1,-1.602345347E0,2.961578608E0,7.884578109E-1
5.916339789E1,-3.730599880E0,-2.114711761E0,3.421897888E0
5.921539115E1,-2.214432478E0,-1.420157790E0,5.459133148E0
5.926738450E1,-2.216875792E0,2.488768816E0,5.991197109E0
5.931937786E1,-3.225826621E-1,-1.268052340E0,-1.343461871E0
5.937137172E1,8.356178403E-1,9.121256471E-1,-2.691641569E0
5.942336557E1,1.892414689E0,5.443847775E-1,-3.620767593E0
5.947535886E1,1.917460203E0,-1.324539185E-1,-3.984232426E0
5.952735226E1,1.577819109E0,1.108824253E0,-1.727696180E0
5.957934558E1,1.440985322E0,-1.481244326E0,-2.293968201E0
5.963133884E1,-9.365022779E-1,4.273106575E0,-2.025798321E0
5.968333224E1,-1.041571021E0,6.098982334E0,-3.378253937E0
5.973532556E1,-8.253247738E-1,1.898062110E0,-1.469910979E0
5.978731955E1,1.695105195E0,4.014423192E-1,-2.319624424E0
5.983931327E1,-2.903488398E0,-2.313853741E0,4.101790905E0
5.989130660E1,-5.384212017E0,-4.791522980E0,4.929512978E0
5.994330006E1,-3.191205740E0,-6.329070568E0,4.658899784E0
5.999529331E1,-2.137463331E0,1.444800138E0,3.740158796E0
6.004729114E1,4.611574411E-1,6.189103127E-1,-3.434754610E-1
6.009928902E1,2.592466354E0,-3.515425444E0,-2.667817593E0
6.015128342E1,3.626661062E0,-1.627852082E0,-3.096645117E0
6.020327661E1,2.957152843E0,1.210551709E-1,-2.075889349E0
6.025526987E1,2.312079191E0,1.455795765E0,-7.997918129E-1
6.030726326E1,2.060402632E0,1.626837969E0,1.055104733E-1
6.035925666E1,3.939622939E-1,1.870573282E0,-1.143708944E0
6.041124998E1,-3.470172584E-1,1.577357888E0,-3.215152979E0
6.046324327E1,-4.563621581E-1,3.004339218E0,-3.000739336E0
6.051523759E1,-7.526317835E-1,-1.813231409E-1,-6.220300198E-1
6.056723092E1,-2.797808647E0,-1.604639173E0,4.519011497E0
6.061922428E1,-5.331677914E0,-2.453130960E0,6.312512398E0
6.067121770E1,-4.643843174E0,-5.037090778E0,6.458508968E0
6.072321093E1,1.483944356E-1,-3.424406767E0,5.175433680E-2
6.077520442E1,8.686045408E-1,2.822912216E0,-2.123536825E0
6.082719785E1,1.484356642E0,-1.359682083E0,-3.329384804E0
6.087919100E1,1.343857646E0,-1.535611272E0,-2.202338457E0
6.093118519E1,1.794676304E0,-9.742261767E-1,-1.228619218E0
6.098317858E1,1.435487509E0,-2.558487058E-1,-1.417376637E0
6.103517221E1,1.282771230E0,1.363555074E0,-1.299479604E0
6.108716540E1,2.068343878E0,1.592018723E0,-1.799778223E0
6.113916129E1,1.151435137E0,-3.981803060E-1,-1.957992315E0
6.119115602E1,2.263820887E0,4.676887989E0,-4.125032425E-1
6.124314927E1,-1.879067302E0,-6.464786828E-2,3.639976740E0
6.129514270E1,-4.717147350E0,-1.817220211E0,6.594731808E0
6.134713599E1,-3.671956778E0,1.711748242E0,7.960015774E0
6.139897919E1,-1.607232332E0,1.908446908E0,7.963990569E-1
6.145097252E1,8.264548182E-1,-1.971769214E0,-2.324511528E0
6.150296594E1,2.166693211E0,-2.228619754E-1,-3.527915955E0
6.155496013E1,2.381717682E0,-2.089666367E0,-2.770443201E0
6.160695352E1,1.704879045E0,-6.040418744E-1,-2.374602556E0
6.165894711E1,1.616303563E0,6.030278206E-1,-1.439367652E0
6.171094024E1,1.919903636E0,-3.199895322E-1,-4.735897779E-1
6.176293360E1,2.035357237E0,-1.682829976E0,-7.478682995E-1
6.181492689E1,1.582095265E0,-9.907196164E-1,-6.140888333E-1
6.186692031E1,-1.384266496E0,-1.999258041E0,2.557833195E-1
6.191891374E1,-1.344560146E0,2.156458139E0,1.527604699E0
6.197090796E1,-3.383628368E0,-1.508122444E0,3.872105360E0
6.202290128E1,-3.248627186E0,2.396528244E0,7.049826622E0
6.207489454E1,-2.120359182E0,3.161331654E0,4.128668785E0
6.212688804E1,3.029433489E-1,-1.880139351E0,-1.278710246E0
6.217888492E1,1.597977638E0,-2.812319756E0,-3.432010174E0
6.223088308E1,2.664548397E0,-1.258278608E0,-4.412448883E0
6.228287897E1,2.348120213E0,-9.247461557E-1,-2.979969978E0
6.233487223E1,2.147145510E0,1.888612062E-1,-2.463177919E0
6.238686559E1,1.569877863E0,3.055364788E-1,-1.716089725E0
6.243885902E1,1.207023978E0,3.379123211E-1,-1.603079557E0
6.249085228E1,5.393481851E-1,5.447085574E-2,-2.719130278E0
6.254284557E1,-4.948466420E-1,-2.698985934E-1,-2.701415300E0
6.259483949E1,-1.497276545E0,-1.078073382E0,6.397163868E-2
6.264683334E1,-1.015303850E0,5.950541973E0,3.831788540E0
6.269882664E1,-4.248613834E0,4.826873839E-1,6.560523510E0
6.275081993E1,-5.265704155E0,6.124638557E0,4.730370998E0
6.280281326E1,-1.571802139E0,1.641498804E0,1.727357626E0
6.285480671E1,3.334866166E-1,-5.067023277E0,-2.078332663E0
6.290679997E1,1.254060507E0,-2.220391273E0,-4.458263874E0
6.295879340E1,1.552162766E0,-5.832724571E-1,-2.892616272E0
6.301078765E1,1.481913328E0,-3.254873455E-1,-2.643993855E0
6.306278118E1,1.897912502E0,8.876910210E-1,-1.805886865E0
6.311477434E1,2.245494843E0,1.042240024E0,-1.268936276E0
6.316676763E1,1.897301674E0,4.002205729E-1,-2.001974583E0
6.321876109E1,2.595520496E0,-1.015154123E0,-1.595138311E0
6.327075787E1,1.968161941E0,-3.625381231E0,4.182734787E-1
6.332275613E1,-1.091661930E0,-3.396306992E0,3.622872591E0
6.337475102E1,-1.323179960E0,1.088378578E-1,5.979590893E0
6.342674428E1,-2.540634394E0,1.790549874E0,6.045564175E0
6.347873764E1,-2.056218147E0,7.328043461E0,4.415164471E0
6.353073100E1,1.392314583E-1,-3.184947491E0,-5.026016012E-2
6.358272439E1,6.022673249E-1,-2.633947134E0,-3.064880133E0
6.363471765E1,1.086882055E-1,1.232115179E-2,-3.246307135E0
6.368671121E1,-1.045037657E-1,1.100883007E0,-1.627514243E0
6.373870529E1,3.084411323E-1,1.669598460E0,-1.389887691E0
6.379069875E1,1.646846890E0,2.499764442E0,-9.311278462E-1
6.384269198E1,2.704254627E0,2.835453153E-1,-2.017857075E0
6.389468537E1,4.106190205E0,-2.476343632E0,-1.474797845E0
6.394667866E1,4.156281471E0,-3.268025160E0,-2.075278521E0
6.399867196E1,7.006166577E-1,-2.730463982E0,6.406283975E-1
6.405066538E1,-1.958479762E0,3.704390526E0,2.592342854E0
6.410265904E1,-4.000602245E0,2.867505312E0,4.501907825E0
6.415465296E1,-5.047014713E0,-2.179750502E-1,3.608211994E0
6.420664645E1,-3.043987274E0,9.389714241E0,1.991251469E0
6.425863971E1,-1.252731979E-1,2.690354586E0,-6.611254215E-1
6.431063300E1,1.714042068E0,-4.614983082E0,-2.028241873E0
6.436262842E1,2.079950333E0,-4.793966770E0,-7.906288505E-1
6.441462365E1,2.409817696E0,-9.778914452E-1,-3.239277899E-1
6.446661704E1,2.119656563E0,-1.024317145E0,-1.090563774E0
6.451861037E1,1.938229561E0,7.123727202E-1,-1.207849860E0
6.457060373E1,2.461130381E0,4.469700903E-2,-1.821769357E0
6.462259706E1,2.866744757E0,-2.605847120E0,-1.750298142E0
6.467459035E1,1.637683988E0,-2.450076580E0,5.514420867E-1
6.472658391E1,-1.230939388E0,1.247490764E0,2.589288473E0
6.477857799E1,-3.205255747E0,5.871740818E0,3.771923542E0
6.483057142E1,-5.738513947E0,3.442940474E0,3.489703894E0
6.488256471E1,-2.814912796E0,-3.835519075E0,3.304611921E0
6.493455797E1,-4.759098589E-1,1.238327742E0,1.871521831E0
6.498655140E1,7.177208066E-1,-1.563711166E0,-2.756393194E0
6.503854479E1,4.943427071E-2,-2.538041353E0,-1.168143511E0
6.509053801E1,5.155244470E-1,3.134777248E-1,-8.669869900E-1
6.514253174E1,1.564380169E0,7.765135765E-1,-1.334909797E0
6.519452572E1,2.089724064E0,1.527266979E0,-1.392331004E0
6.524651908E1,1.693272710E0,4.103896618E0,-1.669053078E0
6.529851247E1,1.514289141E0,2.160123348E0,-2.020300627E0
6.535050570E1,-1.790293306E-1,1.641498804E0,-4.314400554E-1
6.540250152E1,-3.415195048E-1,2.650037289E0,3.258796930E0
6.545450041E1,-5.744011879E0,1.261540532E0,5.118881226E0
6.550649573E1,-3.890035629E0,-9.812835693E0,3.825068951E0
6.555848906E1,-9.236740470E-1,-6.629616737E0,2.476889372E0
6.561048259E1,1.793454647E0,5.346109867E-1,-1.797945738E0
6.566247578E1,4.576556683E0,-1.434494853E-1,-1.795502186E0
6.571446910E1,5.478193760E0,-5.643356442E-1,-2.463479042E-1
6.576646233E1,4.213091850E0,-2.899062395E0,4.915772974E-1
6.581845576E1,2.321852922E0,-3.227097273E0,-4.589290023E-1
6.587044948E1,1.789178491E0,8.547043204E-1,-9.854948521E-1
6.592244377E1,2.583303213E0,2.072158575E0,-1.022757649E0
6.597443679E1,2.737241507E0,1.634779334E0,-1.324524999E0
6.602643022E1,1.134941816E0,4.088014126E0,4.622557759E-1
6.607842368E1,-2.199771404E0,1.593240380E0,3.652194023E0
6.613041684E1,-4.880248070E0,3.650634527E0,5.776782990E0
6.618241013E1,-6.058607578E0,-1.659006119E0,4.950282574E0
6.623440352E1,-3.614535332E0,-7.454284668E0,4.211746693E0
6.628639741E1,-8.002793193E-1,-6.563032150E0,1.384051442E0
6.633839120E1,1.180145860E0,-8.465553522E-1,-2.336117983E0
6.639038452E1,3.785485983E0,-2.306523323E0,-3.030671597E0
6.644237785E1,2.817264557E0,-1.177644253E0,-2.517544985E0
6.649437261E1,2.226558208E0,4.979590178E-1,-1.957381487E0
6.654636863E1,1.925401449E0,2.010785043E-1,-1.067961693E0
6.659836182E1,7.910246849E-1,1.548647165E0,-9.176887870E-1
6.665035515E1,1.275440812E0,3.711110115E0,-5.817129612E-1
6.670234854E1,7.898029089E-1,2.086819649E0,2.814697742E0
6.675434194E1,-5.473811030E-1,-4.526407719E0,5.664125830E-2
6.680633536E1,-4.783120632E0,-5.039534569E0,5.862915516E0
6.685832845E1,-3.225414276E0,-8.907533646E0,5.841535091E0
6.691032247E1,-5.858656168E-1,1.457628250E0,1.104275107E0
6.696231613E1,-8.801040798E-2,2.953637123E0,-1.742658019E-1
6.701430949E1,2.109882832E0,-1.256445885E0,-1.597581744E0
6.706630288E1,3.249757290E0,-1.756133795E0,-2.931100607E0
6.711829634E1,4.274788857E0,-2.465959311E0,-2.979969978E0
6.717028970E1,3.070773602E0,-2.297971249E0,-2.807095051E0
6.722228289E1,1.290712357E0,1.920664191E0,-1.620183825E0
6.727427632E1,-1.350470334E-1,1.533375621E0,-7.264879942E-1
6.732627074E1,-3.793931305E-1,3.934686899E0,9.818009287E-2
6.737826410E1,-1.162522316E0,2.383089066E0,3.370284140E-1
6.743025719E1,-1.161102131E-1,-4.155612469E0,-2.878566265E0
6.748225065E1,-2.609051228E0,7.434229832E-3,3.969233036E0
6.753424537E1,-3.762364864E0,-3.045059443E0,6.760276318E0
6.758624413E1,-3.288944244E0,2.960356951E0,6.835412979E0
6.763824105E1,-1.066005588E0,-5.781125069E0,-8.199504018E-1
6.769023484E1,-1.067227364E0,-5.557835102E-1,-1.261605978E0
6.774222830E1,-2.150703818E-1,4.193693638E0,-1.410657048E0
6.779422146E1,1.227182508E0,-1.870365500E0,-2.752117157E0
6.784621479E1,1.077520490E0,4.784113467E-1,-2.764334440E0
6.789820818E1,1.221073866E0,5.028459430E-1,-2.746619463E0
6.795020164E1,1.098900795E0,1.857745171E0,-2.195008039E0
6.800219593E1,1.203969598E0,4.698268414E0,-1.921951294E0
6.805418919E1,1.120891929E0,2.334830761E0,-2.043513536E0
6.810618251E1,9.015913010E-1,5.324912444E-2,-4.581658840E0
6.815817594E1,-2.191830397E0,-3.682478964E-1,1.826928735E0
6.821016930E1,-4.740360260E0,-3.229540825E0,5.621623516E0
6.826216252E1,-4.059856415E0,-1.426266432E0,9.325910568E0
6.831415595E1,-1.912054062E0,2.524199009E0,3.026057243E0
6.836614984E1,-5.563455075E-2,5.447189331E0,-3.084427834E0
6.841814359E1,1.627299190E0,4.627408028E0,-3.224926710E0
6.847013698E1,2.855138540E0,4.264878035E-1,-2.769832373E0
6.852213024E1,2.562533855E0,-1.689549446E0,-1.396607161E0
6.857412357E1,2.370111227E0,-1.985208273E0,-5.475044847E-1
6.862611836E1,2.673100471E0,-1.017597675E0,3.608521521E-1
6.867806322E1,4.013949871E0,-2.715802908E0,1.921612740E0
6.873005964E1,3.444623232E0,-8.468931198E0,1.152843237E-1
6.878205297E1,-2.657721937E-1,-8.147904277E-1,-2.942096233E0
6.883404633E1,-2.866836309E0,2.449673653E0,2.959472895E0
6.888603969E1,-2.425791740E0,-3.821469307E0,6.683918476E0
6.893803305E1,-3.267564058E0,7.089194775E0,1.037659931E1
6.899002641E1,-1.636553884E0,2.458225489E0,3.205040693E0
6.904201960E1,-3.097544909E-1,1.649440050E0,-2.556640387E0
6.909401369E1,1.086072683E0,1.090498328E0,-4.423444271E0
6.914600741E1,2.145923853E0,2.273744345E0,-4.501024246E0
6.919800070E1,1.663340211E0,2.009239674E0,-3.128410101E0
6.924999406E1,1.712820292E0,1.563918829E0,-1.967766166E0
6.930198742E1,6.132628918E-1,2.616439581E0,-1.903014421E0
6.935398068E1,-2.107943296E-1,6.427628040E0,-1.125993848E0
6.940597410E1,1.431822300E0,2.304898500E0,-1.550545216E0
6.945796736E1,-1.357999325E0,1.984194160E0,1.720947921E-1
6.950996138E1,-3.864990234E0,-2.751843929E0,1.834869981E0
6.956195507E1,-5.084277153E0,-3.770767450E0,3.304611921E0
6.961394843E1,-4.162481308E0,-1.626019359E0,4.628967762E0
6.966594169E1,-1.821645975E0,9.829860330E-1,1.424979329E0
6.971793581E1,8.417264819E-1,-1.060358286E0,-1.188302159E0
6.976993214E1,2.800160408E0,-1.602806568E0,-2.198673248E0
6.982192580E1,4.503863811E0,-1.002326012E0,-3.376421452E0
6.987391902E1,3.965080500E0,-1.431764245E0,-4.179098129E0
6.992591242E1,3.497157812E0,9.927598834E-1,-2.069780827E0
6.997790581E1,2.767784595E0,7.829460502E-2,3.559652269E-1
7.002989900E1,1.784902453E0,-3.725239635E-1,1.518441796E0
7.008189249E1,1.293766737E0,-3.531919003E0,1.196515799E0
7.013388638E1,1.277273417E0,-3.501986504E0,1.878241420E0
7.018588010E1,-3.425426781E-2,-6.153752327E0,-1.518169284E0
7.023787346E1,-1.874180436E0,8.278262615E-1,5.848254681E0
7.028986672E1,-3.275505304E0,4.111227036E0,8.118841171E0
7.034186011E1,-1.417253137E0,4.920012474E0,4.674171925E0
7.039385347E1,-7.685142756E-1,-6.392601013E0,-3.794863939E0
7.044584673E1,3.843869269E-2,2.466777563E0,-3.423458099E0
7.049784029E1,2.101330519E0,4.014099598E0,-3.453390360E0
7.054983441E1,3.488605738E0,-2.619286299E0,-1.947607636E0
7.060182777E1,2.514886379E0,-1.751857638E0,-1.809552073E0
7.065382113E1,1.189308882E0,1.132037163E0,-8.730956316E-1
7.070581462E1,6.004347205E-1,1.014140129E0,-5.811020732E-1
7.075780894E1,4.190077484E-1,7.856765985E-1,-1.165089250E0
7.080980726E1,-1.796402037E-1,6.329602599E-1,-2.811672390E-1
7.086180399E1,-1.852800012E0,1.168078303E0,1.439640164E0
7.091379778E1,-1.761781096E0,-5.194694519E0,1.767674804E0
7.096579114E1,-2.877221107E0,-5.942680836E-1,5.773118019E0
7.101778457E1,-4.131327629E0,2.717232466E0,6.672311783E0
7.106977779E1,-2.430678606E0,3.830839872E0,3.985726595E0
7.112177105E1,3.670842052E-1,-2.525213242E0,-1.062463880E0
7.117376451E1,1.176480532E0,-3.170286894E0,-3.363593340E0
7.122575800E1,2.254046917E0,-1.622965097E0,-5.566984177E0
7.127775209E1,1.949836016E0,1.670820355E0,-4.476589680E0
7.132974545E1,1.941894770E0,1.810708404E0,-2.755782127E0
7.138173877E1,2.100108862E0,1.689757109E0,-1.996476769E0
7.143373220E1,2.004813910E0,2.026343822E0,-2.074667454E0
7.148572566E1,1.543610692E0,-1.943669319E0,-1.954937935E0
7.153771882E1,2.363590449E-1,-2.143098563E-1,-1.799778223E0
7.158971221E1,-1.180848360E0,2.401415110E0,1.775616050E0
7.164170606E1,-2.844845295E0,2.424628019E0,4.913630962E0
7.169369988E1,-5.729961872E0,2.194942713E0,5.122546673E0
7.174569324E1,-5.392153263E0,8.730302453E-1,4.718153954E0
7.179768650E1,-5.846438408E-1,-1.431764245E0,7.212626338E-1
7.184968030E1,1.813613057E0,-2.684038162E0,-2.544422865E0
7.190167652E1,2.002981424E0,-8.031839728E-1,-3.265854836E0
7.195367055E1,1.423881054E0,-7.604234219E-1,-2.310461760E0
7.200566380E1,1.121502757E0,-1.605537087E-1,-1.976929188E0
7.205765726E1,1.264445186E0,1.097217798E0,-1.601857901E0
7.210965066E1,7.549836636E-1,1.698920012E0,-2.180958271E0
7.216164395E1,-7.273877412E-2,3.489366293E0,-8.199504018E-1
7.221363721E1,-4.514752328E-1,1.764282703E0,-1.412790865E-1
7.226563106E1,-7.642382383E-1,-1.871587276E0,1.557537079E0
7.231762488E1,-5.315184116E0,-8.050165176E-1,3.363865614E0
7.236961834E1,-6.408633232E0,-1.242396116E0,5.140261650E0
7.242161177E1,-3.285889864E0,-4.378865361E-1,3.259407759E0
7.247360489E1,-9.900598228E-2,-1.026760578E0,-1.067350864E0
7.252559815E1,1.387229085E0,1.329346657E0,-1.733193994E0
7.257759158E1,3.807477236E0,-1.134272933E0,-3.010513067E0
7.262958507E1,3.323671818E0,-3.856899500E0,-3.387417078E0
7.268157863E1,2.456243515E0,1.088378578E-1,-2.182790756E0
7.273357255E1,2.269318581E0,-2.979983687E-1,-9.121910334E-1
7.278556587E1,1.890582204E0,-6.058744788E-1,1.281124949E-1
7.283755930E1,1.286436439E0,-9.290221930E-1,1.178800702E0
7.288955276E1,-1.753641367E-1,-7.425574303E0,-5.931670666E0
7.294155104E1,-2.841790915E0,3.672625780E0,3.308276892E0
7.299354856E1,-2.698848486E0,-4.629643917E0,3.719389200E0
7.304554259E1,-1.113042235E0,1.727019906E0,3.321105242E0
7.309753592E1,-3.464064002E-1,-3.787871599E0,4.292690456E-1
7.314952921E1,-8.739954233E-2,-5.508965850E-1,-5.554457307E-1
7.320152253E1,2.084226370E0,1.875460148E0,-2.000752926E0
7.325351599E1,3.459284067E0,9.396146536E-1,-2.236546993E0
7.330550918E1,3.707906246E0,-1.922899961E0,-2.489444971E0
7.335750281E1,7.030600309E-1,3.061473370E-1,-2.096047878E0
7.340949720E1,-1.073946953E0,4.190639496E0,-1.312918544E0
7.346149022E1,-1.731237888E0,2.750830173E0,-3.410319984E-1
7.351348358E1,-2.005516291E0,1.612788081E0,1.911228180E0
7.356547694E1,-2.693961382E0,-1.420768619E0,2.737118006E0
7.361747033E1,-3.027493954E0,-2.612566948E0,3.327824593E0
7.366946376E1,-2.499706268E0,-7.326003075E0,4.356521606E0
7.372145705E1,-5.192812681E-1,-7.057222366E0,9.503371119E-1
7.377345051E1,-2.395049930E-1,1.731906891E0,-4.754223526E-1
7.382544456E1,1.662729383E0,2.435623646E0,-6.018714309E-1
7.387743809E1,4.637642860E0,-1.898465276E0,-2.565192461E0
7.392943131E1,6.119602203E0,2.878213823E-1,-2.861461878E0
7.398142474E1,6.282702923E0,2.148413099E-2,-1.163867593E0
7.403342086E1,3.703630209E0,-1.393279791E0,3.999475539E-1
7.408541532E1,1.836825967E0,3.234024525E0,-4.021185338E-1
7.413740861E1,2.814821243E0,1.499778032E0,8.800876141E-1
7.418940200E1,2.049407005E0,-4.470494986E-1,4.276498318E0
7.424139530E1,-2.117915630E0,4.391614437E0,6.597785950E0
7.429338862E1,-5.370772839E0,-8.054764748E0,6.873897552E0
7.434538225E1,-1.598069310E0,-9.346135139E0,5.114605427E0
7.439737531E1,-9.981996417E-1,3.907808781E0,2.794539213E0
7.444936943E1,-8.434522152E-2,-1.451922894E0,1.054795027E0
7.450136315E1,1.632186174E0,-3.497099638E0,-6.715101600E-1
7.455335628E1,2.945546389E0,-5.686116815E-1,-2.653156996E0
7.460534967E1,4.164833546E0,-4.610994160E-1,-4.376407623E0
7.465734313E1,3.694467306E0,5.730954409E-1,-3.493707418E0
7.470933635E1,2.622398615E0,-1.831557304E-1,-2.339783192E0
7.476132975E1,7.781965137E-1,2.059330463E0,-6.556276083E-1
7.481332340E1,7.203628868E-2,1.403872252E0,-3.349233568E-1
7.486531732E1,-7.960032225E-1,2.145462751E0,4.103322327E-1
7.491731068E1,1.691638678E-1,4.345799446E0,1.023640871E0
7.496930404E1,-1.774609327E0,-9.021440744E-1,1.919169426E0
7.502129747E1,-4.130716801E0,-2.664490223E0,3.725497723E0
7.507329475E1,-3.276116133E0,-7.037064075E0,4.524509907E0
7.512529321E1,-1.137476921E0,-3.564294815E0,6.806702137E0
7.517728840E1,-7.349166870E-1,4.682996750E0,-6.064487249E-2
7.522928180E1,8.838762045E-1,9.603840113E-1,-1.485182643E0
7.528127506E1,1.775739551E0,-1.954664946E0,-4.073418617E0
7.533326838E1,1.869812727E0,8.577586412E-1,-2.645826578E0
7.538526171E1,2.044520140E0,-9.815565944E-1,-2.202949286E0
7.543725510E1,1.318201423E0,1.193734527E0,-2.204782009E0
7.548924899E1,1.323088288E0,2.326889753E0,-8.590457439E-1
7.554124274E1,7.946898937E-1,1.584688187E0,-1.411267996E0
7.559323610E1,1.616303563E0,1.788717270E0,-9.726666808E-1
7.564522943E1,2.123321772E0,1.254821062E0,-1.826045394E0
7.569722286E1,2.644588351E-1,-1.293097854E0,4.048344493E-1
7.574921605E1,-4.899185181E0,-1.180087805E0,4.887363911E0
7.580120937E1,-4.509453297E0,-3.086598158E0,6.167126656E0
7.585320277E1,-1.120372653E0,-2.800102472E0,2.158017874E0
7.590519678E1,-3.305239379E-1,-4.812579751E-1,-4.876396656E-1
7.595719041E1,1.700603008E0,1.713580847E0,-1.217012763E0
7.600916040E1,1.627299190E0,-3.658368111E0,-2.256094456E0
7.606115336E1,4.813160002E-1,-1.304093480E0,-1.310475230E0
7.611314689E1,5.546197891E-1,2.570624828E0,-5.737716556E-1
7.616514394E1,1.001162291E0,6.225755811E-1,-1.864831150E-1
7.621714210E1,2.467437387E-1,2.061163187E0,-1.881023288E0
7.626913676E1,3.426496089E-1,1.884012222E0,-1.815049767E0
7.632113002E1,2.115380526E0,3.753259897E0,-9.170779586E-1
7.637312344E1,1.068556085E-1,-2.874017000E0,-3.245386779E-1
7.642511683E1,-3.810012341E0,-2.359668732E0,4.063306332E0
7.647711006E1,-4.261441708E0,-1.593643546E0,6.530591488E0
7.652910339E1,-3.007335424E0,2.765490770E0,5.913006306E0
7.658109678E1,-8.961851001E-1,5.010420322E0,-1.488847733E0
7.663309073E1,2.255879641E0,-2.715802908E0,-1.456471920E0
7.668508446E1,2.449523926E0,-1.268052340E0,-3.081373453E0
7.673707785E1,2.128208637E0,4.405376911E-1,-1.712424397E0
7.678907127E1,1.511845708E0,-6.718478799E-1,-1.096061349E0
7.684106440E1,9.284693599E-1,9.023517966E-1,-3.434754610E-1
7.689305782E1,8.563872576E-1,1.438691497E0,-3.758513629E-1
7.694505115E1,4.684878290E-1,-1.183142066E0,3.266437054E-1
7.699704438E1,-4.319275618E-1,-1.762853265E0,1.297308564E0
7.704903863E1,-3.225826621E-1,-3.987624407E0,5.205013752E0
7.710103215E1,-4.301758766E0,3.061473370E-1,6.005857944E0
7.715302545E1,-1.606010556E0,1.078281045E0,5.817100525E0
7.720501887E1,8.506298065E-3,3.300608873E0,-1.499843359E0
7.725701439E1,1.952890396E0,-2.863919735E-1,-1.924394727E0
7.730900949E1,2.266264200E0,-1.817831159E0,-1.692265987E0
7.736100298E1,3.388423681E0,-2.525213242E0,-2.510214567E0
7.741299624E1,2.037800550E0,-2.279645205E0,-1.778397918E0
7.746498946E1,1.033538222E0,5.077328682E-1,-1.381335616E0
7.751698296E1,6.877884269E-1,1.142421842E0,-8.101764917E-1
7.756897618E1,4.027128965E-2,1.636611819E0,-8.162851334E-1
7.762096948E1,-6.970430017E-1,5.187284350E-1,3.339740932E-1
7.767296366E1,-1.183902740E0,-8.361706734E-1,-2.188288689E0
7.772495719E1,-3.704332829E0,-7.023911476E-1,1.864802361E0
7.777695051E1,-4.707984447E0,-8.911485672E-1,4.557496548E0
7.782894377E1,-4.722644806E0,6.538194180E0,5.671714306E0
7.788093716E1,-1.571191311E0,-2.090888023E0,9.112417698E-1
7.793293046E1,8.893739581E-1,-1.172757387E0,-1.064907312E0
7.798492395E1,2.886292458E0,-2.821159065E-1,-1.670274734E0
7.803691757E1,4.530741692E0,-2.814152241E0,-3.392914772E0
7.808891152E1,3.927206755E0,-1.164205313E0,-2.973250151E0
7.814090505E1,3.646208763E0,5.324912444E-2,-1.956770658E0
7.819289841E1,2.817264557E0,-1.782688051E-1,-9.409016967E-1
7.824489150E1,2.304137945E0,-2.369118631E-1,-7.985700965E-1
7.829688772E1,2.288866282E0,-3.940587997E0,-1.499232531E0
7.834888618E1,1.454424262E0,-1.939393282E0,-4.680919945E-1
7.840088234E1,2.500225544E0,-6.141535282E0,-1.703261495E0
7.845287600E1,-3.973724127E0,5.012253284E0,4.620415688E0
7.850486922E1,-5.075114250E0,2.265192032E0,7.773701668E0
7.855686258E1,-5.995687962E0,9.838088989E0,6.905051708E0
7.860885594E1,-1.816758990E0,2.408134460E0,-1.351704299E-1
7.866084920E1,5.986021161E-1,-3.892329693E0,-2.633609295E0
7.871284296E1,2.137371540E0,-2.489172220E0,-4.097853661E0
7.876483698E1,1.500239253E0,-1.389003634E0,-2.871846676E0
7.881683021E1,1.509402275E0,9.646601081E-1,-2.277474880E0
7.886882373E1,2.296196461E0,5.132306814E-1,-1.463802338E0
7.892081702E1,1.719539762E0,-2.363010049E-1,-1.784506559E0
7.897281025E1,6.755711436E-1,1.755119801E0,-2.416141272E0
7.902480358E1,-1.564273238E-1,-4.940861464E-1,-2.574966192E0
7.907679687E1,-1.018969059E0,3.913917542E0,-1.988535523E0
7.912879086E1,-5.547114611E-1,-1.469637990E0,-8.028461337E-1
7.918078458E1,-4.056190968E0,1.127761126E0,5.112162113E0
7.923277790E1,-5.708581448E0,1.729787141E-1,7.074872017E0
7.928477126E1,-4.549769878E0,1.707472205E0,6.498826027E0
7.933676452E1,1.380097419E-1,-1.654730082E0,-1.192578077E0
7.938876058E1,6.291453838E-1,1.560253620E0,-3.491264105E0
7.944075933E1,1.995651007E0,2.548346519E-1,-3.800972700E0
7.949275456E1,1.400668263E0,-1.762853265E0,-2.532816410E0
7.954474788E1,1.555827975E0,-8.724988252E-2,-1.413711429E0
7.959674128E1,2.997469902E0,-8.373923898E-1,-2.048090696E-1
7.964873464E1,2.495949507E0,-1.458929479E-1,-1.389887691E0
7.970072793E1,1.647457719E0,7.551332712E-1,-1.478463173E0
7.975272125E1,1.379898787E0,-9.540677071E-1,-1.397828817E0
7.980471465E1,1.308427453E0,-5.417336226E-1,-5.652195215E-1
7.985670870E1,-1.938932180E0,-2.189848185E0,3.101193666E0
7.990870229E1,-4.572371960E0,-3.775043488E0,7.883657932E0
7.996069558E1,-3.611481190E0,3.245630741E0,8.688777924E0
8.001268891E1,-1.673816562E0,3.566335201E0,8.697028756E-1
8.006468233E1,5.026962757E-1,-3.186169147E0,-3.168116570E0
8.011667569E1,1.695105195E0,6.989337206E-1,-2.841303349E0
8.016866895E1,2.444026232E0,-2.655938148E0,-2.229216576E0
8.022066228E1,1.968772769E0,-8.215098977E-1,-1.650116205E0
8.027265650E1,1.086683512E0,-4.995839298E-1,-1.096672416E0
8.032465009E1,8.117940426E-1,1.039185643E0,-6.867817640E-1
8.037664335E1,1.136774421E0,-9.213680029E-2,-1.461969733E0
8.042863657E1,2.094611168E0,-3.884999037E0,-5.505897522E0
8.048063160E1,-9.208793752E-3,6.499710083E0,-1.084455132E0
8.053262749E1,-3.366524220E0,-3.981803060E-1,2.555691004E0
8.058462062E1,-4.255332947E0,-9.253569841E-1,6.671090126E0
8.063661411E1,-2.929144859E0,5.559912324E-1,5.205624580E0
8.068860737E1,-1.269423842E0,-1.684662461E0,3.736803234E-1
8.074060062E1,2.522415221E-1,2.135077953E0,-1.988535523E0
8.079259399E1,8.979260921E-1,6.732773185E-1,-3.311058760E0
8.084458738E1,2.137982368E0,-1.266830683E0,-3.978734732E0
8.089658180E1,1.648068547E0,2.951517701E-1,-2.389873981E0
8.094857509E1,1.252227902E0,5.633215904E-1,-1.981816053E0
8.100056851E1,8.533329368E-1,7.642962933E-1,-1.555432081E0
8.105256174E1,1.813811660E-1,2.253585577E0,-1.493123889E0
8.110455503E1,-1.165225450E-2,2.042226315E0,-9.451777339E-1
8.115654836E1,2.943912446E-1,-3.387754917E0,-5.287208080E0
8.120854182E1,-3.455710411E0,-2.748178959E0,2.740783215E0
8.126053521E1,-4.424542904E0,-5.292432785E0,6.636271000E0
8.131252956E1,-1.927936554E0,4.024484158E0,3.897151232E0
8.136452275E1,-1.292636752E0,-1.495581418E-1,2.692223489E-1
8.141651605E1,-6.011372209E-1,1.558744758E-1,4.408755004E-1
8.146850974E1,9.235824347E-1,-7.616451383E-1,-4.851962328E-1
8.152050446E1,3.167901278E0,-1.323641062E0,-1.581088543E0
8.157250328E1,2.679209232E0,-4.307106972E0,-5.743825436E-1
8.162449954E1,2.930885792E0,-2.761007071E0,-8.639326692E-1
8.167649296E1,3.850848675E0,-2.983972788E0,-6.079801321E-1
8.172848609E1,4.407958031E0,-3.884388208E0,-8.651544452E-1
8.178047938E1,1.715263844E0,3.941119313E-1,-1.046581388E0
8.183247271E1,-1.539838612E-1,-1.720703483E0,-3.341602087E0
8.188446613E1,-1.679314375E0,6.943198204E0,1.182465911E0
8.193645943E1,-3.073919773E0,2.904767990E0,4.396227837E0
8.198845308E1,-3.240685940E0,8.760845661E-1,5.068790436E0
8.204044700E1,-2.434343815E0,-8.175209910E-2,4.225796223E0
8.209244029E1,-1.076390386E0,-2.014529705E0,-5.621652007E-1
8.214443379E1,2.632370889E-1,3.714775324E0,-2.351389647E0
8.219642711E1,2.288255453E0,1.541316867E0,-2.838860035E0
8.224842037E1,3.337110996E0,-1.091512322E0,-2.629944086E0
8.230041376E1,2.277870655E0,-8.245642185E-1,-1.762515426E0
8.235240706E1,1.894858122E0,8.956323266E-1,-6.611254215E-1
8.240440091E1,9.736734033E-1,-1.272939324E0,-5.029113293E-1
8.245639487E1,-7.000974417E-1,3.586817384E-1,-6.971664429E-1
8.250838819E1,-9.456652403E-1,1.871794939E0,-1.163256645E0
8.256038132E1,-1.128924847E0,4.443537712E0,-9.427342415E-1
8.261237581E1,-3.382406712E0,-2.559421539E0,4.304598331E0
8.266437190E1,-3.634694099E0,-3.285129309E0,5.308860779E0
8.271636539E1,-1.583408594E0,-9.576430321E0,5.128044605E0
8.276835875E1,4.196186364E-1,-5.456144333E0,-1.021837071E-1
8.282035221E1,1.891193032E0,3.108186245E0,-8.340002298E-1
8.287234537E1,4.454383850E0,-1.454977155E0,-3.376421452E0
8.292433880E1,4.959569454E0,2.387365341E0,-4.968336582E0
8.297633209E1,3.746390581E0,3.006782532E0,-4.414892673E0
8.302832591E1,1.343246818E0,2.204105616E0,-2.702026129E0
8.308032007E1,7.409337163E-1,2.921261549E0,-2.257316351E0
8.313231339E1,-8.974068761E-1,-2.307134390E0,-1.971689798E-2
8.318430645E1,-3.448380232E0,2.759278379E-2,2.728565931E0
8.323630209E1,-3.401343584E0,-2.638223171E0,5.148202896E0
8.328829548E1,-3.284668207E0,-4.884985447E0,6.010133743E0
8.334028874E1,-9.474977851E-1,-1.095393181E1,6.035789967E0
8.339228217E1,1.885084391E0,-1.430880356E1,9.967628717E-1
8.344427606E1,-4.465883076E-1,-7.145797729E0,-1.105224490E0
8.349626978E1,-1.396483779E0,7.144783497E0,-5.462827086E-1
8.354826324E1,1.094624758E0,4.056859970E0,-1.703872442E0
8.360025646E1,3.031678438E0,2.351324320E0,-2.127201796E0
8.365225082E1,3.972410917E0,4.150322437E0,-1.874303818E0
8.370424964E1,3.228376865E0,2.365984917E0,-2.959200382E0
8.375624660E1,2.161195278E0,4.419713974E0,-1.837651849E0
8.380824093E1,3.133280575E-1,1.116154671E0,-4.393813312E-1
8.386023425E1,-1.601734519E0,9.909272194E-1,2.287521124E0
8.391222748E1,-1.763002872E0,-5.875484943E-1,6.458250433E-2
8.396422081E1,-3.188762426E0,6.897706985E-1,2.144578695E0
8.401621416E1,-3.634694099E0,-6.085335732E0,4.862929344E0
8.406820762E1,-2.649979353E0,-5.456755161E0,2.209941149E0
8.412020177E1,-1.744066000E0,2.810083866E0,9.393415451E-1
8.417219520E1,-9.108458757E-1,-1.185585618E0,-2.707825005E-1
8.422418852E1,1.783680677E0,-8.072480202E0,3.187024593E-1
8.427618182E1,4.776309490E0,-6.969257832E0,-7.558094859E-1
8.432817521E1,6.204512596E0,-4.563670635E0,-3.121690750E0
8.438016864E1,4.815404892E0,-6.852869987E-1,-3.495540142E0
8.443216190E1,3.145299435E0,7.563550472E-1,-2.219442606E0
8.448415555E1,1.860649824E0,-8.984789252E-1,-5.285676122E-1
8.453614954E1,1.395170450E0,-2.426252842E0,8.474105597E-2
8.458814286E1,1.220462918E0,-5.181969702E-2,1.873664260E-1
8.464013626E1,1.203969598E0,9.787099361E-1,9.161286354E-1
8.469212952E1,-4.270406067E-1,-2.986092567E-1,3.646696329E0
8.474412384E1,1.168539405E0,3.744707823E0,5.517165661E0
8.479612246E1,-3.266342402E0,5.548592567E0,3.793914795E0
8.484811922E1,-3.668902636E0,3.910576105E-1,1.574641347E0
8.490011281E1,-2.948081493E0,2.692797899E0,2.384648800E0
8.495210617E1,-2.697626591E0,-1.425044775E0,-9.943053126E-3
8.500409960E1,-1.240713120E0,8.052242398E-1,-1.798556566E0
8.505609292E1,7.806399465E-1,-7.442171127E-2,-4.270117283E0
8.510808618E1,1.561325788E0,5.010133386E-1,-2.862072945E0
8.516007961E1,2.624841928E0,1.320794582E0,-2.802207947E0
8.521207369E1,1.575986624E0,5.340000391E-1,-7.723028660E-1
8.526406722E1,-3.848909438E-1,-1.858148217E0,-2.220053434E0
8.531606058E1,-6.390108466E-1,1.113556671E1,2.334557772E0
8.536805387E1,-3.323152781E0,-4.210590363E0,1.953377843E0
8.542004723E1,-1.780717969E0,-6.049905777E0,2.965581656E0
8.547204072E1,-2.393415689E0,4.306092739E0,4.071247578E0
8.552403398E1,3.233004361E-2,2.255418301E0,-1.988535523E0
8.557602724E1,-9.595166147E-2,1.440524101E0,-1.854756117E0
8.562802112E1,-4.952589795E-2,1.326616108E-1,-2.584739923E0
8.568001491E1,1.303540707E0,1.706250429E0,-3.380697489E0
8.573200824E1,3.676752090E0,-2.494162694E-2,-3.376421452E0
8.578400160E1,3.003578663E0,-1.450090170E0,-1.695320368E0
8.583599546E1,1.117837548E0,1.476565242E0,-7.252662182E-1
8.588799175E1,-2.274297237E0,2.059941292E0,5.306726694E-1
8.593998554E1,-2.814912796E0,4.813111305E0,3.093863249E0
8.599197893E1,4.917007089E-1,-4.789079666E0,3.920062780E-1
8.604397229E1,-1.588295460E0,-7.915775180E-1,1.076175332E0
8.609596562E1,-2.340881348E0,-4.533126831E0,1.798828959E0
8.614795901E1,-2.782537222E0,-4.006237388E-1,3.595994473E0
8.619995223E1,-1.996964335E0,1.798491120E0,2.486052275E0
8.625194652E1,-1.098992467E0,-1.177931428E-1,5.465551615E-1
8.630393994E1,-2.779895067E-1,-1.379229903E0,-9.402908087E-1
8.635593324E1,1.822776079E0,-6.614632010E-1,-2.938431263E0
8.640792666E1,3.980962992E0,7.585113496E-2,-4.104572773E0
8.645991992E1,4.402460098E0,-4.995839298E-1,-3.034947872E0
8.651191328E1,2.401876211E0,1.049570322E0,-2.602455139E0
8.656390671E1,-4.820185006E-1,3.588326454E0,-1.867584229E0
8.661590000E1,-1.902891159E0,3.668349504E0,-5.090199709E-1
8.666789399E1,-1.029964566E0,4.023873329E0,5.581616163E-1
8.671988764E1,1.246730089E0,-5.850763798E0,-2.133310556E0
8.677188094E1,-2.202826023E0,1.728241563E0,2.037066460E0
8.682387436E1,-3.420891047E0,-5.856261253E0,5.274041653E0
8.687586792E1,-1.725740075E0,-5.238065243E0,3.969844103E0
8.692786624E1,-4.197102487E-1,-1.476968288E0,3.529108763E-1
8.697986363E1,-1.578521609E0,3.739820719E0,-6.617362499E-1
8.703185765E1,-3.439629376E-1,2.389808655E0,-2.702636957E0
8.708385138E1,1.841712832E0,2.351935148E0,-2.568246603E0
8.713584427E1,3.934537172E0,1.265529543E-1,-1.820547581E0
8.718783773E1,2.959596157E0,-1.625408530E0,-6.244735122E-1
8.723983113E1,2.450745583E0,-3.217934370E0,1.174524665E0
8.729182438E1,1.918071032E0,-2.924108267E0,1.989418983E0
8.734381784E1,1.231458545E0,-1.319365144E0,1.876761205E-2
8.739581190E1,1.678000927E0,-4.022443771E0,-4.008056164E0
8.744780545E1,-3.323565125E-1,2.424628019E0,-1.457082748E0
8.749979888E1,-1.675038338E0,-2.277488858E-1,3.357146263E0
8.755179221E1,-2.675635576E0,-1.998036385E0,6.676588058E0
8.760378530E1,-1.759337783E0,1.705639601E0,8.944120407E0
8.765577879E1,-7.184233665E-1,8.485956192E-1,5.393160343E0
8.770777195E1,-3.201391995E-1,-1.598530531E0,-1.333077192E0
8.775976584E1,-2.480570972E-1,2.799699306E0,-3.034336805E0
8.781175976E1,1.574764729E0,2.259694338E0,-4.540730476E0
8.786375305E1,9.455736279E-1,7.655180097E-1,-3.676967144E0
8.791574631E1,9.651212692E-1,2.312839508E0,-2.408200026E0
8.796773987E1,9.461844563E-1,7.462941110E-2,-1.794891357E0
8.801973613E1,5.234656930E-1,1.882179737E0,-1.700817943E0
8.807173035E1,3.157715201E-1,1.608512044E0,-2.323900700E0
8.812372371E1,-4.172667861E-1,3.428279638E0,-2.964698315E0
8.817571727E1,-2.324388266E0,4.465528965E0,-2.289081335E0
8.822771050E1,-4.481352806E0,2.642706871E0,3.288118362E0
8.827970376E1,-4.254111290E0,-3.533140659E0,2.637546778E0
8.833169712E1,-3.513742685E0,-2.534052134E-1,4.097514629E0
8.838369047E1,-2.058661699E0,-1.428099155E0,2.032790184E0
8.843568472E1,5.039179921E-1,-1.402442694E0,-1.182804346E0
8.848767812E1,1.998094320E0,-1.665114880E0,-2.879177094E0
8.853967131E1,2.651720285E0,-1.670001745E0,-3.272574186E0
8.859166470E1,1.600421190E0,-1.517285347E0,-2.226162195E0
8.864365823E1,1.216797709E0,-2.674551308E-1,-8.498827219E-1
8.869565149E1,1.967551112E0,-5.680008531E-1,5.917592049E-1
8.874764478E1,3.356658697E0,-3.767712831E0,1.673601508E0
8.879963847E1,2.210064650E0,-7.690689564E0,9.619435668E-1
8.885163242E1,-1.484860629E-1,3.665906191E0,1.495839715E0
8.890362585E1,-2.430678606E0,3.684555888E-1,3.768258572E0
8.895561908E1,-9.865931869E-1,-5.013877869E0,5.875743866E0
8.900761257E1,-1.219332933E0,4.475913525E0,6.807312965E0
8.905961005E1,-7.642382383E-1,1.474121690E0,1.456744432E0
8.911160804E1,-5.773134828E-1,-1.206965804E0,-1.757017732E0
8.916360250E1,5.026962757E-1,8.461522460E-1,-3.034336805E0
8.921559580E1,1.777572036E0,7.966721058E-1,-4.934127808E0
8.926758912E1,2.294363976E0,6.799969077E-1,-3.783257484E0
8.931958248E1,2.167915106E0,-1.782688051E-1,-3.124744892E0
8.937157577E1,1.428767920E0,7.105401158E-1,-1.631179452E0
8.942356917E1,1.470306873E0,8.870801926E-1,-4.473225772E-1
8.947556243E1,1.142272234E0,9.539882839E-2,1.029138684E0
8.952755648E1,8.918174505E-1,-3.640042305E0,-1.371561646E0
8.957955020E1,-8.082205057E-1,2.959135056E0,2.695579052E0
8.963154346E1,-2.830184460E0,-2.159304619E0,5.200126648E0
8.968353679E1,-2.939529181E0,8.589804173E-1,8.856155396E0
8.973553038E1,-2.164952040E0,3.645136833E0,4.726095200E0
8.978752340E1,-6.585585475E-1,-1.423212171E0,-1.509617209E0
8.983951696E1,2.705674767E-1,1.026357412E0,-2.127201796E0
8.989151022E1,1.142883062E0,4.136596024E-1,-3.584726572E0
8.994350408E1,1.210689068E0,1.796982288E-1,-3.589613199E0
8.999549777E1,1.473361254E0,2.267024755E0,-2.892005444E0
9.004749109E1,2.178299665E0,2.065762877E-1,-1.763737202E0
9.009948462E1,2.514886379E0,3.018712699E-1,-8.535479903E-1
9.015148051E1,2.253436089E0,4.747461677E-1,7.435635477E-2
9.020347517E1,7.268838286E-1,2.395630181E-1,6.442936659E-1
9.025546853E1,-3.311347663E-1,4.478680789E-1,-1.312307715E0
9.030746182E1,-1.982914448E0,2.373926163E0,2.882503986E0
9.035945518E1,-4.669499397E0,-1.625408530E0,4.358354568E0
9.041144864E1,-5.017693043E0,9.493884444E-1,6.515930176E0
9.046344186E1,-1.486281037E0,-4.425614834E0,1.562424064E0
9.051539332E1,-8.088313937E-1,-1.881361127E0,-2.338561296E0
9.056738724E1,5.992130041E-1,5.210173130E0,-2.742954016E0
9.061938089E1,3.761051416E0,1.218780041E0,-4.036156178E0
9.067137422E1,4.680403709E0,-1.078073382E0,-2.003196239E0
9.072336754E1,4.099470615E0,-7.054454684E-1,-2.340394020E0
9.077536094E1,2.800160408E0,1.006198883E0,-9.751101732E-1
9.082735426E1,1.582095265E0,-8.942028880E-1,-9.912937880E-2
9.087934759E1,5.460677147E-1,1.449687123E0,-1.380113721E0
9.093134111E1,1.264032871E-1,2.364152431E0,-3.077708244E0
9.098333526E1,-1.968253613E0,4.661616802E0,-2.475696355E-1
9.103532862E1,-4.111779690E0,-4.361474037E0,2.469559193E0
9.108732198E1,-5.124594212E0,-3.267090321E-1,4.875757217E0
9.113931518E1,-4.227844238E0,-2.836754322E0,4.448151588E0
9.119131190E1,-1.512548208E0,-7.432904243E0,3.015672684E0
9.124331022E1,6.993948817E-1,-2.417700768E0,3.858976066E-1
9.129530628E1,2.915003061E0,-1.244839430E0,-4.485443234E-1
9.134729964E1,4.547845840E0,-1.367299706E-1,-1.499232531E0
9.139929290E1,3.902161360E0,-1.293995827E-1,-8.248372674E-1
9.145128629E1,2.767784595E0,-1.180698752E0,-1.767092645E-1
9.150327979E1,1.417161465E0,-9.030420333E-2,5.581616163E-1
9.155527305E1,6.480821967E-1,-5.093577504E-1,1.977511346E-1
9.160726677E1,-1.692554951E-1,2.389197826E0,8.904722929E-1
9.165926079E1,-3.775605559E-1,2.635987282E0,1.443305373E0
9.171125395E1,-9.181762934E-1,-4.283283234E0,4.790846825E0
9.176324731E1,-1.868682623E0,-2.994357586E0,5.613071442E0
9.181524060E1,-9.595166147E-2,-1.283784008E1,2.758498192E0
9.186723399E1,1.178313255E0,-1.557602525E0,-2.354443789E0
9.191922728E1,6.609104276E-1,9.967488050E-2,-6.519623995E-1
9.197122068E1,1.528339028E0,-3.624159575E0,-1.146763325E0
9.202321433E1,1.398835540E0,1.438691497E0,-1.310475230E0
9.207520832E1,1.804450035E0,1.781386852E0,-8.822585940E-1
9.212720168E1,1.933953524E0,-6.403700262E-2,-1.999221444E-1
9.217919507E1,1.194195628E0,-2.124772668E-1,7.191288471E-2
9.223118833E1,2.080561161E0,7.004895687E0,2.918545008E0
9.228318475E1,-2.219319344E0,-2.795826435E0,4.123171329E0
9.233518327E1,-2.981678963E0,-4.501362324E0,3.691900492E0
9.238717827E1,-2.116082907E0,1.253312230E-1,4.363241196E0
9.243917173E1,-1.183902740E0,3.605430365E0,1.393825293E0
9.249116499E1,5.381264687E-1,-1.820885539E0,-2.067948103E0
9.254315831E1,1.686553121E0,-7.512603998E-1,-3.143070698E0
9.259515180E1,2.098887205E0,6.512861848E-1,-3.408797264E0
9.264714503E1,2.051239729E0,5.187284350E-1,-2.359941721E0
9.269913836E1,2.356672287E0,1.081946135E0,-6.379125118E-1
9.275113228E1,2.993193865E0,7.942286134E-1,-1.321470737E0
9.280312600E1,3.467836142E0,-4.592668116E-1,-8.614891768E-1
9.285511939E1,2.988917828E0,-9.278004766E-1,2.124118954E-1
9.290711275E1,2.315133572E0,-1.324862957E0,4.688221455E0
9.295910608E1,-4.610856533E0,-7.311018705E-1,5.066347122E0
9.301109937E1,-7.065313339E0,2.565126896E0,7.008287430E0
9.306309263E1,-4.943778515E0,2.273744345E0,7.061433315E0
9.311508609E1,-5.571548939E-1,-3.117141485E0,2.888612509E0
9.316708004E1,1.208245635E0,-5.030371666E0,-4.749035835E0
9.321907373E1,2.044520140E0,3.267621994E0,-3.906652451E0
9.327106709E1,2.284590006E0,-1.027371407E0,-4.110681534E0
9.332306032E1,7.678118348E-1,1.555366874E0,-2.907276869E0
9.337505560E1,-1.008385792E-1,2.698906422E0,-2.338561296E0
9.342705110E1,4.080121815E-1,6.033008575E0,-5.120742917E-1
9.347904436E1,1.355662644E-1,-1.969936490E0,-1.544084027E-2
9.353103785E1,1.641349077E0,-5.531280994E0,-5.405715942E0
9.358303107E1,-2.864392996E0,1.902949095E0,2.299738407E0
9.363502463E1,-4.097730160E0,-5.800061703E0,5.163474560E0
9.368701779E1,-1.346392870E0,-3.404247999E0,7.463993073E0
9.373901105E1,-6.029697657E-1,2.709902048E0,-9.311278462E-1
9.379100510E1,4.764290750E-1,2.206549168E0,-2.550531387E0
9.384299876E1,2.021918058E0,-1.440603435E-1,-2.940874577E0
9.389499209E1,3.330391645E0,-8.019621968E-1,-4.587156296E0
9.394698544E1,2.101941347E0,-1.414049149E0,-2.681867599E0
9.399897897E1,1.626688361E0,3.421883881E-1,-2.018467903E0
9.405097213E1,8.246222734E-1,1.448465347E0,-1.476630449E0
9.410296546E1,9.144194126E-1,3.205924511E0,-5.444501638E-1
9.415495872E1,1.168539405E0,1.304911971E0,-1.925917715E-1
9.420695293E1,2.098887205E0,-3.624159575E0,-4.803402901E0
9.425894642E1,-2.040335655E0,3.583439350E0,2.038288116E0
9.431093975E1,-3.997548103E0,-6.955818653E0,6.319231987E0
9.436293321E1,-4.222957134E0,2.805807829E0,7.861666679E0
9.441492857E1,-3.542453289E0,6.955415726E0,3.280177355E0
9.446692719E1,-8.350986242E-1,-2.833376229E-1,-8.468284011E-1
9.451892388E1,8.893739581E-1,-2.772002697E0,-1.889575481E0
9.457091747E1,2.987695932E0,-1.545996070E0,-2.996463060E0
9.462291077E1,3.300458908E0,-3.546579838E0,-4.193148613E0
9.467490416E1,2.935161591E0,6.971010566E-1,-3.293343782E0
9.472689755E1,2.494117022E0,2.200153321E-1,-2.125980139E0
9.477889084E1,2.272983551E0,9.958142042E-1,-1.047803044E0
9.483088444E1,2.415926218E0,-4.794253707E-1,-1.454639435E0
9.488287859E1,1.450148344E0,-9.571220279E-1,-7.698594332E-1
9.493487181E1,1.230847597E0,1.311631441E0,-2.877955437E0
9.498686521E1,-1.214445949E0,2.392759174E-2,1.526993871E0
9.503885873E1,-4.596806526E0,-2.110435486E0,5.622234344E0
9.509085183E1,-4.105670929E0,-1.535000443E0,7.284399033E0
9.514284515E1,-1.866239190E0,6.109367371E0,3.236805677E0
9.519483854E1,-8.312349021E-2,1.741680622E0,-3.160175085E0
9.524683230E1,2.177077770E0,-1.734142542E0,-1.909123063E0
9.529882625E1,2.493506193E0,-3.096372128E0,-1.759461045E0
9.535081955E1,2.074452639E0,-1.338301897E0,-1.196243405E0
9.540281277E1,1.944949150E0,2.481151372E-1,-7.197684646E-1
9.545480623E1,2.097665548E0,-1.139770746E0,-4.289966226E-1
9.550680139E1,1.509402275E0,1.277746856E-1,-1.468689203E0
9.555880034E1,-6.225175261E-1,1.392265797E0,-2.445152998E-1
9.561079623E1,-1.920606256E0,-3.659589767E0,-5.053246498E0
9.566278969E1,-1.982303619E0,1.804599762E0,3.161669254E0
9.571478288E1,-4.236396313E0,2.756040692E-1,5.584361076E0
9.576677621E1,-3.789242983E0,-2.357836008E0,6.688194275E0
9.581876950E1,-2.356153011E0,2.600557089E0,4.831163883E0
9.587076306E1,-5.131726265E-1,2.176005840E0,-1.687379003E0
9.592275642E1,7.354359031E-1,1.801545382E0,-3.168116570E0
9.597475021E1,2.175245285E0,-1.183753014E0,-4.720935822E0
9.602674390E1,1.709155202E0,-8.868724704E-1,-3.100310326E0
9.607873719E1,1.056140184E0,1.232829928E0,-1.867584229E0
9.613073058E1,1.175258875E0,1.724576473E0,-6.727318764E-1
9.618272381E1,1.728702903E0,8.321022987E-1,-6.125573441E-2
9.623471723E1,1.496573925E0,-4.885883629E-1,8.168672770E-2
9.628671063E1,-8.693070412E-1,-1.620521665E0,1.286923885E0
9.633870385E1,-1.615173578E0,-1.988873363E0,1.061213464E-1
9.639069814E1,-4.820383072E0,-1.574706793E0,4.497020721E0
9.644269173E1,-4.171033859E0,-1.002326012E0,7.229420662E0
9.649468486E1,-1.548589230E0,9.518319368E-1,2.650985956E0
9.654667835E1,-4.117689729E-1,-2.851702273E-1,-1.466856718E0
9.659867280E1,9.748951197E-1,1.089276552E0,-2.168740749E0
9.665066886E1,2.723802328E0,-1.117883483E-3,-2.500440598E0
9.670266229E1,3.329780579E0,-1.844098330E0,-2.072834969E0
9.675465561E1,2.355450630E0,-3.034961820E-1,-1.453417659E0
9.680664897E1,-7.987063378E-3,1.970144272E0,-1.683713913E0
9.685864230E1,-6.634454727E-1,4.871754169E0,-1.153482795E0
9.691063582E1,-5.748699903E-1,3.559004784E0,-1.119575500E-1
9.696262908E1,8.105723858E-1,-3.193499804E0,-2.643993855E0
9.701462317E1,-2.608440399E0,2.064828396E0,1.245995879E0
9.706661676E1,-3.457543135E0,-9.179368019E0,3.798190832E0
9.711861008E1,-3.251070499E0,3.232802629E0,6.864734173E0
9.717060321E1,-2.271853685E0,4.954832077E0,1.740796804E0
9.722259664E1,-1.197754070E-1,-3.855677605E0,-2.622303963E-1
9.727458996E1,1.596755981E0,-2.791550398E0,-2.207225323E0
9.732658339E1,2.805047274E0,-6.828435063E-1,-3.988508224E0
9.737857698E1,2.989528894E0,-4.287235439E-1,-4.944512844E0
9.743057093E1,2.325518131E0,9.417709708E-2,-2.735623837E0
9.748256419E1,1.590647340E0,1.342174768E0,-2.232270718E0
9.753455768E1,7.769747972E-1,2.328722239E0,-7.191575766E-1
9.758655094E1,4.159534276E-1,1.549258113E0,7.817382812E-1
9.763854563E1,2.950021029E-1,-1.718870997E0,-7.161032557E-1
9.769054425E1,-6.567259431E-1,-4.482712448E-1,-3.593579829E-1
9.774254078E1,-3.474647284E0,-5.203533173E-1,4.056586742E0
9.779453430E1,-2.584005833E0,-3.484271526E0,6.596564293E0
9.784651503E1,-2.000629425E0,1.174186945E0,2.425576687E0
9.789850828E1,-5.986937284E-1,9.884838462E-1,1.250581592E-1
9.795050154E1,-2.749351859E-1,8.614238501E-1,-2.552975178E0
9.800249494E1,8.551655412E-1,6.482318640E-1,-2.319624424E0
9.805448830E1,2.749458790E0,1.018416166E0,-1.379502892E0
9.810648175E1,2.520384312E0,-4.121403694E0,-7.209901810E-1
9.815847594E1,2.423256636E0,-1.886858940E0,1.415515244E-1
9.821046933E1,1.182589412E0,3.715099096E-1,7.298147678E-1
9.826246259E1,5.662262440E-1,7.239791751E-1,3.034308255E-1
9.831445602E1,-1.503186673E-1,-1.623863131E-1,-3.654666245E-1
9.836644931E1,1.538723707E0,-1.963217020E0,-3.703234434E0
9.841844260E1,-2.617603302E0,3.946293116E0,1.924667239E0
9.847043609E1,-4.125829697E0,-2.297360420E0,5.493952751E0
9.852242998E1,-3.661571980E0,2.535194635E0,6.274027824E0
9.857442357E1,-8.552571535E-1,-2.136702776E0,1.223393917E0
9.862641700E1,-2.065182626E-1,-4.574342370E-1,-2.195618868E0
9.867841025E1,1.337749004E0,2.822301388E0,-3.394747257E0
9.873040428E1,2.474569321E0,1.254210234E0,-4.087468624E0
9.878240063E1,2.540542841E0,-1.873419762E0,-1.990368128E0
9.883439433E1,1.850875854E0,-3.557575464E0,-2.013581038E0
9.888638769E1,8.722697496E-1,1.028800845E0,-1.724332124E-1
9.893838098E1,1.766927727E-2,2.138743162E0,2.027903557E0
9.899037437E1,8.478351235E-1,7.380290627E-1,-9.036388993E-1
9.904236766E1,-2.403189659E0,-8.053036779E-2,1.997970939E0
9.909436106E1,-2.025063992E0,-3.045059443E0,2.057835579E0
9.914635471E1,-2.016511917E0,-1.544774413E0,4.263670444E0
9.919834870E1,-7.801207304E-1,-4.471429825E0,9.711065292E-1
9.925034203E1,-8.821352720E-1,-2.179463387E0,7.130202651E-2
9.930233535E1,-1.011027813E0,2.899270296E0,-3.556927741E-1
9.935432861E1,9.584017396E-1,4.315255642E0,-1.700207114E0
9.940632210E1,4.296169281E0,-1.208474711E-1,-2.207225323E0
9.945831543E1,5.792788982E0,-6.523002386E-1,-1.734415650E0
9.951030869E1,4.867328644E0,-1.320586801E0,1.632415131E-2
9.956230254E1,3.863065958E0,-3.450350165E-1,1.717583895E0
9.961429636E1,3.057334661E0,-1.707875371E0,3.459771395E0
9.966628972E1,2.091556787E0,-5.342523575E0,3.195877790E0
9.971828312E1,-1.395872951E0,3.037325859E0,1.763398767E0
9.977027690E1,-3.326206923E0,1.919442534E0,3.034609318E0
9.982227543E1,-1.962755919E0,-8.314382553E0,4.107899189E0
9.987427258E1,-1.474063635E0,-3.043837547E0,4.259394169E0
9.992626638E1,-7.660708427E-1,4.875743091E-1,-1.589941680E-1
9.997825970E1,-4.215428531E-1,9.347276688E-1,-1.243890882E0
1.000302530E2,6.780145764E-1,1.973809481E0,-3.990642130E-1
1.000822465E2,3.797703266E0,1.416089535E0,-2.109486818E0
1.001342397E2,7.022460938E0,-8.746551871E-1,-1.813217282E0
1.001862330E2,8.224643707E0,-3.155015230E0,-4.943591952E-1
1.002382264E2,5.980936050E0,-3.863618851E0,1.705977440E0
1.002902204E2,3.107425690E0,-4.704780102E0,2.862345219E0
1.003422140E2,1.117425263E-1,3.421883881E-1,3.226420879E0
1.003942074E2,-2.517222762E-1,3.039769173E0,3.112800121E0
1.004462007E2,-2.381809235E0,9.396146536E-1,3.173886776E0
1.004981940E2,-2.729391813E0,-2.235662937E0,3.260629416E0
1.005501875E2,-5.815895200E-1,-5.227681160E0,3.253909826E0
1.006021808E2,4.149302468E-2,-6.895629764E-1,2.471391678E0
1.006541741E2,-9.157328010E-1,3.414229631E0,-1.383168101E0
1.007061683E2,-6.316804886E-1,1.384935260E0,-1.805886865E0
1.007581617E2,1.070190072E0,-6.804000139E-1,-1.642175078E0
1.008101551E2,2.189906120E0,7.142053246E-1,-2.045346022E0
1.008621489E2,4.021890640E0,3.501296341E-1,-3.764931679E0
1.009141449E2,3.285798311E0,6.940467358E-1,-3.194994450E0
1.009661391E2,1.381731272E0,2.003130913E0,-2.207225323E0
1.010181325E2,2.125352919E-1,2.088652134E0,-1.089952707E0
1.010701258E2,-1.176572323E0,2.365984917E0,-2.277122252E-2
1.011221193E2,-1.397094607E0,1.918831587E0,6.772803068E-1
1.011741124E2,-1.662821054E0,3.043434620E0,1.666882038E0
1.012261058E2,-2.661585808E0,-1.507798582E-1,2.115257025E0
1.012780991E2,-5.176517963E0,-3.439678431E0,3.427395821E0
1.013300934E2,-4.288930893E0,-3.693798304E0,6.030903339E0
1.013820868E2,-1.133200765E0,-3.103702307E0,5.361704826E-1
1.014340801E2,-1.177183151E0,8.562498540E-2,-6.269169450E-1
1.014860735E2,-1.289383918E-1,-1.440927267E0,-1.639120579E0
1.015380668E2,9.968863130E-1,-3.464723825E0,-2.902390003E0
1.015900601E2,9.651212692E-1,-9.688830376E0,-3.282958984E0
1.016420536E2,1.216186881E0,-1.371899486E0,-2.648270130E0
1.016940469E2,1.172815442E0,3.249907017E0,-2.386208773E0
1.017460411E2,1.382953167E0,1.613398910E0,-2.092382669E0
1.017980345E2,6.028781533E-1,3.395903826E0,-1.503508568E0
1.018500278E2,-1.900248975E-1,2.733725786E0,-9.182996750E-1
1.019020214E2,-1.213835120E0,3.619480371E0,1.454300880E0
1.019540192E2,-2.457556725E0,-1.011489034E0,5.363227367E0
1.020060170E2,-3.169825792E0,-2.200843811E0,6.599007607E0
1.020580123E2,-2.034837961E0,5.779500008E0,6.941703796E0
1.021100055E2,-4.355927408E-1,-1.624186873E0,-9.506755471E-1
1.021619991E2,2.620153725E-1,-9.021440744E-1,-4.303103924E0
1.022139922E2,1.342635989E0,8.113328815E-1,-4.302493095E0
1.022659856E2,3.359713078E0,1.401428699E0,-4.036156178E0
1.023179790E2,2.425089121E0,-1.664503932E0,-1.452195883E0
1.023699725E2,1.128222346E0,-2.100338042E-1,-5.316219330E-1
1.024219666E2,-1.350470334E-1,3.233413458E0,-5.291785002E-1
1.024739599E2,1.044121385E-1,2.485103846E0,-1.662944436E0
1.025259531E2,1.156322122E0,2.250531435E0,-1.422874331E0
1.025779465E2,2.020085573E0,-2.118663937E-1,-3.970182419E0
1.026299401E2,-1.548589230E0,1.355002880E0,1.448803067E0
1.026819333E2,-5.254708290E0,-1.232011318E0,4.968608856E0
1.027339268E2,-4.089177608E0,-5.743861675E0,4.823833466E0
1.027859204E2,-2.770930767E0,2.025732994E0,5.420038223E0
1.028379144E2,-4.019951522E-1,3.092303753E0,-3.856251836E-1
1.028899077E2,2.144091368E0,-1.734142542E0,-2.460123539E0
1.029419010E2,3.321839333E0,-2.921664476E0,-3.133297205E0
1.029938943E2,2.803825617E0,-1.523393989E0,-1.598803639E0
1.030458920E2,2.317576885E0,-1.404886246E0,-5.035221577E-1
1.030978901E2,1.295599341E0,-1.232622147E0,2.426539920E-2
1.031498842E2,1.213132620E0,4.606962204E-1,3.577978313E-1
1.032018775E2,7.983550429E-1,-1.629684567E0,-8.535479903E-1
1.032538710E2,8.930391669E-1,-4.322989464E0,-4.225523949E0
1.033058642E2,2.438879572E-2,2.949361324E0,1.519362330E-1
1.033578576E2,-1.500941753E0,-4.525473118E-1,4.419440746E0
1.034098510E2,-2.856451750E0,-1.985819101E0,8.021102905E0
1.034618442E2,-2.502149820E0,3.519298553E0,8.255063057E0
1.035138382E2,-7.446905375E-1,1.797880292E0,1.207821146E-1
1.035658320E2,8.148484230E-1,3.935010731E-1,-3.131464243E0
1.036178252E2,1.093402982E0,-6.547437310E-1,-3.639093399E0
1.036698186E2,3.316540122E-1,-1.973601818E0,-3.085038900E0
1.037218120E2,-2.944828570E-1,2.626824379E0,-2.757615089E0
1.037738052E2,5.065600201E-2,3.040991068E0,-2.430802107E0
1.038257986E2,4.342793822E-1,2.847957611E0,-1.983037829E0
1.038777923E2,5.185787678E-1,2.832075119E0,-2.750895500E0
1.039297864E2,-7.457137108E-2,1.926162004E0,-3.268298388E0
1.039817796E2,-6.884909868E-1,3.827174664E0,-3.294565439E0
1.040337730E2,-1.648771167E0,2.645761251E0,2.443291664E0
1.040857665E2,-2.657309532E0,-5.283269405E0,2.542862892E0
1.041377622E2,-3.312767982E0,-4.989443302E0,4.867205143E0
1.041897569E2,-4.310310841E0,-2.219169617E0,5.291756153E0
1.042417504E2,-1.175961375E0,5.007977009E0,2.023016453E0
1.042937437E2,1.770852566E0,-2.424420357E0,-2.000752926E0
1.043457370E2,-4.899597466E-1,-9.229134917E-1,-1.689211726E0
1.043977306E2,7.024492025E-1,5.141757011E0,-5.542240143E-1
1.044497236E2,2.244884014E0,-3.817803860E0,-1.498010755E0
1.045017173E2,2.852694750E0,-1.565543771E0,-1.336742282E0
1.045537112E2,3.346273899E0,-4.238366485E-1,-1.378281236E0
1.046057045E2,3.611389399E0,-1.042032242E0,-1.780230641E0
1.046576980E2,3.601004839E0,-9.406285882E-1,-2.145527840E0
1.047096913E2,1.252227902E0,-2.066453457E0,6.638413072E-1
1.047616846E2,-2.142961264E0,-3.393252611E0,6.595953465E0
1.048136782E2,-9.646020532E-1,-7.951529026E0,4.655234814E0
1.048656713E2,-2.753215551E0,6.659145832E0,5.108497143E0
1.049176651E2,-4.435339868E-1,2.683023930E0,1.557537079E0
1.049696590E2,7.995767593E-1,-1.737196922E0,-2.860851049E0
1.050216524E2,1.461143851E0,-2.377994537E0,-4.132672310E0
1.050736457E2,1.685529947E-1,-9.479590058E-1,-2.879788160E0
1.051236803E2,9.891435504E-2,9.970359206E-1,-1.254275560E0
1.051756768E2,4.581031203E-1,6.115799546E-1,-7.576420903E-1
1.052276751E2,1.655399084E0,2.152182102E0,-1.131792814E-1
1.052796712E2,-1.422140121E0,5.830201626E0,-2.287859678E0
1.053316646E2,-1.631666899E0,5.163747787E0,-1.621405482E0
1.053836580E2,1.742752671E0,9.958142042E-1,-1.962268472E0
1.054356512E2,-3.182653904E0,3.431230038E-2,3.624705076E0
1.054876446E2,-5.466678619E0,-3.461058617E0,3.663189650E0
1.055396379E2,-5.136200905E0,1.180906415E0,5.022975445E0
1.055916320E2,-1.724518418E0,2.670806646E0,1.670547247E0
1.056436256E2,1.718928933E0,-2.031023026E0,-2.163854122E0
1.056956189E2,2.817264557E0,-2.203287125E0,-3.493096590E0
1.057476123E2,3.762884140E0,-1.097010136E0,-3.764931679E0
1.057996055E2,2.786721468E0,-1.030425787E0,-2.898113966E0
1.058515989E2,2.390880823E0,2.022067785E0,-1.592694998E0
1.059035922E2,1.699381351E0,2.076434851E0,-5.444501638E-1
1.059555856E2,1.011547089E0,1.397763491E0,-1.374005079E0
1.060075797E2,1.362183690E0,2.112475872E0,-6.189756989E-1
1.060595733E2,4.776508212E-1,1.614009738E0,-1.803744435E-1
1.061115668E2,-3.787822425E-1,4.240443408E-1,-1.111943960E0
1.061635600E2,-5.279142857E0,-9.161940217E-1,3.181216955E0
1.062155533E2,-7.246740341E0,-1.096399307E0,5.922780037E0
1.062675497E2,-3.173490763E0,-1.008405972E1,4.168986320E0
1.063195482E2,-1.710880846E-1,-5.277771950E0,-6.641797423E-1
1.063715433E2,8.087397218E-1,3.261513472E0,-1.463191509E0
1.064235367E2,1.994429231E0,9.295536578E-2,-2.770443201E0
1.064755299E2,1.550330162E0,-3.225264549E0,-1.413711429E0
1.065275233E2,1.923568845E0,-7.848579884E-1,-1.378892064E0
1.065795167E2,1.506958723E0,-1.275993705E0,-2.445152998E-1
1.066315100E2,1.547275901E0,-1.275993705E0,-4.363270104E-1
1.066835035E2,2.229612350E0,-1.610747814E0,-6.996099353E-1
1.067354977E2,3.098873615E0,-1.359071255E0,-5.351348400E0
