"Time (s)","Linear Acceleration x (m/s^2)","Linear Acceleration y (m/s^2)","Linear Acceleration z (m/s^2)"
5.999155000E-2,-1.381830692E0,-5.691301823E-1,-8.929052353E-1
1.199864240E-1,-1.318243027E0,-4.228773117E-1,-8.864197731E-1
1.799807660E-1,-1.209382057E0,-2.531242371E-1,-8.391289711E-1
2.399746840E-1,-1.210445404E0,-1.021146774E-1,-8.906917572E-1
2.999681450E-1,-1.130459309E0,4.861974716E-2,-8.572540283E-1
3.599615430E-1,-1.242420673E0,5.585050583E-2,-9.710402489E-1
4.199541070E-1,4.535226822E-1,-1.615833044E0,-4.488139153E-1
4.799466040E-1,2.924265862E-1,-1.192009211E0,-1.385138512E0
5.399390350E-1,-1.599044800E-1,-1.009410620E0,-1.252623081E0
5.999315650E-1,-1.378222942E0,-7.837012410E-1,-6.411309242E-1
6.599240290E-1,-8.248271942E-1,-8.828703761E-1,2.518811226E-1
7.199165920E-1,-1.917017937E0,-1.169694185E0,-2.158398628E-1
7.799089900E-1,-3.752732277E-1,-7.712766528E-1,1.811800003E-1
8.399013540E-1,1.106580257E0,-6.659594774E-1,-1.060032368E0
8.998938180E-1,5.141727924E0,-2.655735016E-1,-6.093811512E0
9.598863480E-1,4.343934059E0,8.752226830E-2,-5.640164375E0
1.019878812E0,1.605856657E0,-1.118569374E-1,1.213741302E-2
1.079871309E0,-2.573753834E0,-1.121837497E0,-1.422036648E0
1.139864407E0,8.755636215E-1,-1.920441985E0,2.789192200E-1
1.199858604E0,4.939919472E0,-1.543548346E0,4.671070099E0
1.259852934E0,7.355490208E0,1.778838634E-1,6.353130341E0
1.319847198E0,6.961035252E0,4.633209705E-1,4.155383110E0
1.379841528E0,9.365291595E-1,-7.985765934E-1,-1.099034786E0
1.439835258E0,-4.924693108E-1,-1.917788506E0,-4.279617310E0
1.499827790E0,-3.131832600E0,-2.771741867E0,-8.600498199E0
1.559820054E0,-8.402369499E0,-2.117816210E0,-1.342352676E1
1.619812584E0,-5.688467979E0,-4.268029213E0,-1.023873520E1
1.679805048E0,-2.343057871E0,-3.345252514E0,-6.363814831E0
1.739797578E0,3.010685921E0,-6.937217712E0,6.604784012E0
1.799790042E0,-3.286937237E0,-1.519820404E1,-2.405926704E0
1.859782638E0,1.364206219E1,-8.139035225E0,9.513050079E0
1.919774969E0,3.328890324E0,-1.360693455E0,6.617767811E0
1.979767400E0,1.093512058E0,2.326543808E0,3.393294334E0
2.039759864E0,1.399863243E0,3.049492598E0,1.711215019E0
2.099752394E0,2.162426949E0,2.924330235E0,4.187699318E0
2.159744858E0,2.290126801E0,2.632694721E0,-1.543841362E-1
2.219737622E0,-1.473269463E-1,-2.009424686E0,-6.512399197E0
2.279730854E0,-5.796600819E0,-3.183337927E0,-1.060985374E1
2.339724050E0,-9.440164566E0,9.909427166E-2,2.477458000E0
2.399717180E0,-1.006640720E1,5.287449360E0,-1.218465614E1
2.459710310E0,8.567919731E-1,-1.366475677E1,7.018595219E0
2.519703208E0,1.103111267E1,-1.585926628E1,1.002710915E1
2.579695606E0,7.078013420E-1,5.578522682E-1,6.987774849E0
2.639687970E0,1.335923672E0,1.418402863E1,4.030705452E0
2.699680467E0,2.662327766E0,1.201145744E1,3.692580700E0
2.759672997E0,4.009000301E0,2.773540497E0,5.598132610E0
2.819665527E0,4.056775093E0,-9.845182419E0,2.974770546E0
2.879658025E0,1.913801670E0,-1.064069033E0,-5.638504028E-2
2.939650522E0,5.955626488E0,-2.787046432E0,8.612224579E0
2.999642886E0,-1.827691460E1,8.438356400E0,-2.241293716E1
3.059635383E0,-1.122353554E1,2.598588228E0,-1.550160027E1
3.119627913E0,-7.554534912E0,-1.212175655E1,1.179908180E1
3.179620343E0,7.773904800E0,-2.339179611E1,1.028201962E1
3.230159632E0,2.607939720E0,-1.208108521E1,8.113248825E0
3.290152931E0,2.521402359E0,-3.954821587E0,9.416707039E0
3.350147163E0,-2.648661137E0,6.924100876E0,1.418455124E0
3.410141629E0,-1.776321411E0,1.051962090E1,-1.555700302E0
3.470136229E0,1.409694672E0,5.009299278E0,-1.658089161E0
3.530130761E0,-2.045731544E0,-1.415666866E1,1.202094078E0
3.590124525E0,-3.068171978E0,-6.219268322E0,1.584083271E1
3.650117157E0,-2.024662399E1,1.894245148E1,-1.527740479E1
3.710109587E0,1.132584572E0,-1.221532249E1,8.330316544E0
3.770102118E0,-3.815886736E0,-5.970094204E0,-1.538875580E1
3.830094715E0,-5.838302612E0,3.121729374E0,-2.294439316E0
3.890087179E0,9.747824669E-1,-9.448719978E0,2.224478006E0
3.950079709E0,1.901284695E0,-9.773176193E0,2.938309908E0
4.010072139E0,2.643530846E0,-1.496911049E0,2.151609898E0
4.070064437E0,-2.550755501E0,1.063008690E1,3.133676291E0
4.130056868E0,-1.638057232E0,1.347212696E1,-3.441207409E-1
4.190049398E0,-9.686689377E-1,-9.614189267E-1,-6.656691551E0
4.250041962E0,4.206397057E0,-1.997820282E1,3.982787132E-1
4.310034492E0,-2.454638290E1,5.439516544E0,-1.081055069E1
4.370027490E0,4.692085266E0,-5.364546585E1,1.578009129E0
4.430021488E0,6.533288479E0,1.569539547E0,4.677515030E-1
4.490015852E0,-8.384607315E0,1.690779686E0,-5.412688255E0
4.550010149E0,-6.341704845E0,3.872239590E0,4.402027130E-1
4.610004479E0,6.517130852E0,-1.133020973E1,1.666563511E0
4.669998243E0,7.863118172E0,-5.114448547E0,1.433043003E0
4.729990908E0,3.870547295E0,3.711470604E0,-1.442710161E0
4.789983139E0,-8.702639580E0,5.774210453E0,-5.113425255E0
4.849975670E0,-2.063459396E1,2.533362579E1,-2.577811623E1
4.909968134E0,-1.072865105E1,1.806044936E0,-6.170914650E0
4.969960730E0,1.623637199E1,-3.531709290E1,1.055106926E1
5.029953194E0,6.128608227E0,-2.319685555E1,-1.516034603E0
5.089945790E0,1.315703392E0,-5.506895065E0,-9.743728638E-1
5.149938055E0,-2.405353546E0,8.946825027E0,-4.098675251E-1
5.209930419E0,-4.203072071E0,3.430958509E0,-2.307491541E0
5.269922883E0,2.979760647E0,-2.221237659E0,4.285621643E-2
5.329915479E0,9.793005943E0,-3.547373772E0,2.891387939E-1
5.389907943E0,2.084766865E0,-2.390379906E0,6.903591156E-1
5.449900608E0,-5.126366138E0,5.097221375E0,-2.762240648E0
5.509893907E0,-8.945034981E0,3.693820238E0,-7.338476181E0
5.569887037E0,-6.767731667E0,3.554251194E-1,-4.478815079E0
5.629880101E0,-1.342823315E1,-7.625591278E0,-7.174980640E0
5.689873231E0,-6.150330544E0,-1.773226547E1,3.910224915E0
5.749866228E0,-8.825130463E-1,-2.959515762E1,-1.147869015E1
5.809858559E0,9.304373741E0,-5.379278183E0,4.355654240E0
5.869851089E0,3.639882565E0,7.676008224E0,3.549848080E0
5.929843587E0,6.186331749E0,6.514133930E0,7.416591644E0
5.989836117E0,9.134191513E0,-1.485193825E1,2.417739868E0
6.049828647E0,3.391506195E0,-9.721379280E0,-1.269550323E0
6.109821177E0,-2.281914234E0,-1.918594360E0,1.218596935E0
6.169813441E0,-1.331312561E1,6.391597986E-1,-5.829251289E0
6.229805806E0,-4.528043747E0,1.737663984E0,-4.862691879E0
6.289798270E0,1.043206024E1,-4.129332304E-1,4.532169819E0
6.349790800E0,-1.839356995E1,3.820007324E0,-1.340001488E1
6.409783264E0,3.048927307E0,-1.233625984E1,-7.742073536E-1
6.469775860E0,7.301308155E0,-2.884054756E1,-8.791615963E-1
6.529769292E0,1.116941452E0,7.189163208E0,1.127583265E0
6.589763556E0,-6.466965675E-1,2.760382652E0,3.637359619E0
6.649757820E0,-2.666210651E0,-2.094683170E0,4.601000786E0
6.709752150E0,1.043152428E1,-8.907205582E0,4.625640392E0
6.769746414E0,4.090552330E0,-2.518856049E0,4.410290718E-2
6.829739845E0,-1.244945526E-1,6.142784119E0,-1.557966352E0
6.889732276E0,-7.447737694E0,6.405841351E0,-9.207085609E0
6.949724607E0,-1.341260147E1,-5.452859998E-1,-7.395865917E-1
7.009717171E0,-2.577393341E1,9.171108246E0,-2.025689125E1
7.069709701E0,2.126817322E1,-3.084454727E1,8.508995056E0
7.129702165E0,1.067262363E1,-1.932474518E1,2.453343868E0
7.189694662E0,2.662726879E0,-1.742780685E0,1.134536982E0
7.249687192E0,-5.674385548E0,6.850251198E0,-7.362985611E-2
7.309679490E0,2.110476494E-1,-9.849488735E-1,-6.832070351E-1
7.369671854E0,4.304469585E0,-1.100715351E1,2.850895405E0
7.429664352E0,4.412522793E0,-9.564138412E0,1.715841293E-1
7.489656882E0,-3.825243235E0,-6.577134132E-2,-2.383457184E0
7.549649412E0,-8.339053154E0,-1.604950190E0,-8.899684906E0
7.609642311E0,-9.296050072E0,-1.233134508E0,-9.042509079E0
7.669635610E0,2.833398342E0,-4.942768097E0,-2.671902418E0
7.729628773E0,-1.131849766E0,-6.097728252E0,2.323499203E0
7.789621837E0,2.131314278E-1,-1.496564674E1,2.946773052E0
7.849614967E0,7.009459019E0,-1.273857594E1,-1.853990555E-2
7.909607698E0,6.511797905E-1,8.254347801E0,2.717062235E0
7.969600062E0,-7.228903770E-1,2.241592407E0,-3.260843754E-1
8.029592526E0,-2.274413109E-1,-7.637484074E0,-1.408159733E0
8.089585089E0,8.350399971E0,-7.361992836E0,6.597329617E0
8.149577553E0,3.256259918E0,-3.378281116E0,1.734466076E0
8.209570117E0,-2.452016830E0,-8.758128881E-1,-3.157481670E0
8.269562547E0,-8.617950439E0,4.124932289E0,-8.625292778E0
8.329554978E0,-1.320480824E1,2.904041290E0,-9.730895996E0
8.389547376E0,-5.233116627E0,-3.299648046E0,-1.126857281E1
8.449540006E0,-2.820193529E0,-7.021814346E0,-7.279677868E0
8.509532470E0,9.784708023E0,-2.919043922E1,4.103680611E0
8.569525000E0,5.386518002E0,-5.787876129E0,3.249053955E0
8.629517598E0,2.105929852E-1,1.022357178E1,8.510701656E-1
8.689511397E0,-3.846030235E-1,7.599344254E-1,-1.252509356E0
8.749505762E0,7.185926437E0,-1.353137207E1,-1.903236628E0
8.809500295E0,5.845779419E0,-7.043644428E0,-2.485127449E-1
8.869494828E0,3.679693222E0,7.167022228E-1,3.994650841E0
8.929489260E0,-3.047254562E0,3.991925716E0,-1.078102112E0
8.989482424E0,-1.413871765E1,5.033133984E0,-7.586257458E0
9.049474822E0,-6.466790676E0,-1.425424814E-1,-2.020619965E1
9.109467352E0,1.347738743E1,-8.772897720E0,-1.516802883E1
9.169459882E0,-4.075581551E0,-2.136803150E0,-1.368468475E1
9.229452346E0,1.562958908E1,-1.992209244E1,6.271086216E0
9.289444810E0,-2.829295158E0,-1.404586315E0,6.124721527E0
9.349437374E0,3.032975197E-1,7.884780884E0,2.483906746E0
9.409429705E0,4.373842239E0,-8.437171936E0,-2.579380035E0
9.469422136E0,9.849339485E0,-8.979374886E0,-2.415647268E0
9.529414600E0,1.374603748E0,-5.729263783E0,-9.054660797E-3
9.589407196E0,-8.248405457E0,-4.814743042E0,4.470429420E-1
9.649399594E0,-9.515911102E0,3.792205811E0,-1.255524826E1
9.709392157E0,1.415763760E1,6.519474983E0,-8.321080208E0
9.769385589E0,-2.015678787E1,1.638187218E1,-6.829127312E0
9.829379919E0,2.660497665E0,-5.646057129E0,-1.215418577E0
9.889374150E0,1.678484726E1,-1.751339722E1,4.664662361E0
9.949368580E0,-7.176160812E-2,-1.885382080E1,-1.709922028E1
1.000936284E1,7.907562733E0,4.633933067E0,1.226169586E0
1.006935611E1,1.110231400E0,3.699934244E0,-2.639582634E0
1.012934844E1,1.112947464E-1,-9.787972450E0,-6.353909492E0
1.018934094E1,2.798829079E0,-8.672304153E0,-6.190159798E0
1.024933340E1,-1.663980484E0,-3.688093662E0,-6.374861717E0
1.030932590E1,-3.733827829E0,3.892582893E0,-2.163643837E-1
1.036931843E1,-1.125091267E1,7.069330692E0,-2.433189869E0
1.042931096E1,-8.430127144E0,8.085594177E0,-1.126615620E1
1.048930339E1,-1.081574726E1,1.019813728E1,-1.561622715E1
1.054929572E1,2.014073181E1,-3.527776718E1,-2.304470539E0
1.060928822E1,3.961143494E-1,-1.701357269E1,-5.644958973E0
1.066920066E1,8.183107376E-1,-6.772901535E0,-6.718945503E-1
1.072919319E1,-3.030376196E0,3.236262798E0,-1.375595093E0
1.078918562E1,-1.137813091E0,1.305756569E-1,-3.283076286E-1
1.084917859E1,4.261813164E0,-8.526668549E0,-2.485483646E0
1.090917175E1,2.734514236E0,-1.891378760E0,5.689525604E-2
1.096916488E1,-2.429260731E0,3.401191235E0,-5.842144012E0
1.102915794E1,-9.988914490E0,1.246236324E0,-1.107162476E1
1.108915114E1,-1.598988342E1,9.258831024E0,-1.334071159E1
1.114914377E1,-4.223913193E0,-2.866358757E1,2.834887695E1
1.120913617E1,1.194097137E1,-1.120226002E1,4.159399986E0
1.126912863E1,-2.986044884E-1,-2.175323868E1,-8.982563019E0
1.132912123E1,5.783277512E0,-8.136559486E0,-6.050109863E-3
1.138911369E1,-2.008971214E0,6.974975109E0,1.768535137E0
1.144910629E1,4.549469471E0,-7.719392776E-1,2.555064678E0
1.150909869E1,1.742949486E0,-8.535954475E0,-7.208280563E-1
1.156909102E1,3.122834206E0,-1.089274311E1,-1.526249886E0
1.162908342E1,-1.300638199E0,-5.633492470E0,-7.051857948E0
1.168907601E1,-5.567592621E0,5.952703953E-1,-2.799926281E0
1.174906848E1,-3.749448299E0,4.104723930E0,-7.162039757E0
1.180906104E1,-1.221238804E1,1.196554184E0,-1.907932854E1
1.186905381E1,-9.830788612E0,-7.060971260E-1,-1.253878307E1
1.192904767E1,1.517527390E1,-4.713430786E1,-3.271590710E0
1.198904193E1,8.647920609E0,-1.182690144E1,-1.063907623E0
1.204903630E1,-1.779793739E0,4.186401844E0,-1.662975788E0
1.210903060E1,-3.964183092E0,2.802443504E0,-1.044754982E-1
1.216902469E1,6.356754303E-1,-7.010417938E0,1.874223232E0
1.222901756E1,7.027507782E0,-7.687770844E0,4.729135990E0
1.228900982E1,4.150056839E-1,-5.401556015E0,5.924744129E0
1.234900225E1,-6.632845879E0,-4.464705944E0,-3.424116611E0
1.240899482E1,-1.021383953E1,-2.047497034E0,-1.409899521E1
1.246898734E1,-1.043778706E1,1.855502605E0,-4.039584160E0
1.252897981E1,-1.583754158E1,-7.255661964E0,-1.074352264E1
1.258897241E1,6.605390549E0,-2.105705643E1,8.277975082E0
1.264896474E1,4.135405540E0,-2.598045349E1,2.887117863E0
1.270895703E1,3.053771019E0,-2.054538727E0,8.892349243E0
1.276894950E1,-2.085362911E0,1.048033524E1,9.487503052E0
1.282894209E1,-5.510190010E0,-6.239366531E-2,3.871501446E0
1.288893456E1,6.505477905E0,-1.763158607E1,1.653042436E0
1.294892719E1,3.284334183E0,-9.102567673E0,-2.266790867E-1
1.300892035E1,5.284042358E-1,-7.258856773E0,-5.640836716E0
1.306891355E1,-1.383767700E1,5.582649112E-1,-6.768721581E0
1.312890662E1,5.757674217E0,-1.598619461E0,-9.381297112E0
1.318889981E1,-2.595444679E1,1.283106327E1,-1.359431076E1
1.324889284E1,1.746229172E0,-2.461674309E1,7.650809288E-1
1.330888534E1,8.266396523E0,-3.990584564E1,6.524665833E0
1.336887764E1,-3.740077496E0,-1.055021286E1,-4.213362694E0
1.342887017E1,-4.833266735E0,6.350973129E0,2.109468460E0
1.348886263E1,-1.432488918E0,5.348794460E0,4.679390430E0
1.354885523E1,-8.524098396E-1,-2.494316101E0,-6.044932604E-1
1.360884769E1,1.085852051E1,-1.002653885E1,-1.716725707E0
1.366884019E1,1.669697762E0,-7.058691025E0,-2.483896971E0
1.372883252E1,-6.045762062E0,-7.904306650E-1,-1.628217816E0
1.378882492E1,-6.671823502E0,-4.016036510E0,4.162228584E0
1.384881741E1,-1.910799026E1,8.118986130E0,-7.034914017E0
1.390880998E1,-1.637204742E1,-1.714905024E0,-6.356084347E0
1.396880254E1,1.555043411E1,-3.129201508E1,6.962529182E0
1.402879561E1,-1.577548981E-1,-1.993118095E1,-4.090889454E0
1.408878984E1,1.529706001E0,-3.677254200E0,-3.007557869E0
1.414878407E1,-4.641526222E0,6.811680317E0,-6.390523911E-1
1.420877836E1,-1.735936642E0,-1.868793964E0,-1.180380583E0
1.426877266E1,1.004066563E1,-1.006916332E1,3.164591789E-1
1.432876646E1,-2.991948128E-1,-7.950024605E0,1.180193424E0
1.438875896E1,-3.745053291E0,2.542601824E-1,-2.710680008E0
1.444875135E1,-7.007187843E0,4.141138077E0,-2.900313139E0
1.450874378E1,-1.427686691E0,3.401101351E0,-2.839254379E0
1.456873631E1,-8.021603584E0,-5.028924942E0,-7.694499016E0
1.462872878E1,-1.213519192E1,-2.263631821E0,-7.894636154E0
1.468872137E1,2.592505455E0,-1.863984108E1,-3.930711746E-1
1.474871384E1,9.779447556E0,-1.676325417E1,1.172704697E0
1.480870624E1,2.824717999E0,1.479534626E0,1.392785788E0
1.486869850E1,-2.791180611E-1,6.318645477E0,5.126717091E-1
1.492869103E1,3.354502201E0,-4.300918579E0,1.880181074E0
1.498868363E1,7.554608822E0,-9.484598160E0,4.103901386E0
1.504867626E1,8.470449448E-1,-7.781386852E0,9.670863152E-1
1.510866892E1,-3.494822979E0,1.537956476E0,-5.944863319E0
1.516866225E1,-8.892620087E0,5.349180222E0,-1.234752178E1
1.522865538E1,-1.923707485E0,4.744986057E0,-7.016515732E0
1.528864838E1,-2.228565598E1,-9.581325650E-1,-6.633428574E0
1.534864141E1,-2.564073563E0,-4.195325851E0,4.530571938E0
1.540863441E1,-2.104688883E0,-2.043787384E1,-2.344164848E0
1.546862674E1,2.355926275E0,-1.535198975E1,3.920507431E-2
1.552861910E1,9.348667145E0,1.245638275E1,-2.646972656E0
1.558861164E1,-1.544161081E0,2.197357655E0,-1.229724884E-1
1.564860410E1,9.563508034E0,-1.870243073E1,4.610063553E0
1.570859660E1,6.215892315E0,-7.000057697E0,2.413950920E0
1.576858913E1,-4.683907986E0,-3.150686264E0,-1.321877956E0
1.582858162E1,-7.105742931E0,3.410805464E-1,-1.109626865E1
1.588857389E1,-1.279506493E1,6.198488235E0,-1.110888100E1
1.594856638E1,-2.263513756E1,1.116428375E1,-1.522546005E1
1.600855888E1,-1.133035183E1,-1.536822319E0,-7.809762955E0
1.606855141E1,4.770079613E0,-2.789589310E1,1.447494125E1
1.612854391E1,9.274238586E0,-8.667833328E0,2.082760334E0
1.618853748E1,5.649008274E0,4.064122200E0,5.098004341E0
1.624853181E1,-3.700283527E0,4.794193268E0,2.511661053E0
1.630852637E1,-1.230118752E0,-2.242903233E0,9.369697571E-1
1.636852087E1,3.277496815E0,-5.843613625E0,-2.273011208E-1
1.642851537E1,2.106907845E0,-2.437927246E0,2.929868460E0
1.648850887E1,-2.554070950E0,9.060950279E-1,-9.425158501E-1
1.654850150E1,-9.599123955E0,5.105965614E0,-6.778909683E0
1.660849386E1,1.042292404E1,-5.855812132E-2,7.534245491E0
1.666848636E1,-1.879986954E1,-3.023166955E-1,-1.116638565E1
1.672847889E1,-8.237385750E0,-3.158126831E0,1.760337353E0
1.678847146E1,8.543571472E0,-2.242155457E1,6.004602432E0
1.684846395E1,-5.603561401E0,-2.115647507E1,-1.417186022E0
1.690845638E1,9.406338692E0,1.264704704E1,6.452928543E0
1.696844872E1,-5.057109833E0,-2.880164146E0,-1.540023088E0
1.702844121E1,-1.660815239E0,-5.681939602E0,-4.851632118E-1
1.708843371E1,2.291162491E0,-5.047808170E0,3.560977936E0
1.714842614E1,1.136137009E0,4.310740471E0,7.780467987E0
1.720841867E1,-4.331612587E0,4.709896088E0,6.239676476E-1
1.726841190E1,-5.236711502E-1,9.553315639E-1,-5.107539654E0
1.732840603E1,-1.528525066E1,3.893718481E0,-1.207336235E1
1.738840030E1,-8.985674858E0,3.925040245E0,-9.596283913E0
1.744839476E1,1.651264429E0,-1.432486343E1,4.720529556E0
1.750838906E1,7.639898777E0,-1.805187607E1,1.019323349E1
1.756838272E1,1.586261272E0,-4.449835300E0,2.891168594E0
1.762837522E1,9.628243446E-1,4.429555893E0,3.666880369E0
1.768836762E1,3.413094997E0,2.797072411E0,1.889992714E0
1.774835998E1,2.878231049E0,-6.472801685E0,6.941428185E-1
1.780835254E1,5.689592361E-1,-2.935845852E0,1.827181816E0
1.786834498E1,-3.025578737E0,3.502358437E0,1.971512318E0
1.792832300E1,-5.850891113E0,9.302890301E-1,-2.116254807E0
1.798831550E1,-9.530084610E0,-3.637013912E0,-8.330007553E0
1.804830793E1,-1.735898972E1,6.220210552E0,-1.094484138E1
1.810830026E1,-6.654686928E0,5.216836929E-3,-1.111654282E1
1.816829285E1,8.455706596E0,-2.525839424E1,5.338753700E0
1.822828535E1,1.627207375E1,-1.433164406E1,1.113437176E0
1.828827785E1,4.803738594E-1,-6.976898193E0,-3.009323835E0
1.834827058E1,-4.297119141E0,6.791467667E-1,-3.845071554E0
1.840826391E1,4.018118382E0,1.191646814E0,-1.361541748E-1
1.846825698E1,6.029410839E0,3.370055676E0,4.556908607E0
1.852825010E1,9.302997589E-1,4.126288891E0,-1.969969273E0
1.858824324E1,-2.001760483E0,1.881573319E0,-6.132910728E0
1.864823610E1,3.706574440E-1,-2.321886063E0,-6.964928150E0
1.870822836E1,-3.065089417E1,1.100780869E1,-2.298061562E1
1.876822086E1,-2.788337708E0,1.255078220E1,-1.643052101E1
1.882821339E1,9.824045181E0,-3.189666367E1,5.824308872E0
1.888820592E1,1.094272804E1,-1.184531212E1,-5.197000980E0
1.894819845E1,-2.808866978E0,-1.100067139E1,-3.726828575E0
1.900819092E1,-1.598848343E0,7.299871445E-1,3.997123003E0
1.906818328E1,1.539978981E0,2.280402422E0,6.509074211E0
1.912817561E1,6.779281616E0,-7.541277885E0,8.742125034E-1
1.918816811E1,3.077325821E0,-3.869102478E0,-4.391665459E0
1.924816057E1,2.005862236E0,-2.181268215E0,-6.568143845E0
1.930815317E1,-1.141205120E1,-4.744865894E-1,-2.409554005E0
1.936814570E1,-3.458642006E0,-1.840259552E0,1.168183327E0
1.942813930E1,-1.613475609E1,5.947751045E0,-1.631814766E1
1.948813363E1,3.359851837E-1,-1.445777702E1,-5.807628632E-1
1.954812823E1,1.735560608E1,-3.178552818E1,1.237433910E1
1.960812270E1,8.197932243E0,-1.123430729E1,-6.613440037E0
1.966811723E1,-9.053311348E0,2.945793629E0,-4.389579773E0
1.972811063E1,-8.820566177E0,-1.967876911E0,-9.087917328E0
1.978810312E1,4.800365925E0,-7.626518250E0,-2.878944635E0
1.984809555E1,4.805553436E0,-7.627644539E0,8.151059151E-1
1.990808815E1,1.306052208E1,4.412416935E0,2.156596756E1
1.996808061E1,-3.667360687E1,1.613540840E1,-2.448016930E1
2.002807314E1,-4.235742569E0,2.470296288E1,-6.779199600E0
2.008806567E1,1.381477356E0,-1.727662659E1,1.409564972E1
2.014805804E1,6.386407852E0,-3.065241814E1,-4.088619232E0
2.020805037E1,-1.006100178E1,-1.771774292E1,-1.035511494E1
2.026804290E1,-5.619087219E-1,-9.392501831E0,-2.164678574E0
2.032803550E1,-5.973834991E-1,3.770885229E0,2.291009426E0
2.038802806E1,3.439583302E0,-1.137728453E0,3.140735149E0
2.044802059E1,-1.850601673E0,-1.288699436E1,1.881539822E0
2.050801386E1,-6.282163143E0,-8.653636932E0,1.278231144E0
2.056800802E1,-7.803704262E0,-6.150083542E0,-5.868329525E0
2.062800228E1,-5.895387173E0,7.237071991E0,-1.359054089E1
2.068799658E1,-7.098824501E0,5.762390137E0,-1.150465012E1
2.074799084E1,-1.607576752E1,4.377142906E0,-7.228009224E0
2.080798438E1,-7.427952290E0,-1.199632740E1,-7.128474236E0
2.086797681E1,9.914319992E0,-4.219227219E1,5.553164959E0
2.092796917E1,-1.712639809E0,-8.454757690E0,1.209310532E0
2.098796164E1,-9.544401169E-1,5.031457901E0,5.469149113E0
2.104795426E1,-3.411542892E0,-1.727254868E0,2.452599525E0
2.110794673E1,-3.090193272E0,-8.370958328E0,4.045181274E0
2.116793933E1,1.157580376E0,-6.503532887E0,2.939830780E0
2.122793176E1,-1.109070778E0,-1.561357975E0,-7.793784142E-1
2.128792409E1,-2.452808857E0,9.582116127E0,-6.596395969E0
2.134791638E1,-1.055036354E1,9.519300461E0,-3.750685453E0
2.140790902E1,1.342243004E1,-2.804324150E0,9.835018158E0
2.146790148E1,-1.694213104E1,-5.930704594E0,-1.010934830E1
2.152789401E1,5.225273132E0,-2.157784081E1,1.148180485E1
2.158788684E1,-8.756657600E0,-2.238716698E1,-1.781313896E0
2.164788011E1,5.393706799E0,4.042730331E0,3.340319157E0
2.170787314E1,-3.050005913E0,1.007235718E1,2.147058487E0
2.176786627E1,2.027395725E0,-5.419846058E0,2.816465378E0
2.182785940E1,5.796966553E0,-8.438000679E0,8.715586662E-1
2.188785223E1,1.528389931E0,-8.061093330E0,-5.283267975E0
2.194784456E1,-5.820657730E0,-3.894467592E0,-1.105976677E1
2.200783706E1,-1.036470413E1,3.442118406E0,-1.138426399E1
2.206782959E1,-1.529292393E1,7.088023663E0,-1.850866795E0
2.212782212E1,-2.614201355E1,-7.096511841E0,1.600519180E0
2.218781465E1,-5.087794304E0,-2.127835846E1,4.619680882E0
2.224780711E1,1.723892689E0,-2.690217590E1,-4.222210884E0
2.230779951E1,-4.827551842E-1,2.820628166E0,-4.795825481E-1
2.236779181E1,-4.009527206E0,5.716573715E0,1.002560019E0
2.242778434E1,-7.409543991E-1,-1.876331329E0,4.306376934E0
2.248777680E1,6.340327263E0,-1.038447571E1,2.066866159E0
2.254776940E1,-3.386993408E-1,-7.219112396E0,1.523094177E-1
2.260776189E1,-3.700568676E0,-6.196775436E-1,-6.137197018E-1
2.266775566E1,-1.026309872E1,1.007607365E1,-5.460330486E0
2.272774992E1,1.195081234E1,5.263502598E0,9.805203438E0
2.278774425E1,-2.373956680E1,5.450261116E0,-1.441417789E1
2.284773852E1,-6.658460617E0,-1.224056625E1,4.640563965E0
2.290773285E1,1.920490265E1,-3.673888016E1,-9.159193993E0
2.296772594E1,4.911788464E0,-4.983561993E0,-1.216153026E0
2.302771828E1,2.337020397E0,7.383590698E0,6.350051165E-1
2.308771064E1,-6.445245266E0,3.497869253E0,-4.653137207E0
2.314770317E1,-4.412304878E0,-7.999619961E0,-1.054386139E0
2.320769563E1,2.374330521E0,-8.447541237E0,1.330540180E0
2.326768820E1,2.918043613E0,-3.594008207E0,4.414706707E0
2.332768073E1,-2.009290695E0,8.212881088E0,-1.237579346E0
2.338767322E1,-1.230864143E1,7.063687325E0,-7.029258251E0
2.344766552E1,1.625946045E1,-1.587873268E1,-1.136482334E1
2.350765792E1,-2.675901604E1,3.378644466E0,-1.412227821E1
2.356765038E1,-4.671759605E0,-1.410641861E1,4.825380802E0
2.362764291E1,1.163836098E1,-3.231368637E1,2.678647041E0
2.368763541E1,2.656419754E0,1.936758995E0,-1.742076874E0
2.374762851E1,-6.934739113E0,1.807934284E0,-7.145693302E0
2.380762177E1,-5.785850048E0,-5.007117271E0,-4.508388042E0
2.386761484E1,4.894555092E0,-8.644809723E0,-6.466650963E-1
2.392760797E1,2.513330460E0,-2.589459896E0,-1.278504848E0
2.398760116E1,-4.985972404E0,1.151067734E1,-3.463474274E0
2.404759383E1,-1.449637508E1,3.113073158E1,5.321780682E0
2.410758609E1,-6.376129150E0,8.307296753E0,1.125092506E0
2.416757869E1,-4.672015667E0,-1.439600372E1,-5.128138065E0
2.422757115E1,3.993884087E0,-1.878379631E1,-4.054275990E0
2.428756365E1,-6.345949650E0,-1.145714760E1,-2.597053766E0
2.434755605E1,-1.234123230E0,-5.227925301E0,3.154659271E-2
2.440754868E1,-1.902998447E0,5.797697067E0,2.678063393E0
2.446754098E1,-1.753937721E0,-8.693695068E0,4.795569897E0
2.452753341E1,-2.193708897E0,-4.982272148E0,-1.426244259E0
2.458752587E1,-1.896504879E0,-8.819570541E-1,-2.841145515E0
2.464751840E1,5.061965466E0,-2.230683327E0,-4.525957108E-1
2.470751083E1,-1.014384079E1,-1.516744137E0,-1.250191498E1
2.476750370E1,-9.894983292E0,-2.861854792E0,-1.181995487E1
2.482749766E1,-1.040939331E1,-6.039093494E0,-1.126384544E1
2.488749223E1,3.361268997E0,-2.395082283E1,8.292165756E0
2.494748676E1,9.091588974E0,-1.976705551E1,2.936890602E0
2.500748129E1,7.159417152E0,1.073101044E0,4.562680721E0
2.506747546E1,2.874147892E-1,8.495931625E0,3.741161823E0
2.512746856E1,3.111249447E0,-3.942300320E0,1.944767952E0
2.518746095E1,3.483196259E0,-9.412229061E-1,-8.482332230E-1
2.524743030E1,7.425704002E0,5.308109283E0,1.613442898E0
2.530742283E1,-2.109622955E-1,2.732586384E0,-4.532584190E0
2.536741530E1,-6.216296673E0,3.090696812E0,-5.372344017E0
2.542740773E1,-2.966304302E0,4.524354935E-1,-8.219114304E0
2.548740016E1,-3.854795933E0,-1.028179455E1,-3.346353531E0
2.554739249E1,-1.686120796E1,-6.520465851E0,-1.810621643E1
2.560738492E1,5.047533989E0,-1.398461914E1,-7.651910782E-1
2.566737751E1,4.978015423E0,-2.281660843E1,-1.597487926E0
2.572736998E1,1.848289490E1,1.729832649E0,4.080935955E0
2.578736251E1,5.804939270E0,6.126351833E0,2.269208431E0
2.584735514E1,5.817440033E0,-3.550478935E0,3.513672352E0
2.590734887E1,5.511057377E0,-3.401680231E0,5.389081001E0
2.596734314E1,3.686184883E0,4.023625851E0,2.798021317E0
2.602733760E1,2.730517387E-1,2.606344223E0,-2.559205055E0
2.608733186E1,-5.850418568E0,-1.278667927E0,-3.395036221E0
2.614732603E1,2.346913815E0,-9.729537964E0,1.745116234E0
2.620731899E1,-1.799565887E1,3.399848700E0,-1.939279556E1
2.626731139E1,-1.663387299E0,-9.634912014E-3,-1.883207798E0
2.632730375E1,3.194728136E0,-1.986927986E1,-5.897332668E0
2.638729628E1,1.538618469E1,-1.761019325E1,2.348762512E0
2.644728881E1,4.641685009E0,7.656855583E-1,-1.007456303E0
2.650728134E1,4.204932690E0,4.579062462E-1,-3.529684782E0
2.656727381E1,5.236926079E0,-4.577870846E0,9.109454155E-1
2.662726617E1,8.556602478E0,-5.620096684E0,-1.037955761E0
2.668725850E1,-2.825231552E-1,-3.079343319E0,-5.346752167E0
2.674725100E1,-1.196362877E1,-1.214193821E0,-1.078647232E1
2.680724353E1,-2.247626877E1,1.472867870E1,-2.009730148E1
2.686723599E1,2.020772457E0,-1.486197472E0,3.727798462E-1
2.692722856E1,3.686952829E0,-2.281564140E1,-5.623984814E0
2.698722176E1,6.921854496E0,-1.576404572E1,-3.816694260E0
2.704721492E1,2.355117083E0,-1.191678810E1,-6.658094883E0
2.710720798E1,5.008282661E-1,-4.671360493E0,-4.246446609E0
2.716720118E1,8.151369095E-1,6.253410339E0,1.091678619E0
2.722719421E1,1.608290195E0,-1.120860577E0,1.123335838E0
2.728718668E1,4.748068333E0,-4.821914673E0,3.926905155E0
2.734717901E1,5.432032585E0,-2.734827518E0,1.263380051E0
2.740717160E1,-2.035919666E0,-2.832383394E0,-8.731969833E0
2.746716407E1,-9.501391411E0,-6.147342920E-1,-1.119812775E1
2.752715666E1,-1.045982170E1,1.319990993E0,-8.749148369E0
2.758714913E1,-9.889426231E0,3.510207653E0,-6.098365784E0
2.764714159E1,2.166167831E1,-6.534183025E0,-2.564406395E0
2.770713386E1,-4.331970215E0,-2.129764557E1,-3.698065281E0
2.776712635E1,7.042949677E0,-1.777892303E1,-4.341520309E0
2.782711882E1,-1.289053321E0,3.073008537E0,-2.391733885E0
2.788711138E1,1.445096970E0,4.946531773E0,2.594425201E0
2.794710391E1,6.733322144E-2,-4.150966167E0,4.471488476E0
2.800709684E1,9.615650177E0,-5.560825348E0,1.339615345E0
2.806709084E1,2.501809120E0,-3.392655373E0,7.263202667E-1
2.812708520E1,-4.313499928E0,1.082213640E0,-2.103014708E0
2.818707950E1,-1.031159592E1,1.004896164E-1,-6.749500275E0
2.824707383E1,4.009062767E0,-2.964701176E0,-5.673725605E-1
2.830706776E1,-1.023010921E1,-8.441171646E-1,-8.343473434E0
2.836706039E1,-5.532074928E0,-4.704839706E0,-6.834414482E0
2.842705269E1,8.271474838E-1,-1.303941536E1,4.303137302E0
2.848704515E1,9.067489624E0,-7.577105522E0,-2.681255341E0
2.854703775E1,3.222331047E0,2.080324173E0,-4.362854004E0
2.860703028E1,2.280495167E0,3.278908253E0,9.105370045E-1
2.866702288E1,8.857458115E0,-1.972799683E1,9.123516083E-2
2.872701534E1,6.557590961E0,-7.335157394E0,-1.550154686E-1
2.878700774E1,1.174232483E0,-8.186254501E-1,1.325549126E0
2.884700000E1,-5.278246880E0,6.077407837E0,-4.162605762E0
2.890699253E1,-8.754344940E0,8.472732544E0,-1.056598663E1
2.896698500E1,-6.928239822E0,1.697915792E0,-8.713994026E0
2.902697759E1,2.691451836E1,4.859253883E0,-9.193446159E0
2.908697019E1,-1.640250015E1,4.465821385E-1,-5.380195141E0
2.914696346E1,5.167645454E0,-2.121254349E1,-1.888478279E0
2.920695652E1,1.164867020E1,6.338625908E0,2.556777000E0
2.926694972E1,1.939796209E0,1.109148026E0,-1.622586250E-1
2.932694278E1,1.354995251E0,-8.083190918E0,3.384746075E0
2.938693585E1,6.369239807E0,-8.804592133E0,2.477705002E0
2.944692821E1,6.563806534E-1,-4.644089222E0,-1.400946379E0
2.950692067E1,-1.704589367E0,1.024048805E0,-4.058998108E0
2.956691314E1,-9.808458328E0,1.102265930E1,-5.447398663E0
2.962690573E1,-2.683830261E-1,-2.484629393E0,8.751189232E0
2.968689820E1,-2.148244095E1,1.277533531E1,-1.216191483E1
2.974689069E1,-8.457736969E-1,-1.309965801E1,-4.514239311E0
2.980688309E1,1.769939804E1,-2.777508926E1,1.808574677E0
2.986687549E1,9.936146736E0,1.112623215E-1,-2.936704636E0
2.992686792E1,-6.776371002E-1,6.503775597E0,-1.051928759E0
2.998686045E1,-1.414345980E0,3.316502094E0,1.179314137E0
3.004685298E1,1.692142487E0,-1.164859295E1,-3.035122395E0
3.010684551E1,8.084016800E0,-9.929533958E0,3.180686951E0
3.016683881E1,-4.308738232E0,-1.802650690E0,3.468595982E0
3.022683304E1,-9.903632164E0,5.592543602E0,-9.300533295E0
3.028682757E1,1.539771080E1,-1.768826008E0,-5.219811440E0
3.034682214E1,-1.569678974E1,1.906959414E0,-7.474890232E0
3.040681667E1,-1.101903629E1,-1.638283968E0,-3.257899284E0
3.046681034E1,1.399095440E1,-1.666165161E1,4.121275902E0
3.052680300E1,4.776782036E0,-1.690190887E1,2.435300350E-1
3.058679540E1,2.347090483E0,1.136223698E1,1.444288492E0
3.064678790E1,-1.812848568E0,-1.793954372E0,2.155004025E0
3.070678036E1,-1.907238960E0,-1.223586655E1,-2.025178909E0
3.076677292E1,3.197754383E0,-3.761611938E0,2.798663855E0
3.082676539E1,2.869648933E0,-1.543040037E0,-4.238942623E0
3.088675785E1,-7.596245766E0,2.863509178E0,-5.598129272E0
3.094675015E1,-1.461496162E1,8.235156059E0,2.490051270E1
3.100674268E1,-1.429134941E1,3.734161377E1,-2.154322433E1
3.106673518E1,-5.213108063E-1,-1.883859253E1,2.662672997E0
3.112672777E1,1.707674217E1,-2.916854095E1,4.057451725E0
3.118672024E1,-7.108876228E0,-9.858922958E0,-1.080436897E1
3.124671327E1,-6.391832829E-1,2.354657650E0,-1.462750912E0
3.130670733E1,-1.114444017E0,8.630653381E0,3.598367214E0
3.136670163E1,-3.578882217E-1,-5.125546455E-1,4.842695236E0
3.142669589E1,6.344793320E0,-2.855437756E0,6.140980721E-1
3.148669022E1,6.883559227E0,-5.128197193E0,-5.979636192E0
3.154668405E1,-1.431156635E0,1.244011164E0,-7.509176731E0
3.160667672E1,-7.071668625E0,2.099659681E0,-6.431020737E0
3.166666905E1,-1.173219681E1,9.779597521E-1,-8.678863525E0
3.172666151E1,-1.029060936E1,4.986299276E-1,-5.276008129E0
3.178665404E1,1.963115311E1,-9.490687370E0,1.292814636E1
3.184664654E1,-3.773130417E0,-5.924041748E0,-2.094747543E0
3.190663900E1,3.004304409E0,-1.192647457E1,-1.756346703E0
3.196663147E1,-5.328602791E-1,8.003615379E0,1.141017437E0
3.202662386E1,-1.553359032E-1,3.269109726E-1,4.870301247E0
3.208661626E1,-5.632147789E-1,-1.488632011E1,-5.970020294E-1
3.214660879E1,7.352948189E0,-6.322792053E0,4.643455505E0
3.220660126E1,1.120807171E0,-2.089072943E0,3.659671307E0
3.226659385E1,5.475816727E-1,7.840506554E0,1.447961807E0
3.232658648E1,-5.433359146E0,7.216627598E0,-7.968252182E0
3.238657975E1,-5.827042580E0,-4.428580284E0,-1.833856773E1
3.244657281E1,-2.381634235E0,-8.472698212E0,2.895743370E0
3.250653005E1,-1.710613251E1,-9.992744923E-1,-8.961744308E0
3.256652312E1,1.105474281E1,-1.970898056E1,1.391861057E1
3.262651615E1,8.868350983E0,-6.714382648E0,1.540823460E0
3.268650841E1,-7.332405090E0,6.373685837E0,1.941945791E0
3.274650091E1,-1.263659954E0,-1.009583473E0,4.438727856E0
3.280649344E1,4.559859276E0,-8.236637115E0,3.576350689E0
3.286648600E1,5.217287064E0,-9.180240631E0,6.439643383E0
3.292647847E1,-3.618678570E0,-1.064741611E-1,3.172185183E0
3.298647100E1,-4.013229370E0,1.089550400E1,3.891479969E-1
3.304646340E1,-5.914070606E0,8.473757744E0,-1.477289295E1
3.310645583E1,-1.470133114E1,9.244433403E0,-2.024941826E1
3.316644832E1,-6.899852753E-1,1.828569174E0,-1.027499962E1
3.322644079E1,5.102605343E0,-4.013229370E0,-6.830430984E0
3.328643332E1,7.025789261E0,-2.519093132E1,6.558312893E0
3.334642585E1,6.206650734E-1,-8.659189224E0,-1.021603775E1
3.340641925E1,-3.948492289E0,1.721167564E-1,-2.544180870E0
3.346641344E1,-2.899810314E0,-5.661705971E0,3.746662140E-1
3.352640784E1,-8.652896881E-1,-7.162005424E0,-8.134727478E-1
3.358640211E1,2.056645393E0,-1.350590944E0,2.395999908E0
3.364639640E1,4.977976799E0,1.745212793E0,-2.072569132E0
3.370638970E1,2.604127884E0,2.832758665E0,-7.488884449E0
3.376638216E1,-3.623297215E0,4.398705006E0,-9.017782211E0
3.382637443E1,-1.568445396E1,1.420703506E1,-3.091856956E0
3.388636702E1,-1.435200500E1,1.077966595E1,-1.506286144E1
3.394635949E1,8.995499611E0,-1.701930428E1,5.399713516E0
3.400635208E1,3.133052349E0,-3.695395279E1,-9.294118881E0
3.406634458E1,6.742582321E0,-6.064101696E0,-8.039197922E-1
3.412633718E1,-4.970323563E0,2.049104214E0,6.835551262E-1
3.418632944E1,-5.068112373E0,-3.109005928E0,8.926180601E-1
3.424632187E1,1.160971642E0,-7.178267479E0,-2.609488487E0
3.430631434E1,1.412078381E1,-2.486400843E0,-4.633199692E0
3.436630683E1,1.291179657E-1,6.333375931E0,-3.852651834E0
3.442629930E1,-7.823273659E0,3.725308895E0,-3.380387306E0
3.448629230E1,-1.309573269E1,5.637420654E0,-7.039418221E0
3.454628556E1,-7.802717686E0,-1.154417229E1,1.562616539E1
3.460627869E1,-1.232152462E1,-8.557394743E-1,-1.207841682E1
3.466627182E1,8.196766853E0,-2.991814804E1,2.676283360E0
3.472626495E1,-8.103804588E-1,-1.835938072E1,-7.603655815E0
3.478625761E1,3.630711079E0,-6.470317841E-1,-5.277202129E-1
3.484624991E1,5.915403366E-1,8.967688560E0,2.871136904E0
3.490624241E1,7.162208557E-1,-1.912276745E0,8.054311275E-1
3.496623494E1,4.616211414E0,-1.212978077E1,-3.783891439E0
3.502622754E1,2.993297577E-2,-8.822191238E0,-3.277922392E0
3.508622003E1,1.996287823E0,5.950778723E-1,-1.601583958E0
3.514621256E1,-1.126177788E0,8.483805656E0,-7.893831730E0
3.520620493E1,-1.222144318E1,1.271039367E0,-8.569832802E0
3.526619726E1,-2.680787086E0,9.583889961E0,-1.638202858E1
3.532618966E1,2.287631035E-1,-7.418598652E0,-7.673956871E0
3.538618222E1,1.530866241E1,-3.465079880E1,-3.971416712E0
3.544617468E1,8.295421600E0,-8.376018524E0,-4.882445812E0
3.550616741E1,-2.764749527E-2,4.215419292E0,-1.088368893E0
3.556616125E1,-3.503421307E0,1.214613914E0,-2.528513193E0
3.562615578E1,-6.576967239E-1,-5.518470764E0,-9.894199371E-1
3.568615024E1,4.043694973E0,-4.739747047E0,1.393331051E0
3.574614484E1,7.556891441E-1,1.605734825E0,-3.247163773E0
3.580613911E1,1.295349598E0,2.926501274E0,-2.169524193E0
3.586613227E1,-1.045910072E1,1.009803295E1,-1.131050491E1
3.592612471E1,4.084645271E0,7.404095650E0,-1.839139938E1
3.598611730E1,-2.041130066E-1,-1.123967266E1,-1.064351082E1
3.604610980E1,7.370604038E0,-2.800434494E1,-3.158845901E-1
3.610610233E1,4.193955421E0,-1.357684708E1,-2.819269657E0
3.616609486E1,-1.518791199E0,2.454946518E0,1.706786156E-1
3.622608729E1,-3.917803764E-1,4.809158325E0,3.534544945E0
3.628607956E1,4.022531509E-1,-4.608699322E0,4.481426239E0
3.634607192E1,8.526272774E0,-1.098714828E1,3.146999359E0
3.640606445E1,2.798147202E-1,-7.264482975E0,-1.492285728E0
3.646605701E1,-3.927113533E0,1.269566536E0,-4.792234421E0
3.652604954E1,-7.187844753E0,3.855685711E0,-4.311875820E0
3.658604208E1,-1.029925156E1,1.893000603E-1,-1.186658859E1
3.664603564E1,1.149181366E0,-1.253150940E1,-1.793900490E0
3.670602994E1,-9.154423714E0,8.950499535E0,1.955164433E0
3.676602423E1,5.099950314E0,-2.258839989E1,-9.737014771E-4
3.682601850E1,1.871312618E0,-4.554268837E0,3.206302643E0
3.688601283E1,9.559154510E-3,5.019418716E0,7.774169445E-1
3.694600599E1,-1.422910690E0,2.918409824E0,4.492193222E0
3.700599836E1,9.721472740E0,-1.182943439E1,4.854025841E0
3.706599069E1,4.734335899E0,-9.784837723E0,-8.952496052E-1
3.712598332E1,-3.938685894E0,-5.121707916E-2,-5.357676029E0
3.718597578E1,-5.043598175E0,7.001977921E0,-1.137862968E1
3.724596838E1,-1.061848545E1,4.934778690E0,-6.663951874E0
3.730596084E1,-4.681082249E0,-9.666304290E-2,3.818957329E0
3.736595331E1,-8.064034462E0,-1.297628498E1,1.787424088E-1
3.742594554E1,-6.508953094E0,-8.712671280E0,2.464846611E0
3.748593804E1,1.163999081E0,-1.604585266E1,-4.720710754E0
3.754593050E1,2.078812599E0,4.365359306E0,7.620551586E-1
3.760592303E1,-1.044252157E0,1.725986004E0,-9.066510201E-1
3.766591566E1,4.915390968E0,-1.415662766E1,-2.088081598E0
3.772590866E1,6.992854118E0,-8.750851631E0,1.106056452E0
3.778590166E1,1.182647705E0,-1.111728430E0,1.931053162E0
3.784589479E1,-6.663349152E0,6.160246372E0,-2.821183920E0
3.790588788E1,-1.431449509E1,7.233822823E0,-1.131200218E1
3.796588098E1,-2.401783943E0,2.115189314E0,-1.886978626E0
3.802587355E1,-1.068763733E-1,-1.834307098E1,1.329523087E1
3.808586581E1,-1.269691563E1,9.614036560E0,-3.155214548E0
3.814585814E1,9.493860245E0,-2.740736771E1,-4.122066498E-2
3.820585050E1,6.951388359E0,-1.731367111E-1,1.209141254E0
3.826584277E1,-4.620418072E0,2.813397884E0,-2.647648096E0
3.832583513E1,8.523387909E-1,1.541222572E0,6.219968796E0
3.838582783E1,4.272996902E0,-6.698972225E0,3.426225662E0
3.844582030E1,2.177110672E0,-6.183981419E0,-3.473958969E-1
3.850581296E1,-5.636972904E0,5.054900646E-1,-6.734580994E-1
3.856580566E1,-8.184797287E0,1.033305836E1,-1.010388088E1
3.862579843E1,-8.762836456E-1,9.630033493E0,-3.126758814E0
3.868579092E1,-1.800423145E0,-4.276452541E0,-1.548175931E0
3.874578372E1,6.310315132E0,-7.774852753E0,-4.884821892E0
3.880577762E1,-3.737361431E0,-1.036341953E1,1.566873074E0
3.886577195E1,2.247719765E0,-1.373472023E1,-3.511142254E0
3.892576624E1,9.624097347E-1,1.198343277E1,2.000880957E0
3.898576067E1,8.130455017E-1,5.458082199E0,2.087086439E0
3.904575461E1,5.152058125E0,-7.743841171E0,3.339436054E0
3.910574727E1,9.830613136E0,-7.875189781E0,2.327287197E0
3.916573937E1,1.409550667E0,-1.008492947E0,1.071231604E0
3.922573157E1,-7.032526970E0,3.077000380E0,2.227331161E0
3.928572400E1,-1.654732323E1,4.287024498E0,-4.145638943E0
3.934571653E1,-8.728445053E0,2.062695265E0,-5.325977802E-1
3.940570916E1,-6.623716354E-1,-6.255629539E0,-8.128913879E0
3.946570186E1,1.520156860E-1,-9.303803444E0,-2.396400452E0
3.952569453E1,-5.526832581E0,-8.597795486E0,-6.735321999E0
3.958568692E1,4.856269360E0,-2.362736225E0,7.121294975E0
3.964567959E1,-4.632873058E0,2.029274464E0,3.766051292E0
3.970567212E1,-8.996891975E-1,3.847774744E0,5.495223045E0
3.976566468E1,7.536756516E0,-2.187226868E1,5.459153652E0
3.981568310E1,7.634252548E0,-3.482969761E0,3.918232918E0
3.987567613E1,4.128632545E0,-1.176633358E0,-1.618713498E0
3.993566923E1,-4.921747208E0,3.812397003E0,-2.390151978E0
3.999566242E1,-1.368100357E1,1.066902447E1,-7.580272675E0
4.005565532E1,-9.493906021E0,6.351612568E0,-9.812846184E0
4.011564825E1,-9.073820114E0,-3.060790300E0,-1.901779175E0
4.017564059E1,1.913884735E1,-5.221669006E1,8.771809578E0
4.023563285E1,7.746166229E0,-9.694619179E0,5.553794384E0
4.029562512E1,-2.357743835E1,-2.015414810E1,7.703678608E-1
4.035561781E1,-2.297421455E0,1.028655148E1,-4.459595680E-2
4.041561048E1,-4.111214161E0,-6.937496662E0,4.416928291E-1
4.047560321E1,-1.853358269E0,-1.133730125E1,-2.065950394E0
4.053559581E1,4.971500397E0,-8.300033569E0,6.092577934E0
4.059558841E1,3.439304352E0,3.585942268E0,4.817075729E-1
4.065558087E1,7.363204956E-1,4.983812332E0,-3.073172092E0
4.071557340E1,-8.520094872E0,6.743897915E0,-9.498046875E0
4.077556593E1,-6.392816544E0,6.900231361E0,-9.467630386E0
4.083555846E1,-1.386928558E1,3.797700405E0,-1.060586929E1
4.089555133E1,5.815464020E0,-3.349590302E1,-1.046446419E1
4.095554536E1,3.158003330E0,-1.982649040E1,9.285993576E-1
4.101553969E1,3.840206623E0,-3.710556507E0,8.462707520E0
4.107553402E1,6.773555756E0,5.096969128E0,1.109095669E1
4.113552835E1,2.506987572E0,-1.035414696E0,-4.476971626E-1
4.119552225E1,1.349997520E0,-4.701310635E0,-1.051949310E1
4.125551494E1,4.584550858E-1,-5.453736782E0,-4.670166969E0
4.131550728E1,1.690496445E0,-5.654619217E0,-5.565880775E0
4.137549971E1,8.632586479E0,-4.084179878E0,1.577451229E0
4.143549217E1,-9.415801048E0,2.087227702E-1,-2.033378220E1
4.149548473E1,-7.545142174E0,-2.761223078E0,-1.212531662E1
4.155547723E1,-7.024136066E0,-2.515820980E0,-1.313706589E1
4.161546980E1,1.229787540E1,-1.181377125E1,4.041400433E0
4.167546216E1,6.641515732E0,-2.051442528E1,8.998603821E0
4.173545456E1,6.240272522E-2,-4.655927658E0,-2.671411037E0
4.179544692E1,-6.373611450E0,2.382103920E0,3.956349134E0
4.185543949E1,3.340610504E0,-5.759244919E0,6.758778572E0
4.191543192E1,5.509297371E0,-6.404335499E0,-1.817031264E0
4.197542455E1,-2.345868587E0,2.313625336E0,1.450563192E0
4.203541775E1,-2.818291187E0,-5.024084091E0,-1.181004715E1
4.209541111E1,-6.811227798E0,6.899499893E0,-1.899526024E1
4.215540417E1,-1.906012726E1,3.003884888E1,-6.547170162E0
4.221539730E1,-1.417071724E1,6.001711845E0,-1.743579865E0
4.227539034E1,1.299862194E1,-4.068959427E1,-6.224668980E0
4.233538273E1,-6.159638405E0,-1.816235542E1,-3.985655308E0
4.239537496E1,3.309565544E0,-8.337808609E0,9.167122841E-2
4.245536750E1,-3.655516624E0,1.125202179E0,-2.723722458E-1
4.251536002E1,-5.084714890E-1,1.877893209E0,4.304154396E0
4.257535256E1,9.629545212E-1,-5.071798801E0,3.180422783E0
4.263534509E1,2.524881363E0,-2.687208176E0,-7.124876976E-1
4.269533752E1,5.710601807E-2,-3.136349678E0,-6.749556065E0
4.275532985E1,-3.850995302E0,-1.033149362E0,-1.048450089E1
4.281532231E1,-1.126512909E1,4.059057236E0,-1.059383488E1
4.287531484E1,-5.518567085E0,-7.298072815E0,1.398983479E1
4.293530730E1,-1.092427158E1,7.210302353E0,-8.639804840E0
4.299529990E1,1.318726254E1,-3.754524994E1,-1.080626965E0
4.305529320E1,7.015956402E0,-9.288805008E0,-3.199177742E0
4.311528743E1,-6.497106552E-1,-2.353874683E0,-4.843314171E0
4.317528190E1,-4.564015865E0,-9.900360107E-1,-4.265583992E0
4.323527650E1,-1.054929733E0,-2.778808594E0,2.003763676E0
4.329527096E1,6.202434063E0,-1.859534979E0,4.433644772E0
4.335526473E1,4.290795803E0,1.501029491E0,-2.507254601E0
4.341525736E1,-9.881895065E0,3.265367508E0,-3.603423834E0
4.347524982E1,-2.791606140E1,2.659547997E1,-2.173052979E1
4.353524225E1,-6.863053799E0,4.703799725E0,-5.965516567E0
4.359523488E1,1.186899471E1,-2.323436737E1,-1.358832359E0
4.365522735E1,8.413478851E0,-2.382031631E1,1.551547050E-1
4.371521988E1,2.273636818E0,-7.326881886E0,-4.425729752E0
4.377521228E1,7.106232643E-1,7.007257462E0,9.856333733E-1
4.383520464E1,4.566483498E-1,4.093550682E0,6.654887199E-1
4.389519700E1,-8.184814453E-1,-3.946715117E0,2.829293728E0
4.395518957E1,-2.598375082E0,-7.355265617E0,1.946815014E0
4.401518210E1,2.690793514E0,-1.190220547E1,-5.169409275E0
4.407517463E1,-1.152146721E1,2.570896149E0,-9.906788826E0
4.413516762E1,-2.331888771E1,2.362820816E1,-1.862075806E1
4.419516169E1,9.217654228E0,-2.018060684E1,8.740378380E0
4.425515599E1,5.760366917E0,-2.011271286E1,-5.258537292E0
4.431515032E1,-6.223635674E0,-1.996227264E1,-2.016006470E0
4.437514465E1,-5.964691162E0,-4.623503685E0,-4.460157871E0
4.443513851E1,-1.330451488E0,6.043532372E0,2.795698166E0
4.449513118E1,2.046775818E-2,6.057782173E0,7.358951569E-1
4.455512344E1,-9.077863693E-1,-6.228654385E0,-8.059925079E0
4.461511594E1,2.701883316E-1,-1.873858261E1,-7.970358849E0
4.467510854E1,-1.769562912E1,1.793314171E1,-1.877627182E1
4.473510107E1,-4.602498531E0,6.434375286E0,2.245914268E1
4.479509353E1,-1.376157188E1,1.554821253E0,1.311349154E0
4.485508613E1,1.445178509E1,-1.796021843E1,3.872906446E0
4.491507842E1,-3.717838764E0,-1.970569992E1,-1.571465731E0
4.497507069E1,-1.052932739E-1,-9.148594856E0,-5.914664268E0
4.503506315E1,-4.470357895E-1,-1.141343355E0,4.400173426E-1
4.509505575E1,-4.856104374E0,3.926389217E0,7.800073624E-1
4.515504821E1,-7.353351593E0,-9.890871048E-1,-2.752971649E0
4.521504094E1,-5.167491436E0,-4.780237675E0,-2.101103783E0
4.527503421E1,-2.012559414E0,3.683930635E0,6.797825098E-1
4.533502734E1,3.189404488E0,6.762512684E0,2.998692513E0
4.539502040E1,-8.531894684E-1,1.017408967E0,3.147388935E0
4.545501360E1,-1.458792305E1,4.318127155E0,-3.697199345E0
4.551500653E1,-1.188933372E0,-2.693748856E1,-3.796670437E0
4.557499886E1,2.873917103E0,-1.192966461E1,-9.860391617E0
4.563499133E1,-1.618098497E0,-6.627537251E0,-2.749633789E0
4.569498386E1,7.962660789E-1,5.731659889E0,4.297478199E0
4.575497632E1,1.935662270E0,4.489238739E0,1.411189079E0
4.581496885E1,1.033676147E0,-7.551268578E0,3.887135983E-1
4.587496138E1,-3.607778549E-1,-5.911413193E0,-2.543507338E0
4.593495378E1,1.705545425E0,-4.315072060E0,-1.927591801E0
4.599494611E1,-4.723660469E0,1.817293644E0,-2.388234377E0
4.605493861E1,-1.087464905E1,7.454826355E0,-3.893693447E0
4.611493114E1,-5.734850883E0,7.094620705E0,-1.877523780E0
4.617492367E1,2.185667038E0,-1.781783867E1,2.947432041E0
4.623491620E1,-2.068493843E0,-7.693655968E0,-1.567220211E0
4.629490966E1,1.878149033E0,-3.369368744E1,-3.890786648E0
4.635490396E1,-7.460527420E-1,2.165041924E0,-4.282292366E0
4.641489846E1,-4.152916908E0,2.065274239E0,-2.264513731E0
4.647489299E1,-4.691337109E0,2.097023010E0,2.236651897E0
4.653488746E1,2.534246922E0,-1.095071507E1,-9.877707958E-1
4.659488106E1,6.388099194E0,-6.004294872E0,3.725258112E0
4.665487359E1,3.889520645E0,5.496986389E0,1.905855417E0
4.671486608E1,-8.830333710E0,1.142534065E1,-8.934640884E-1
4.677485855E1,1.048243904E1,-7.371717691E-1,1.306058764E0
4.683485108E1,-1.969177818E1,3.057110548E0,-6.378832817E0
4.689484358E1,-8.173396111E0,-7.070837975E0,-2.337580919E0
4.695483617E1,9.413507462E0,-2.831104279E1,-2.802479029E0
4.701482854E1,2.242602348E0,-1.428351593E1,-3.277981281E0
4.707476202E1,2.511562586E0,1.043958569E1,9.073271751E0
4.713475455E1,-7.343196869E-2,4.296849251E0,7.524289131E0
4.719474705E1,1.522782803E0,-3.063691616E0,2.544325352E0
4.725473951E1,7.513310432E0,-8.872564316E0,4.815440178E0
4.731473201E1,-1.269258499E0,-5.785512447E0,6.374881268E-1
4.737472511E1,-5.225533962E0,-5.928466916E-1,-3.375104189E0
4.743471921E1,-1.133621693E1,7.123932838E0,-3.902119160E0
4.749471354E1,-9.931449890E0,1.575803757E0,-1.164472103E-1
4.755470780E1,-5.427169323E0,-2.021277428E0,-1.044992638E1
4.761470213E1,3.241165161E1,-1.065847683E1,-1.967292190E0
4.767469593E1,-1.424273682E1,-1.862625313E1,-5.083674908E0
4.773468849E1,1.114553070E1,-1.002070045E1,-9.812569618E-2
4.779468076E1,-5.741087437E0,7.164436340E0,2.214091539E0
4.785467335E1,-6.070550919E0,-3.117728710E0,6.408749104E0
4.791466582E1,-4.187402248E0,-9.217972755E0,-5.988879204E-1
4.797465828E1,9.897592545E0,-4.503566265E0,7.710539818E0
4.803465078E1,6.658701897E0,2.423312902E0,-6.618195534E0
4.809464337E1,-2.757849693E0,6.130727291E0,-1.139169312E1
4.815463564E1,-5.295018673E0,1.121635151E1,-6.052540302E0
4.821462814E1,1.615394592E0,-7.210382938E0,8.173742294E0
4.827462060E1,-1.208120155E1,1.962314844E0,-7.093012810E0
4.833461310E1,-3.906030178E0,-2.206854439E1,2.717750549E0
4.839460556E1,8.672865868E0,-2.062492752E1,2.314223289E0
4.845459832E1,-9.072372437E0,-4.737243652E-1,-3.391928196E0
4.851459149E1,7.629667759E0,1.501732254E1,7.573317528E0
4.857458462E1,2.653668880E0,-9.905843735E-1,7.973884583E0
4.863457775E1,8.154881477E0,-1.764595032E1,1.873977661E0
4.869457088E1,-2.057429314E0,-1.049224186E1,-7.647652626E-1
4.875456378E1,-4.856892109E0,-4.446181774E0,-2.951782465E0
4.881455611E1,-7.279303074E0,1.433722377E0,-6.375339031E0
4.887454860E1,-6.947871208E0,-7.179916859E0,-9.221155167E0
4.893454114E1,-1.552857971E1,5.558070660E0,-1.227401161E1
4.899453370E1,-1.144205666E1,-3.089095592E0,-9.888987541E0
4.905452616E1,-5.896668434E-1,-3.302691650E1,1.051774025E0
4.911451869E1,1.166784477E1,-1.073626614E1,9.073022008E-1
4.917451106E1,1.832452774E0,6.426739693E0,6.946549892E0
4.923450339E1,5.307703018E-1,9.569451332E0,5.448323250E0
4.929449582E1,-6.498885155E-1,-5.451727390E0,2.781381130E0
4.935448842E1,3.018311024E0,-7.433991432E0,1.756566525E0
4.941448088E1,5.278387070E-1,1.661245823E-1,7.179070950E0
4.947447348E1,-3.378480911E0,3.766024113E0,-1.898779869E0
4.953446704E1,-7.716613293E0,8.743666410E-1,-1.033866501E1
4.959446137E1,-1.730025864E1,3.874395847E0,-1.223430252E1
4.965445567E1,-2.227087021E1,1.291397691E0,-7.587950230E0
4.971445007E1,-3.226867914E0,-1.215234852E1,4.803703308E0
4.977444426E1,8.344194412E0,-3.644894791E1,-5.647059917E0
4.983443756E1,1.105398941E1,-2.758917809E0,3.883933544E0
4.989442989E1,-3.920186758E0,2.985484123E0,-6.702088356E0
4.995442226E1,1.957834721E0,2.523754120E0,-2.617137671E0
5.001441472E1,9.063232422E0,-1.168980598E-1,3.561820984E-1
5.007440732E1,8.143740654E0,6.250402451E0,5.585219383E0
5.013439978E1,-5.652832985E0,2.940265417E0,7.898484707E0
5.019439235E1,-1.859093857E1,-8.856611848E-1,-6.367425919E0
5.025438481E1,-2.939004707E1,7.649558067E0,-2.119357491E1
5.031437721E1,-1.826530266E1,6.061101437E0,-1.825665665E1
5.037436954E1,1.507512093E1,-2.030141449E1,6.280916214E0
5.043436207E1,1.725194168E1,-3.121908188E1,7.785358906E0
5.049435456E1,-5.261864662E-1,-6.755332947E0,-9.543808699E-1
5.055434710E1,-2.520821571E0,4.619027615E0,9.832673073E-1
5.061433999E1,3.224495888E0,5.407516956E0,2.874610424E0
5.067433329E1,6.361559868E0,-2.908780336E0,2.549877644E0
5.073432642E1,6.898049355E0,-4.698519707E0,5.827930450E0
5.079431955E1,-2.453478813E0,-7.753758430E-1,-1.972123623E0
5.085431268E1,7.940648079E0,-4.272634506E0,-6.602244377E0
5.091430531E1,-1.452563095E1,-7.464698792E0,-1.249201775E1
5.097429761E1,-1.672147751E1,-5.868664742E0,-1.930471802E1
5.103429011E1,-8.607037544E0,-5.777458191E0,-6.701515675E0
5.109428264E1,1.376421738E1,-2.199428177E1,4.580953598E0
5.115427510E1,1.116701698E1,-2.594848824E1,-5.293965340E-1
5.121426770E1,6.470052719E0,-4.920471191E0,3.342150927E0
5.127426016E1,-1.109086037E0,6.282867432E0,5.606787205E0
5.133425263E1,-1.119843960E0,-5.928605080E0,2.787637234E0
5.139424496E1,7.245217323E0,-1.137394047E1,2.973642349E0
5.145423755E1,3.677432060E0,-9.958247185E0,7.126760483E-2
5.151423002E1,-1.615333557E0,-3.256809711E0,-3.621028185E0
5.157422261E1,-9.461267471E0,-1.154625416E0,-6.233915806E0
5.163421518E1,1.644777775E0,-4.943172455E0,-5.294873714E0
5.169420908E1,-2.585216713E1,4.206576347E-1,-1.448447609E1
5.175420348E1,-4.893338680E0,-1.011885166E1,-8.650987625E0
5.181419808E1,1.521535397E1,-2.885718346E1,1.091138172E1
5.187419254E1,3.128551006E0,-2.238560677E1,-2.917327166E0
5.193418687E1,-4.414401054E-1,7.397143364E0,-1.804574490E0
5.199417997E1,-4.060121536E0,-9.918093681E-1,-2.323730230E0
5.205417240E1,5.771816254E0,-1.337771225E1,-2.959605217E0
5.211416487E1,5.098154068E0,-1.052335072E1,4.473085403E-1
5.217415740E1,1.361722946E-1,-3.835062265E0,2.270517349E0
5.223414993E1,-5.243181229E0,2.333629131E0,-2.765677929E0
5.229414249E1,-6.598944664E0,9.018192291E-1,-5.822280407E0
5.235413499E1,1.248876381E1,-6.015183449E0,-1.043633461E0
5.241412729E1,-1.276659584E1,-5.093515873E0,-7.279953003E0
5.247411968E1,-1.086570454E1,-5.432343006E0,-4.632072926E0
5.253411221E1,1.668902206E1,-2.961097145E1,6.334920883E0
5.259410471E1,1.053459740E1,-1.186746597E0,-5.060026646E0
5.265409717E1,-4.350914001E0,4.351095200E0,-7.174553871E0
5.271408977E1,3.660173416E-1,-3.027657986E0,1.759781361E0
5.277408337E1,7.356573105E0,-1.149295139E1,3.417749882E0
5.283407763E1,4.630577087E0,-9.202634811E0,-1.438722610E-1
5.289407190E1,-1.886217117E0,-2.565201283E0,1.464267254E0
5.295406629E1,-8.753390312E0,5.986317992E-1,-1.229110146E1
5.301406052E1,8.533964157E-1,2.911836624E0,-8.917610168E0
5.307405372E1,-1.160828304E1,2.147599792E1,-5.709177494E0
5.313404608E1,-5.537675858E0,-1.454436493E1,-7.045029163E0
5.319403848E1,8.881096840E0,-3.550758743E1,9.533760071E0
5.325403095E1,-4.917909145E0,-8.579811096E0,-1.428480148E1
5.331402354E1,8.451590538E0,1.436865997E1,-4.324693680E0
5.337401601E1,-5.580321312E0,6.123563290E0,-4.142646313E0
5.343400850E1,2.357328415E0,-9.756011963E0,2.530417442E-1
5.349400097E1,5.859221458E0,-1.135916138E1,-2.857868195E0
5.355399330E1,1.612378120E0,-4.018053055E0,-4.480253220E0
5.361398573E1,-1.935010910E0,6.257456779E0,-5.480564117E0
5.367397826E1,-1.623357010E1,8.656800270E0,-1.049770069E1
5.373397079E1,-1.101988888E1,-2.792782307E0,-8.158004761E0
5.379396332E1,-7.050021172E0,-7.251286507E0,-1.262324619E1
5.385395639E1,9.956532478E0,-4.942333221E1,-1.223084354E1
5.391394948E1,1.006958008E1,-1.031220055E1,-1.551025391E0
5.397394261E1,5.950520039E-1,-9.042401314E-1,-5.668385029E0
5.403393574E1,-1.649446964E0,1.375229359E0,-1.416248322E0
5.409392884E1,-1.029363632E0,-4.226081371E0,-3.076760292E0
5.415392144E1,2.929168701E0,-2.510603905E0,-5.895390511E-1
5.421391387E1,3.791261673E0,-2.092849731E0,3.772805214E0
5.427390633E1,-2.808183193E0,-8.402920365E-1,-9.689216614E-1
5.433389886E1,-7.141689301E0,-2.512797356E0,-6.755328655E0
5.438397840E1,-1.035566330E0,-2.921612263E-1,-1.362155914E1
5.444397086E1,-1.843623734E1,-8.622446060E-1,-1.256344795E1
5.450396333E1,-9.825282097E-1,-1.357099342E1,8.711016178E-1
5.456395573E1,2.393148232E1,-3.366770172E1,-2.041215420E0
5.462394809E1,1.735976219E0,-8.812940598E0,-4.495067596E-1
5.468394062E1,6.605696678E-1,9.040065765E0,5.120684624E0
5.474393315E1,-5.429179192E0,-1.918031693E0,4.461614132E0
5.480392568E1,2.135833740E0,-8.762525558E0,1.699704170E0
5.486391831E1,6.848011971E0,-3.976780176E0,-1.224484444E-1
5.492391214E1,5.198331833E0,3.094268084E0,-7.896943092E0
5.498390647E1,-1.498997211E0,4.673174858E0,-8.887531281E0
5.504390080E1,-8.613075256E0,-1.783911467E0,-8.606907845E0
5.510389513E1,-1.269190407E1,-1.642994499E1,6.515507698E0
5.516388933E1,-1.406790733E1,-1.908743620E0,-4.155185699E0
5.522388230E1,1.933232307E0,-2.034475327E1,-6.181031227E0
5.528387463E1,1.136964417E1,-2.241206741E1,-1.509248257E0
5.534386702E1,7.021880150E0,7.296302795E0,3.611035347E-1
5.540385956E1,3.506486893E0,3.019959450E0,3.209740639E0
5.546385205E1,1.708937168E0,-4.829950333E0,5.757720470E0
5.552384448E1,5.885263443E0,-7.621787071E0,2.841904163E0
5.558383705E1,3.740837574E0,-5.015460491E0,7.629756927E-1
5.564382951E1,-5.531414032E0,-1.821215987E0,-3.929546833E0
5.570382184E1,-8.561689377E0,2.704307556E0,-1.562481594E1
5.576381427E1,-2.958113670E0,1.858477950E0,-9.154966354E0
5.582380687E1,-6.011095047E0,-3.068694115E0,4.834947586E0
5.588379930E1,-9.884012222E0,-2.895067692E0,-4.529876709E-1
5.594379186E1,8.540248871E-2,-1.538785839E1,-4.611950397E0
5.600378496E1,2.831555605E0,-1.857841682E1,-2.088681459E0
5.606377819E1,5.405879021E0,7.733676910E0,4.653792381E0
5.612377129E1,1.457166672E-2,3.571697235E0,1.517315388E0
5.618376448E1,6.512152672E0,-1.111013603E1,6.925740242E-1
5.624375752E1,1.066314888E1,-1.176900864E1,1.396014929E0
5.630375001E1,3.882370949E0,-9.368109703E-1,1.112720013E0
5.636374234E1,-1.431141376E0,5.252484798E0,1.391429901E-1
5.642373491E1,-1.104481125E1,4.918756962E0,-1.103188896E1
5.648372737E1,-6.107287407E0,-3.823778868E0,-1.338115120E1
5.654371993E1,1.384668922E1,-2.654699326E1,1.354156303E1
5.660371246E1,4.481975079E0,-1.730051422E1,-5.088199615E0
5.666370493E1,1.960371971E0,-2.148162079E1,-2.554587126E0
5.672369719E1,5.786005974E0,7.381371975E0,1.227700520E1
5.678368966E1,3.198174000E0,4.141976833E0,5.939948082E0
5.684368215E1,4.549884796E-2,-1.151658058E0,1.816070080E0
5.690367468E1,4.296876431E0,-9.575890541E0,-1.854187965E0
5.696366718E1,1.524672508E0,-6.161062717E0,-1.391263008E-1
5.702366021E1,1.209630013E0,4.299637794E0,8.831100464E-1
5.708365428E1,4.999189377E-1,1.054032993E1,-2.970744133E0
5.714364888E1,-4.300428867E0,6.119991302E0,-4.681637764E0
5.720364341E1,-3.406827688E0,5.709934235E-2,-3.467659473E0
5.726363791E1,-1.591491699E-2,-1.181993294E1,-1.473392487E1
5.732363194E1,-5.281738281E0,-2.292628098E1,2.769397974E0
5.738362474E1,6.074043274E0,-4.783659935E0,1.476017237E0
5.744361713E1,5.060726643E0,7.320032120E-1,-1.146095085E1
5.750360963E1,-2.391964912E0,2.790093899E0,1.081397533E0
5.756360223E1,3.124265194E0,-5.208456039E0,9.849021435E-1
5.762359469E1,4.558523178E0,-1.736835098E1,6.849739552E-1
5.768358729E1,5.925460815E0,-8.035485268E0,6.567763329E0
5.774357962E1,2.289505005E-1,-4.792745590E0,8.025343895E0
5.780357192E1,-1.525629044E0,7.951925278E0,7.442860126E0
5.786356435E1,-6.768305779E0,1.196288300E1,-6.543648720E0
5.792355694E1,-7.486333847E-1,6.253782272E0,-2.004193306E1
5.798354941E1,1.834693909E0,1.249117374E1,-1.861394691E1
5.804354194E1,-8.874455452E0,7.091164589E-2,-2.809378386E0
5.810353470E1,2.161398888E0,-4.990804195E0,-5.020639420E0
5.816352853E1,4.108176231E0,-1.554084682E1,-3.531608820E0
5.822352280E1,3.217331409E0,-1.076242828E1,-2.759549379E0
5.828351713E1,-3.332009554E0,-3.540380955E0,2.878129721E0
5.834351146E1,-6.591329575E-1,-8.855619431E0,5.390882492E-2
5.840350555E1,5.558309555E0,-8.554125786E0,-1.630363464E-1
5.846349842E1,-1.970665932E0,-1.179974079E0,-3.260705948E0
5.852349068E1,3.602266312E-1,3.645509720E0,-6.036382675E0
5.858348315E1,-7.641504288E0,7.343415260E0,-7.248980522E0
5.864347571E1,9.416763306E0,-8.912379265E0,-5.771996498E0
5.870346834E1,-1.856174088E1,1.141488266E1,-1.230070496E1
5.876346080E1,1.220618343E1,-2.633433151E1,9.948628426E0
5.882345340E1,6.722729683E0,-1.353638268E1,-7.882494926E0
5.888344573E1,-3.349633932E0,-5.154652119E0,-7.894962788E0
5.894343803E1,-8.425167084E0,-1.150838661E1,-4.856900692E0
5.900343036E1,-3.794440269E0,-1.237624741E1,-1.959036827E0
5.906342296E1,-3.350062370E-1,-1.217721224E0,7.234506607E-1
5.912341542E1,1.501182556E0,7.027873039E0,1.085286617E0
5.918340805E1,-3.182271957E0,7.579299450E0,-3.499602318E0
5.924340115E1,-7.546555519E0,3.450021982E0,-6.154675961E0
5.930339431E1,3.329977989E0,-6.567196846E0,-2.124025345E1
5.936338738E1,-1.311504555E1,-2.828148365E0,-8.322393417E0
5.942338057E1,5.931488991E0,-1.137976837E1,2.589349747E0
5.948337360E1,7.862667084E0,-2.907727051E1,-6.141081333E0
5.954336610E1,3.399216175E0,-8.837367058E0,-3.929039001E0
5.960335853E1,-3.170241833E0,1.534130812E0,-1.544413567E0
5.966335106E1,-3.483398438E0,-2.164461374E0,-7.823457718E-1
5.972334353E1,1.632121086E0,-1.068193722E1,-3.461216927E0
5.978333606E1,9.864786148E0,-9.178303719E0,1.799238205E0
5.984332859E1,-3.055553436E-1,-2.472032309E-1,-5.678487301E0
5.990332102E1,-8.873548508E0,9.900613785E0,-1.023666000E1
5.996331335E1,-1.645427132E1,-4.300547600E0,-1.038877869E1
6.002330581E1,3.877250671E0,-1.148308754E0,-3.905516815E1
6.008329834E1,-1.891608596E0,-7.592129707E0,-1.000908375E1
6.014329087E1,1.373404312E1,-2.230995178E1,3.407692909E0
6.020328340E1,6.585390568E0,-1.865776634E1,-7.446549416E0
6.026327647E1,2.011433601E0,1.827402353E0,-1.890137672E0
6.032327060E1,-1.908664703E-1,-4.789524078E-1,-2.120761871E-1
6.038326486E1,4.198476315E0,-1.511201191E1,1.862538815E0
6.044325919E1,3.588113785E0,-8.503173828E0,1.504022598E0
6.050325352E1,-6.147298813E-1,3.577784538E0,6.191883087E-1
6.056324732E1,-9.492926598E-1,4.776417732E0,-8.615845680E0
6.062323985E1,1.950762272E0,-1.855181217E0,-9.668125153E0
6.068323225E1,-2.649161339E0,-6.911685944E0,-6.019803047E0
6.074322468E1,-4.345162392E0,-8.301982880E0,1.817252159E0
6.080321721E1,-1.055110741E1,-3.956489563E0,-2.054440975E0
6.086320967E1,-2.513390541E0,-1.014937687E1,-1.300543785E0
6.092320227E1,-3.075535774E0,-1.809359741E1,-3.957859993E0
6.098319473E1,4.250406265E0,2.681561947E0,1.169977188E0
6.104318713E1,-1.437486649E0,-2.296013355E0,-3.216403246E0
6.110317940E1,6.537442684E0,-5.409941196E0,5.163598061E0
6.116317196E1,6.037568569E0,-4.503201008E0,4.514739513E-1
6.122316442E1,3.939676285E-1,2.661691189E0,2.816193581E0
6.128315702E1,-5.397091389E0,7.346694946E0,4.358743668E0
6.134314968E1,-8.623203278E0,6.300639629E0,-5.725949764E0
6.140314302E1,-1.470598316E1,1.770238876E0,-1.120687485E1
6.146313611E1,-5.962683678E0,-6.696468353E0,-8.545809746E0
6.152312924E1,-8.021626472E0,-8.556981087E0,-3.838777542E-1
6.158312231E1,1.390622902E1,-2.647013283E1,1.139223576E0
6.164296380E1,1.332478523E-1,6.464473724E0,4.589126110E-1
6.170295614E1,-7.620334625E-3,-1.242961407E0,4.814734459E-1
6.176294860E1,-8.611531258E-1,-6.764879227E0,-1.470111609E0
6.182294113E1,6.314338207E0,-3.019107342E0,2.682907104E0
6.188293359E1,1.184834480E0,-1.304105282E0,2.735021114E0
6.194292612E1,-3.752701283E0,5.035747528E0,8.293590546E-1
6.200291865E1,-8.426180840E0,8.801178932E0,-3.702345133E0
6.206291105E1,-1.039207363E1,4.558519840E0,-8.338058472E0
6.212290335E1,-2.098092556E0,-6.272581100E0,2.971359968E0
6.218289591E1,-5.728378296E-1,-1.400428295E0,-1.325330257E0
6.224288837E1,2.791606903E0,-2.528069115E1,-1.038179398E-1
6.230288090E1,1.178221703E0,-4.887159348E0,-1.914652705E0
6.236287340E1,-1.545130730E0,8.034259796E0,1.953125954E0
6.242286693E1,7.517347336E-1,-2.081193924E-1,4.929768562E0
6.248286120E1,6.289494991E0,-1.438237762E1,7.507483959E-1
6.254285583E1,5.485572815E0,-7.283026695E0,2.497022629E0
6.260285030E1,-2.233953476E-1,2.883985996E0,-5.776135921E-1
6.266284480E1,-3.478758335E0,7.265210629E0,-1.597678900E0
6.272283829E1,-8.727779388E0,6.746592999E0,-6.431023121E0
6.278283093E1,-4.441087723E0,-1.261783838E0,-8.882527351E0
6.284282332E1,-7.117609978E0,-1.393849754E1,-6.208098412E0
6.290281585E1,-1.446357346E1,-1.637048340E1,3.340915918E0
6.296280838E1,-7.505467415E0,-2.408032227E1,-1.024793148E0
6.302280091E1,-3.422296047E0,2.942361832E-1,2.052412033E-1
6.308279338E1,-3.740448475E0,4.218010902E-1,2.006284237E0
6.314278574E1,6.062653065E0,-8.529036522E0,3.499875546E0
6.320277814E1,7.557147026E0,-4.248093605E0,4.763521194E0
6.326277067E1,3.058650970E0,-1.534432650E0,4.660562992E0
6.332276320E1,-5.445993900E0,4.309761524E-1,2.822378635E0
6.338275566E1,-8.333133698E0,6.265074730E0,-4.271630764E0
6.344274819E1,-4.883178234E0,-6.639598608E-1,-4.447374344E0
6.350274136E1,-9.417455673E0,-8.801521301E0,-1.247575092E1
6.356273546E1,-8.543586731E-1,-1.071396542E1,5.523650646E-1
6.362272972E1,4.911775589E0,-1.156716537E1,2.866135597E0
6.368272412E1,-2.613986969E0,-6.630340576E0,1.106445074E0
6.374271841E1,-5.176092625E0,6.597702980E0,3.048126221E0
6.380271205E1,-3.945775032E-1,4.657145977E0,7.145003319E0
6.386270454E1,7.592694283E0,-1.018043709E1,2.522195101E0
6.392269701E1,7.919383049E0,-7.644962311E0,-2.931305170E-1
6.398268947E1,8.646221161E-1,-1.240432739E0,5.126851082E0
6.404268207E1,-6.239597321E0,6.813797951E0,3.438439846E0
6.410267453E1,-9.385448456E0,8.870153427E0,8.859934807E-1
6.416266706E1,-3.046290874E0,-5.848023415E0,-5.435706615E0
6.422265949E1,2.128533363E0,-1.055676937E1,-1.297052860E1
6.428265189E1,4.718681335E0,-7.635119438E0,9.700256348E0
6.434264422E1,-7.801822186E0,-1.645980000E0,5.867311954E-1
6.440263675E1,-1.138896942E0,-2.276210785E0,2.656226158E-1
6.446262928E1,-3.756064653E0,-3.710548401E0,1.382915497E0
6.452262178E1,-1.000405312E1,-4.908043861E0,2.896041870E0
6.458261451E1,4.204135895E0,-3.717893124E0,8.341724396E0
6.464260774E1,7.479227543E0,-3.732166290E0,3.598286629E0
6.470260087E1,1.313808441E0,3.288033009E0,-1.363294840E0
6.476259400E1,-5.163855553E0,9.704319954E0,-1.046657562E-1
6.482258713E1,-8.339179993E0,3.709323645E0,-4.015369892E0
6.488257993E1,-5.354383469E0,-9.900136948E0,-5.449163437E0
6.494257226E1,-3.366577148E0,-5.788982391E0,-5.154808044E0
6.500256476E1,5.423022270E0,-6.344649315E0,1.055229378E1
6.506255729E1,-1.304278088E1,-1.103188515E0,-4.014582157E0
6.512254975E1,-3.154650688E0,-2.629400253E0,-4.272420406E0
6.518254235E1,1.202557087E0,3.567248821E0,7.173149586E-1
6.524253481E1,-4.071604252E0,-1.799485970E1,2.202750921E0
6.530252718E1,4.640984535E0,-8.647441864E0,1.023837376E1
6.536251951E1,5.845942020E0,-3.516319275E0,7.110925674E0
6.542251210E1,1.594070911E0,3.726938963E0,2.851299047E0
6.548250460E1,-2.645734310E0,7.547169685E0,-6.692957878E0
6.554249720E1,-1.183583355E1,9.338956833E0,-8.211879730E0
6.560248969E1,-1.533502483E1,7.570126057E-1,-1.409932137E1
6.566248329E1,-4.700820923E0,5.341501236E0,-2.907462120E-1
6.572247749E1,5.365396738E-1,-2.105050659E1,3.737013340E0
6.578247185E1,5.150351524E0,-1.031136990E1,2.759327650E0
6.584246612E1,5.410206795E0,9.583221436E0,7.593484402E0
6.590246045E1,-3.546109676E0,-4.228143692E-1,9.074356556E-1
6.596245365E1,2.112937689E0,-7.907121181E0,6.294340134E0
6.602244601E1,2.357710123E0,1.288069963E0,8.579849243E0
6.608243831E1,3.957638741E-1,4.230727196E0,3.802029133E0
6.614243097E1,-3.410838604E0,6.279533863E0,-1.140838623E0
6.620242350E1,-6.663946629E0,4.469936371E0,-7.265334129E0
6.626241610E1,-4.900820732E0,1.123883486E0,-6.067389011E0
6.632240866E1,-1.401046371E1,-4.168525219E0,-1.774431229E1
6.638240119E1,2.356336212E1,-2.161773682E1,-1.068146706E1
6.644239339E1,2.652520657E0,-1.726052856E1,-2.224475861E0
6.650238576E1,9.508407593E0,-1.308605576E1,-7.720219135E0
6.656237822E1,4.802208900E0,5.039262772E-2,9.401478767E-1
6.662237075E1,3.289155006E0,-1.191158867E1,2.353179455E0
6.668236328E1,9.078166962E0,-1.021556377E0,5.488287449E0
6.674235631E1,3.049279690E0,6.176282406E0,2.267388821E0
6.680234958E1,-2.645579338E0,6.146672249E0,-5.538774490E0
6.686234271E1,-8.175357819E0,5.763215065E0,-3.386188507E0
6.692233584E1,-2.319137764E1,9.602669477E-1,-9.789192200E0
6.698232887E1,1.071124744E1,1.426404953E1,-7.764753342E0
6.704232150E1,1.361543417E0,-1.633941650E1,7.210721970E-1
6.710231376E1,6.508009911E0,-3.897606277E1,-1.241924286E0
6.716230630E1,6.726764679E0,-8.824653625E0,-2.917065859E0
6.722229876E1,-2.402415991E0,2.632998466E0,-4.688666344E0
6.728229136E1,7.015948296E-1,6.164083481E-1,-2.825572968E0
6.734228382E1,-5.828838348E-1,-7.441479683E0,8.304820061E-1
6.740227642E1,4.692130566E0,-2.149233341E0,6.451230049E-1
6.746226868E1,1.512335777E0,-4.028914452E0,-5.822723389E0
6.752226108E1,-5.552179337E0,-1.142847538E0,-2.774122238E0
6.758225357E1,-1.089269352E1,3.915046453E0,-9.170179367E0
6.764224620E1,-7.098882675E0,3.412664175E0,-3.060588360E0
6.770223877E1,-4.124103069E0,6.203458786E0,-7.837544441E0
6.776223150E1,2.344358444E0,-2.150193977E1,-4.951953888E-3
6.782222543E1,5.397101402E0,-2.477156067E1,-4.072512150E0
6.788221993E1,2.308201790E-1,7.149643898E-1,-2.418603659E0
6.794221436E1,-2.935427427E0,2.904576778E0,7.890783787E0
6.800220880E1,-2.515963554E0,-2.235238075E0,-9.134049416E-1
6.806220313E1,1.165622139E1,-7.381578445E0,2.507781982E0
6.812219619E1,7.804479599E0,-4.919148922E0,-2.907680511E0
6.818218859E1,-2.930831909E-1,4.674591064E0,-2.956591129E0
6.824218105E1,-6.861861706E0,9.096268654E0,-3.511933088E0
6.830217358E1,-6.614505768E0,3.794444084E0,-7.890928268E0
6.836216611E1,2.680842400E0,-8.011300087E0,-2.375365639E1
6.842215864E1,-1.108939838E1,-8.504547119E0,-1.004595089E1
6.848215104E1,9.001884460E0,-2.272978592E1,2.391215801E0
6.854214344E1,1.026587009E1,-1.353392410E1,-2.341194630E0
6.860213580E1,6.978368759E0,5.669362545E0,-1.697859287E0
6.866212833E1,-9.164211750E-1,7.982754707E-1,-6.751694679E0
6.872212080E1,1.087096453E0,-8.804292679E0,-1.509810925E0
6.878211339E1,3.741298199E0,-5.820395947E0,7.913770676E-1
6.884210592E1,1.150946140E0,-4.923489094E-1,1.709802628E0
6.890204920E1,-1.054706192E1,2.901450396E0,-3.045780659E0
6.896204346E1,-7.201787949E0,1.151043129E1,-9.244090080E0
6.902203779E1,-2.129152107E1,-8.288619041E0,-1.535471916E0
6.908203206E1,-1.081976128E1,-2.660277843E0,-9.303594589E0
6.914202642E1,1.073672485E1,-2.102948189E1,6.430634499E0
6.920201949E1,1.261057377E0,-2.353916168E1,-5.956060410E0
6.926201182E1,6.415390015E0,9.535636902E0,1.780565739E0
6.932200425E1,1.082601547E-1,1.396586895E0,-2.144434929E0
6.938199678E1,1.918797493E0,-1.110807419E1,3.850264549E-1
6.944198921E1,3.223046780E0,-8.708039284E0,7.672719955E-1
6.950198174E1,3.823099136E0,-1.567367315E0,-2.174531937E0
6.956197427E1,-3.243029594E0,5.911923409E0,-4.730441093E0
6.962196670E1,-1.954603958E1,5.060283661E0,-2.465151787E0
6.968195903E1,-1.756815720E1,1.980398560E1,-1.801149368E1
6.974195143E1,2.941894770E0,-4.366026878E0,-5.950513363E0
6.980194396E1,5.928020477E0,-2.128202820E1,-3.782339096E-1
6.986193649E1,1.553424835E1,-1.799533463E1,1.564568520E0
6.992192902E1,2.761657715E0,1.778847694E0,-2.047882080E-1
6.998192208E1,2.534841299E0,6.285905838E0,3.830957413E-1
7.004191535E1,2.971498013E0,-3.562101364E0,2.280210018E0
7.010190841E1,8.171762466E0,-1.517773247E1,1.304170609E0
7.016190154E1,1.930208206E0,-8.866593361E0,-1.785614014E0
7.022189467E1,-8.956607819E0,-1.630783558E0,-6.574279308E0
7.028188727E1,-9.075814247E0,5.814338207E0,-1.334213352E1
7.034187960E1,-6.214503288E0,5.191379070E0,-1.042403793E1
7.040187220E1,-7.619723797E0,3.798658133E0,5.364217758E-1
7.046186466E1,5.537527084E0,-1.026992679E0,-1.744046211E-1
7.052185713E1,3.412818909E-1,-1.507109928E1,9.362876892E0
7.058184959E1,-2.127566338E0,-9.819444656E0,-5.124954224E0
7.064184212E1,1.747989655E0,9.513689041E0,4.321622849E0
7.070183438E1,-3.065892220E0,-2.835551262E0,7.338750362E-1
7.076182691E1,-3.748390913E0,-8.891567230E0,-2.179962635E0
7.082181944E1,7.585469246E0,-6.394644737E0,3.216491699E0
7.088181197E1,4.111287117E0,-1.424218416E-1,-4.288959503E0
7.094180444E1,-4.867877960E0,4.007506847E0,-4.917329311E0
7.100179734E1,-1.148608208E1,4.731689453E0,-5.925566196E0
7.106179130E1,-1.129591370E1,4.071389198E0,-7.432836056E0
7.112178563E1,-6.117980480E0,-2.750632286E0,1.956142902E0
7.118177996E1,1.116087532E1,-1.427290344E1,1.712690830E0
7.124177429E1,-1.526818752E0,-2.339009666E1,-3.763860703E0
7.130176825E1,6.748300552E0,1.468154430E0,-1.200659037E0
7.136176095E1,-1.367299080E0,1.043560314E1,-2.190097332E0
7.142175328E1,3.505699635E0,1.041548252E0,3.832839012E0
7.148174571E1,9.102666855E0,-1.783269310E1,1.068017244E0
7.154173824E1,3.957566738E0,-9.248812675E0,-4.302358627E-1
7.160173071E1,-4.815864563E-1,4.528954029E-1,5.009169579E-1
7.166172327E1,-9.850451469E0,3.610960484E0,-7.190642357E0
7.172171584E1,-8.433001518E0,1.843991041E0,-6.699900150E0
7.178170830E1,-7.875046253E0,-2.771695137E0,-7.765310287E0
7.184170060E1,1.729953384E1,-1.309045601E1,5.468445301E0
7.190169319E1,-3.720312357E0,1.421638429E-1,-6.086621761E0
7.196168562E1,-2.220078230E0,-1.888685608E1,-4.279656410E0
7.202167812E1,3.630280495E-1,4.815580368E0,-2.132992506E0
7.208167065E1,-3.375380039E-1,-1.282729149E0,1.261616230E0
7.214166398E1,3.761418819E0,-1.616715813E1,1.013118744E0
7.220165708E1,6.079379559E0,-4.568181515E0,4.607506275E0
7.226165031E1,3.501160622E0,4.028115273E-1,2.504173279E0
7.232164338E1,-3.566099882E0,5.380841255E0,-6.002420902E0
7.238163641E1,-1.118615532E1,8.092387199E0,-1.201198483E1
7.244162870E1,-1.001344109E1,-5.976974964E-1,-1.170012951E1
7.250162117E1,-8.108873367E0,1.753159046E0,-7.059491158E0
7.256161360E1,-1.704378128E-1,-1.876047516E1,-2.906620979E0
7.262160613E1,4.097356796E0,-2.292853737E1,3.706070423E0
7.268159869E1,4.669552803E0,6.160056114E0,4.032748222E0
7.274159122E1,7.127881050E-1,6.747981548E0,2.669534683E0
7.280158359E1,-7.884874344E-1,-4.710769653E-2,1.793218613E0
7.286157592E1,7.555376053E0,-9.211168289E0,3.477017879E0
7.292156835E1,1.034654140E0,-5.576089859E0,2.404644966E0
7.298156084E1,-4.002725124E0,5.513372421E-1,-2.248958349E0
7.304155338E1,-1.058351803E1,1.762583494E0,-9.768462181E0
7.310154584E1,-2.132853317E1,1.293167782E1,-1.377042580E1
7.316153910E1,-5.150724411E0,1.176497746E1,-4.096854210E0
7.322153340E1,8.374797821E0,-2.489998055E1,1.691775799E0
7.328152780E1,7.914611340E0,-1.303074646E1,-7.642695904E-1
7.334152210E1,3.349397182E0,-3.235264301E0,-2.761597633E-1
7.340151649E1,-1.370674133E0,1.175040531E1,9.326639175E0
7.346151002E1,-4.731436729E0,6.299543381E-1,-2.143740654E-1
7.352150249E1,-5.395560265E-1,-1.007203960E1,-4.998567104E0
7.358149469E1,8.350849152E0,-6.025336266E0,-2.932707548E0
7.364148722E1,1.678600311E-1,-4.250042915E0,-6.197779179E0
7.370147968E1,-9.780319214E0,4.622938156E0,-8.221284866E0
7.376147228E1,-2.546269894E0,7.672293186E0,2.721865654E0
7.382146474E1,-7.402939796E0,6.033464432E0,-6.450413227E0
7.388145727E1,4.116398811E0,-1.966415024E1,-1.237978935E-1
7.394144957E1,1.274331331E0,-2.284946251E1,-6.086074352E0
7.400144193E1,8.186051369E0,-5.578369141E0,2.003798485E0
7.406143440E1,-5.641651630E0,3.785697460E0,1.745339870E0
7.412142693E1,-2.863429785E0,1.556928158E0,4.763975143E-1
7.418141946E1,-4.622546196E0,-6.333367348E0,1.627731323E-1
7.424141226E1,-1.860518932E0,-6.324190617E0,-2.226590157E0
7.430140555E1,-2.276692390E-1,2.506196499E-1,7.230380535E0
7.436139868E1,-1.191518688E1,-4.180575848E0,-2.106112480E0
7.442139181E1,-1.768129158E1,9.973711967E-1,-2.563468361E1
7.448138494E1,-2.171734428E1,6.969225407E0,-2.224891281E1
7.454137781E1,1.672143173E1,-2.573460770E1,6.052781105E0
7.460137007E1,1.820524216E1,-1.832583809E1,2.174201012E0
7.466136247E1,9.540987015E-1,-4.776817799E0,-4.811140537E0
7.472135510E1,3.791367054E0,2.518107414E0,1.423599243E0
7.478134763E1,2.250165939E0,6.168964863E0,3.977052212E0
7.484134009E1,4.454282761E0,-3.617313623E0,2.420212269E0
7.490133269E1,2.751706600E0,-4.882855892E0,-1.639772415E0
7.496132509E1,1.819664955E0,1.892374516E0,1.968552589E0
7.502131732E1,-5.003752708E0,3.165908337E0,-7.037696838E-1
7.508130978E1,-8.387354851E0,7.942287922E-1,-3.477742434E0
7.514130238E1,-6.366045475E0,1.983079672E0,-2.483419418E0
7.520129488E1,-8.600933075E0,-2.520513535E-1,-6.772730350E0
7.526128751E1,-1.109140635E0,-4.930624962E0,-5.891513824E-2
7.532128117E1,3.937781811E0,-1.847841454E1,6.565189362E-1
7.538127557E1,1.722176933E1,-1.517155552E1,-2.367817879E0
7.544127004E1,-5.348616123E0,-1.920580864E0,-5.830341339E0
7.550126460E1,2.247750282E0,3.202079296E0,2.011813641E0
7.556125904E1,3.831418037E0,-5.535381794E0,4.100413322E0
7.562125240E1,5.109977722E0,-3.180785656E0,1.153151512E0
7.568124487E1,1.107034683E-1,8.752645254E-1,2.162925243E0
7.574123740E1,-4.826846123E0,6.237603188E0,-6.043003559E0
7.580122986E1,-5.598120689E0,5.686446190E0,-4.817309380E0
7.586122246E1,-4.362424374E0,-5.013877392E0,2.311010838E0
7.592121495E1,-3.755768299E0,-8.331439495E-1,2.318941593E0
7.598120748E1,-1.328493881E1,-1.192126036E0,-9.449696541E0
7.604119981E1,1.181926918E1,-1.855782890E1,9.781847000E0
7.610119218E1,-7.020338535E0,-8.688311577E0,-8.772964478E0
7.616118464E1,4.462727547E0,-6.599109650E0,2.428506374E0
7.622115046E1,-1.733875751E0,-5.348786354E0,-8.309860229E-1
7.628114299E1,7.809612274E0,-1.708899498E0,2.203697205E0
7.634113552E1,4.021721840E0,1.265032768E0,1.603116035E0
7.640112885E1,-2.247393131E0,8.839178085E0,-2.923089743E0
7.646112298E1,-5.857506752E0,1.020987988E1,-3.597753048E0
7.652111731E1,-8.275655746E0,-2.498867750E0,-2.810727119E0
7.658111164E1,1.454352474E1,-1.772894096E1,1.595383072E1
7.664110597E1,-1.494792747E1,-6.103240013E0,-7.258791924E0
7.670109940E1,-2.730119228E0,-1.293625832E1,2.038197994E0
7.676109193E1,5.451494217E0,-1.260824203E1,-4.984391212E0
7.682108420E1,1.673634768E0,-1.408628941E0,-3.736139297E0
7.688107669E1,2.077558517E0,3.342518806E-1,1.263464928E0
7.694106916E1,4.242435455E0,-7.189600945E0,4.958664894E0
7.700106175E1,1.349778652E0,-4.652869701E0,-7.960062027E-1
7.706105422E1,-2.659409523E0,2.636154890E0,-2.528973579E0
7.712104681E1,-8.001407623E0,8.805974960E0,-6.770139694E0
7.718103911E1,-9.969360352E0,9.056428909E0,-8.925560951E0
7.724103148E1,-4.472832680E0,-9.891935349E0,3.600304794E1
7.730102394E1,-4.416680336E0,1.021782303E1,-5.842568398E0
7.736101654E1,8.428395271E0,-4.150101089E1,1.017236710E1
7.742100900E1,9.410572052E0,-4.437024117E0,-9.708906174E0
7.748100187E1,-9.837105751E0,-2.752947807E0,-6.337941170E0
7.754099516E1,-5.052937508E0,2.599754572E0,-3.824510336E0
7.760098829E1,1.993208885E0,-7.038885593E0,-1.851867676E0
7.766098136E1,8.865076065E0,-2.621138096E0,2.395432472E0
7.772097449E1,1.020467758E0,2.807053566E0,-1.281985283E0
7.778096732E1,-6.846647739E0,5.173976421E0,-5.765830517E0
7.784095965E1,-1.425853157E1,1.115377235E1,-7.055680275E0
7.790095211E1,3.077916145E0,-4.566299915E0,-3.416507959E0
7.796094458E1,6.529841423E-1,1.855618238E0,-1.232742310E1
7.802093711E1,3.902752399E0,-2.571780968E1,-2.715058327E-1
7.808092960E1,-1.645592690E0,-1.238364792E1,-1.679598808E0
7.814092213E1,-7.629513741E-1,4.847511292E0,4.309853554E0
7.820091450E1,-3.546555281E0,5.454570770E0,3.426975727E0
7.826090696E1,-7.912125587E-1,-3.032579422E0,3.111014366E0
7.832089943E1,8.725636482E0,-9.048207283E0,4.082341194E0
7.838089196E1,2.439385414E0,-8.369415283E0,-2.481894732E0
7.844088442E1,-5.001434326E0,3.195807219E0,-5.220879555E0
7.850087705E1,-9.706582069E0,6.195708275E0,-9.108390808E0
7.856087078E1,-8.093176842E0,1.343685627E0,-1.024333096E1
7.862086525E1,1.660957336E1,-8.754751205E0,1.007917595E1
7.868085971E1,-1.188938332E1,-6.995390892E0,-3.509745121E0
7.874085425E1,5.779714584E0,-1.820483589E1,8.298341751E0
7.880084865E1,-7.591347694E-1,-1.205366230E1,1.343197346E0
7.886084191E1,-3.212236881E0,7.181683540E0,1.667878389E0
7.892083431E1,-1.126893997E0,2.442343712E0,6.621321678E0
7.898082684E1,3.813159466E0,-1.674942017E1,2.309944391E0
7.904081937E1,5.392723083E0,-9.149881363E0,3.569499254E0
7.910081190E1,6.092643738E-1,-2.309949160E0,-2.921049595E-1
7.916080436E1,-1.939733982E0,7.272315979E0,-6.937716484E0
7.922079689E1,-7.756326199E0,5.780746460E0,-6.653552532E0
7.928078922E1,-6.319138050E0,-2.766268253E-1,-4.803220272E0
7.934078159E1,-2.556772232E0,-1.143415737E1,1.013895226E1
7.940077412E1,-5.752813339E0,-3.043491840E-1,-3.259474516E0
7.946076658E1,-2.691946507E0,-1.581018162E1,-2.731156349E-1
7.952075911E1,4.495675087E0,-1.734628296E1,1.103529930E0
7.958075168E1,4.733122826E0,7.288307190E0,4.403312206E-1
7.964074518E1,3.780326843E-1,-1.502151489E0,1.232361794E-1
7.970073937E1,1.995563507E0,-1.369055557E1,-1.141014576E0
7.976073377E1,2.916022778E0,-5.872756481E0,5.179741383E0
7.982072803E1,-2.378569126E0,2.102203131E0,6.300702095E0
7.988072233E1,-5.612038612E0,8.250131607E0,-1.675758123E0
7.994071559E1,-5.545433998E0,6.958005428E0,-6.369855404E0
8.000070806E1,-7.175801277E0,-3.076794624E0,-5.179008961E0
8.006070039E1,1.669235802E1,-4.856823921E0,-5.897137165E0
8.012069298E1,-1.845321465E1,-1.285754681E0,-9.569655418E0
8.018068545E1,1.164335823E1,-4.340594482E1,-5.068815231E0
8.024067798E1,2.886227131E0,8.227500916E0,-7.879674435E-1
8.030067044E1,-8.986108303E-1,4.773082733E-1,1.773241043E0
8.036066297E1,-3.971951008E0,-2.121112823E0,5.361595154E0
8.042065524E1,7.667510033E0,-6.107041359E0,2.078203201E0
8.048064767E1,4.302467346E0,-2.948550224E0,-6.465797424E-1
8.054064020E1,3.340997696E-1,3.874767065E0,-5.712907314E-1
8.060063273E1,-5.521428108E0,8.589734077E0,-2.571694851E0
8.066062519E1,1.187171555E1,-4.669860363E0,2.929813862E0
8.072061816E1,-2.253602600E1,1.529664230E1,-1.265033722E1
8.078061139E1,-7.232327461E0,-3.643633366E0,-2.761069059E0
8.084060448E1,7.781207561E0,-3.691574478E1,-1.368943691E0
8.090059762E1,4.248179436E0,-1.044898701E1,-3.378890753E0
8.096059068E1,-2.138901711E0,5.902880669E0,1.247328043E0
8.102058338E1,-2.182239532E0,7.146587372E-1,-2.003902197E0
8.108057571E1,-1.214308739E-1,-8.204843521E0,-1.008760929E0
8.114056827E1,7.021905899E0,-6.883835316E0,9.500255585E-1
8.120056080E1,2.312308311E0,-2.344891429E-1,-8.083624840E-1
8.126055340E1,-1.518566608E0,1.742072225E0,-4.079133987E0
8.132054586E1,-1.211456871E1,1.024979830E0,-1.013990021E1
8.138053839E1,6.630201340E0,-2.612251854E1,2.685490417E1
8.144053072E1,-1.828273392E1,7.072909355E0,-1.884789467E1
8.150052312E1,1.060879612E1,-4.022312164E1,-1.198921585E1
8.156051558E1,1.215146828E1,-1.563040733E1,-3.017601967E0
8.162050818E1,-1.119162083E0,-3.138056278E0,-4.473325729E0
8.168050065E1,-4.933011055E0,5.692749023E0,-1.839234352E0
8.174049334E1,-3.033638954E0,-4.056102753E0,-1.564356804E0
8.180048711E1,8.786470413E0,-7.418733597E0,-7.377298832E0
8.186048150E1,6.056387424E0,-5.130043030E0,4.011623859E0
8.192047577E1,1.082690239E0,9.218358994E-2,-2.284240723E-2
8.198047016E1,-6.263919353E0,5.223827839E0,-1.430404067E0
8.204046426E1,-8.654260635E0,5.556318283E0,-1.265393162E1
8.210045723E1,-1.215368176E1,-4.012644768E0,1.991537690E0
8.216044949E1,-1.069487190E1,-2.928843737E0,-5.954985142E0
8.222044196E1,1.345250893E1,-1.824126053E1,5.746806145E0
8.228043442E1,-2.938904762E0,-1.825426674E1,-1.710609436E0
8.234042695E1,4.278432369E0,3.159296036E0,5.480234146E0
8.240041948E1,-5.972184658E0,4.611190796E0,-6.752057076E-1
8.246041201E1,-4.131711483E0,-3.216245174E0,-2.308391571E0
8.252040441E1,4.812755108E0,-5.218013763E0,1.255288124E0
8.258039674E1,-2.166054726E0,-5.538864136E0,7.314591408E-1
8.264038917E1,-2.017747402E0,2.885371208E0,-6.399503231E0
8.270038170E1,-1.971662045E0,5.644547462E0,-5.915544987E0
8.276037423E1,-2.996254683E0,5.755157471E0,1.379987717E0
8.282036673E1,-2.427618027E1,7.508936882E0,-1.658643723E1
8.288035989E1,5.631063938E0,-1.280371284E1,9.219956398E-1
8.294035312E1,6.513373852E-1,-2.852651978E1,-5.627099991E0
8.300034625E1,1.414570045E1,-3.848277092E0,2.299649715E0
8.306033932E1,5.928270340E0,3.707007408E0,2.583063126E0
8.312033248E1,7.821244240E0,2.230496883E0,3.086399078E0
8.318032491E1,5.625975132E0,-3.888818264E0,1.276087761E0
8.324031728E1,-2.458275080E0,-9.294309616E0,-5.253608704E0
8.330030974E1,2.467661619E0,-4.758722782E0,-6.983728409E-1
8.336030234E1,-1.260002327E1,-2.854391098E0,-1.827372551E1
8.342029480E1,-1.075811768E1,6.896430492E0,-1.395705032E1
8.348028707E1,-1.683944225E0,3.068099022E0,-3.869990826E0
8.354027950E1,7.224508762E0,-1.134141541E1,3.350271225E0
8.360027183E1,8.863534927E0,-2.892871284E1,-8.892089844E0
8.366026416E1,1.015876102E1,-9.112670898E0,-5.251152992E0
8.372025679E1,6.022282124E0,-4.013861179E0,3.081411600E0
8.378024926E1,-7.866976738E0,-2.581930161E-1,-5.596602440E0
8.384024179E1,2.960193157E0,1.540578842E0,-1.308894157E-1
8.390023482E1,2.949182034E0,5.366956711E0,-4.646118164E0
8.396022895E1,1.235988855E0,3.002074718E0,7.487361908E0
8.402022338E1,-3.032045364E0,-6.379858494E0,-8.594017029E-1
8.408021792E1,-8.281826019E0,-7.067673683E0,-9.086452484E0
8.414021245E1,2.046150780E1,-3.801119328E0,-9.505417824E0
8.420020651E1,-1.429498672E1,1.003935242E1,-1.332983589E1
8.426019938E1,1.146725368E1,-1.999659348E1,2.670593262E-1
8.432019174E1,1.411029434E1,-2.476212883E1,-2.011209488E0
8.438018427E1,6.984095097E0,-9.598374367E0,-7.012813091E0
8.444017680E1,-2.904285789E-1,-3.047772408E0,-3.146879196E0
8.450016930E1,2.199625969E-1,3.227438211E0,3.077057838E0
8.456016176E1,6.400327682E-1,-9.054422379E-3,5.719152451E0
8.462015426E1,5.812957287E0,-7.058837414E0,-3.008658409E0
8.468014652E1,-2.767858505E-1,3.571181297E-1,-2.880436897E0
8.474013899E1,-1.180367470E0,2.440115213E0,-2.548867941E0
8.480013145E1,-6.808261871E0,8.974497318E-1,-2.145637035E0
8.486012405E1,-1.038181305E1,-4.958677292E-1,-1.408382511E1
8.492011651E1,-1.660734749E1,-7.013482571E0,-9.923521996E0
8.498010931E1,2.092029572E1,-6.271522522E1,2.802338600E1
8.504010314E1,-1.235118961E1,-1.973465919E1,8.378865242E0
8.510009747E1,2.916455269E0,-1.811812973E1,5.945847988E0
8.516009170E1,-4.097591877E0,-5.191081047E0,4.925911427E0
8.522008610E1,9.345836639E-1,-2.176768303E0,1.240050125E1
8.528008019E1,2.151401520E0,-9.563264847E0,8.103514671E0
8.534007306E1,6.402314186E0,-7.989854336E0,7.490970612E0
8.540006539E1,-1.777362823E-1,-8.941107750E0,-2.411678314E0
8.546005795E1,-9.814327240E0,-2.018522024E-1,-1.043704414E1
8.552005042E1,-1.737752914E0,8.341000080E-1,1.651979828E1
8.558004291E1,-3.088741302E1,2.081297302E1,-2.159386826E1
8.564003541E1,8.496801376E0,-1.009349728E1,9.247098923E0
8.570002801E1,1.403891373E1,-3.852943039E1,-1.779845238E0
8.576002037E1,-2.006206036E0,-1.199747849E1,-6.930734634E0
8.582001267E1,-8.172321320E-1,-7.558374405E0,-7.385943413E0
8.588000517E1,-3.377921104E0,-4.627664089E-1,-2.884874105E0
8.593999770E1,-5.338153839E0,-3.814978123E0,-1.028479576E0
8.599999016E1,-1.573448181E0,-9.831772804E0,-1.891839027E0
8.605998266E1,4.373971462E0,-1.196183968E1,-1.263066769E0
8.611997589E1,-7.474842072E-1,3.581404924E0,-1.187454891E1
8.617996899E1,-2.320265961E1,1.541800308E1,1.593554020E0
8.623996212E1,1.773357391E-1,7.315262794E0,-2.460626602E1
8.629995522E1,-9.077434540E0,-4.725172520E0,-5.120362282E0
8.635994835E1,7.551116467E0,-2.200365448E1,-4.586384773E0
8.641994074E1,6.175141811E0,-2.392695045E1,-1.790561438E0
8.647993327E1,3.019831657E0,-7.645638466E0,-4.516630173E0
8.653992574E1,-7.435126305E-1,5.418822765E0,6.725993156E-1
8.659991830E1,-6.131594181E0,5.650548935E-1,-5.422592163E-2
8.665991076E1,7.100086212E-1,-8.188305855E0,1.417486191E0
8.671990336E1,6.422062397E0,-4.519401073E0,-2.540250540E0
8.677989569E1,3.461363792E0,-2.784461737E0,-8.117404938E0
8.683988809E1,-6.674825191E0,-5.814187527E-1,-9.929856300E0
8.689988049E1,-1.371806335E1,6.816635132E0,-3.435358047E0
8.695987302E1,5.243738174E0,9.604771614E0,-2.031864166E0
8.701986548E1,-1.396295357E1,-1.457188606E0,-1.344937134E1
8.707985808E1,9.268173218E0,-3.183990860E1,-7.537803650E-1
8.713985114E1,8.718116760E0,-1.551848793E1,-1.386737823E-2
8.719984531E1,2.024611473E0,1.747492790E0,-3.500010490E0
8.725983967E1,-5.728463173E0,4.956336498E0,-4.579931259E0
8.731983407E1,-2.607012749E0,4.932174683E-1,-6.193537712E-1
8.737982833E1,2.037517071E0,-1.872066689E1,-2.309921741E0
8.743982206E1,-3.137073517E-1,-1.049437332E1,-2.318059921E0
8.749981463E1,-3.783206940E-1,6.370246887E0,-4.348743439E0
8.755980692E1,-1.916796207E0,1.464521217E1,-4.354372978E0
8.761979932E1,5.583359718E0,7.822754860E0,4.145600319E0
8.767979179E1,-1.161085892E1,1.015315771E0,-1.056411505E0
8.773978432E1,-1.066852379E1,-6.995306969E0,-3.098362207E0
8.779977685E1,5.828323364E0,-2.317250633E1,-1.866066217E0
8.785976938E1,2.204742432E-1,-2.003005600E1,-2.291420460E0
8.791976171E1,3.919541359E0,8.061877251E0,-1.302928686E0
8.797975414E1,2.651118279E0,7.169268608E0,4.079053402E0
8.803974660E1,6.343402863E-1,-4.356700420E0,1.080291271E0
8.809973913E1,4.982697487E0,-1.638948059E1,-3.080543280E0
8.815973160E1,-2.357863903E0,-7.215481758E0,-1.911299944E0
8.821972436E1,-2.120110989E0,2.302714348E0,-1.960461855E0
8.827971759E1,-6.381271362E0,8.902261734E0,-5.255720139E0
8.833971079E1,-1.204110146E0,4.788804054E0,-5.661300659E0
8.839970385E1,-6.521706581E0,-1.667281985E0,-9.164959908E0
8.845969698E1,-9.255546570E0,-1.009940624E1,-9.224443436E-1
8.851968988E1,5.802638054E0,-1.485870361E1,6.777175903E0
8.857968228E1,-5.291883469E0,-1.485397530E1,-1.105951118E1
8.863967464E1,5.075100899E0,5.410212517E0,-1.554254055E0
8.869966717E1,1.426317692E-1,-6.861729622E-1,-3.918382168E0
8.875965970E1,1.132591724E0,-1.561860085E1,-3.455607653E0
8.881965223E1,3.490863323E0,-7.612030029E0,-7.432937622E-1
8.887964473E1,-6.486840248E-1,-3.877020359E0,1.160212994E0
8.893963716E1,-5.397354126E0,4.598195553E-1,-7.829799652E-1
8.899962949E1,-1.162439632E1,1.181540680E1,-1.041222286E1
8.905962199E1,1.630307007E1,1.072104740E1,6.232802391E0
8.911961452E1,-2.062681961E1,9.127674103E0,-8.937575340E0
8.917960695E1,7.962887764E0,-2.817004204E1,-2.196677208E0
8.923959951E1,7.376185417E0,-2.403790283E1,2.764781475E0
8.929959308E1,1.084982872E0,-2.575917244E-1,-4.470008850E0
8.935958738E1,-1.798989296E0,1.059713459E1,3.480700731E0
8.941958164E1,-1.317808151E0,7.506003380E-1,-6.919422150E-1
8.947957604E1,2.335270882E0,-1.286290646E1,-3.653175831E-1
8.953957027E1,1.525985718E0,-1.156856346E1,6.407499313E-2
8.959956356E1,-3.612552166E0,-3.157930613E0,-1.407962799E0
8.965955589E1,-1.079742718E1,3.768029213E0,-3.599549294E0
8.971954829E1,-1.308093929E1,1.302032709E0,-8.465588570E0
8.977954076E1,1.410615158E1,-5.198632240E0,7.966312408E0
8.983953335E1,-8.962001801E0,-6.388583183E0,-7.142003059E0
8.989952582E1,9.622459412E-1,-2.254625511E1,1.132811069E0
8.995951835E1,6.048946857E0,-1.688825035E1,-3.746006966E0
9.001951081E1,4.900460243E0,1.059534931E1,2.611625910E0
9.007950321E1,-8.451051712E-1,7.625381947E0,8.159859180E-1
9.013949547E1,-6.611199379E-1,-2.054186344E0,1.105807066E0
9.019948800E1,7.125283241E0,-1.357981777E1,2.372653484E0
9.025948053E1,-1.298502922E0,-1.004693222E1,7.262382507E-1
9.031947306E1,-3.059265137E0,-2.425190926E0,4.646253586E-1
9.037946596E1,-1.077481079E1,2.503388405E0,-8.735356331E0
9.043945929E1,-1.088376236E1,4.633805752E0,-9.321155548E0
9.049945242E1,-4.361486435E-1,3.478257418E0,6.234425068E0
9.055944555E1,-1.387934208E0,-5.567812920E0,-9.285257339E0
9.061943868E1,-1.447630405E0,-1.943870926E1,-2.170543671E-1
9.067943132E1,1.518104792E0,-1.842933655E1,-3.670814514E0
9.073938030E1,5.619898796E0,7.343325615E0,2.854430676E0
9.079937283E1,-9.269399643E-1,4.792337418E0,1.477494240E0
9.085936539E1,-4.197923183E0,-5.592448235E0,2.086412907E0
9.091935786E1,4.552858353E0,-1.000564766E1,4.599913597E0
9.097935045E1,-3.007112503E0,-2.790329456E0,4.885396004E0
9.103934292E1,-6.143982887E0,2.277930737E0,-3.194500446E0
9.109933525E1,-2.853564501E0,1.374936104E0,-5.703474998E0
9.115932751E1,-4.145498276E-1,4.291065693E0,-4.244164467E0
9.121932014E1,-1.233261395E1,-6.768258572E0,-1.831788254E1
9.127931261E1,-1.610519886E0,-1.689540672E1,-9.585602760E0
9.133930524E1,4.901432991E0,-1.838763809E1,2.588651180E0
9.139929790E1,-3.182573080E0,-1.487483406E1,-4.417880058E0
9.145929183E1,9.792222023E0,2.651427746E0,6.898641586E0
9.151928620E1,3.020262003E0,2.140685558E0,6.177379608E0
9.157928080E1,3.507908344E0,-6.552463531E0,6.303355217E0
9.163927523E1,1.480026245E-1,-4.746158600E0,2.208630085E0
9.169926963E1,-5.334010124E-1,-5.693235397E0,7.567667961E-1
9.175926273E1,-5.456686497E0,-3.899836540E-2,-5.842872143E0
9.181925516E1,-8.867035866E0,8.458149910E0,-7.954333782E0
9.187924762E1,7.232765675E0,5.700206280E0,-6.502529621E0
9.193924022E1,-1.336247635E1,9.142395020E0,-1.383718872E1
9.199923268E1,-5.505547523E0,-3.661004066E0,-1.184154034E0
9.205922521E1,1.584844017E1,-2.836590004E1,-2.947933674E0
9.211921771E1,1.035601521E1,-9.843286514E0,5.173931122E0
9.217921004E1,6.388143063E0,-3.669895172E0,2.828474998E0
9.223920234E1,6.690755844E0,3.337851286E0,2.373358727E0
9.229919487E1,-2.559030533E0,1.403574109E0,-1.126019955E0
9.235918740E1,-4.409449577E0,2.836471796E0,-4.303062916E0
9.241917993E1,-6.161205292E0,1.825438380E0,-8.918804169E0
9.247917249E1,4.568651199E0,1.135530472E1,-2.830141640E1
9.253916616E1,3.648260117E0,-6.197405338E0,-5.279855728E0
9.259916042E1,5.361641884E0,-2.044612312E1,8.906631470E-1
9.265915475E1,-1.072476625E0,-1.759519196E1,-7.847043037E0
9.271914908E1,4.819073677E-1,-5.419320583E0,-2.339081764E-1
9.277914331E1,7.795306683E0,-1.384791756E1,3.077331066E0
9.283913651E1,6.752935886E0,-7.539130211E0,3.285255432E0
9.289912884E1,-2.142412901E0,-1.383883476E0,6.258955002E-1
9.295912121E1,-4.563571930E0,5.853554726E0,-1.420350075E0
9.301911367E1,-7.022351742E0,3.577984571E0,-7.536055088E0
9.307910627E1,-5.495496750E0,-3.411451340E0,-6.865982533E0
9.313909870E1,-6.965185642E0,-1.382525635E1,2.430208588E1
9.319909130E1,-1.692946911E0,-4.432918549E0,-1.701283455E0
9.325908373E1,-6.277875900E-1,-9.991467476E0,7.197351933E0
9.331907606E1,-1.836188555E0,-1.572026253E1,-2.000002384E0
9.337906839E1,8.427448273E0,1.302098179E1,6.893138885E-1
9.343906098E1,7.126077175E0,-1.215603828E1,3.691645145E0
9.349905345E1,4.730829239E0,-8.175562859E0,-1.804157495E0
9.355904598E1,3.393286705E0,-4.774241924E0,-2.986060143E0
9.361903904E1,-2.331758022E0,1.876975894E0,-3.674584150E0
9.367903231E1,-1.316088867E1,7.394956589E0,-1.256710815E1
9.373902541E1,-2.840860844E0,-8.317945480E0,9.669135094E0
9.379901854E1,-1.745878601E1,1.127565384E1,-5.969942570E0
9.385901167E1,2.873013973E0,-1.539905643E1,-1.139850140E0
9.391900426E1,-1.182530880E0,-4.085965347E1,-8.775939941E0
9.397899660E1,4.988147259E0,-2.324936867E0,-4.476009369E0
9.403898903E1,-2.768454075E0,7.952656746E-1,-6.417882442E0
9.409898156E1,9.950652122E-1,-2.144191265E0,-9.815645218E-1
9.415897409E1,3.657652378E0,-7.533176422E0,-3.644260406E0
9.421896665E1,5.235002518E0,-5.554717779E-1,2.791967392E-1
9.427895911E1,1.530256271E-1,-6.842702627E-1,-2.724578381E0
9.433895151E1,-1.053493309E1,-1.175656557E0,-5.318910122E0
9.439894381E1,-1.358040333E1,8.057115078E-1,-1.604985046E1
9.445893634E1,-2.092184067E1,-5.083042145E0,3.033016205E0
9.451892877E1,-1.610261154E1,-9.304211617E0,-8.021728516E0
9.457892137E1,2.476757240E1,-5.396070480E1,-7.746567249E0
9.463891413E1,3.880199909E0,-1.296515179E1,-7.078120232E0
9.469890816E1,-2.718175173E0,4.324110985E0,-5.119318962E-1
9.475890263E1,-2.496182919E-1,4.502846718E0,2.869068146E0
9.481889716E1,2.382739067E0,-2.749200344E0,3.620944023E0
9.487889163E1,1.232530594E1,-9.143718719E0,4.512608051E0
9.493888593E1,2.814257145E0,-8.046189308E0,-1.789438248E0
9.499887892E1,-5.028165817E0,1.723781705E0,-4.428501606E0
9.505887129E1,-9.404653549E0,1.683077812E0,-6.522098064E0
9.511886382E1,-8.605532646E0,1.274907827E0,-7.096035480E0
9.517885635E1,-8.373441696E-1,-7.442942619E0,3.289675236E0
9.523884881E1,-8.355542183E0,-2.906716108E0,-5.879826546E0
9.529884134E1,-5.074472427E-1,-1.089629745E1,2.160978317E-2
9.535883384E1,1.923996353E1,-2.315408707E1,5.971441269E-1
9.541882617E1,-3.382376671E0,-7.996416092E-2,-5.699381351E0
9.547881860E1,-2.912008762E0,1.623121262E0,5.605220795E-3
9.553881106E1,2.440862179E0,-5.497244358E0,4.556246281E0
9.559880359E1,8.395622253E0,-3.956725597E0,3.784351349E0
9.565879612E1,-3.844218254E-1,2.130496025E0,-4.873628616E-1
9.571878872E1,-4.141190052E0,9.213954926E0,-5.893425941E0
9.577878239E1,-1.097019005E1,5.044585705E0,-1.211706161E1
9.583877682E1,1.126778793E1,-1.270352173E1,-1.052782059E1
9.589877108E1,-4.426399231E0,1.826474190E0,-8.452568054E-1
9.595876541E1,-2.742367744E0,-1.181949711E1,5.810356140E-2
9.601875961E1,3.555489540E0,-1.818385696E1,-1.292961597E0
9.607875270E1,7.777637005E0,4.847533226E0,1.611042261E0
9.613874494E1,-6.359577179E-1,2.020675659E0,-7.397234440E-1
9.619873743E1,-1.606554031E0,-5.113589764E0,-7.912302017E-2
9.625872993E1,5.382465363E0,-8.851135254E0,6.541807652E-1
9.631872246E1,1.267576218E0,-6.423713207E0,8.941235542E-1
9.637871493E1,-6.260267258E0,1.047735691E0,-5.135560036E-1
9.643870752E1,-9.579603195E0,8.973216057E0,-8.384312630E0
9.649869989E1,-1.445005417E1,1.022159958E1,-1.085169983E1
9.655869218E1,2.354768181E1,8.985804558E0,-3.114211845E1
9.661868465E1,-8.195983887E0,-8.396127701E0,-6.362812519E0
9.667867718E1,1.283368301E1,-5.173596573E1,-1.265021324E1
9.673866964E1,1.036047935E0,-4.424150944E0,-5.397273540E0
9.679866220E1,-2.107741117E0,5.412482738E0,2.171964169E0
9.685865530E1,-4.709794998E0,1.120796204E0,5.789136887E-1
9.691864850E1,-1.895482540E0,-6.475832939E0,-2.308188200E0
9.697864163E1,8.520990372E0,-4.246931553E0,1.429707050E0
9.703863476E1,6.074670792E0,1.763629913E-1,-4.878555775E0
9.709862786E1,-6.619345665E0,5.694871426E0,-5.399136066E0
9.715862052E1,-1.949051285E1,1.119455433E1,-1.440718651E0
9.721861292E1,-1.097441673E1,1.660864067E1,-1.354461861E1
9.727860545E1,-3.217687845E0,-1.849625778E1,-4.542459488E0
9.733859798E1,1.687395859E1,-3.519652939E1,2.006057739E0
9.739859045E1,3.399711370E0,-7.799077034E0,-1.169296455E1
9.745858288E1,3.316624165E-1,4.100229263E0,-2.502325058E0
9.751857534E1,2.490775585E0,4.702682495E0,8.469429016E-1
9.757856767E1,4.207151890E0,-1.976303101E0,-2.305984497E-2
9.763856010E1,5.765605927E0,-6.931859970E0,-2.275466919E-1
9.769855270E1,4.200512409E0,-6.484379292E0,-9.634380341E-1
9.775854516E1,-4.227148533E0,-4.536773682E0,-5.070476055E0
9.781853769E1,-1.446706772E1,5.420135498E0,-1.212531090E1
9.787853056E1,-1.029255867E0,6.667363644E-2,3.263495445E0
9.793852459E1,-1.159974289E1,3.818181038E0,-5.355585098E0
9.799851885E1,-4.219129562E0,-8.309440613E0,-1.657524109E0
9.805850281E1,2.054377556E1,-3.635269928E1,-2.122115135E0
9.811849708E1,-9.486842155E-1,-5.880340576E0,-2.655891180E0
9.817849101E1,-1.382166386E0,7.039001465E0,-2.996243954E0
9.823848367E1,-5.710316658E0,-6.076698303E-1,1.922044754E-1
9.829847607E1,-2.750767469E0,-8.251100540E0,-2.559913158E0
9.835846843E1,4.845304489E0,-1.857766628E0,1.043795586E0
9.841846096E1,4.496458054E0,-7.056593895E-1,-1.193101406E0
9.847845349E1,-1.410820007E0,8.857391357E0,-1.511371851E0
9.853844602E1,-9.712324142E0,1.085941505E1,-5.108771324E0
9.859843849E1,3.702993393E-1,2.788883448E0,-3.112660170E0
9.865843092E1,-1.769260788E1,5.143657207E0,-1.485553551E1
9.871842325E1,7.691204071E0,-3.222266769E1,-3.574935198E0
9.877841578E1,3.715337038E0,-1.688733292E1,-1.182797432E0
9.883840831E1,3.565102100E0,1.449300766E0,-1.711233854E0
9.889840077E1,-2.366036177E0,6.652917385E0,-1.762246847E0
9.895839340E1,-8.346128464E-1,-4.039901733E0,-6.586862564E0
9.901838667E1,6.274442673E-1,-8.246849060E0,-5.393586159E0
9.907837980E1,1.559379101E0,-5.551793098E0,3.299478054E0
9.913837286E1,-1.274291992E0,4.070263863E0,-3.394160271E0
9.919836606E1,-5.965502739E0,9.571699142E0,3.134680748E0
9.925835906E1,-1.207759285E1,2.428899384E1,-1.415945625E1
9.931835152E1,-2.491132975E0,-2.365530491E0,-1.576791286E0
9.937834385E1,4.006714821E0,-2.382883263E1,-2.205238104E0
9.943833645E1,-6.293631554E0,-1.599341202E1,-6.984201908E0
9.949832891E1,4.352583885E-1,-6.337347031E0,-4.654625893E0
9.955832148E1,-2.572269440E-1,1.942816257E0,-1.475207806E-1
9.961831387E1,-7.574017525E0,1.111530304E0,3.693456650E-1
9.967830634E1,1.705241203E-1,-2.947282314E0,4.383597374E-1
9.973829860E1,2.935409069E0,-4.981104851E0,-7.787547112E-1
9.979829110E1,-4.409765244E0,-4.380011559E0,7.031235695E-1
9.985828356E1,-9.623998642E0,1.502957821E0,-8.505823135E0
9.991827609E1,2.159020424E0,8.796756744E0,-1.531726265E1
9.997826862E1,-1.244273758E1,8.207230568E0,-1.250638580E1
1.000382619E2,-5.207565308E0,-5.978685856E0,1.175932884E-1
1.000982561E2,1.224732590E1,-2.612500381E1,-2.251920700E0
1.001582505E2,-1.849825859E0,-9.861888885E0,3.346266508E0
1.002182448E2,-2.980017662E0,-2.731536388E0,2.096582174E0
1.002782391E2,-4.821734905E0,7.163250446E0,5.552228451E0
1.003382327E2,-8.468956947E0,-2.841485500E0,3.484733105E0
1.003982251E2,-3.096741915E0,-1.284490013E1,1.842575073E-1
1.004582175E2,-2.824546814E0,-7.905537128E0,-5.244053841E0
1.005182099E2,-1.138290405E0,6.578176975E0,-3.351889133E0
1.005782025E2,-5.731669426E0,6.802857876E0,-4.693066120E0
1.006381949E2,-9.240163803E0,1.668119049E1,-6.815226555E0
1.006981875E2,-6.596515179E0,8.474647522E0,-3.413447857E0
1.007581800E2,5.589873314E0,-1.687938690E1,1.126298904E1
1.008181724E2,-2.329253197E1,-2.784287834E1,2.051713467E-1
1.008781646E2,-1.330413818E-1,-1.321640587E1,6.178185463E0
1.009381572E2,-6.480472565E0,-6.403667450E0,3.070514202E-1
1.009981496E2,-3.660337925E0,7.426979542E-1,3.959864616E0
1.010581422E2,-2.730942726E0,7.373818398E0,9.670967102E0
1.011181350E2,-1.100387573E-1,-2.849749565E0,4.164086342E0
1.011781283E2,4.939522266E0,-5.070971251E-1,1.088050365E0
1.012381214E2,3.857884407E-1,-9.064970016E-1,-3.581846476E0
1.012981146E2,-8.301346779E0,-2.289523125E0,-8.003572464E0
1.013581077E2,-1.116593838E1,-1.249098420E0,-8.195120811E0
1.014181005E2,-7.150130272E-1,-5.056132317E0,8.155080795E0
1.014780928E2,-5.613047600E0,1.614900529E-1,-9.499900818E0
1.015380852E2,9.029755592E-1,-2.263539696E1,4.090602875E0
1.015980777E2,7.369570732E0,-1.852131271E1,1.065740585E-1
1.016580702E2,2.232522488E0,-5.225830078E0,-1.089926481E0
1.017180628E2,-3.881793976E0,4.568053246E0,-1.481937170E0
1.017780553E2,-1.803155422E0,1.989679337E0,-2.558138371E-1
1.018380478E2,9.860917091E0,-2.472625732E0,-9.305018425E0
1.018980401E2,1.008294868E1,-2.093727112E0,6.833143234E-1
1.019580326E2,2.034140587E0,3.610900879E0,6.058836937E0
1.020180251E2,-5.281511307E0,4.892127991E0,-1.166561246E0
1.020780177E2,-1.386748695E1,3.279909372E0,-7.261381626E0
1.021380102E2,-1.617333603E1,4.822335243E0,1.280736160E1
1.021980040E2,-2.518113613E0,-6.910619140E-2,1.422837257E0
1.022579983E2,5.816613674E0,-3.333366013E1,-1.883496761E0
1.023179929E2,5.170420647E0,-5.758275509E0,-5.686419487E0
1.023779874E2,-8.344707489E-1,5.223909855E0,-2.260171890E0
1.024379819E2,-3.822430849E0,-4.149735928E0,-2.733925343E0
1.024979752E2,-4.553097725E0,-6.964507580E0,-1.247806072E0
1.025579677E2,2.329809666E0,-1.975984097E0,-2.907762527E0
1.026179601E2,5.619559288E0,5.145747185E0,-3.022389412E-1
1.026779526E2,-5.535159111E-1,7.668354988E0,-2.872229815E0
1.027379451E2,-7.892958164E0,4.007437229E0,-4.719470501E0
1.027979377E2,4.252557755E-1,-2.109369278E0,5.616777420E0
1.028579303E2,-2.007819939E1,-1.716286421E0,-1.049884605E1
1.029179228E2,-3.215872049E0,-8.138386726E0,-3.786306143E0
1.029779150E2,9.411882401E0,-3.483783340E1,2.561893463E-1
1.030379076E2,1.164015770E1,-5.154341221E0,2.438294888E0
1.030979000E2,-3.986305475E0,3.098344803E0,-4.232769012E0
1.031578925E2,-1.436770439E0,-4.198236465E-1,6.856746674E-1
1.032178850E2,3.678371429E0,-5.877323151E0,-6.091976166E-2
1.032778784E2,7.571978569E-1,-4.369091034E0,-2.855287552E0
1.033378726E2,-7.198762894E-1,3.709358931E0,1.864650011E0
1.033978670E2,-7.304848671E0,1.056651211E1,-3.641809702E0
1.034578612E2,-4.530486107E0,7.334620476E0,-1.342231274E0
1.035178555E2,8.347017288E0,-3.185836792E0,5.385768414E-1
1.035778489E2,-1.227962017E1,-3.607038498E0,-5.442975044E0
1.036378415E2,1.225677490E0,-1.225443459E1,-2.215156555E-1
1.036978338E2,7.965373993E0,-3.148852348E1,-3.325274467E0
1.037578263E2,6.373532295E0,1.308092976E1,1.573207140E0
1.038178189E2,-1.599402666E0,2.497561932E0,-1.988666296E0
1.038778114E2,1.843609810E0,-7.945218563E0,-2.277216911E-1
1.039378038E2,9.901480675E0,-1.062691498E1,3.036418676E0
1.039977963E2,1.542681694E0,-4.135483742E0,9.116220474E-1
1.040577887E2,-3.827833176E0,4.537854195E0,-5.224890709E-1
1.041177810E2,-7.619627953E0,7.401474476E0,-5.799330711E0
1.041777735E2,-4.525255203E0,4.844921112E0,-4.206074715E0
1.042377660E2,-8.808608055E0,-2.867929935E0,-5.572536945E0
1.042977586E2,2.274114799E1,-5.446399689E0,2.592124939E-1
1.043577514E2,-3.121374607E0,-6.073288441E0,2.073342323E0
1.044177447E2,2.852449417E-1,-1.502220917E1,-7.804511070E0
1.044777378E2,3.861845255E0,7.267530918E0,-6.971645355E-1
1.045377309E2,2.730298042E-1,-1.890392303E0,-2.554913044E0
1.045977241E2,9.183557510E0,-6.039165020E0,1.073251534E1
1.046577169E2,9.391427040E-2,-8.128408432E0,-1.405984402E0
1.047177091E2,1.377001762E0,2.190322876E-1,5.441663265E0
1.047777016E2,-5.353467464E0,6.841138840E0,1.456162453E0
1.048376942E2,-6.283942699E0,6.583802223E0,1.032335758E0
1.048976866E2,-5.049678802E0,1.831610918E0,-4.048531532E0
1.049576791E2,-4.177578926E0,-4.919886112E0,-1.534022331E1
1.050176716E2,-5.964497566E0,-1.393525791E1,5.973515034E0
1.050776640E2,1.615597534E1,-8.077732086E0,6.516114235E0
1.051376563E2,-8.881603241E0,1.388762474E0,-6.444288254E0
1.051976489E2,-1.499137163E0,4.293210030E0,-2.365583420E0
1.052576413E2,-1.583821297E0,-6.687124252E0,7.819597721E-1
1.053176712E2,7.223104954E0,-7.580136776E0,3.505835533E0
1.053776638E2,3.552284241E0,-2.772073269E0,-1.825935960E0
1.054376576E2,-1.892293453E0,5.361445904E0,3.111221552E0
1.054976520E2,-6.034121513E-1,1.661683464E1,-7.277422905E0
1.055576466E2,-5.948551655E0,7.651908875E0,-6.082555294E0
1.056176411E2,-7.391225815E0,-7.108727932E0,1.658429146E1
1.056776355E2,1.570631027E0,-8.747911453E0,-4.048481464E0
1.057376287E2,-2.017662525E0,-1.737475204E1,2.697826385E0
1.057976212E2,1.046434784E1,-1.400971127E1,4.526917934E0
1.058576137E2,-2.517282724E0,1.130665970E1,-2.415523529E-1
1.059176063E2,2.847777843E0,1.995037079E0,1.182589531E0
1.059775988E2,6.080160141E-1,-9.441976547E0,-1.206911564E0
1.060375913E2,4.607313633E0,-6.392917633E0,2.844791889E0
1.060975837E2,1.262120724E0,-7.135879040E0,1.271739006E-1
1.061575761E2,-2.567970753E0,1.613173962E0,-7.102586746E0
1.062175684E2,-1.007178497E1,4.871063232E0,-6.124300480E0
1.062775610E2,-9.567615509E0,8.424437046E-1,-1.195750237E1
1.063375535E2,2.019114017E0,-6.926638126E0,-5.742425919E0
1.063975461E2,-7.405333042E0,-2.372020721E0,-1.045623493E1
1.064575386E2,-6.321611404E0,-2.518746948E1,-4.826070309E0
1.065175321E2,1.020909405E1,-1.183952045E1,-4.219007492E-2
1.065775263E2,8.758907318E-1,7.361281395E0,6.997949123E0
1.066375206E2,-8.544220924E-1,4.934740067E-1,-3.960588932E0
1.066975149E2,5.837162495E0,-6.611108780E0,-3.273647785E0
1.067575092E2,4.175580502E0,-6.610445499E0,1.190339088E0
1.068175025E2,1.751356125E-1,6.635177135E0,-2.555420876E0
1.068774948E2,-3.927193642E0,1.376302719E1,5.468306541E0
1.069374873E2,-1.079184055E1,9.510381699E0,-5.260080338E0
1.069974797E2,-1.180468273E1,7.633780003E0,-3.700094938E0
1.070574723E2,-1.158041477E1,-7.103967190E0,-4.403584003E0
1.071174648E2,8.622917175E0,-2.101169395E1,2.357869148E0
1.071774573E2,4.884237766E0,-1.816071892E1,-3.659729481E0
1.072374497E2,3.616019487E0,1.058510876E1,3.159646988E-1
1.072974421E2,-3.432031393E0,1.664242744E0,-4.718955994E0
1.073574345E2,-5.960491180E0,-6.234982967E0,-1.508662105E0
1.074174271E2,2.229569912E0,-4.767332554E0,-9.971413612E-1
1.074774196E2,6.047195435E0,-2.540482998E0,4.410933495E0
1.075374122E2,1.124162674E-1,5.776132107E0,-9.104784727E-1
1.075974051E2,-7.917270660E-1,6.571618080E0,1.003158855E1
1.076573983E2,-1.844797134E1,1.241952896E1,-4.372952461E0
1.077173914E2,-1.507172585E1,4.244638443E0,-1.909918308E0
1.077773846E2,1.214698029E1,-2.660507393E1,1.350832939E0
1.078373777E2,1.137795925E0,-1.255520630E1,-6.069691181E0
1.078973704E2,2.328246593E0,-5.491256714E-3,-4.355049133E-2
1.079573627E2,-3.460987329E0,5.477585793E0,1.666220188E0
1.080173553E2,-4.716607094E0,-6.671322823E0,-2.414218664E0
1.080773477E2,-1.601340771E0,-1.312117004E1,-1.879446030E0
1.081373403E2,-1.581028938E0,9.310096502E-2,3.798581123E0
1.081973328E2,-1.709636688E0,9.896355629E0,-4.968367577E0
1.082573253E2,-4.278163433E0,7.449987411E0,-1.098752975E1
1.083173175E2,1.150736809E-1,8.130703926E0,-3.466415405E0
1.083773100E2,-1.264783478E1,9.770986557E0,-9.532773972E0
1.084373025E2,-4.528100014E0,-1.707597351E1,3.290515900E0
1.084972951E2,-3.685152531E0,-2.441474152E1,2.165326595E0
1.085572876E2,7.831624031E0,-8.693635941E0,7.892308235E-1
1.086172802E2,-1.367114544E0,4.606010914E0,3.047061920E0
1.086772740E2,-3.689327478E0,5.265960693E-1,4.670906067E-1
1.087372684E2,-2.199783802E0,-1.241066647E1,2.331731319E0
1.087972627E2,-1.243501186E0,-6.987880230E0,5.584469795E0
1.088572570E2,-7.671018124E0,4.784292221E0,5.951728821E0
1.089172512E2,-4.448040009E0,5.454521179E0,-2.564908981E0
1.089772441E2,8.337802887E-1,7.352965355E0,-1.097537613E1
1.090372364E2,-7.025137901E0,2.337980270E-1,-7.858345509E0
1.090972288E2,-2.569137335E0,-3.564440250E0,1.915592194E0
1.091572214E2,-7.657354355E0,3.037886381E0,-2.356804371E0
1.092172138E2,-4.562948704E0,-1.171417522E1,1.032078743E1
1.092772064E2,1.476107216E1,-2.152018738E1,5.041614532E0
1.093371989E2,-3.244997501E0,-2.103854656E0,-4.506594658E0
1.093971913E2,-4.821827888E0,-3.836545944E-1,-3.253836155E0
1.094571836E2,2.252612591E0,-4.446393013E0,8.463625908E-1
1.095171761E2,-1.431147099E0,-5.257431984E0,1.219124317E0
1.095771686E2,-1.527194977E0,-4.791198671E-1,-1.198599339E0
1.096371611E2,-1.634277344E0,5.468855381E0,-4.802241802E0
1.096971536E2,-1.082077026E0,1.237687206E1,-1.612016201E0
1.097571468E2,-7.224440575E0,2.084410191E0,5.591180801E0
1.098171400E2,-2.570703888E1,6.134247780E0,-1.641895866E1
1.098771331E2,-7.368850708E-2,-1.004796028E1,1.654333115E0
1.099371263E2,6.961474419E0,-2.528986168E1,3.618535042E0
1.099971194E2,7.236016750E0,-1.576978874E1,9.088082314E-1
1.100571118E2,-7.558197975E-1,1.402421951E0,-1.937965870E0
1.101171042E2,6.469311714E-1,-4.832625389E-1,-2.501398802E0
1.101770967E2,6.292983532E0,-8.207973480E0,-1.489219666E-1
1.102370892E2,4.215899944E0,-3.213387728E0,1.516766071E0
1.102970818E2,3.409390450E-1,1.090527058E0,-6.073794365E-1
1.103570742E2,-6.913380623E0,1.533784151E0,-7.815651894E-1
1.104170668E2,-1.038952541E1,3.757004738E0,-7.123768806E0
1.104770590E2,-4.193254471E0,9.090085030E-1,-7.381218910E0
1.105370514E2,-1.497547913E1,3.757603884E0,-9.849945068E0
1.105970439E2,9.760070801E0,-1.538688755E1,-7.219336510E0
1.106570365E2,1.156696320E0,-1.321885300E1,1.080513000E-2
1.107170289E2,4.447549343E0,-2.026806641E1,-1.666942596E0
1.107770220E2,2.756451607E0,6.502866745E0,3.025602102E0
1.108370161E2,4.422283173E-2,3.589134216E-1,7.077865601E-1
1.108970106E2,8.020656586E0,-1.321110344E1,1.218474388E0
1.109570051E2,4.964502811E0,-8.317272186E0,2.442598343E0
1.110169997E2,2.955417633E-1,3.435730934E-2,-1.266426563E0
1.110769937E2,-3.083673000E0,3.341040373E0,-1.064957428E1
1.111369865E2,-1.180407906E1,4.094073296E0,-1.379735184E1
1.111969789E2,-8.145735741E0,-2.127812624E0,2.866152763E0
1.112569715E2,-7.445846558E0,5.933165550E0,-8.919095993E0
1.113169640E2,-2.907788754E-1,-1.500884724E1,-4.993136883E0
1.113769565E2,1.464749336E0,-2.297873116E1,-6.347490311E0
1.114369490E2,1.046964455E1,-2.679686546E0,4.867675304E0
1.114969414E2,-2.102994680E0,3.175577641E0,-1.307361841E0
1.115569337E2,2.092070580E0,1.016829014E0,6.221925735E0
1.116169261E2,6.924825191E0,-1.229477882E1,3.406264305E0
1.116769186E2,2.082129478E0,-6.479230881E0,5.105757713E-1
1.117369112E2,-3.016857386E0,1.858046055E0,-1.642863274E0
1.117969037E2,-4.762491226E0,4.322595596E0,-3.396079063E0
1.118568965E2,-9.575471878E0,6.362268925E0,-8.379505157E0
1.119168905E2,-5.105457306E0,2.806763887E0,-4.564763069E0
1.119768847E2,-1.763703346E0,-8.045625687E0,-4.504234314E0
1.120368791E2,2.213699818E0,-4.198692799E0,-7.230692863E0
1.120968733E2,-1.441603184E0,-1.699353981E1,-7.234952450E0
1.121568674E2,1.180010509E1,-2.298938751E0,4.343904972E0
1.122168602E2,-4.991327286E0,8.838701248E-2,-1.223945427E1
1.122768526E2,7.441077232E-1,1.981965065E0,3.145958900E0
1.123368450E2,5.881900311E0,-6.137330532E0,9.350893021E0
1.123968375E2,5.983602047E0,-2.646671772E0,7.890910625E0
1.124568299E2,-2.612434864E0,1.793640852E0,1.772538662E0
1.125168225E2,-7.024640560E0,7.934423447E0,-4.753736496E0
1.125768150E2,-7.233654976E0,4.579791069E0,-7.919837952E0
1.126367354E2,-2.995106220E0,-4.766339779E0,-1.095541954E1
1.126967278E2,7.364726067E0,-1.077554512E1,6.273148060E-1
1.127567204E2,-1.294754791E1,-2.914087534E0,-6.150889397E0
1.128167128E2,4.218421936E0,-2.143648911E1,-3.883756638E0
1.128767054E2,8.037137985E-2,1.193937302E0,1.429266930E-1
1.129366980E2,-1.032988548E0,-4.642453194E-1,3.218214989E0
1.129966912E2,-1.098365784E0,-1.197883129E1,2.586336136E-1
1.130566843E2,8.040402412E0,-7.926700592E0,5.436633587E0
1.131166774E2,3.775749207E0,-4.906962395E0,3.382461071E0
1.131766705E2,-5.686150551E0,5.127380371E0,2.228090286E0
1.132366635E2,-7.867291927E0,1.297132397E1,-6.057766914E0
1.132966559E2,-3.681189775E0,4.679404259E0,-7.384773731E0
1.133566484E2,-3.746628523E0,-2.168577671E0,-5.873148918E0
1.134166409E2,3.531978130E0,-1.770395994E0,-1.641051483E1
1.134766334E2,-9.489169121E-1,-1.221407986E1,-3.322077513E0
1.135366259E2,1.484401703E0,-2.293507004E1,2.405837059E0
1.135966184E2,4.054322243E0,5.644716263E0,9.322109222E-1
1.136566109E2,-5.239144802E0,3.208291531E0,7.742857933E-2
1.137166031E2,4.425618172E0,-3.074113369E0,1.606336117E0
1.137765957E2,7.532055378E0,-7.264238358E0,1.095689774E0
1.138365882E2,2.918840408E0,-6.117898941E0,4.846153259E-1
1.138965807E2,-2.600071430E0,3.628665209E-1,-3.246452093E0
1.139565731E2,-8.695103645E0,1.081471062E1,-4.447839737E0
1.140165663E2,-9.401746750E0,9.222795486E0,-1.068320465E1
1.140765604E2,-1.713658142E1,1.617607355E0,-8.895802498E0
1.141365548E2,-1.090669632E0,-9.340477943E0,2.489326954E0
1.141965491E2,4.632528782E0,-2.388929558E1,-5.489657879E0
1.142565434E2,2.212253571E0,-1.192401505E1,-2.899645090E0
1.143165371E2,-8.469533920E-2,6.251403809E0,-5.897746086E-1
1.143765297E2,-1.198101997E0,5.621337891E-2,-1.495424509E0
1.144365220E2,2.352035046E0,-1.099436188E1,-1.881517887E0
1.144965145E2,6.757830620E0,-3.815181255E0,1.966477394E0
1.145565070E2,5.368003845E-1,-4.028620720E0,1.216281891E0
1.146164995E2,-5.324233055E0,5.466901064E-1,-1.067690849E-1
1.146764920E2,-1.024106979E1,3.894734859E0,-6.279407978E0
1.147364845E2,-8.829176903E0,3.802981377E0,-6.254435539E0
1.147964769E2,1.688578129E0,-1.083419418E1,1.120803261E1
1.148564692E2,-9.405740738E0,3.374306679E0,6.293268681E0
1.149164617E2,1.519654083E1,-5.200909424E1,-2.349566936E0
1.149764542E2,2.009421825E0,4.772133827E-1,-6.578172684E0
1.150364467E2,-1.336492538E0,-2.327674389E0,-3.700400829E0
1.150964395E2,-8.581024170E0,-3.555377007E0,1.532708645E0
1.151564328E2,-1.656808853E-1,-4.003232956E0,-4.004938602E0
1.152164259E2,1.072385597E1,-1.640415192E0,3.761532307E-1
1.152764191E2,6.483204842E0,9.607897758E0,-4.187458038E0
1.153364121E2,-1.141535759E0,1.352815247E1,-1.039292455E0
1.153964051E2,-1.233927250E1,1.143222809E1,-5.255593777E0
1.154563973E2,7.375518799E0,-9.623808861E0,8.042658806E0
1.155163899E2,-4.031559944E0,8.921957016E-1,-4.028652668E0
1.155763823E2,-1.927679062E0,-1.249841976E1,-1.047332048E0
1.156363749E2,6.867384434E0,-2.091698074E1,-1.315533638E0
1.156963674E2,2.931720734E0,-9.058370590E-1,-2.129165173E0
1.157563599E2,-7.434506416E-1,6.320315838E0,-4.378530979E-1
1.158163522E2,2.740744591E0,1.326580048E-1,4.413454056E0
1.158763447E2,6.586018562E0,-1.112126637E1,-4.140961170E-1
1.159363371E2,-2.626457214E-1,-7.135909081E0,1.388512611E0
1.159963296E2,-6.189755917E0,-1.763001084E0,1.508545876E-1
1.160563221E2,-1.136139297E1,3.121168613E0,-7.234904289E0
1.161163147E2,-8.427819252E0,8.457924843E0,-9.923738480E0
1.161763082E2,8.650288582E0,-6.032012463E0,-7.873916626E0
1.162363026E2,-1.268376541E1,-6.754507065E0,-5.043197155E0
1.162962971E2,3.095956802E0,-2.312267685E1,3.100521564E0
1.163562917E2,3.875854969E0,-6.567902565E0,2.177801132E-1
1.164162862E2,-1.688180685E0,8.903916359E0,4.290989876E0
1.164762796E2,-1.789392948E0,1.315487385E0,5.044865131E0
1.165362721E2,5.099540234E0,-1.703461266E1,-1.712064505E0
1.165962646E2,2.660531998E-1,-1.122837639E1,1.089378357E0
1.166562571E2,-2.847941875E0,-1.885045767E0,-3.326635361E-1
1.167162496E2,-6.152754784E0,5.665269852E0,-3.318132639E0
1.167762423E2,-6.158641338E0,7.408679485E0,-8.765178680E0
1.168362347E2,-1.320191383E1,6.832973003E0,-1.307210541E1
1.168962271E2,3.021074772E0,-1.578399849E1,-1.491884422E1
1.169562194E2,-2.310284376E0,-2.319191170E1,-8.406300545E-1
1.170162120E2,3.611263037E0,-1.539937782E1,5.067861080E-1
1.170762044E2,2.942260265E0,2.925601482E0,6.996883392E0
1.171361970E2,-1.095459580E0,1.159027004E1,8.664547920E0
1.171961894E2,-1.160500050E0,9.906029701E-1,5.446412086E0
1.172561827E2,3.900082588E0,-1.299880028E1,1.293565273E0
1.173161768E2,6.182358265E0,-1.584824085E0,6.693104744E0
1.173761712E2,4.724683762E-1,1.397025585E-1,1.702594280E0
1.174361654E2,-4.207678795E0,1.015737534E0,-2.582610846E0
1.174961598E2,-1.708222008E1,5.451397300E-1,-1.180595016E1
1.175561533E2,-1.484642220E1,4.835952222E-1,-1.950988197E1
1.176161458E2,-2.439660072E0,8.335290551E-1,-1.572775364E0
1.176761381E2,7.806054115E0,-3.606233978E1,-9.942428589E0
1.177361306E2,1.248253441E1,-1.234246254E1,6.122947216E0
1.177961232E2,7.256395817E-1,-5.133490562E-1,-1.086838484E0
1.178561158E2,-2.857402325E0,4.355725288E0,3.800269127E0
1.179161083E2,3.483168125E0,-8.088139534E0,4.489739895E0
1.179761008E2,-3.836607933E-1,-3.083798647E0,6.531787395E0
1.180360932E2,-3.119333506E0,6.332698464E-1,4.140470505E0
1.180960856E2,-8.171860695E0,-7.012754083E-1,-1.995746613E0
1.181560781E2,-1.364656210E0,-4.453577042E0,-2.578442574E0
1.182160707E2,-1.144557285E1,4.036972523E0,-1.672264481E1
1.182760632E2,-9.588817596E0,3.525830984E0,-7.028156757E0
1.183360559E2,5.555538177E0,-1.228212738E1,8.053449631E0
1.183960491E2,-4.709964752E0,-1.723555565E1,-1.152616119E1
1.184560422E2,6.573540688E0,-7.187137127E0,1.644134521E0
1.185160353E2,-1.307830334E0,5.024713516E0,3.141273022E0
1.185760284E2,-7.789707184E-2,-5.515117645E-1,4.127332211E0
1.186360213E2,9.845171928E0,-6.070736408E0,3.881204605E0
1.186960136E2,2.118890762E0,1.594556272E-1,1.166669369E0
1.187560061E2,-2.388148308E-1,4.273542404E0,-3.476511478E0
1.188159985E2,-2.749828339E0,4.883456707E0,-3.913981915E0
1.188759911E2,-4.635174274E0,3.833747864E0,-4.607914448E0
1.189359836E2,-1.208870029E1,-8.511846542E0,-1.328693199E1
1.189959762E2,4.873630524E1,-8.066802025E0,-4.111296844E1
1.190559685E2,7.186439037E0,-1.403206539E1,-2.161172867E0
1.191159609E2,-1.673278809E-1,-1.537136650E1,-3.840307236E0
1.191759533E2,4.953876019E0,1.132708549E0,-4.597405434E0
1.192359460E2,-2.954178810E0,-1.754353046E0,-9.741444588E-1
1.192959385E2,2.282678604E0,-1.018933678E1,3.811751842E0
1.193559311E2,7.269106388E0,-5.732183456E0,1.396090984E0
1.194159247E2,4.323020458E0,6.091833591E0,-2.381328583E0
1.194759191E2,-5.168205738E0,5.756093502E0,-8.982039452E0
1.195359133E2,-2.248337364E1,6.399389744E0,1.046123505E0
1.195959076E2,-1.680802345E1,9.268027306E0,-3.526409149E0
1.196559019E2,-8.373234272E-1,-1.476950932E1,-2.464073658E0
1.197158950E2,1.043734455E1,-2.919597054E1,-2.891095400E0
1.197758873E2,7.496684551E0,-4.978476048E0,-4.353272438E0
1.198358796E2,-2.443539381E0,5.621144295E0,-1.631675720E0
1.198958721E2,-2.158782482E0,2.068934441E0,-2.443333387E0
1.199558341E2,-1.877600670E0,-8.664199829E0,-3.952764511E0
1.200158267E2,6.952367783E0,-8.330282211E0,2.976675034E-1
1.200758191E2,-7.250833511E-1,-3.223570824E0,2.147797108E0
1.201358117E2,-4.650974274E0,5.539023876E0,-2.553291321E0
1.201958040E2,-5.958697319E0,5.828403950E0,-7.806539059E0
1.202557965E2,-2.304244614E1,6.600100994E0,-8.348993301E0
1.203157890E2,-1.674590683E1,-1.459247684E1,-1.138402557E1
1.203757816E2,2.754352570E0,-3.054077721E1,1.723159790E0
1.204357740E2,1.371173954E1,-1.210860825E1,-5.634438992E0
1.204957672E2,-1.834897280E0,4.734650612E0,-3.750958443E-1
1.205557603E2,5.244054794E-1,6.423312664E0,5.646788597E0
1.206157534E2,3.262387276E0,-3.358500481E0,6.381140709E0
1.206757465E2,2.501158714E0,-9.896323204E0,-7.229232788E-2
1.207357396E2,2.372319221E0,-9.103840828E0,-1.533167839E0
1.207957322E2,-7.979370117E0,-5.010693550E0,-6.867405891E0
1.208557245E2,-6.083984375E-1,9.835469723E-1,-3.460971355E0
1.209157170E2,-2.126362610E1,1.681593513E1,-2.038056183E1
1.209757095E2,-6.841539383E0,-1.068445396E1,2.527538300E0
1.210357020E2,2.092101479E1,-3.435025024E1,1.424859285E0
1.210956945E2,1.234865189E0,-1.326534843E1,-1.743892312E0
1.211556871E2,-1.138740063E0,-2.563609600E0,2.785114765E0
1.212156794E2,-2.907588482E0,9.951538086E0,9.187645912E0
1.212756718E2,1.214256287E0,-7.319183350E-1,6.388422012E0
1.213356643E2,3.183615685E0,-1.550330162E1,3.135671854E0
1.213956568E2,2.843376160E0,-9.722765923E0,-1.520277500E0
1.214556494E2,-1.866495132E0,-8.166726828E-1,-1.997432232E0
1.215156422E2,-5.696371078E0,2.951308012E0,-5.173101425E0
1.215756361E2,-1.025454712E1,7.543416023E-1,-1.117051888E1
1.216356307E2,5.458952904E0,-9.288475037E0,3.755054474E-1
1.216956252E2,-4.430027962E0,-7.523803234E0,-4.652444839E0
1.217556197E2,-4.406674385E0,-1.309868622E1,-1.757129192E0
1.218156138E2,1.448248005E1,-2.155466461E1,1.821181536E0
1.218756069E2,2.085890770E-1,2.294969559E0,4.574631691E0
1.219355993E2,-2.643759251E0,1.036212921E0,7.442536354E0
1.219955919E2,-5.676857471E0,-4.208670139E0,4.491838455E0
1.220555844E2,3.051870346E0,-6.114344120E0,1.115782738E0
1.221155769E2,5.162661552E0,-5.449622154E0,3.483508110E0
1.221755693E2,-2.103136063E0,7.186147571E-1,-1.382125139E0
1.222355618E2,-8.847869873E0,7.085350513E0,-6.371500015E0
1.222955541E2,-8.407225609E0,1.074456882E1,-1.037588215E1
1.223555466E2,-4.879255772E0,3.083896637E-1,8.168141365E0
1.224155391E2,-1.160554886E-1,-1.675190163E1,-5.182024002E0
1.224755317E2,-1.645355701E0,-9.986059189E0,-3.229536533E0
1.225355241E2,-1.010016441E0,-1.699732780E1,6.321282387E-1
1.225955167E2,2.911274433E0,6.432319164E0,6.996126175E0
1.226555104E2,-2.081035614E0,1.238093376E0,7.807803154E-1
1.227155047E2,-9.739027023E-1,-8.102019310E0,2.875077724E0
1.227754991E2,8.166701317E0,-8.221979141E0,4.555337906E0
1.228354933E2,-5.034465790E-1,-4.298004627E0,3.263246536E0
1.228954876E2,-4.699678421E0,4.425585747E0,-6.835188866E-1
1.229554806E2,-1.044474983E1,7.535686970E0,-2.412471533E0
1.230154730E2,-9.070802689E0,4.267605305E0,-7.974811077E0
1.230754654E2,7.996933937E0,-1.075168610E1,-2.399697781E0
1.231354581E2,-1.607633114E0,-1.410316229E-1,5.123708248E-1
1.231954505E2,-1.109971523E0,-2.587269402E1,-2.193714142E0
1.232554431E2,6.465215683E0,-1.976082325E0,-1.257048249E0
1.233154356E2,-1.787514687E-1,1.228360367E1,5.926014900E0
1.233754280E2,2.831546307E0,-2.540172100E0,2.990726709E0
1.234354202E2,8.216400146E0,-1.067223740E1,2.007141113E0
1.234954127E2,3.236508369E0,-6.765255451E0,-1.821257591E0
1.235554052E2,-4.266504765E0,-8.172907829E-1,-1.509546041E0
1.236153977E2,-1.010849380E1,7.210975170E0,-3.641757727E0
1.236753902E2,-7.722095966E0,6.837060928E0,-5.908439636E0
