,Unnamed: 0,Time (s),Linear Acceleration x (m/s^2),Linear Acceleration y (m/s^2),Linear Acceleration z (m/s^2),label
0,0,1.55965320006e+18,15.7617197,-12.03116798,-10.9908638,0
1,1,1.55965320012e+18,17.9377346,-10.83837318,-12.30505943,0
2,2,1.55965320018e+18,18.93133354,-11.11506844,-11.73413467,0
3,3,1.55965320024e+18,17.9923687,-11.59497261,-11.45395947,0
4,4,1.5596532003e+18,17.00844765,-11.98930931,-11.08947182,0
5,5,1.55965320036e+18,15.84510422,-12.36676216,-10.48949242,0
6,6,1.55965320042e+18,-4.271399021,-4.048932076,4.790620804,0
7,7,1.55965320048e+18,-4.220118046,-11.37894154,-5.956185341,0
8,8,1.55965320054e+18,-0.5764756203,-0.6968512535,-5.361462116,0
9,9,1.5596532006e+18,-2.660207272,-7.216289043,-7.554271221,0
10,10,1.55965320066e+18,-3.504251719,-12.12475395,0.9877407551,0
11,11,1.55965320072e+18,-3.446427345,-23.95569992,10.83955669,0
12,12,1.55965320078e+18,-5.560283661,-35.98692322,-1.090858459,0
13,13,1.55965320084e+18,-15.64418602,-11.87866592,-3.151577473,0
14,14,1.5596532009e+18,-6.130957603,-20.8344574,4.669613838,0
15,15,1.55965320096e+18,-6.777204514,-15.77831745,5.444298744,0
16,16,1.55965320102e+18,-7.182395458,-11.44825363,2.121893883,0
17,17,1.55965320108e+18,-5.057574272,-5.725053787,-1.450713634,0
18,18,1.55965320114e+18,-3.060166359,-4.050154686,-2.260178566,0
19,19,1.5596532012e+18,4.187534332,-10.14021301,-13.31279469,0
20,20,1.55965320126e+18,7.927604675,-6.602784157,-13.99557686,0
21,21,1.55965320132e+18,5.929103374,-8.437151909,-3.034013271,0
22,22,1.55965320138e+18,-4.254137516,-29.05115128,17.01789665,0
23,23,1.55965320144e+18,8.601571083,-17.41920471,-15.32745457,0
24,24,1.5596532015e+18,1.65149653,-22.52743912,4.641879082,0
25,25,1.55965320156e+18,-4.598700523,-5.847296238,-0.1479735374,0
26,26,1.55965320162e+18,0.4638869762,-6.098813534,6.780942917,0
27,27,1.55965320168e+18,-3.801474333,-7.192068577,-0.8051915169,0
28,28,1.55965320174e+18,-2.642386913,-11.81022358,5.52882719,0
29,29,1.5596532018e+18,0.7222795486,-6.551514626,2.382805824,0
30,30,1.55965320186e+18,1.20265913,-4.664832115,2.446154594,0
31,31,1.55965320192e+18,-0.8901793957,-6.239004135,-4.243446827,0
32,32,1.55965320198e+18,-2.068322659,-15.91529369,-12.0063839,0
33,33,1.55965320204e+18,-0.4857945442,-12.33343697,-8.154252052,0
34,34,1.5596532021e+18,10.08497715,-9.966909409,-3.856267452,0
35,35,1.55965320216e+18,5.885296822,-14.70598125,1.496137619,0
36,36,1.55965320222e+18,-11.2227478,-26.75676155,-5.216430664,0
37,37,1.55965320228e+18,8.200567245,-9.587162971,9.951076508,0
38,38,1.55965320234e+18,6.487003326,2.503601074,12.03442001,0
39,39,1.5596532024e+18,-0.6230945587,2.802611589,7.788876057,0
40,40,1.55965320246e+18,-3.606149673,1.819066763,4.177387714,0
41,41,1.55965320252e+18,-1.837872982,-7.54100132,3.094463825,0
42,42,1.55965320258e+18,-3.336938381,-4.805211544,0.2512607574,0
43,43,1.55965320264e+18,2.858390808,-2.397544384,1.291847229,0
44,44,1.5596532027e+18,3.310451508,-5.572418213,-4.021902084,0
45,45,1.55965320276e+18,2.161272049,-6.981338501,-1.426064491,0
46,46,1.55965320282e+18,-1.080988407,-8.08300209,-4.667244911,0
47,47,1.55965320288e+18,5.674868584,-4.74796629,-9.966129303,0
48,48,1.55965320294e+18,1.486777782,-7.814684391,-10.90180874,0
49,49,1.559653203e+18,2.967788219,-8.700658798,-4.209626675,0
50,50,1.55965320306e+18,-1.663547039,-8.944767952,6.377277374,0
51,51,1.55965320312e+18,9.773012161,-7.010627747,-1.116533279,0
52,52,1.55965320318e+18,-3.234440327,-9.384178162,16.52443695,0
53,53,1.55965320324e+18,-1.521673203,6.06606102,9.797236443,0
54,54,1.5596532033e+18,-4.436065197,-2.656797409,5.113149643,0
55,55,1.55965320336e+18,-3.892302513,-2.109107971,3.245692253,0
56,56,1.55965320342e+18,-4.135130405,-4.072992802,3.267700195,0
57,57,1.55965320347e+18,-6.616436481,-6.930383682,-0.2980747223,0
58,58,1.55965320353e+18,-1.001764297,-2.891705751,-4.442517281,0
59,59,1.55965320359e+18,5.56346941,-5.507502079,1.078010559,0
60,60,1.55965320365e+18,5.810246468,-3.702776909,-11.18069077,0
61,61,1.55965320371e+18,-2.656626701,-7.310531616,-12.96059608,0
62,62,1.55965320377e+18,3.704884768,-4.525781155,-11.65372276,0
63,63,1.55965320383e+18,1.7853688,-4.664086819,-7.250475883,0
64,64,1.55965320389e+18,3.746465683,-0.5400400162,-0.02717113495,0
65,65,1.55965320395e+18,6.499299049,-4.514035702,-5.925592422,0
66,66,1.55965320401e+18,-14.19507599,-19.31559181,4.86088419,0
67,67,1.55965320407e+18,-8.433656693,-0.4982714653,7.276094913,0
68,68,1.55965320413e+18,-2.548437119,-4.579628944,6.076249123,0
69,69,1.55965320419e+18,-4.330281734,-3.205073595,3.12351799,0
70,70,1.55965320425e+18,-0.8178629875,-1.389568567,-0.1867017746,0
71,71,1.55965320431e+18,-0.833075285,3.973618507,-0.3576841354,0
72,72,1.55965320437e+18,4.997283936,1.012897253,-0.9951610565,0
73,73,1.55965320443e+18,3.15468049,-0.5621532202,-4.238221169,0
74,74,1.55965320449e+18,1.365917683,-1.912588835,-2.567197323,0
75,75,1.55965320455e+18,-2.906125546,-4.538014412,3.044593811,0
76,76,1.55965320461e+18,3.617102623,-2.809459925,-8.948261261,0
77,77,1.55965320467e+18,1.069037437,-0.4855284691,-22.87621307,0
78,78,1.55965320473e+18,6.849840641,-1.750647545,-16.83249092,0
79,79,1.55965320479e+18,-3.306564808,-8.232738495,9.960716248,0
80,80,1.55965320485e+18,-0.1367762089,-18.12673187,-3.316122532,0
81,81,1.55965320491e+18,-11.33162594,-15.18564796,1.013311863,0
82,82,1.55965320497e+18,-6.280620098,-4.625601768,2.606613636,0
83,83,1.55965320503e+18,-1.556911469,-2.709019661,2.698883057,0
84,84,1.55965320509e+18,-1.109632492,-0.1492333412,1.658599377,0
85,85,1.55965320515e+18,-0.7750780582,-3.95000267,-3.485190868,0
86,86,1.55965320521e+18,-3.908884764,-4.070442677,-2.019489765,0
87,87,1.55965320527e+18,-0.5214061737,-0.2406771183,-4.814156532,0
88,88,1.55965320533e+18,0.7527236938,4.000062943,-0.5256795883,0
89,89,1.55965320539e+18,1.025242209,-1.921034932,1.814219475,0
90,90,1.55965320545e+18,4.620023251,-0.9153547287,-12.15147972,0
91,91,1.55965320551e+18,6.409444332,-1.242819309,-17.38400269,0
92,92,1.55965320557e+18,4.26039362,-1.07070446,-11.10819149,0
93,93,1.55965320563e+18,3.581510782,-7.985004425,3.689548492,0
94,94,1.55965320569e+18,-2.785690546,-20.06570816,3.029192924,0
95,95,1.55965320575e+18,-2.223007441,-20.369627,-1.743407249,0
96,96,1.55965320581e+18,-7.96143961,-8.450431824,0.2175803185,0
97,97,1.55965320587e+18,-1.248131275,-2.997021198,-0.943901062,0
98,98,1.55965320593e+18,0.3315830231,-10.03435612,1.274881363,0
99,99,1.55965320599e+18,-0.4132857323,-3.21161747,2.904098511,0
100,100,1.55965320605e+18,1.602616072,1.08385694,1.862035751,0
101,101,1.55965320611e+18,4.838836193,0.8473935127,1.17162323,0
102,102,1.55965320617e+18,3.938424826,-0.6570934057,-4.702458382,0
103,103,1.55965320623e+18,-3.578901291,-7.721814632,-3.40591383,0
104,104,1.55965320629e+18,-0.8528209925,-3.751202106,-15.36040115,0
105,105,1.55965320635e+18,-4.310976982,1.466116905,-19.58697128,0
106,106,1.55965320641e+18,-1.498806238,-5.571264267,-8.295794487,0
107,107,1.55965320647e+18,-1.45463419,-12.34273148,10.65413666,0
108,108,1.55965320653e+18,7.802710533,-12.78018093,-7.798334122,0
109,109,1.55965320659e+18,-5.741387844,-16.34272766,6.997763157,0
110,110,1.55965320665e+18,-0.4082794189,-3.582253933,3.843046665,0
111,111,1.55965320671e+18,1.533137798,-10.07175732,0.9402313232,0
112,112,1.55965320677e+18,0.1873793602,-6.581359863,2.400875092,0
113,113,1.55965320683e+18,-0.604511261,-4.61767149,0.3171691895,0
114,114,1.55965320689e+18,-0.9231510162,-0.8486117125,-0.3517627716,0
115,115,1.55965320695e+18,0.2086391449,0.8780540228,-2.053207874,0
116,116,1.55965320701e+18,-5.680121899,-0.9559934139,-2.872581005,0
117,117,1.55965320707e+18,2.954586744,-6.521007061,-11.86703968,0
118,118,1.55965320713e+18,8.677047729,0.140748024,-19.51360512,0
119,119,1.55965320719e+18,0.1449854374,-8.378128052,-6.637255192,0
120,120,1.55965320725e+18,-3.034414291,-7.725627899,-3.352019787,0
121,121,1.55965320731e+18,-2.189737797,-16.05200195,7.183692932,0
122,122,1.55965320737e+18,5.901250362,-16.54478264,-10.43495941,0
123,123,1.55965320743e+18,-9.3754673,-7.64327383,-2.768002033,0
124,124,1.55965320749e+18,-3.873419762,-8.111203194,-0.3030362129,0
125,125,1.55965320755e+18,-4.530441284,-6.956319809,3.32530117,0
126,126,1.55965320761e+18,-5.432775497,-6.049807549,0.4521503448,0
127,127,1.55965320767e+18,-0.567596674,-1.35317111,1.073339462,0
128,128,1.55965320773e+18,0.9557342529,2.8316679,1.163615227,0
129,129,1.55965320779e+18,0.6911557913,-2.804523468,-2.3658638,0
130,130,1.55965320785e+18,-2.300601959,-2.874658346,-4.861987591,0
131,131,1.55965320791e+18,-2.788160563,-2.240575075,-6.465991974,0
132,132,1.55965320797e+18,-8.66302681,-13.43919754,-1.929576397,0
133,133,1.55965320803e+18,-0.9181556702,-0.621486187,-20.350811,0
134,134,1.55965320809e+18,1.240297318,-8.558021545,-12.1357193,0
135,135,1.55965320815e+18,-1.971536636,-15.388937,10.68871117,0
136,136,1.55965320821e+18,7.383738995,-5.329392433,-7.483380318,0
137,137,1.55965320827e+18,-5.868590832,-15.4771347,8.454240799,0
138,138,1.55965320833e+18,-4.30500555,-5.26958704,7.97999382,0
139,139,1.55965320839e+18,-2.985049248,-1.964655399,3.627608299,0
140,140,1.55965320845e+18,0.6852378845,-1.318616152,1.112634659,0
141,141,1.55965320851e+18,2.612069607,-2.402506351,2.062213898,0
142,142,1.55965320857e+18,1.992581606,2.215278387,-0.6117348671,0
143,143,1.55965320863e+18,0.4261407852,0.9327569008,3.441965103,0
144,144,1.55965320869e+18,-5.891734123,-2.537917137,-6.89258337,0
145,145,1.55965320875e+18,-3.789739609,-5.88106966,-1.53409338,0
146,146,1.55965320881e+18,5.53435421,1.135877132,-11.10787392,0
147,147,1.55965320887e+18,1.903088808,-8.237364769,-17.55031586,0
148,148,1.55965320893e+18,9.353216171,-2.025966644,-13.74814701,0
149,149,1.55965320899e+18,2.765244961,-10.01006317,11.21312904,0
150,150,1.55965320905e+18,7.44080019,-25.27369499,-1.801913738,0
151,151,1.55965320911e+18,0.748032093,-19.21203041,6.971136093,0
152,152,1.55965320917e+18,3.006113529,-3.953446865,10.35064125,0
153,153,1.55965320923e+18,3.323981285,-0.8956429958,4.861298084,0
154,154,1.55965320929e+18,1.783820629,2.071158171,4.257489204,0
155,155,1.55965320935e+18,-2.025229454,0.9968060851,-2.024949074,0
156,156,1.55965320941e+18,-9.29736042,-4.758749962,-0.02007007599,0
157,157,1.55965320947e+18,-7.960433006,-7.002387047,5.944453239,0
158,158,1.55965320953e+18,-4.207395554,-8.493963242,0.5779500008,0
159,159,1.55965320959e+18,2.692877293,-4.848261833,-13.79248047,0
160,160,1.55965320965e+18,9.776802063,-6.149990559,-11.29675961,0
161,161,1.55965320971e+18,-4.233317852,-7.681776047,-9.025655746,0
162,162,1.55965320977e+18,1.928719997,-7.773786545,-7.658231735,0
163,163,1.55965320983e+18,-1.263727427,-29.03337288,-3.927963734,0
164,164,1.55965320989e+18,-16.30071259,-15.18401814,7.739631653,0
165,165,1.55965320995e+18,-8.294967651,-5.11734581,9.31148243,0
166,166,1.55965321001e+18,-3.892885208,1.761360407,5.531529427,0
167,167,1.55965321007e+18,-4.340279579,4.154020309,1.822636604,0
168,168,1.55965321013e+18,0.4023332,1.307047248,0.3645429611,0
169,169,1.55965321019e+18,1.519646406,1.450678587,-1.161159515,0
170,170,1.55965321025e+18,1.246002674,-2.316135168,1.470698357,0
171,171,1.55965321031e+18,2.145295143,-6.048898697,-2.921181202,0
172,172,1.55965321037e+18,-2.58570981,-9.55024147,-6.906892776,0
173,173,1.55965321043e+18,-6.600125313,-3.991428137,-13.58485794,0
174,174,1.55965321049e+18,-4.023316383,-3.822501183,-13.69293785,0
175,175,1.55965321055e+18,-0.04516673088,-6.197071552,3.182912827,0
176,176,1.55965321061e+18,-8.100678444,-14.50312233,-13.71460724,0
177,177,1.55965321067e+18,-3.487340927,-31.19867325,7.041254997,0
178,178,1.55965321072e+18,-5.778725624,-11.04009056,3.320122719,0
179,179,1.55965321078e+18,-2.015505791,0.01356267929,5.205950737,0
180,180,1.55965321084e+18,-4.607582092,2.582812548,4.71526289,0
181,181,1.5596532109e+18,-3.947309494,4.95708847,-1.571051121,0
182,182,1.55965321096e+18,1.390151501,3.065502405,0.5281701088,0
183,183,1.55965321102e+18,5.016433716,5.012149811,2.833133698,0
184,184,1.55965321108e+18,7.86422205,-1.705173373,6.911221504,0
185,185,1.55965321114e+18,-4.25207901,-6.708787918,-0.085105896,0
186,186,1.5596532112e+18,3.593603611,-3.273787022,-5.882232189,0
187,187,1.55965321126e+18,-0.4059536755,-2.467973232,-22.83667374,0
188,188,1.55965321132e+18,2.421991348,-4.457030296,-20.55711746,0
189,189,1.55965321138e+18,2.364921808,-9.462774277,9.071101189,0
190,190,1.55965321144e+18,2.194054604,-27.21634102,0.8496284485,0
191,191,1.5596532115e+18,-5.675044537,-14.97580719,1.736366272,0
192,192,1.55965321156e+18,1.440708637,0.1229264736,4.327248573,0
193,193,1.55965321162e+18,2.943242788,-0.2341434956,3.668718815,0
194,194,1.55965321168e+18,5.314487934,0.8801007271,2.313409805,0
195,195,1.55965321174e+18,1.17241621,-4.766763687,5.868286133,0
196,196,1.5596532118e+18,-4.819644451,-4.360042095,5.554217339,0
197,197,1.55965321186e+18,-4.694221497,5.386823654,-2.698570728,0
198,198,1.55965321192e+18,12.00407696,9.376008034,-17.6650219,0
199,199,1.55965321198e+18,6.016950607,4.204810143,-13.33266449,0
200,200,1.55965321204e+18,0.448589623,-7.99279356,-0.4162778854,0
201,201,1.5596532121e+18,4.008405685,-24.53171921,2.416337967,0
202,202,1.55965321216e+18,0.8143928051,-25.37694931,-4.98445797,0
203,203,1.55965321222e+18,-4.093803883,-7.057659149,-4.504031658,0
204,204,1.55965321228e+18,0.6723971367,-0.6206433773,4.54665184,0
205,205,1.55965321234e+18,3.053093433,-1.349771261,0.8736143112,0
206,206,1.5596532124e+18,2.333889484,-0.4420855045,-1.440336704,0
207,207,1.55965321246e+18,4.454931259,-1.477342963,-1.011289597,0
208,208,1.55965321252e+18,1.15720129,-1.139578104,2.839315414,0
209,209,1.55965321258e+18,-3.123627424,-2.629028559,-4.362766266,0
210,210,1.55965321264e+18,-9.199604988,-3.246214151,-0.1251773834,0
211,211,1.5596532127e+18,11.37175369,0.9598488808,-25.92731667,0
212,212,1.55965321276e+18,8.13502121,-3.863409519,-13.84184456,0
213,213,1.55965321282e+18,4.355496883,-23.26127434,0.3284101486,0
214,214,1.55965321288e+18,-8.80017662,-29.97313499,-5.429704666,0
215,215,1.55965321294e+18,-1.691649437,-12.55528259,-1.297550678,0
216,216,1.559653213e+18,-1.445868492,-4.860046387,1.81161356,0
217,217,1.55965321306e+18,-1.960701942,-0.5544290543,0.2274470329,0
218,218,1.55965321312e+18,-0.7846698761,4.213850498,-0.07779216766,0
219,219,1.55965321318e+18,1.989676237,3.819002867,0.3352980614,0
220,220,1.55965321324e+18,7.219202042,1.841241598,2.329862595,0
221,221,1.5596532133e+18,1.124161005,-3.262788296,7.735754967,0
222,222,1.55965321336e+18,-1.923360825,-7.129264832,1.306232452,0
223,223,1.55965321342e+18,0.441693306,-2.198776007,-23.21092987,0
224,224,1.55965321348e+18,7.084620476,-3.530215502,-16.34584618,0
225,225,1.55965321354e+18,3.709130049,-15.25081635,8.296219826,0
226,226,1.5596532136e+18,9.545526505,-13.47433949,1.805146217,0
227,227,1.55965321366e+18,1.961819649,-19.17889404,-2.071173191,0
228,228,1.55965321372e+18,-2.124575138,-7.306666374,5.63888979,0
229,229,1.55965321378e+18,-3.092613697,-3.786141396,11.29316807,0
230,230,1.55965321384e+18,0.9481091499,1.081458092,8.225522995,0
231,231,1.5596532139e+18,3.913408041,1.364150167,2.541839123,0
232,232,1.55965321396e+18,4.603067398,0.8578934669,-0.659321785,0
233,233,1.55965321402e+18,-0.4976644516,3.806680441,-2.685134411,0
234,234,1.55965321408e+18,-0.7027466297,-1.190835476,-0.2600946426,0
235,235,1.55965321414e+18,5.227406502,-5.269388199,-10.55698967,0
236,236,1.5596532142e+18,-3.437621593,-26.0811348,11.61229324,0
237,237,1.55965321426e+18,7.841679096,-4.188064575,-23.59751892,0
238,238,1.55965321432e+18,5.789469242,-38.35396957,-8.174024582,0
239,239,1.55965321438e+18,-5.973114014,-19.47413063,2.398331642,0
240,240,1.55965321444e+18,3.549221516,-10.48365402,4.816400528,0
241,241,1.5596532145e+18,-2.862172604,-3.587250233,5.708068371,0
242,242,1.55965321456e+18,-6.216467381,4.077549934,6.098018646,0
243,243,1.55965321462e+18,-0.2148976326,8.025018692,3.074736595,0
244,244,1.55965321468e+18,5.054695129,8.291629791,3.931967735,0
245,245,1.55965321474e+18,2.284394741,3.864156723,5.983955383,0
246,246,1.5596532148e+18,2.970837116,-0.6042516232,2.550919533,0
247,247,1.55965321486e+18,-1.141597509,-1.79334569,-3.349052906,0
248,248,1.55965321492e+18,3.763932228,-6.327116013,-17.58928299,0
249,249,1.55965321498e+18,-6.412152767,1.634992361,-13.89600945,0
250,250,1.55965321504e+18,4.847528934,-0.5899610519,-6.741485119,0
251,251,1.5596532151e+18,8.967331886,-43.97486115,-2.330965996,0
252,252,1.55965321516e+18,-13.64546585,-18.52365494,-5.46778059,0
253,253,1.55965321522e+18,3.889113188,-7.294715881,2.03327322,0
254,254,1.55965321528e+18,3.942296982,2.975332737,5.868740082,0
255,255,1.55965321534e+18,-4.084351063,4.945441723,1.930538654,0
256,256,1.5596532154e+18,-1.507486343,3.512878418,-3.730457306,0
257,257,1.55965321546e+18,3.234827995,-0.9579592943,-7.489193439,0
258,258,1.55965321552e+18,4.278004646,1.204129338,-10.36248493,0
259,259,1.55965321558e+18,14.26842308,11.08656597,-9.179857254,0
260,260,1.55965321564e+18,9.162863731,11.06114769,-14.214468,0
261,261,1.5596532157e+18,7.660383701,-15.186759,9.974461555,0
262,262,1.55965321576e+18,-7.045598984,-43.57129669,2.775462627,0
263,263,1.55965321582e+18,-1.809224129,-15.19134998,-5.482945919,0
264,264,1.55965321588e+18,4.491697311,0.4868619442,-2.434758663,0
265,265,1.55965321594e+18,2.3164258,-7.35253334,-1.85041523,0
266,266,1.559653216e+18,-4.097070217,-6.933042526,1.347829342,0
267,267,1.55965321606e+18,-3.227589607,-0.9174892902,2.603319645,0
268,268,1.55965321612e+18,-1.538200378,2.925306797,-0.4998102188,0
269,269,1.55965321618e+18,1.173258781,4.532068729,-4.120454311,0
270,270,1.55965321624e+18,3.59810257,1.313542843,-5.02514267,0
271,271,1.5596532163e+18,4.399833679,0.3267514706,-3.80031538,0
272,272,1.55965321636e+18,5.230322361,-0.8296456337,-15.40383434,0
273,273,1.55965321642e+18,-0.6059259176,-3.469781637,-10.18615913,0
274,274,1.55965321648e+18,-2.768419266,-13.93689346,-2.498761177,0
275,275,1.55965321654e+18,3.020412922,-39.8994751,4.829077721,0
276,276,1.5596532166e+18,-0.1386928558,-8.096408844,-4.114607811,0
277,277,1.55965321666e+18,-1.820669174,-1.859845638,-0.2356567383,0
278,278,1.55965321672e+18,-0.9439911842,-6.968117714,4.645726204,0
279,279,1.55965321678e+18,-1.434519291,-6.667865753,5.094780445,0
280,280,1.55965321684e+18,-0.4070754051,1.242634773,1.541913033,0
281,281,1.5596532169e+18,1.556073189,0.6301482916,-1.304409027,0
282,282,1.55965321696e+18,3.418532848,5.049310207,-2.974270821,0
283,283,1.55965321702e+18,5.042233467,2.640380144,-8.662060738,0
284,284,1.55965321708e+18,1.859930754,-3.183337212,-11.11377144,0
285,285,1.55965321714e+18,-0.7233715057,0.3487145901,-15.55979729,0
286,286,1.5596532172e+18,-4.184173107,1.788520813,-2.461213589,0
287,287,1.55965321726e+18,0.543864727,-10.97762489,2.616372108,0
288,288,1.55965321732e+18,1.630548239,-30.39869308,5.055083275,0
289,289,1.55965321738e+18,-1.345618844,-9.945062637,-3.063808441,0
290,290,1.55965321744e+18,0.4022373557,-1.036592007,1.411429405,0
291,291,1.5596532175e+18,0.8050749302,-2.401539803,2.59307909,0
292,292,1.55965321756e+18,-1.942183733,-6.747102261,9.365737915,0
293,293,1.55965321762e+18,0.2159237862,-0.7371764183,5.163114548,0
294,294,1.55965321768e+18,1.767984509,2.572865248,-1.442517281,0
295,295,1.55965321774e+18,2.370429516,1.317832708,-6.102541924,0
296,296,1.5596532178e+18,-0.1545453668,-1.974328995,-8.520904541,0
297,297,1.55965321786e+18,0.8399099112,-10.04798603,-9.50421524,0
298,298,1.55965321792e+18,2.958751678,-1.461130619,-27.76311493,0
299,299,1.55965321798e+18,-0.3413231373,-2.943018436,-11.58485222,0
300,300,1.55965321804e+18,-4.175542831,-31.0100708,8.815459251,0
301,301,1.5596532181e+18,3.190810204,-15.03313637,-8.11395359,0
302,302,1.55965321816e+18,-4.112306118,-11.11822701,4.217459679,0
303,303,1.55965321822e+18,6.453948975,-3.589133263,5.087725639,0
304,304,1.55965321828e+18,3.513914108,-1.698805332,-0.2154846191,0
305,305,1.55965321834e+18,0.619961381,-1.771734595,3.17466259,0
306,306,1.5596532184e+18,2.547758341,-5.127215385,-0.8467702866,0
307,307,1.55965321846e+18,2.094982624,-3.988703251,-1.895367622,0
308,308,1.55965321852e+18,-1.867915392,-6.096751213,3.897494316,0
309,309,1.55965321858e+18,2.500904083,-4.245122433,-18.66335106,0
310,310,1.55965321864e+18,0.1521688998,0.06429767609,-29.75020599,0
311,311,1.5596532187e+18,-5.881865501,9.3879776,-16.62477303,0
312,312,1.55965321876e+18,6.80318737,-12.59138489,2.714735985,0
313,313,1.55965321882e+18,-8.944355965,-48.66831589,-0.7466402054,0
314,314,1.55965321888e+18,-2.348139286,-19.04800797,4.268857956,0
315,315,1.55965321894e+18,1.658736587,-2.909031391,3.818067551,0
316,316,1.559653219e+18,-6.925785542,-0.4280898571,2.591141701,0
317,317,1.55965321906e+18,1.106707096,0.3162126541,6.184779167,0
318,318,1.55965321912e+18,4.735128403,-2.963403225,0.9732694626,0
319,319,1.55965321918e+18,7.121267796,-6.993402481,0.4650850296,0
320,320,1.55965321924e+18,0.7058290243,-7.927277565,-0.1013679504,0
321,321,1.5596532193e+18,-2.413214684,-9.405040741,-7.541620255,0
322,322,1.55965321936e+18,-3.34787178,-2.18803215,-10.07563877,0
323,323,1.55965321942e+18,-3.905418396,1.535495043,1.24130249,0
324,324,1.55965321948e+18,-2.309686899,1.665605307,-3.130548477,0
325,325,1.55965321954e+18,-6.63959074,-4.069115639,-4.324152946,0
326,326,1.5596532196e+18,1.994368076,-4.578620434,-29.17824173,0
327,327,1.55965321966e+18,5.044237614,-31.37345695,-8.0376091,0
328,328,1.55965321972e+18,18.203619,-20.78280258,-7.185977936,0
329,329,1.55965321978e+18,-13.10347557,-4.657972336,5.444728374,0
330,330,1.55965321984e+18,3.378706932,-0.4913868904,10.12147522,0
331,331,1.5596532199e+18,6.265494347,-11.81833267,11.3787508,0
332,332,1.55965321996e+18,5.159324646,-9.916591644,3.186096191,0
333,333,1.55965322002e+18,8.956295967,-6.019173622,0.6148557663,0
334,334,1.55965322008e+18,6.002132416,-10.38902664,-2.361177444,0
335,335,1.55965322014e+18,-2.422847509,-8.171813965,-10.84954739,0
336,336,1.5596532202e+18,-5.888379097,-2.10947156,-16.03610039,0
337,337,1.55965322026e+18,3.415122032,8.895904541,-12.05399704,0
338,338,1.55965322032e+18,-0.7271308899,7.066838741,-8.639690399,0
339,339,1.55965322038e+18,3.542622805,-0.6124751568,-1.51658535,0
340,340,1.55965322044e+18,-0.9560380578,-7.473179817,-10.50344467,0
341,341,1.5596532205e+18,-9.401733398,-17.46664619,1.092853546,0
342,342,1.55965322056e+18,-6.955428123,-9.129192352,7.587985039,0
343,343,1.55965322062e+18,-0.2552255392,-0.9239492416,4.62820816,0
344,344,1.55965322068e+18,2.321380377,-2.345017433,0.1490321159,0
345,345,1.55965322074e+18,2.524572134,-6.498314857,-0.8294415474,0
346,346,1.5596532208e+18,-2.509739876,-8.931760788,5.572471619,0
347,347,1.55965322086e+18,1.166215658,-0.5514571667,3.942938805,0
348,348,1.55965322092e+18,4.71788311,1.883464098,2.644284248,0
349,349,1.55965322098e+18,0.8627282381,-5.181423187,-12.57518005,0
350,350,1.55965322104e+18,-5.111625671,-7.319827557,-13.65773773,0
351,351,1.5596532211e+18,-7.199919701,2.367097855,-7.573523521,0
352,352,1.55965322116e+18,4.842452049,-1.439899683,-12.7971344,0
353,353,1.55965322122e+18,-6.145391464,0.5425884724,-9.960225105,0
354,354,1.55965322128e+18,0.8041627407,-19.1750145,3.818862915,0
355,355,1.55965322134e+18,-4.878466606,-15.96492004,5.849397182,0
356,356,1.5596532214e+18,-1.711509109,1.012541771,8.739052773,0
357,357,1.55965322146e+18,-0.9171465635,-7.613401413,15.2298727,0
358,358,1.55965322152e+18,-10.76971245,-12.91242695,15.49264336,0
359,359,1.55965322158e+18,-3.526875973,0.7845907211,10.07922268,0
360,360,1.55965322164e+18,4.926364422,9.249446869,-1.610515118,0
361,361,1.5596532217e+18,1.02761662,4.917591095,-5.586596966,0
362,362,1.55965322176e+18,-5.658731937,7.814601421,-7.789680481,0
363,363,1.55965322182e+18,-13.11608887,-4.308495522,-1.845422745,0
364,364,1.55965322188e+18,0.5090079308,-18.74131393,-4.187890053,0
365,365,1.55965322194e+18,-8.431209564,-5.071939945,-18.4225769,0
366,366,1.559653222e+18,0.1500371695,-9.205489159,-18.50904846,0
367,367,1.55965322206e+18,0.3010449409,-12.82615566,-2.941709757,0
368,368,1.55965322212e+18,5.405021667,-7.098766327,-1.56645751,0
369,369,1.55965322218e+18,3.150030136,-22.41149902,16.03771591,0
370,370,1.55965322224e+18,-7.073636055,-12.03285789,16.63605499,0
371,371,1.5596532223e+18,-7.709557533,-3.616387367,14.84300995,0
372,372,1.55965322236e+18,-10.58456612,3.920444012,7.978928089,0
373,373,1.55965322242e+18,-1.143059731,9.537685394,5.973257542,0
374,374,1.55965322248e+18,-0.3977026343,-0.2267146111,-0.4689350128,0
375,375,1.55965322254e+18,-4.879670143,-6.035246372,0.6460771561,0
376,376,1.5596532226e+18,-7.297008514,-1.806764841,-9.696416855,0
377,377,1.55965322266e+18,-5.472201347,11.68355274,-12.43083,0
378,378,1.55965322272e+18,16.62945938,5.054002762,-9.267802238,0
379,379,1.55965322278e+18,-6.554445267,4.151392937,-8.651045799,0
380,380,1.55965322284e+18,-1.957553625,2.815141201,-13.24543571,0
381,381,1.5596532229e+18,0.787528038,-26.85181808,12.76154804,0
382,382,1.55965322296e+18,-20.81573868,-31.05392838,-1.324696541,0
383,383,1.55965322302e+18,-10.99927711,-4.417741776,5.294744492,0
384,384,1.55965322308e+18,-7.28676796,5.109652519,6.00002718,0
385,385,1.55965322314e+18,-6.517168999,8.843259811,-0.09699678421,0
386,386,1.5596532232e+18,-0.5766625404,5.175371647,-2.800822735,0
387,387,1.55965322326e+18,6.648995399,-8.309033394,-8.890532494,0
388,388,1.55965322332e+18,-3.327102423,-1.947634697,0.3043489456,0
389,389,1.55965322338e+18,-9.903203964,12.63573265,-4.587979317,0
390,390,1.55965322344e+18,-2.224411011,21.94508743,-18.59007835,0
391,391,1.5596532235e+18,-4.122114182,0.6648579836,-0.09542369843,0
392,392,1.55965322356e+18,-5.014784813,-67.56774902,-16.21603584,0
393,393,1.55965322362e+18,-7.205118179,-14.58779144,-4.834327698,0
394,394,1.55965322368e+18,6.965322018,-9.948482513,-4.225087166,0
395,395,1.55965322374e+18,2.167026758,-12.6724081,-4.677460194,0
396,396,1.5596532238e+18,-1.753165722,-4.017995834,-0.9486484528,0
397,397,1.55965322386e+18,-1.780885458,2.878225565,-1.650418758,0
398,398,1.55965322392e+18,-6.904215813,5.084870815,-2.525981903,0
399,399,1.55965322398e+18,-3.221289873,3.147414446,-3.939126015,0
400,400,1.55965322404e+18,-3.427374601,4.388996124,-4.947647095,0
401,401,1.5596532241e+18,-0.6558344364,5.387261391,-19.75182724,0
402,402,1.55965322416e+18,-1.316574812,-2.590147495,-8.41805172,0
403,403,1.55965322422e+18,-4.417939663,-13.74427128,7.056931496,0
404,404,1.55965322428e+18,5.987308025,-17.33985329,-11.5546608,0
405,405,1.55965322434e+18,-4.061317921,-16.44203758,-4.213801861,0
406,406,1.5596532244e+18,-4.413965702,-2.414651394,-3.955784798,0
407,407,1.55965322446e+18,-1.197946072,-8.087292671,-1.562009811,0
408,408,1.55965322452e+18,-5.805510521,-8.709111214,1.954025269,0
409,409,1.55965322458e+18,-5.288811684,-6.628572941,-1.253414154,0
410,410,1.55965322464e+18,-5.908515453,-5.280085564,-5.475511074,0
411,411,1.5596532247e+18,-3.454923391,-0.1808251143,-4.867585659,0
412,412,1.55965322476e+18,-1.811688185,-1.054691315,-6.720672607,0
413,413,1.55965322482e+18,-2.111261606,1.37918973,-5.6404109,0
414,414,1.55965322488e+18,-2.487079859,-0.6276540756,-1.91893959,0
415,415,1.55965322494e+18,2.119062901,-2.390563488,-21.28106689,0
416,416,1.559653225e+18,6.309571266,-3.028485775,-20.63650131,0
417,417,1.55965322506e+18,-0.1162748337,-21.73146248,10.60428238,0
418,418,1.55965322512e+18,-21.40705109,-18.38298607,4.604948997,0
419,419,1.55965322518e+18,-1.75233686,-8.02938652,0.07902050018,0
420,420,1.55965322524e+18,-6.47560215,-9.310407639,-4.711097717,0
421,421,1.55965322529e+18,-5.812691212,-4.50976181,1.056410789,0
422,422,1.55965322535e+18,-6.125315189,-2.097319126,2.068609238,0
423,423,1.55965322541e+18,-3.726776361,1.623642445,1.648981094,0
424,424,1.55965322547e+18,-3.963450193,3.909169674,2.478304863,0
425,425,1.55965322553e+18,-1.46845305,4.267093658,1.885229111,0
426,426,1.55965322559e+18,2.48023653,-0.2654047012,-5.006858826,0
427,427,1.55965322565e+18,2.681382179,-1.890280485,-6.3425951,0
428,428,1.55965322571e+18,-1.284807444,-1.860184431,-2.552727699,0
429,429,1.55965322577e+18,-6.657082081,-7.149134159,-15.69525528,0
430,430,1.55965322583e+18,4.235442638,-11.04487419,-15.6090374,0
431,431,1.55965322589e+18,7.222618103,-24.90747261,-1.113920212,0
432,432,1.55965322595e+18,-14.74208641,-22.49112892,4.601441383,0
433,433,1.55965322601e+18,2.803776503,-7.679616928,0.9886331558,0
434,434,1.55965322607e+18,-0.1374073029,-5.416866302,3.253866196,0
435,435,1.55965322613e+18,-3.301817894,-4.628165245,7.136439323,0
436,436,1.55965322619e+18,0.1843490601,-0.3426823616,5.761304855,0
437,437,1.55965322625e+18,2.836076021,3.533562422,0.2296886444,0
438,438,1.55965322631e+18,3.864182234,6.695644379,-0.1413259506,0
439,439,1.55965322637e+18,1.374070168,0.4087165296,-4.172853947,0
440,440,1.55965322643e+18,-0.5659836531,-1.960342407,-7.414544582,0
441,441,1.55965322649e+18,-0.653444171,8.256750107,1.298096657,0
442,442,1.55965322655e+18,-6.683827877,1.106646299,-1.671506405,0
443,443,1.55965322661e+18,-1.481690288,-2.117966652,-8.965909958,0
444,444,1.55965322667e+18,2.16678071,-4.563813686,-18.80309296,0
445,445,1.55965322673e+18,-0.0862030983,-22.62399292,-11.59699154,0
446,446,1.55965322679e+18,-5.143873692,-12.98767948,1.145098686,0
447,447,1.55965322685e+18,-7.264495373,-6.312302113,-3.940526724,0
448,448,1.55965322691e+18,0.9321285486,-4.8709445,12.10574055,0
449,449,1.55965322697e+18,-2.61027956,-3.126506329,10.83174896,0
450,450,1.55965322703e+18,-4.95633173,0.1715369225,6.3847332,0
451,451,1.55965322709e+18,1.065342665,4.081131458,0.2783107758,0
452,452,1.55965322715e+18,1.742889404,4.072103024,-4.914923668,0
453,453,1.55965322721e+18,-0.7352579236,-1.830447316,-7.310220718,0
454,454,1.55965322727e+18,-4.341042519,-2.106827736,-6.140462875,0
455,455,1.55965322733e+18,-1.144556046,-2.610827446,-5.880605698,0
456,456,1.55965322739e+18,1.951406956,-5.286964893,-6.585316181,0
457,457,1.55965322745e+18,0.02617001534,0.4429259896,-28.96208954,0
458,458,1.55965322751e+18,-6.191625595,-15.29125595,8.775903702,0
459,459,1.55965322757e+18,1.104511499,-16.01976204,3.349676609,0
460,460,1.55965322763e+18,-11.46486855,-10.89164925,-9.883248329,0
461,461,1.55965322769e+18,-2.90504384,-6.122440338,5.297979832,0
462,462,1.55965322775e+18,-4.637364388,-4.529905796,8.785060883,0
463,463,1.55965322781e+18,-9.090288162,-0.09005832672,2.041678429,0
464,464,1.55965322787e+18,-2.360785007,3.106320143,-0.205242157,0
465,465,1.55965322793e+18,-2.725319862,2.012368679,-7.508642673,0
466,466,1.55965322799e+18,2.36232233,1.159827948,-5.277328491,0
467,467,1.55965322805e+18,-2.458304882,5.118629456,-4.215613842,0
468,468,1.55965322811e+18,-4.52299118,2.839554548,-3.907824039,0
469,469,1.55965322817e+18,2.186479568,0.7685303688,1.025911331,0
470,470,1.55965322823e+18,0.2404414415,-0.5554151535,-19.50057602,0
471,471,1.55965322829e+18,2.263730049,-4.856286049,-15.82051182,0
472,472,1.55965322835e+18,1.768032908,-10.81156635,0.7528867722,0
473,473,1.55965322841e+18,1.084037423,-11.79036522,-4.485865116,0
474,474,1.55965322847e+18,-6.605268002,-17.64524841,4.401364803,0
475,475,1.55965322853e+18,-3.155891418,-7.969480038,2.639647484,0
476,476,1.55965322859e+18,-3.820376396,-2.460956097,5.333386898,0
477,477,1.55965322865e+18,-3.771796227,1.102135658,1.528546333,0
478,478,1.55965322871e+18,0.07456493378,4.283810139,1.527428627,0
479,479,1.55965322877e+18,-0.3327589035,4.154720783,-3.659649372,0
480,480,1.55965322883e+18,-3.39238143,0.1534988284,-7.337363243,0
481,481,1.55965322889e+18,-3.857590199,7.207170486,-3.997806072,0
482,482,1.55965322895e+18,-4.39241457,2.647697687,-7.335474014,0
483,483,1.55965322901e+18,1.792775393,0.5966691971,-0.6854162216,0
484,484,1.55965322907e+18,3.149683714,-0.2030427456,-8.39753437,0
485,485,1.55965322913e+18,0.645680666,-5.967219353,-14.33129501,0
486,486,1.55965322919e+18,1.456215978,-9.909209251,-1.013586998,0
487,487,1.55965322925e+18,4.479046822,-12.53944778,-8.558695793,0
488,488,1.55965322931e+18,-11.96501446,-15.62187958,0.8743271828,0
489,489,1.55965322937e+18,-5.999784946,-0.5998458862,5.366332531,0
490,490,1.55965322943e+18,-4.452550411,1.342448711,6.232097149,0
491,491,1.55965322949e+18,-5.937235355,5.058265686,5.907548904,0
492,492,1.55965322955e+18,0.1151833534,6.435887814,4.141694546,0
493,493,1.55965322961e+18,3.136245966,4.204224586,-0.6511478424,0
494,494,1.55965322967e+18,-0.4271092415,3.932510376,-1.353144646,0
495,495,1.55965322973e+18,-9.662686348,-2.62126112,-4.364174366,0
496,496,1.55965322979e+18,-5.052927017,-6.512075901,-2.662259579,0
497,497,1.55965322985e+18,-5.514251709,-2.127048969,-2.153312206,0
498,498,1.55965322991e+18,6.459106445,-5.155174255,0.06888389587,0
499,499,1.55965322997e+18,-0.8756287098,-1.788592339,-2.973712444,0
500,500,1.55965323003e+18,3.435734987,4.813331604,-2.153593063,0
501,501,1.55965323009e+18,10.70576096,5.361108303,-15.39835358,0
502,502,1.55965323015e+18,7.952367306,-5.581326485,-3.868692875,0
503,503,1.55965323021e+18,-1.01282239,-15.04535484,-1.915623188,0
504,504,1.55965323027e+18,-16.92492294,-23.52270317,2.11270237,0
505,505,1.55965323033e+18,-2.866896868,-4.084511757,1.808869362,0
506,506,1.55965323039e+18,9.19128418,5.699789047,4.08147049,0
507,507,1.55965323045e+18,0.0474178791,3.287111759,2.332482338,0
508,508,1.55965323051e+18,-7.224367619,-4.617041588,0.149731636,0
509,509,1.55965323057e+18,-7.596316338,-2.462569714,2.929924965,0
510,510,1.55965323063e+18,-3.684046745,-3.841139078,-1.08886528,0
511,511,1.55965323069e+18,7.879499912,4.206480503,6.27781868,0
512,512,1.55965323075e+18,7.945991516,2.085008144,-5.955976009,0
513,513,1.55965323081e+18,-1.890679836,-5.908229351,-13.74738026,0
514,514,1.55965323087e+18,3.405006647,-6.993365288,-23.18736649,0
515,515,1.55965323093e+18,9.531416893,-24.33149529,3.056194305,0
516,516,1.55965323099e+18,-2.728723049,-14.32265091,-9.763443947,0
517,517,1.55965323105e+18,5.834005833,-10.29997444,4.250100613,0
518,518,1.55965323111e+18,6.336763382,-1.279393673,6.890527248,0
519,519,1.55965323117e+18,-6.039358616,1.186148405,7.557340145,0
520,520,1.55965323123e+18,-3.678800583,0.4545452595,9.991260529,0
521,521,1.55965323129e+18,2.577007294,1.000709891,4.797605038,0
522,522,1.55965323135e+18,5.959656715,-0.4286087155,4.328665257,0
523,523,1.55965323141e+18,1.217134476,-1.561311483,-0.8095774651,0
524,524,1.55965323147e+18,3.703299522,-0.8535764217,-4.029680729,0
525,525,1.55965323153e+18,-6.049979687,-9.194911957,-6.957910061,0
526,526,1.55965323159e+18,1.27366066,4.458198547,-13.88036156,0
527,527,1.55965323165e+18,10.43045807,4.784480095,-19.95405579,0
528,528,1.55965323171e+18,-1.074097633,-8.550469398,8.185190201,0
529,529,1.55965323177e+18,5.873454094,-32.10907745,6.595414639,0
530,530,1.55965323183e+18,0.08885955811,-7.931902885,3.692464828,0
531,531,1.55965323189e+18,8.339957237,-2.53993845,3.416047096,0
532,532,1.55965323195e+18,4.604580879,4.953227997,2.510782719,0
533,533,1.55965323201e+18,0.8975481987,3.304905176,0.3745093346,0
534,534,1.55965323207e+18,6.026943207,-1.11388135,-1.719035149,0
535,535,1.55965323213e+18,0.06563138962,-1.024108529,1.991350174,0
536,536,1.55965323219e+18,-15.6476841,-23.45068741,20.47962761,0
537,537,1.55965323225e+18,7.048280716,13.85605621,-12.56820488,0
538,538,1.55965323231e+18,1.039021492,6.215842247,-12.10167217,0
539,539,1.55965323237e+18,-2.373812914,-14.15848732,7.532712936,0
540,540,1.55965323243e+18,3.483010054,-10.58217812,-9.991611481,0
541,541,1.55965323249e+18,2.73404026,-12.93546772,-7.015021801,0
542,542,1.55965323255e+18,-0.7002563477,-9.137012482,4.988305092,0
543,543,1.55965323261e+18,-1.470375061,-6.767425537,5.811508656,0
544,544,1.55965323267e+18,-2.390808105,-2.74832058,2.442573547,0
545,545,1.55965323273e+18,2.900609493,2.688728333,-3.667626858,0
546,546,1.55965323279e+18,5.277289867,0.9633576274,-6.072958946,0
547,547,1.55965323285e+18,3.970179558,-8.494826317,-7.810706615,0
548,548,1.55965323291e+18,-5.730356693,1.966156483,-8.964723587,0
549,549,1.55965323297e+18,4.547316551,5.25655365,-10.50587845,0
550,550,1.55965323303e+18,6.228115559,-5.90598774,-3.358205318,0
551,551,1.55965323309e+18,0.3166136742,-32.02949905,4.28066349,0
552,552,1.55965323315e+18,-2.756334305,-21.29199982,-10.02031898,0
553,553,1.55965323321e+18,-1.897250175,-0.709717989,-3.948170662,0
554,554,1.55965323327e+18,3.384437323,-9.441147804,3.528590202,0
555,555,1.55965323333e+18,-2.194296837,-3.958857298,4.853853703,0
556,556,1.55965323339e+18,0.09630870819,-3.544922352,0.3920464516,0
557,557,1.55965323345e+18,5.5559659,-0.8805294037,-0.5133857727,0
558,558,1.55965323351e+18,2.140157223,1.174971223,-4.830268383,0
559,559,1.55965323357e+18,-1.866813898,-4.80987072,-0.7012662888,0
560,560,1.55965323363e+18,-5.358618259,1.654556513,-6.475438118,0
561,561,1.55965323369e+18,4.007800102,0.4040279388,-17.11626053,0
562,562,1.55965323375e+18,0.4429907799,-5.599775314,-10.1130352,0
563,563,1.55965323381e+18,-0.4135012627,-11.32750893,1.482894897,0
564,564,1.55965323387e+18,14.5393219,-14.98473072,-3.729048729,0
565,565,1.55965323393e+18,-4.784162998,-5.05372715,2.19893837,0
566,566,1.55965323399e+18,0.3655862808,-1.166872978,-2.129390001,0
567,567,1.55965323405e+18,1.120517731,-3.381956577,6.753658772,0
568,568,1.55965323411e+18,2.915271282,-3.625770569,7.934732914,0
569,569,1.55965323417e+18,1.592442989,0.7485039234,5.421669006,0
570,570,1.55965323423e+18,2.094777822,0.8272476196,2.10981369,0
571,571,1.55965323429e+18,-9.803927422,-15.03904724,8.076581001,0
572,572,1.55965323435e+18,2.595137835,-2.790388584,-19.23012543,0
573,573,1.55965323441e+18,15.75276184,3.764254808,-25.25289154,0
574,574,1.55965323447e+18,5.846386909,2.795214415,-9.03621769,0
575,575,1.55965323453e+18,1.381862402,-14.20095825,7.821442604,0
576,576,1.55965323459e+18,13.39875031,-23.08240318,-2.799384594,0
577,577,1.55965323465e+18,1.548259974,-11.22310829,3.515928745,0
578,578,1.55965323471e+18,1.201153278,0.06741952896,0.5200662613,0
579,579,1.55965323477e+18,0.6760516167,-0.9925246239,-1.030738831,0
580,580,1.55965323483e+18,1.835497856,-4.629910469,9.411044121,0
581,581,1.55965323489e+18,3.008080482,-6.031371117,4.209038258,0
582,582,1.55965323495e+18,1.871699333,-1.242137432,-0.05227565765,0
583,583,1.55965323501e+18,4.0524683,0.2614530325,-3.829572678,0
584,584,1.55965323507e+18,3.724454641,-5.695536137,-9.10635376,0
585,585,1.55965323513e+18,3.491989374,-7.132354736,-13.16624069,0
586,586,1.55965323519e+18,5.339818001,3.50759697,-8.825634003,0
587,587,1.55965323525e+18,1.933202147,3.534506798,-10.68988228,0
588,588,1.55965323531e+18,1.619501352,-8.702605247,2.722859383,0
589,589,1.55965323537e+18,7.523431778,-38.16870117,-0.8880791664,0
590,590,1.55965323543e+18,-1.737514019,-8.947372437,-0.484910965,0
591,591,1.55965323549e+18,2.614237309,-1.019267082,0.5237421989,0
592,592,1.55965323555e+18,5.134830952,-4.03220892,1.875116825,0
593,593,1.55965323561e+18,0.3750510216,-3.384926796,6.768398762,0
594,594,1.55965323567e+18,1.442399025,0.8835403919,5.355035305,0
595,595,1.55965323573e+18,2.815704823,2.189860344,-0.7687139511,0
596,596,1.55965323579e+18,3.660064697,1.081003666,-6.72837925,0
597,597,1.55965323585e+18,-1.616805077,0.6148776412,-16.47502518,0
598,598,1.55965323591e+18,7.298346519,12.84748077,-12.1259346,0
599,599,1.55965323597e+18,6.530084133,5.204414368,-14.04791546,0
600,600,1.55965323603e+18,1.589515924,-22.3910923,11.62169075,0
601,601,1.55965323609e+18,1.120301604,-20.01543236,-5.0765872,0
602,602,1.55965323615e+18,-1.742473125,-10.1916275,0.8946499825,0
603,603,1.55965323621e+18,4.85904026,0.7575368881,-0.2909994125,0
604,604,1.55965323627e+18,4.7553792,-0.07564353943,-1.91670084,0
605,605,1.55965323633e+18,0.8199658394,-6.418843746,-2.784016132,0
606,606,1.55965323639e+18,1.180306435,-2.64303875,4.683084488,0
607,607,1.55965323645e+18,-1.489842653,-1.780694962,6.324226379,0
608,608,1.55965323651e+18,-2.163784027,2.663104773,-4.184598446,0
609,609,1.55965323657e+18,1.918143988,2.705853701,-14.52162361,0
610,610,1.55965323663e+18,-2.592430592,0.8747346401,-15.58833694,0
611,611,1.55965323669e+18,7.553137779,7.342536926,-12.09181786,0
612,612,1.55965323675e+18,1.687705994,-2.135075092,-6.911820412,0
613,613,1.55965323681e+18,-3.807594776,-28.16228867,0.7172842026,0
614,614,1.55965323687e+18,4.536929131,-23.00293922,-2.618106365,0
615,615,1.55965323693e+18,-0.7369635105,-7.192917824,-1.407888889,0
616,616,1.55965323699e+18,0.9861550331,0.2814006805,2.506979465,0
617,617,1.55965323705e+18,5.845603466,-1.55351305,1.830649376,0
618,618,1.55965323711e+18,-0.02176141739,-3.481443405,2.771220207,0
619,619,1.55965323717e+18,-1.467403889,1.537578464,3.916484833,0
620,620,1.55965323723e+18,-0.4569756985,1.130482316,-0.9267282486,0
621,621,1.55965323729e+18,-1.490006924,-2.161441088,-5.369472027,0
622,622,1.55965323735e+18,0.7280404568,-4.179560661,-14.02714825,0
623,623,1.55965323741e+18,2.165641308,2.8174963,-18.71249771,0
624,624,1.55965323747e+18,5.332018852,4.954600334,-15.84386444,0
625,625,1.55965323753e+18,-3.122708559,-10.57307243,3.690256119,0
626,626,1.55965323759e+18,-1.226724625,-23.38867378,-6.494889259,0
627,627,1.55965323765e+18,-4.632294178,-14.97991276,3.011672974,0
628,628,1.55965323771e+18,-1.425968647,0.03487491608,6.10556078,0
629,629,1.55965323777e+18,4.899534225,1.784231186,8.226209641,0
630,630,1.55965323783e+18,0.5215806961,4.427449703,7.071960449,0
631,631,1.55965323789e+18,-2.109846592,-3.826684475,4.18523407,0
632,632,1.55965323795e+18,-2.13603735,-9.272564888,-1.438222885,0
633,633,1.55965323801e+18,-6.341553211,-7.837836742,-2.858538628,0
634,634,1.55965323807e+18,-2.281045198,-3.462988377,-12.04370117,0
635,635,1.55965323813e+18,1.367846727,2.451528072,-12.22290993,0
636,636,1.55965323819e+18,5.745667458,3.759047985,-9.788515091,0
637,637,1.55965323825e+18,3.803197384,3.387127399,-6.975556374,0
638,638,1.55965323831e+18,1.007720947,-2.295049906,-4.029619694,0
639,639,1.55965323837e+18,-1.582797766,-10.07174206,-2.009361744,0
640,640,1.55965323843e+18,3.757858992,-21.17529297,-2.361866951,0
641,641,1.55965323849e+18,-6.077973366,-8.157369614,2.933318138,0
642,642,1.55965323855e+18,-0.1055233479,1.993286133,5.33002758,0
643,643,1.55965323861e+18,0.8413109779,3.845793724,1.452077866,0
644,644,1.55965323867e+18,-4.439525604,-11.06182098,8.920370102,0
645,645,1.55965323873e+18,-4.000334263,-6.294409752,3.686597347,0
646,646,1.55965323879e+18,-1.480822086,1.568616509,-4.114357471,0
647,647,1.55965323885e+18,2.271871805,0.491541028,-6.004782677,0
648,648,1.55965323891e+18,3.345864296,-6.299382687,-9.772045135,0
649,649,1.55965323897e+18,4.663646221,-7.968849182,-14.14339638,0
650,650,1.55965323903e+18,0.8213441372,8.837935448,-7.10916853,0
651,651,1.55965323909e+18,6.500284672,6.31278801,-7.565220356,0
652,652,1.55965323915e+18,2.323646784,-2.895576477,-7.864308357,0
653,653,1.55965323921e+18,-5.430535316,-16.22700119,7.366508961,0
654,654,1.55965323927e+18,-5.158150673,-22.40851593,0.6498699188,0
655,655,1.55965323933e+18,-6.587547302,2.769352913,-2.831670284,0
656,656,1.55965323939e+18,0.1926488876,-9.556854248,1.303331852,0
657,657,1.55965323945e+18,-3.652759075,-2.136252403,4.473134995,0
658,658,1.55965323951e+18,0.5936441422,2.535256863,-2.320824623,0
659,659,1.55965323957e+18,3.954154015,2.635921955,-1.525853634,0
660,660,1.55965323963e+18,0.5479679108,1.361997485,-6.847877502,0
661,661,1.55965323969e+18,2.597962856,7.955735683,-2.602882385,0
662,662,1.55965323974e+18,4.578746796,2.857893705,-4.866237164,0
663,663,1.5596532398e+18,1.09350729,-1.393241644,-3.736885548,0
664,664,1.55965323986e+18,4.610784054,2.186830759,-1.410057545,0
665,665,1.55965323992e+18,1.520085812,-0.7607401609,-11.42848396,0
666,666,1.55965323998e+18,-0.3206297159,-7.506323338,-3.792155266,0
667,667,1.55965324004e+18,-0.5291815996,-9.166470528,-17.00800896,0
668,668,1.5596532401e+18,-12.14972782,-7.760721207,-1.194216013,0
669,669,1.55965324016e+18,2.465708256,-10.97882843,4.032143116,0
670,670,1.55965324022e+18,4.446848392,-7.318547249,15.11880398,0
671,671,1.55965324028e+18,-7.350982666,2.922991037,6.125954628,0
672,672,1.55965324034e+18,1.221674681,5.634635925,2.443002701,0
673,673,1.5596532404e+18,4.088960648,6.639360428,-0.3974704742,0
674,674,1.55965324046e+18,1.77144444,3.794438601,-5.932955742,0
675,675,1.55965324052e+18,-2.267988682,-2.760707617,-4.701713085,0
676,676,1.55965324058e+18,-2.313969135,-11.52259254,-12.96014977,0
677,677,1.55965324064e+18,2.789945126,-10.54867554,-10.01780319,0
678,678,1.5596532407e+18,10.48337555,1.169825315,-3.498416901,0
679,679,1.55965324076e+18,0.9808377028,-6.617312431,0.4125680923,0
680,680,1.55965324082e+18,-6.808942795,-17.64673996,1.87957859,0
681,681,1.55965324088e+18,5.48008585,-11.95603657,4.196003437,0
682,682,1.55965324094e+18,3.008281708,-8.890868187,7.086384773,0
683,683,1.559653241e+18,-6.273281097,0.3955488205,10.42980003,0
684,684,1.55965324106e+18,-10.27993107,7.191950321,9.60180378,0
685,685,1.55965324112e+18,-0.6816837788,7.866738796,6.638445854,0
686,686,1.55965324118e+18,1.608611584,9.753679276,0.9723377228,0
687,687,1.55965324124e+18,3.0175488,0.6501424313,-2.803845882,0
688,688,1.5596532413e+18,-7.527117252,1.088986158,-5.701370716,0
689,689,1.55965324136e+18,-0.9657664299,2.326860905,-0.9424257278,0
690,690,1.55965324142e+18,0.575165987,2.18076086,-10.9274416,0
691,691,1.55965324148e+18,1.707266569,-7.1467309,-19.96693039,0
692,692,1.55965324154e+18,4.69870472,-3.333479881,-12.44837379,0
693,693,1.5596532416e+18,8.090415955,-2.786631346,-0.9724411964,0
694,694,1.55965324166e+18,5.059900284,-23.16482162,3.919687748,0
695,695,1.55965324172e+18,-4.614006519,-18.70090675,13.89008713,0
696,696,1.55965324178e+18,-2.46911478,-5.507615566,12.02112007,0
697,697,1.55965324184e+18,2.344821453,2.062614918,11.69072342,0
698,698,1.5596532419e+18,5.660640717,5.903220654,7.969358444,0
699,699,1.55965324196e+18,6.085335732,4.286559105,0.2834172249,0
700,700,1.55965324202e+18,8.436092377,-0.1130681038,-2.194504261,0
701,701,1.55965324208e+18,-0.6517801285,0.4506171942,2.931050301,0
702,702,1.55965324214e+18,-3.064393997,1.6401968,6.578016281,0
703,703,1.5596532422e+18,-5.580838203,0.08564904332,-2.734426498,0
704,704,1.55965324226e+18,-1.572624207,-3.154541969,-8.001252174,0
705,705,1.55965324232e+18,7.966334343,0.6327292919,-15.16290188,0
706,706,1.55965324238e+18,6.585638046,3.298474312,-14.36965752,0
707,707,1.55965324244e+18,0.8067526817,-11.70108986,-5.693828583,0
708,708,1.5596532425e+18,-10.72056866,-25.28303909,12.55737495,0
709,709,1.55965324256e+18,-1.817313194,-7.285804749,6.281360626,0
710,710,1.55965324262e+18,1.200610638,5.134662628,5.654876709,0
711,711,1.55965324268e+18,1.182592869,6.167219639,0.822892189,0
712,712,1.55965324274e+18,2.528064251,4.136999607,-1.821187735,0
713,713,1.5596532428e+18,7.394796848,-0.6516804695,-4.597151279,0
714,714,1.55965324286e+18,-2.695485115,2.660064697,1.211299896,0
715,715,1.55965324292e+18,-0.7564015388,6.637759209,19.82643318,0
716,716,1.55965324298e+18,3.000858784,11.24615479,-2.845376492,0
717,717,1.55965324304e+18,2.771722794,5.187781334,1.448413849,0
718,718,1.5596532431e+18,-3.226177931,-5.361984253,-6.644950867,0
719,719,1.55965324316e+18,3.703076124,-10.9094696,-4.061067104,0
720,720,1.55965324322e+18,-5.798314571,-18.75637436,-1.873871803,0
721,721,1.55965324328e+18,-2.740205288,-13.99563408,1.462268829,0
722,722,1.55965324334e+18,1.315888166,-0.9822134972,-2.928504944,0
723,723,1.5596532434e+18,3.608556747,3.257230759,-4.108623981,0
724,724,1.55965324346e+18,8.65499115,6.738836288,-1.8333745,0
725,725,1.55965324352e+18,8.660175323,2.510781765,-3.678955078,0
726,726,1.55965324358e+18,-0.4437230825,4.001972198,-9.18459034,0
727,727,1.55965324364e+18,-22.70715141,-18.85224152,-4.221152306,0
728,728,1.5596532437e+18,0.4997763634,16.57983971,-14.92336082,0
729,729,1.55965324376e+18,2.286262989,-12.41274452,0.01998996735,0
730,730,1.55965324382e+18,-2.491553783,-34.13431931,5.66557169,0
731,731,1.55965324388e+18,5.344652653,-8.121679306,-1.271354198,0
732,732,1.55965324394e+18,6.178376198,-10.72624111,-4.01197958,0
733,733,1.559653244e+18,-0.3314151764,-6.103732586,-3.929649115,0
734,734,1.55965324406e+18,-0.9438290596,-1.540329456,-1.96127224,0
735,735,1.55965324412e+18,0.1246376038,5.148905754,-5.76019907,0
736,736,1.55965324418e+18,3.237196922,6.059821606,-4.48820591,0
737,737,1.55965324424e+18,4.950902462,8.307486534,-4.147270203,0
738,738,1.5596532443e+18,-3.780979872,-31.14038086,37.20656586,0
739,739,1.55965324436e+18,6.687810421,20.15300179,-10.7609024,0
740,740,1.55965324442e+18,4.324837685,-30.76524353,6.541911125,0
741,741,1.55965324448e+18,-13.81550789,-26.6974678,-7.836233139,0
742,742,1.55965324454e+18,8.251458168,-7.941322803,-4.976636887,0
743,743,1.5596532446e+18,1.972284317,0.6720275879,-4.395379543,0
744,744,1.55965324466e+18,0.6579887867,2.779793024,-1.719324112,0
745,745,1.55965324472e+18,-0.175014019,2.172934294,-1.102563858,0
746,746,1.55965324478e+18,-0.2614667416,0.3060655594,-1.942943573,0
747,747,1.55965324484e+18,1.122405052,1.665578604,-1.685901165,0
748,748,1.5596532449e+18,5.394105911,4.933160782,-1.020957947,0
749,749,1.55965324496e+18,1.185805202,-1.282141924,-4.662358284,0
750,750,1.55965324502e+18,3.544806957,6.199357986,-5.022623539,0
751,751,1.55965324508e+18,2.745186567,-10.48452759,-18.93568039,0
752,752,1.55965324514e+18,2.114011765,-21.59595871,-2.284718513,0
753,753,1.5596532452e+18,-0.8059363365,-16.24258041,-3.682358503,0
754,754,1.55965324526e+18,-2.156867027,-9.230295181,0.5992894173,0
755,755,1.55965324532e+18,-1.01980257,-3.484781742,2.582651615,0
756,756,1.55965324538e+18,-1.418973446,1.394652605,1.476708412,0
757,757,1.55965324544e+18,3.415923834,3.886624813,-2.48272562,0
758,758,1.5596532455e+18,6.221500874,4.165584087,-4.368663311,0
759,759,1.55965324556e+18,3.748166561,-1.599325776,-5.733128548,0
760,760,1.55965324562e+18,3.636456013,-14.39975071,8.69897747,0
761,761,1.55965324568e+18,0.4727588892,3.113720894,-13.83923721,0
762,762,1.55965324574e+18,0.4475345016,-9.165203094,-1.478175163,0
763,763,1.5596532458e+18,1.255724192,-13.22449589,-7.911767483,0
764,764,1.55965324586e+18,-2.23360014,-1.100706577,-3.049791098,0
765,765,1.55965324592e+18,-1.346418381,-10.36063766,1.221992016,0
766,766,1.55965324598e+18,2.447940588,-8.914978027,10.0650816,0
767,767,1.55965324604e+18,-5.584486485,0.02133512497,2.699952602,0
768,768,1.5596532461e+18,0.8092865944,0.0544667244,-0.5854754448,0
769,769,1.55965324616e+18,3.425383806,2.690353155,-5.375638962,0
770,770,1.55965324622e+18,3.0251894,-3.328408718,-12.39524269,0
771,771,1.55965324628e+18,2.024371624,-20.71666908,4.870629311,0
772,772,1.55965324634e+18,6.87896347,-7.074020386,-10.93544674,0
773,773,1.5596532464e+18,10.57364941,19.85299492,-10.62630367,0
774,774,1.55965324646e+18,12.689991,-16.72050476,17.75289154,0
775,775,1.55965324652e+18,1.552694321,-26.32721138,0.007883071899,0
776,776,1.55965324658e+18,4.529140472,-14.70777416,-9.656398773,0
777,777,1.55965324664e+18,0.9403705597,-6.036911964,-5.099474907,0
778,778,1.5596532467e+18,0.8673596382,2.652885199,8.83712101,0
779,779,1.55965324676e+18,-3.924356461,4.289888859,5.688045979,0
780,780,1.55965324682e+18,-3.630198002,8.156435013,-3.694594383,0
781,781,1.55965324688e+18,2.09657526,2.522740364,-13.18790627,0
782,782,1.55965324694e+18,-5.354683876,-16.77517319,6.073633194,0
783,783,1.55965324699e+18,2.750468254,17.75068474,-7.813948631,0
784,784,1.55965324705e+18,5.513126373,-31.65035248,5.350231171,0
785,785,1.55965324711e+18,-2.744185448,-19.8114357,4.750355721,0
786,786,1.55965324717e+18,7.90007925,-1.009109497,5.574547768,0
787,787,1.55965324723e+18,5.273506165,6.317477226,4.939619064,0
788,788,1.55965324729e+18,-0.03377246857,0.5892884731,3.134464502,0
789,789,1.55965324735e+18,-3.123016357,-5.56167984,2.906024456,0
790,790,1.55965324741e+18,2.303441525,-3.114028931,1.612799168,0
791,791,1.55965324747e+18,4.422110558,0.6810514927,1.518559933,0
792,792,1.55965324753e+18,3.481816769,0.2262565345,-4.178869247,0
793,793,1.55965324759e+18,0.6405057907,-1.48391211,-22.90785789,0
794,794,1.55965324765e+18,8.649843216,12.09946251,-15.88878727,0
795,795,1.55965324771e+18,12.54386139,-10.1312027,5.32506609,0
796,796,1.55965324777e+18,9.875849724,-19.14867401,0.7692508698,0
797,797,1.55965324783e+18,-4.749182224,-16.26659203,1.748712301,0
798,798,1.55965324789e+18,1.851269245,-5.767541409,6.935776234,0
799,799,1.55965324795e+18,2.375016689,-0.3610186577,5.750133514,0
800,800,1.55965324801e+18,0.5433044434,1.677320719,-0.2366480827,0
801,801,1.55965324807e+18,5.59433651,5.32531929,1.528794765,0
802,802,1.55965324813e+18,5.445671082,2.660709858,-2.34654665,0
803,803,1.55965324819e+18,-0.5398616791,-0.4582964778,-3.431612492,0
804,804,1.55965324825e+18,-7.031772614,-12.55379009,-11.23828316,0
805,805,1.55965324831e+18,-10.62280083,-12.84236145,-4.314505577,0
806,806,1.55965324837e+18,0.1706523895,5.357643127,-6.342171192,0
807,807,1.55965324843e+18,9.096084595,-0.6158802509,-1.991217613,0
808,808,1.55965324849e+18,-0.5579538345,-10.27732086,-2.371535778,0
809,809,1.55965324855e+18,9.906993866,-28.2727375,-1.616174698,0
810,810,1.55965324861e+18,-3.870961666,-10.54722977,1.608438969,0
811,811,1.55965324867e+18,2.231268644,-6.705735207,2.71659565,0
812,812,1.55965324873e+18,-1.128696918,-0.1823801994,0.2643342018,0
813,813,1.55965324879e+18,-0.5835790634,2.775707722,-1.601547241,0
814,814,1.55965324885e+18,-1.019312859,4.039333344,-1.144222736,0
815,815,1.55965324891e+18,0.1436858177,1.2499336,-2.662212372,0
816,816,1.55965324897e+18,-4.349699497,2.14301157,2.980268478,0
817,817,1.55965324903e+18,-3.364053726,-0.8782241344,-2.602908611,0
818,818,1.55965324909e+18,0.5458235741,-12.56768513,-10.72486973,0
819,819,1.55965324915e+18,0.8422904015,-5.234144688,-12.92314529,0
820,820,1.55965324921e+18,10.38127041,-0.7273178101,-18.21545982,0
821,821,1.55965324927e+18,16.76386833,-4.573948383,6.024601936,0
822,822,1.55965324933e+18,10.48340321,-17.83946609,-5.80399847,0
823,823,1.55965324939e+18,-16.87623787,-16.30107689,0.1683683395,0
824,824,1.55965324945e+18,4.191773415,-8.20071125,3.311828613,0
825,825,1.55965324951e+18,1.826612949,0.6217870712,5.800581932,0
826,826,1.55965324957e+18,-2.554412842,6.226214886,4.573903084,0
827,827,1.55965324963e+18,-3.473811626,4.914564133,0.175658226,0
828,828,1.55965324969e+18,2.053070068,0.3699338436,-0.9923224449,0
829,829,1.55965324975e+18,2.903264046,-4.573913097,-2.513232708,0
830,830,1.55965324981e+18,-0.2004208565,0.6692621708,0.550236702,0
831,831,1.55965324987e+18,5.395692825,-1.630848646,-0.3944377899,0
832,832,1.55965324993e+18,7.765999317,0.4598922729,-4.783380985,0
833,833,1.55965324999e+18,7.277289391,5.025914192,-17.87319565,0
834,834,1.55965325005e+18,4.217726707,-2.438475132,-9.303862572,0
835,835,1.55965325011e+18,-3.847744226,-15.78783703,1.592190742,0
836,836,1.55965325017e+18,-10.73460197,-28.34200859,-2.795327902,0
837,837,1.55965325023e+18,-3.620802402,-4.071045399,3.655153751,0
838,838,1.55965325029e+18,-0.03430604935,0.7818210125,3.863546371,0
839,839,1.55965325035e+18,3.331393242,1.71000433,1.360142231,0
840,840,1.55965325041e+18,1.993750334,2.551621437,0.322075367,0
841,841,1.55965325047e+18,0.9137554169,-0.4300658703,0.8460607529,0
842,842,1.55965325053e+18,-0.8700201511,-2.759224892,1.823509216,0
843,843,1.55965325059e+18,-4.779726028,0.4806516171,1.934212685,0
844,844,1.55965325065e+18,-1.365422964,0.1336216927,-0.695555687,0
845,845,1.55965325071e+18,4.384216309,6.480950356,-9.689436913,0
846,846,1.55965325077e+18,9.925094604,3.344634056,-17.66441727,0
847,847,1.55965325083e+18,3.998315811,-0.9272697568,-12.81883049,0
848,848,1.55965325089e+18,2.066275358,-11.94779682,-0.3842897415,0
849,849,1.55965325095e+18,-20.00741196,-19.5275135,-1.890645504,0
850,850,1.55965325101e+18,-3.381178617,-12.98381901,1.824991226,0
851,851,1.55965325107e+18,-3.635077477,-1.020524025,-0.2828669548,0
852,852,1.55965325113e+18,-1.624028206,3.057561874,-1.756585598,0
853,853,1.55965325119e+18,1.36826086,6.430202484,-4.908157349,0
854,854,1.55965325125e+18,2.672271252,1.688784242,-4.252342224,0
855,855,1.55965325131e+18,2.474642038,-5.702421665,-5.488068581,0
856,856,1.55965325137e+18,-2.809447765,-3.610508919,-2.862679005,0
857,857,1.55965325143e+18,1.917064548,18.13582611,-0.9348373413,0
858,858,1.55965325149e+18,-0.8668838739,4.28851223,0.08620548248,0
859,859,1.55965325155e+18,-5.654136181,-24.87149811,-6.490311623,0
860,860,1.55965325161e+18,-4.29399538,-13.20713425,-15.70266438,0
861,861,1.55965325167e+18,3.097229958,-3.9339118,-5.085225105,0
862,862,1.55965325173e+18,4.93047905,-8.043100357,2.990916252,0
863,863,1.55965325179e+18,-1.81721139,-7.590240002,-1.090389729,0
864,864,1.55965325185e+18,0.4556138515,1.447804689,2.49638176,0
865,865,1.55965325191e+18,-2.846731901,2.927357435,-4.727293015,0
866,866,1.55965325197e+18,-1.560404778,2.938052177,-4.532942772,0
867,867,1.55965325203e+18,-2.664944172,0.3387959599,-8.187414169,0
868,868,1.55965325209e+18,1.064094543,-1.645383358,-8.422865868,0
869,869,1.55965325215e+18,2.370330811,-8.8845644,-14.67937279,0
870,870,1.55965325221e+18,5.355891705,-2.264738798,2.827079773,0
871,871,1.55965325227e+18,-0.4545388222,-27.49263763,-10.99584198,0
872,872,1.55965325233e+18,-5.999741077,-11.55096626,2.178851604,0
873,873,1.55965325239e+18,3.226736546,-2.841831684,1.942415237,0
874,874,1.55965325245e+18,0.6868882179,1.38885498,0.05717134476,0
875,875,1.55965325251e+18,-1.834966183,-1.857711315,0.2342019081,0
876,876,1.55965325257e+18,-3.532622337,-2.051402092,4.770584106,0
877,877,1.55965325263e+18,-1.124776363,-3.198231697,2.009043694,0
878,878,1.55965325269e+18,0.919367075,0.1299908161,-4.023859501,0
879,879,1.55965325275e+18,3.870668888,1.577693462,-4.608497143,0
880,880,1.55965325281e+18,-6.962835789,8.461237907,-3.172675133,0
881,881,1.55965325287e+18,8.15798378,9.198243141,-23.49202728,0
882,882,1.55965325293e+18,2.616535902,-3.913489819,1.901708603,0
883,883,1.55965325299e+18,-9.415474892,-21.82938385,-5.850814819,0
884,884,1.55965325305e+18,-13.51451874,-15.03535271,1.851844788,0
885,885,1.55965325311e+18,-0.5122545958,-4.355565548,-0.09132194519,0
886,886,1.55965325317e+18,4.180958271,2.847585917,-1.506145,0
887,887,1.55965325323e+18,-0.2079184055,2.799786568,0.9668226242,0
888,888,1.55965325329e+18,-2.642099619,1.925622821,1.365224838,0
889,889,1.55965325335e+18,-3.006899118,-5.968745232,4.039642334,0
890,890,1.55965325341e+18,-3.70703721,-4.632302761,-2.530589581,0
891,891,1.55965325347e+18,-2.942915916,-4.95337677,-4.190067291,0
892,892,1.55965325353e+18,2.082704067,-0.8029538393,-7.068062782,0
893,893,1.55965325359e+18,6.433942318,-2.258182049,-12.63521194,0
894,894,1.55965325365e+18,5.200743198,4.529078484,-16.21198845,0
895,895,1.55965325371e+18,5.112589836,-4.665305614,7.416096687,0
896,896,1.55965325377e+18,-15.2046957,-34.72018814,-19.91532326,0
897,897,1.55965325383e+18,-10.29776096,-7.655376434,0.3134007454,0
898,898,1.55965325389e+18,8.017016411,-8.216638565,12.33070183,0
899,899,1.55965325395e+18,-0.4954061508,-0.9468946457,6.819298267,0
900,900,1.55965325401e+18,-0.5218081474,1.049050808,6.481511593,0
901,901,1.55965325407e+18,2.055784225,7.396909237,4.401322365,0
902,902,1.55965325413e+18,-1.679699898,1.17030859,1.13663435,0
903,903,1.55965325419e+18,-6.469807148,-3.496955395,-5.114407539,0
904,904,1.55965325425e+18,-1.653269291,-5.353362083,-2.811789989,0
905,905,1.55965325431e+18,1.788375378,-3.629814625,-7.623416901,0
906,906,1.55965325437e+18,3.716139317,-8.28689003,-10.88861275,0
907,907,1.55965325443e+18,6.90986824,0.8759175539,-10.36450386,0
908,908,1.55965325449e+18,5.877943516,-1.777310133,-14.57946396,0
909,909,1.55965325455e+18,-1.739720345,-28.14966965,-0.188855648,0
910,910,1.55965325461e+18,3.465696812,-6.782300472,9.73868084,0
911,911,1.55965325467e+18,4.405335903,-6.346979141,14.74136353,0
912,912,1.55965325473e+18,-6.030813694,2.154387951,9.678463936,0
913,913,1.55965325479e+18,-1.669899464,5.851654053,9.486461639,0
914,914,1.55965325485e+18,-2.747735977,2.470832825,7.17402029,0
915,915,1.55965325491e+18,-3.80828476,2.123035908,-4.79400444,0
916,916,1.55965325497e+18,-0.2940120697,-0.522734642,-4.169615269,0
917,917,1.55965325503e+18,4.302063942,-1.993637562,-7.661737442,0
918,918,1.55965325509e+18,0.7604093552,-4.825024605,-10.61308575,0
919,919,1.55965325515e+18,13.54835033,7.941143513,-6.669695377,0
920,920,1.55965325521e+18,6.143067837,2.816282511,-7.979397297,0
921,921,1.55965325527e+18,-1.73330307,-6.769518852,6.701066494,0
922,922,1.55965325533e+18,5.881619453,-39.00384903,6.359243393,0
923,923,1.55965325539e+18,-2.610590458,-15.2445755,-0.8129045963,0
924,924,1.55965325545e+18,1.511227131,-7.522480965,3.618582964,0
925,925,1.55965325551e+18,0.9329257011,-1.265794754,4.179832458,0
926,926,1.55965325557e+18,0.6667876244,1.544546604,4.366843224,0
927,927,1.55965325563e+18,-0.9875359535,0.6179771423,-0.03802776337,0
928,928,1.55965325569e+18,-2.416423321,-3.995838404,-6.656611443,0
929,929,1.55965325575e+18,0.6056728363,-2.213726044,-0.8706817627,0
930,930,1.55965325581e+18,5.93493557,-1.804053307,1.533533096,0
931,931,1.55965325587e+18,-2.164802074,-0.6535005569,-3.283298969,0
932,932,1.55965325593e+18,2.293787479,-0.3991963863,-4.59135294,0
933,933,1.55965325599e+18,3.222903252,-0.7652022839,-5.57975769,0
934,934,1.55965325605e+18,8.375152588,-3.394085646,-11.0324955,0
935,935,1.55965325611e+18,6.217323303,-5.297514915,-7.675871849,0
936,936,1.55965325617e+18,-3.475589514,-3.762410402,-8.032925606,0
937,937,1.55965325623e+18,-1.508820057,-22.3144722,-0.03114032745,0
938,938,1.55965325629e+18,-12.13360882,-13.43420982,7.045526981,0
939,939,1.55965325635e+18,0.2790517807,-2.068367481,5.596489906,0
940,940,1.55965325641e+18,2.023267746,0.1255865097,3.806736469,0
941,941,1.55965325647e+18,-0.7705931664,-0.0139799118,4.848640919,0
942,942,1.55965325653e+18,-0.09848117828,-5.200064659,1.532903671,0
943,943,1.55965325659e+18,-3.763180256,-9.608990669,-1.540331841,0
944,944,1.55965325665e+18,-2.292034626,-5.151504517,-6.540347099,0
945,945,1.55965325671e+18,1.905629635,0.760992527,-5.977150917,0
946,946,1.55965325677e+18,7.134965897,1.930100083,-2.966211319,0
947,947,1.55965325683e+18,1.63954401,2.167545795,-4.87928009,0
948,948,1.55965325689e+18,7.670658112,1.608617902,-18.39035797,0
949,949,1.55965325695e+18,7.772078514,1.034915328,-8.848434448,0
950,950,1.55965325701e+18,-3.601821899,-13.72870255,9.439143181,0
951,951,1.55965325707e+18,-9.092689514,-32.36821747,-1.197451591,0
952,952,1.55965325713e+18,-10.71938801,-2.621034622,-0.9752621651,0
953,953,1.55965325719e+18,2.378668308,-0.9969954491,-2.905514717,0
954,954,1.55965325725e+18,3.124067545,-2.61989212,-4.026860237,0
955,955,1.55965325731e+18,-0.8633394241,-3.806715012,-3.214011908,0
956,956,1.55965325737e+18,-5.767174721,-0.4454488754,0.2534227371,0
957,957,1.55965325743e+18,2.117874861,3.844265223,0.3612003326,0
958,958,1.55965325749e+18,6.347052574,0.429838419,-2.725278378,0
959,959,1.55965325755e+18,3.113591194,8.829058647,-10.0885067,0
960,960,1.55965325761e+18,4.310398102,10.23276997,-13.10467529,0
961,961,1.55965325767e+18,0.1939295828,0.8699421883,-0.767159462,0
962,962,1.55965325773e+18,-2.682203531,-28.96385002,7.009549141,0
963,963,1.55965325779e+18,-4.454054832,-20.47875595,-7.686341763,0
964,964,1.55965325785e+18,-1.349606037,-5.700686455,-2.650511742,0
965,965,1.55965325791e+18,-3.997919798,-1.670384407,2.11115694,0
966,966,1.55965325797e+18,-0.734885931,0.4961180687,0.3033928871,0
967,967,1.55965325803e+18,-2.602505207,1.359665394,-1.982851505,0
968,968,1.55965325809e+18,1.458570957,2.265381098,-1.092547894,0
969,969,1.55965325815e+18,-0.4270993471,-0.2708910108,1.731668472,0
970,970,1.55965325821e+18,-0.44118613,-4.088619709,-8.43345356,0
971,971,1.55965325827e+18,-1.703793287,-17.82842445,9.651391983,0
972,972,1.55965325833e+18,6.116445541,2.725648165,-17.45033646,0
973,973,1.55965325839e+18,2.163581133,-1.166999817,-9.351044655,0
974,974,1.55965325845e+18,-0.8086686134,-7.222425461,4.275056839,0
975,975,1.55965325851e+18,-2.232279062,-11.59697151,-3.505572081,0
976,976,1.55965325857e+18,-11.41220379,-8.108640671,2.558423042,0
977,977,1.55965325863e+18,-5.290639877,-5.87428093,6.946678162,0
978,978,1.55965325869e+18,-4.099933624,0.7404527664,1.424102306,0
979,979,1.55965325875e+18,0.006482601166,1.981937408,-1.66776228,0
980,980,1.55965325881e+18,2.367698669,2.008680344,-3.773167133,0
981,981,1.55965325887e+18,5.450998306,3.060907364,-4.930999756,0
982,982,1.55965325893e+18,6.846402168,1.761489868,-2.459373474,0
983,983,1.55965325899e+18,-1.260406137,13.00955582,-10.84571457,0
984,984,1.55965325905e+18,-1.32913208,3.613410234,-9.853440285,0
985,985,1.55965325911e+18,-4.030819416,-11.22701263,6.346835613,0
986,986,1.55965325917e+18,2.389740705,-10.00218201,-5.553534031,0
987,987,1.55965325923e+18,-4.027098656,-3.53386879,-3.623141766,0
988,988,1.55965325929e+18,-1.617355824,3.783859015,-1.680808544,0
989,989,1.55965325935e+18,5.293759823,0.3120737076,5.923205376,0
990,990,1.55965325941e+18,-3.239020586,-2.121990204,5.981347084,0
991,991,1.55965325947e+18,-1.599914789,-6.507439613,-0.1577749252,0
992,992,1.55965325953e+18,-3.932467699,1.553426266,-0.3518810272,0
993,993,1.55965325959e+18,6.147914886,9.148756027,-2.11892271,0
994,994,1.55965325965e+18,9.524536133,4.433348656,-4.134877205,0
995,995,1.55965325971e+18,-4.442142963,-1.041032791,-11.35666466,0
996,996,1.55965325977e+18,-2.609059334,5.936803818,-14.62908936,0
997,997,1.55965325983e+18,-1.511937261,-11.47082138,4.966348648,0
998,998,1.55965325989e+18,-9.395922661,-29.48156166,7.337041855,0
999,999,1.55965325995e+18,0.1337249279,-5.426186085,-0.9572887421,0
1000,1000,1.55965326001e+18,2.759786606,2.968166113,1.16686821,0
1001,1001,1.55965326007e+18,3.527826309,4.931625843,2.838991642,0
1002,1002,1.55965326013e+18,0.2578897476,6.090810299,2.617179394,0
1003,1003,1.55965326019e+18,-3.152922153,2.23814702,-0.6587629318,0
1004,1004,1.55965326025e+18,-4.074883938,-0.1941351891,-4.413228035,0
1005,1005,1.55965326031e+18,-7.577410221,-1.070775986,-6.821091175,0
1006,1006,1.55965326037e+18,6.079171658,7.321237087,-5.872365952,0
1007,1007,1.55965326043e+18,3.228062153,13.59058762,-7.581048012,0
1008,1008,1.55965326049e+18,6.584663868,-17.92829132,1.374843597,0
1009,1009,1.55965326055e+18,-0.3985595703,-17.40915108,-6.619764328,0
1010,1010,1.55965326061e+18,7.47033453,-14.50783348,-2.701298952,0
1011,1011,1.55965326067e+18,2.63633585,-5.745662689,-0.07177877426,0
1012,1012,1.55965326073e+18,0.5255813599,0.6463375092,0.8545923233,0
1013,1013,1.55965326079e+18,0.1924548149,7.109396935,-1.927713871,0
1014,1014,1.55965326085e+18,3.262269497,11.48385429,-0.2388062477,0
1015,1015,1.55965326091e+18,6.596084595,10.18563271,0.5480256081,0
1016,1016,1.55965326097e+18,-0.1871552467,5.595442295,-6.182064533,0
1017,1017,1.55965326103e+18,2.733850241,9.101449013,-9.08500576,0
1018,1018,1.55965326109e+18,-2.013177395,-10.83142471,-0.446770668,0
1019,1019,1.55965326115e+18,-1.77035141,-23.80219078,-13.41244507,0
1020,1020,1.55965326121e+18,5.688291073,-10.89214897,-5.776818275,0
1021,1021,1.55965326127e+18,9.467123032,-6.757558346,-1.927134037,0
1022,1022,1.55965326133e+18,3.271574974,-2.994172573,-4.614105225,0
1023,1023,1.55965326139e+18,0.8942890167,-2.129833221,-1.749093056,0
1024,1024,1.55965326145e+18,0.0245923996,-2.474990129,-2.641058922,0
1025,1025,1.55965326151e+18,-3.326158047,2.88928628,-2.180960655,0
1026,1026,1.55965326157e+18,-0.3422100544,2.506690502,-2.647603512,0
1027,1027,1.55965326163e+18,6.772602558,11.53597927,-11.56947041,0
1028,1028,1.55965326169e+18,3.216842175,7.421639919,-11.02876759,0
1029,1029,1.55965326175e+18,11.52970505,-9.102103233,-0.3518877029,0
1030,1030,1.55965326181e+18,-11.79776955,-28.76648521,-13.38775063,0
1031,1031,1.55965326187e+18,-1.071727276,-18.02943993,-5.89904213,0
1032,1032,1.55965326193e+18,0.378633976,-6.704685211,-2.981599808,0
1033,1033,1.55965326199e+18,-3.879906178,-1.138847828,-3.860388041,0
1034,1034,1.55965326205e+18,-0.4413156509,2.798526287,-1.650896549,0
1035,1035,1.55965326211e+18,0.9619348049,5.466557503,-1.85379982,0
1036,1036,1.55965326217e+18,-0.2307748795,4.16676569,-1.924590588,0
1037,1037,1.55965326223e+18,-3.145103931,0.5212163925,11.27843094,0
1038,1038,1.55965326229e+18,0.09331345558,-5.689416409,5.740736961,0
1039,1039,1.55965326235e+18,-1.639550328,-4.760139942,-15.34794807,0
1040,1040,1.55965326241e+18,7.777260303,15.59703922,-20.1918602,0
1041,1041,1.55965326247e+18,8.872293472,-21.24736786,0.6682767868,0
1042,1042,1.55965326253e+18,-19.76298904,-19.30298042,-1.29497242,0
1043,1043,1.55965326259e+18,1.581633568,-14.54150772,-2.883025646,0
1044,1044,1.55965326265e+18,1.180475831,-6.834693909,-0.1573562622,0
1045,1045,1.55965326271e+18,1.213448286,4.218747139,0.183842659,0
1046,1046,1.55965326277e+18,-2.146465302,-1.280092001,-4.165220737,0
1047,1047,1.55965326283e+18,-7.101568222,2.869208097,-12.66286087,0
1048,1048,1.55965326289e+18,-4.029911518,5.160935879,-3.741943836,0
1049,1049,1.55965326295e+18,6.363607407,19.71025658,-0.01026725769,0
1050,1050,1.55965326301e+18,7.402659416,-4.28384304,0.9210195541,0
1051,1051,1.55965326307e+18,2.424698114,-16.53314972,-7.908270836,0
1052,1052,1.55965326313e+18,-11.70943832,-16.46626472,-27.52722931,0
1053,1053,1.55965326319e+18,-2.459674835,-17.33888435,-6.148822308,0
1054,1054,1.55965326325e+18,2.018627882,-16.16819191,-0.8820552826,0
1055,1055,1.55965326331e+18,2.595672131,0.5783886909,5.927361488,0
1056,1056,1.55965326337e+18,4.975599289,3.793327808,16.60701752,0
1057,1057,1.55965326343e+18,5.154534817,3.186794043,12.32082844,0
1058,1058,1.55965326349e+18,-0.1789457798,-6.276172638,4.920045853,0
1059,1059,1.55965326355e+18,0.960193038,-7.485007286,5.611385345,0
1060,1060,1.55965326361e+18,1.563049078,-5.884604931,-0.7643251419,0
1061,1061,1.55965326367e+18,2.376235247,-3.616908073,-4.951329708,0
1062,1062,1.55965326373e+18,3.209157944,-8.23391819,-16.93865585,0
1063,1063,1.55965326379e+18,8.642980576,-12.59026527,-17.86878777,0
1064,1064,1.55965326385e+18,5.617997646,-14.74702263,8.051271439,0
1065,1065,1.55965326391e+18,6.271438122,-22.43619156,-10.46387291,0
1066,1066,1.55965326397e+18,-8.856474876,-2.616643906,-2.311439514,0
1067,1067,1.55965326403e+18,13.52469635,-10.66689491,13.30735588,0
1068,1068,1.55965326409e+18,-2.794841766,3.757262945,10.52216148,0
1069,1069,1.55965326415e+18,-11.02120876,6.571133614,7.235408783,0
1070,1070,1.55965326421e+18,5.66246891,3.073503017,7.989892483,0
1071,1071,1.55965326427e+18,-1.782387257,1.561377525,3.49860239,0
1072,1072,1.55965326433e+18,-6.478633404,9.155935287,-3.254199266,0
1073,1073,1.55965326439e+18,-1.416347027,-0.2180104256,0.07865619659,0
1074,1074,1.55965326445e+18,4.625779152,-11.04797745,-4.49382782,0
1075,1075,1.55965326451e+18,3.554374695,-17.92399597,-3.054796696,0
1076,1076,1.55965326457e+18,1.634198785,-6.909642696,-25.28021622,0
1077,1077,1.55965326463e+18,-1.909207702,-4.129524708,-21.22422028,0
1078,1078,1.55965326469e+18,-0.7286698818,-9.882758141,9.282467842,0
1079,1079,1.55965326475e+18,4.869512081,-4.428826332,7.948901176,0
1080,1080,1.55965326481e+18,-14.2940588,-16.62530518,14.94734383,0
1081,1081,1.55965326487e+18,-2.899463177,0.6727390289,11.6709795,0
1082,1082,1.55965326493e+18,-1.216253996,5.35864687,7.401529312,0
1083,1083,1.55965326499e+18,-3.912791014,7.602825165,5.789250374,0
1084,1084,1.55965326505e+18,-1.821721554,6.816844463,8.106267929,0
1085,1085,1.55965326511e+18,-12.01202583,6.797672272,1.696714401,0
1086,1086,1.55965326517e+18,-2.085356236,5.239285946,3.542730331,0
1087,1087,1.55965326523e+18,6.575846195,-0.7540806532,1.532042503,0
1088,1088,1.55965326529e+18,0.1042898893,-4.692464828,-5.350999355,0
1089,1089,1.55965326535e+18,-2.217265606,-16.9133091,-22.61044502,0
1090,1090,1.55965326541e+18,-1.5034163,-1.86037755,-18.92539024,0
1091,1091,1.55965326547e+18,4.545731544,6.380017281,-2.332719326,0
1092,1092,1.55965326553e+18,4.132559299,1.315407276,3.921767235,0
1093,1093,1.55965326559e+18,6.370972633,-10.57676792,16.59629059,0
1094,1094,1.55965326565e+18,-16.22617722,-18.62585831,5.493516445,0
1095,1095,1.55965326571e+18,-11.15268803,7.013811111,4.951534271,0
1096,1096,1.55965326577e+18,-3.618088961,12.16657639,17.09558105,0
1097,1097,1.55965326583e+18,-2.026673317,10.17679977,9.883055687,0
1098,1098,1.55965326589e+18,-5.457132339,7.79698801,7.433857918,0
1099,1099,1.55965326595e+18,-6.765226841,2.642663956,7.231208801,0
1100,1100,1.55965326601e+18,-1.695027828,2.15995121,6.336881161,0
1101,1101,1.55965326607e+18,-8.517465591,-1.978623867,1.682178497,0
1102,1102,1.55965326613e+18,1.811220646,0.2220711708,-4.881587505,0
1103,1103,1.55965326619e+18,2.039111376,-4.32765007,-21.82029343,0
1104,1104,1.55965326625e+18,0.005859017372,-1.493804455,-18.26405334,0
1105,1105,1.55965326631e+18,-0.2889815569,-0.2403321266,-1.088981628,0
1106,1106,1.55965326637e+18,-1.812194586,-7.197083473,17.366745,0
1107,1107,1.55965326643e+18,1.324610591,-9.691055298,11.38819218,0
1108,1108,1.55965326649e+18,-10.04496098,3.142685413,11.02717113,0
1109,1109,1.55965326655e+18,-10.77748775,8.068012238,10.41563511,0
1110,1110,1.55965326661e+18,-5.528561592,10.36017609,10.04857063,0
1111,1111,1.55965326667e+18,6.801538467,6.436856747,9.830617905,0
1112,1112,1.55965326673e+18,4.229781628,4.68509388,10.02953148,0
1113,1113,1.55965326679e+18,-1.677196503,3.337893724,5.538145065,0
1114,1114,1.55965326685e+18,-0.8179080486,1.975202799,7.018400192,0
1115,1115,1.55965326691e+18,-6.042468071,5.432439804,3.898838997,0
1116,1116,1.55965326697e+18,6.034512043,5.432220459,-14.8494854,0
1117,1117,1.55965326703e+18,3.802706242,3.80621624,-18.3622818,0
1118,1118,1.55965326709e+18,4.258565426,6.825463295,-9.339592934,0
1119,1119,1.55965326715e+18,5.283894062,5.324071884,3.902116776,0
1120,1120,1.55965326721e+18,-0.5605175495,-25.70631027,22.10144806,0
1121,1121,1.55965326727e+18,-10.46343803,-14.94635677,-4.307816029,0
1122,1122,1.55965326733e+18,-10.37699604,-0.4794960022,5.78993082,0
1123,1123,1.55965326739e+18,-2.383619785,6.121192455,8.961348534,0
1124,1124,1.55965326745e+18,2.433257103,10.00271416,8.083560944,0
1125,1125,1.55965326751e+18,1.819093943,8.998439789,3.348125458,0
1126,1126,1.55965326757e+18,3.729887009,2.46462822,3.235127926,0
1127,1127,1.55965326763e+18,-9.853362083,3.043585062,-0.1198430061,0
1128,1128,1.55965326769e+18,-1.977211952,6.196702003,-0.3255167007,0
1129,1129,1.55965326775e+18,6.805890083,7.360622406,-7.425354481,0
1130,1130,1.55965326781e+18,10.30834007,5.627536297,-4.835226059,0
1131,1131,1.55965326787e+18,1.166889191,3.53584218,3.273518085,0
1132,1132,1.55965326793e+18,5.681165695,-0.06107473373,-11.53637886,0
1133,1133,1.55965326799e+18,-10.60275269,-21.49281502,8.19451046,0
1134,1134,1.55965326805e+18,-10.87457657,-9.806165695,8.69867897,0
1135,1135,1.55965326811e+18,0.4347057343,1.005463123,5.123970985,0
1136,1136,1.55965326817e+18,0.8331465721,5.852878094,3.100293159,0
1137,1137,1.55965326823e+18,3.305139303,7.235896587,-0.5780072212,0
1138,1138,1.55965326829e+18,3.331048012,1.37020731,-1.582406521,0
1139,1139,1.55965326835e+18,1.557892084,8.645644188,0.6936969757,0
1140,1140,1.55965326841e+18,0.06532251835,2.844809294,-1.165897369,0
1141,1141,1.55965326847e+18,-2.002816439,-8.850074768,-7.18539238,0
1142,1142,1.55965326853e+18,1.690152526,-6.478803635,-18.64063263,0
1143,1143,1.55965326859e+18,-4.781049252,0.8398251534,-17.45059967,0
1144,1144,1.55965326865e+18,2.222233057,-9.601493835,0.1111073494,0
1145,1145,1.55965326871e+18,-1.930725217,-11.91004467,4.562221527,0
1146,1146,1.55965326877e+18,-4.340968132,0.4750938416,3.609723568,0
1147,1147,1.55965326883e+18,-0.5951837301,-4.2996912,10.88467693,0
1148,1148,1.55965326889e+18,-2.870833635,-7.957322121,10.58428288,0
1149,1149,1.55965326895e+18,-0.6154546738,0.2754545212,9.837827682,0
1150,1150,1.55965326901e+18,8.842110634,3.580887318,3.470010757,0
1151,1151,1.55965326907e+18,10.1889019,-1.784002781,-5.334821701,0
1152,1152,1.55965326913e+18,6.039727211,-5.707151413,-5.540654182,0
1153,1153,1.55965326919e+18,-8.016767502,2.190166235,-9.68302536,0
1154,1154,1.55965326925e+18,-8.610388756,8.463628769,-12.95534039,0
1155,1155,1.55965326931e+18,4.92249155,4.542185783,-17.1972332,0
1156,1156,1.55965326937e+18,8.422901154,-8.99243927,7.666193008,0
1157,1157,1.55965326943e+18,-2.14223671,-3.138253212,0.4343428612,0
1158,1158,1.55965326949e+18,-2.355532646,-11.89732933,5.147548199,0
1159,1159,1.55965326955e+18,-6.459144115,-6.90572834,2.607340097,0
1160,1160,1.55965326961e+18,-7.961814404,-7.671699524,4.306465149,0
1161,1161,1.55965326967e+18,-5.448215008,-6.002858162,5.369028568,0
1162,1162,1.55965326973e+18,-2.867337227,2.339213371,1.707422733,0
1163,1163,1.55965326979e+18,0.2268173695,7.947523594,3.538278103,0
1164,1164,1.55965326985e+18,2.457458019,7.344768047,-0.6271438599,0
1165,1165,1.55965326991e+18,1.667069197,6.89183569,-5.126361847,0
1166,1166,1.55965326997e+18,6.56653738,-1.321840525,-4.623212337,0
1167,1167,1.55965327003e+18,1.492317677,2.66452384,-1.293083191,0
1168,1168,1.55965327009e+18,-7.257182121,3.29580617,-7.199450493,0
1169,1169,1.55965327015e+18,-1.200964093,2.876682043,-18.65946579,0
1170,1170,1.55965327021e+18,0.1953039169,-9.066126823,3.248263359,0
1171,1171,1.55965327027e+18,0.9500416517,-28.51875305,0.3688406944,0
1172,1172,1.55965327033e+18,-7.451619148,-6.131346703,-3.74505353,0
1173,1173,1.55965327039e+18,3.009998322,-7.081328392,-2.15459919,0
1174,1174,1.55965327045e+18,1.061496973,-6.443043232,2.756881714,0
1175,1175,1.55965327051e+18,-4.298853874,-0.2137198448,1.350500584,0
1176,1176,1.55965327057e+18,-3.057750463,3.547762394,0.419462204,0
1177,1177,1.55965327063e+18,-1.514899492,3.825079203,-3.155848026,0
1178,1178,1.55965327069e+18,0.6363463402,3.621864557,0.3517456055,0
1179,1179,1.55965327075e+18,3.549279213,-0.6074650884,-1.074058533,0
1180,1180,1.55965327081e+18,6.452281952,7.628788471,-19.288311,0
1181,1181,1.55965327087e+18,-0.7233560085,1.795868874,-14.71016693,0
1182,1182,1.55965327093e+18,-1.799319744,-20.60438919,6.157471657,0
1183,1183,1.55965327099e+18,4.069295883,-17.14313698,-4.127188683,0
1184,1184,1.55965327105e+18,0.5078899264,-10.66890049,-2.654995441,0
1185,1185,1.55965327111e+18,-3.267478466,-2.736400127,-0.9430851936,0
1186,1186,1.55965327117e+18,1.293804049,2.36433363,0.4920492172,0
1187,1187,1.55965327123e+18,-8.225291252,-8.32557869,4.620441914,0
1188,1188,1.55965327129e+18,-1.419987679,-4.26954174,2.530390739,0
1189,1189,1.55965327135e+18,0.19335711,-0.4504625797,-1.267942429,0
1190,1190,1.55965327141e+18,-0.1721266359,-1.042682767,-3.744284153,0
1191,1191,1.55965327147e+18,0.2079569697,-0.5755740404,-9.593853951,0
1192,1192,1.55965327153e+18,5.267891884,-4.855344772,-8.913681984,0
1193,1193,1.55965327159e+18,9.349998474,11.69043159,-17.26153374,0
1194,1194,1.55965327165e+18,-2.761656284,-11.1864357,6.266794205,0
1195,1195,1.55965327171e+18,4.819574833,-14.04465389,-8.40955925,0
1196,1196,1.55965327177e+18,-17.92923355,-15.50747013,-5.557297707,0
1197,1197,1.55965327183e+18,-5.352388859,-2.259557724,1.062282562,0
1198,1198,1.55965327189e+18,1.403245568,2.593800545,2.058419704,0
1199,1199,1.55965327195e+18,-3.164659023,0.265894413,0.489616394,0
1200,1200,1.55965327201e+18,-5.21281147,-3.41045475,0.1300964355,0
1201,1201,1.55965327207e+18,-4.080925941,-20.6686039,-7.250096321,0
1202,1202,1.55965327213e+18,-1.65146029,-5.849207401,-8.628778458,0
1203,1203,1.55965327219e+18,3.801907778,9.036334038,-0.4701786041,0
1204,1204,1.55965327225e+18,-1.574966192,2.812466383,-5.818033218,0
1205,1205,1.55965327231e+18,2.700205088,1.967570782,-19.66016006,0
1206,1206,1.55965327237e+18,1.540747643,-1.869365692,-17.18073463,0
1207,1207,1.55965327243e+18,-0.4443820715,-13.06542015,6.87204361,0
1208,1208,1.55965327249e+18,-2.584368229,-18.17173386,-8.052388191,0
1209,1209,1.55965327255e+18,-6.982751369,-9.08747673,1.685628891,0
1210,1210,1.55965327261e+18,-3.18222332,-5.143990517,1.406621933,0
1211,1211,1.55965327267e+18,-1.573972225,-1.029559612,3.049748421,0
1212,1212,1.55965327273e+18,-0.3327803612,-0.4312400818,0.4189720154,0
1213,1213,1.55965327279e+18,-2.333476305,-2.921169758,-2.328605652,0
1214,1214,1.55965327285e+18,-0.1244831085,-2.149252892,-3.821690083,0
1215,1215,1.55965327291e+18,-5.02275753,-0.3613868952,-1.019695282,0
1216,1216,1.55965327297e+18,6.750519276,4.056448936,-16.70176315,0
1217,1217,1.55965327303e+18,3.933956623,7.205598831,-18.25636482,0
1218,1218,1.55965327309e+18,-1.183811426,-1.642448187,-6.056102753,0
1219,1219,1.55965327315e+18,-1.752186179,-12.65774918,10.94819546,0
1220,1220,1.55965327321e+18,-6.249387264,-23.04457092,-9.444976807,0
1221,1221,1.55965327327e+18,-8.152492523,-9.06609726,-6.407857418,0
1222,1222,1.55965327333e+18,-3.361541033,-9.339381218,-2.11513567,0
1223,1223,1.55965327339e+18,-5.11287117,-3.593135834,-3.365692616,0
1224,1224,1.55965327345e+18,1.924842238,3.572774887,2.74098587,0
1225,1225,1.55965327351e+18,0.9723697901,2.443446636,1.37699604,0
1226,1226,1.55965327357e+18,0.8187855482,1.687235713,-6.806071758,0
1227,1227,1.55965327363e+18,-8.073431015,-9.331214905,-5.621674061,0
1228,1228,1.55965327369e+18,3.595355511,5.859962463,-15.34764862,0
1229,1229,1.55965327375e+18,2.681246281,3.710894346,-9.651396751,0
1230,1230,1.55965327381e+18,2.224027872,-7.823517323,3.323195457,0
1231,1231,1.55965327387e+18,0.07022237778,-15.34953499,-6.528979301,0
1232,1232,1.55965327393e+18,-3.663262367,-10.07818794,-0.1486430168,0
1233,1233,1.55965327399e+18,-1.412478447,0.3938980103,-3.109355211,0
1234,1234,1.55965327405e+18,0.452796936,-5.97903347,2.647166729,0
1235,1235,1.55965327411e+18,-8.770446777,-5.779410839,0.4678254128,0
1236,1236,1.55965327417e+18,-5.725617886,-1.018632412,0.1049847603,0
1237,1237,1.55965327423e+18,0.4845533371,2.264104605,-2.680716515,0
1238,1238,1.55965327429e+18,2.314905405,3.570587397,-8.470695496,0
1239,1239,1.55965327435e+18,6.05691576,10.91880035,-13.048666,0
1240,1240,1.55965327441e+18,-0.9504504204,12.44156265,-12.48110199,0
1241,1241,1.55965327447e+18,0.6146848798,-12.95298386,3.895168304,0
1242,1242,1.55965327453e+18,2.158643723,-20.95428085,0.6910829544,0
1243,1243,1.55965327459e+18,-3.984503746,-8.518802643,-4.848419189,0
1244,1244,1.55965327465e+18,-1.859701395,1.617812634,-0.4028697014,0
1245,1245,1.55965327471e+18,-2.715142727,5.332464695,-0.8926711082,0
1246,1246,1.55965327477e+18,1.700814009,5.064002514,-0.8456277847,0
1247,1247,1.55965327483e+18,-1.348010063,5.200055599,-0.5476789474,0
1248,1248,1.55965327489e+18,-8.085724831,-3.229275227,-0.1090488434,0
1249,1249,1.55965327495e+18,-4.225810528,-0.6329782009,-0.3992328644,0
1250,1250,1.55965327501e+18,-2.6910882,-3.749865532,-4.960330486,0
1251,1251,1.55965327507e+18,0.6114451885,-0.928381443,-13.19092751,0
1252,1252,1.55965327513e+18,1.356301904,-14.21315002,-2.828724384,0
1253,1253,1.55965327519e+18,4.913305283,-3.053753853,-12.29378319,0
1254,1254,1.55965327525e+18,1.193017125,-13.2933445,-5.943604469,0
1255,1255,1.55965327531e+18,-3.675573349,-14.78089714,-2.683241367,0
1256,1256,1.55965327537e+18,-5.415335178,-8.002815247,1.282729149,0
1257,1257,1.55965327543e+18,-2.182945728,-0.6242537498,4.745867252,0
1258,1258,1.55965327549e+18,-4.266252041,4.022775173,7.750243664,0
1259,1259,1.55965327555e+18,-1.997819424,9.279623032,3.607219696,0
1260,1260,1.55965327561e+18,2.27382803,4.161231518,0.3215785027,0
1261,1261,1.55965327567e+18,4.224869728,-4.038202763,-1.733176231,0
1262,1262,1.55965327573e+18,-7.964987755,-8.284719467,-3.434906006,0
1263,1263,1.55965327579e+18,-4.542782307,4.213647842,-9.491727829,0
1264,1264,1.55965327585e+18,3.086759567,6.445492744,-11.30504036,0
1265,1265,1.55965327591e+18,7.560828209,6.090276241,-4.572245598,0
1266,1266,1.55965327597e+18,6.523256302,-1.425173163,-2.513789654,0
1267,1267,1.55965327603e+18,1.607584476,-7.115140915,1.517604828,0
1268,1268,1.55965327609e+18,8.139969826,-15.06283474,-6.348149776,0
1269,1269,1.55965327615e+18,-7.622653008,-10.46689987,-3.437631607,0
1270,1270,1.55965327621e+18,-3.516734123,-8.038391113,5.388643265,0
1271,1271,1.55965327627e+18,-1.677578926,-2.400397301,3.951868534,0
1272,1272,1.55965327633e+18,-2.130306721,2.196625471,-0.2839789391,0
1273,1273,1.55965327639e+18,-0.2403330803,4.501661777,-1.750050068,0
1274,1274,1.55965327645e+18,3.981494904,0.535721302,-1.138901234,0
1275,1275,1.55965327651e+18,5.025935173,1.864946127,-2.642594337,0
1276,1276,1.55965327657e+18,-1.036982536,3.007230043,-0.3202915192,0
1277,1277,1.55965327663e+18,0.3388121128,-3.140621185,-6.926652908,0
1278,1278,1.55965327669e+18,0.4841976166,-4.918051243,-9.745397568,0
1279,1279,1.55965327675e+18,2.03746891,-2.674499273,-19.36462402,0
1280,1280,1.55965327681e+18,-5.971261024,-22.14430428,9.411851883,0
1281,1281,1.55965327687e+18,7.372550011,-22.00771904,9.485071182,0
1282,1282,1.55965327693e+18,-7.858839035,-22.65938187,-1.876363754,0
1283,1283,1.55965327699e+18,3.47686553,-12.50160599,0.7068791389,0
1284,1284,1.55965327705e+18,-0.3280911446,-4.304619312,2.434253216,0
1285,1285,1.55965327711e+18,-1.82644701,2.917454958,6.929521084,0
1286,1286,1.55965327717e+18,8.934565544,2.577749968,-0.3799543381,0
1287,1287,1.55965327723e+18,4.094913483,-2.392516851,-11.8163681,0
1288,1288,1.55965327729e+18,12.15383148,16.57494164,-12.81632137,0
1289,1289,1.55965327735e+18,13.14489079,23.05282974,-4.735836983,0
1290,1290,1.55965327741e+18,7.809178352,11.8470726,-5.34772253,0
1291,1291,1.55965327747e+18,-7.397046089,-33.68773651,3.386506081,0
1292,1292,1.55965327753e+18,-12.65812016,-23.57465363,-11.57280636,0
1293,1293,1.55965327759e+18,-0.6957228184,-6.683695793,-2.640786648,0
1294,1294,1.55965327765e+18,1.523223162,-4.269415379,-7.113931656,0
1295,1295,1.55965327771e+18,-3.50355792,-3.324172497,-5.288813591,0
1296,1296,1.55965327777e+18,-4.041242599,2.900693893,-2.354310036,0
1297,1297,1.55965327783e+18,0.7731839418,-1.2733531,-5.219789505,0
1298,1298,1.55965327789e+18,-6.793148041,9.837772369,-3.014429092,0
1299,1299,1.55965327795e+18,3.420397758,15.62186909,-12.17109203,0
1300,1300,1.55965327801e+18,8.666900635,13.24953175,-6.019982815,0
1301,1301,1.55965327807e+18,2.04062891,-5.475626945,-0.02585124969,0
1302,1302,1.55965327813e+18,1.550062418,-24.31278801,-8.427144051,0
1303,1303,1.55965327819e+18,-15.82404137,-25.53863144,-5.708801746,0
1304,1304,1.55965327825e+18,4.427254677,-10.17240715,-1.208044529,0
1305,1305,1.55965327831e+18,0.8427600861,-3.605811119,-0.5120129585,0
1306,1306,1.55965327837e+18,-2.652477264,-0.530226469,-1.798433781,0
1307,1307,1.55965327843e+18,1.38344717,-1.25056982,-1.263939857,0
1308,1308,1.55965327849e+18,4.570380211,0.1703430414,-1.707062244,0
1309,1309,1.55965327855e+18,-1.056840897,-3.734105825,2.813415527,0
1310,1310,1.55965327861e+18,1.842475653,5.462632179,-19.4965477,0
1311,1311,1.55965327867e+18,1.784200668,-5.26202774,-17.46199799,0
1312,1312,1.55965327873e+18,1.222015381,-12.72405624,7.666811466,0
1313,1313,1.55965327879e+18,0.3339314461,-11.86719131,-6.529737949,0
1314,1314,1.55965327885e+18,0.4005050659,-1.687209129,-0.6551084518,0
1315,1315,1.55965327891e+18,4.488032818,-6.475193501,7.360069752,0
1316,1316,1.55965327897e+18,0.05652952194,-7.361846924,5.002300262,0
1317,1317,1.55965327903e+18,-1.75447607,-6.48665905,5.758049965,0
1318,1318,1.55965327909e+18,3.539218426,-1.222972393,4.220876217,0
1319,1319,1.55965327915e+18,5.512376785,1.821518898,1.46173811,0
1320,1320,1.55965327921e+18,4.184383392,-0.4232115746,-4.205728531,0
1321,1321,1.55965327927e+18,2.405042171,0.3239403963,-7.731054306,0
1322,1322,1.55965327933e+18,-4.30610323,-5.636693001,-7.535405636,0
1323,1323,1.55965327939e+18,3.795068264,-0.7526330352,-6.924173832,0
1324,1324,1.55965327945e+18,3.188490868,-3.450144291,-7.658584118,0
1325,1325,1.55965327951e+18,3.495018005,-31.20539474,3.116029263,0
1326,1326,1.55965327957e+18,-0.07060623169,-2.321319103,-1.363053083,0
1327,1327,1.55965327963e+18,4.150155067,2.4415555,2.783915997,0
1328,1328,1.55965327969e+18,-2.058429241,-7.033505917,7.654375076,0
1329,1329,1.55965327975e+18,-8.558246613,-5.677623749,7.193706512,0
1330,1330,1.55965327981e+18,-2.757072926,0.4814190865,4.4504776,0
1331,1331,1.55965327987e+18,1.202057838,1.97489357,0.2672820091,0
1332,1332,1.55965327993e+18,2.274579763,-0.81310606,-7.61649847,0
1333,1333,1.55965327999e+18,2.589588881,-0.1759083271,-10.73923206,0
1334,1334,1.55965328005e+18,2.429684162,4.260016441,-2.354363441,0
1335,1335,1.55965328011e+18,8.497273445,11.05558777,-11.96076202,0
1336,1336,1.55965328017e+18,2.265128851,3.507602453,-8.828372955,0
1337,1337,1.55965328023e+18,7.628094673,-27.98569679,1.902937412,0
1338,1338,1.55965328029e+18,-12.88347912,-12.54181099,-5.342305183,0
1339,1339,1.55965328035e+18,5.409934521,2.994842529,2.631410599,0
1340,1340,1.55965328041e+18,5.880721092,1.001130581,2.38900423,0
1341,1341,1.55965328047e+18,-3.610407829,-0.7754259109,2.932330132,0
1342,1342,1.55965328053e+18,-0.9344749451,-4.130578995,4.589112282,0
1343,1343,1.55965328059e+18,-2.036616087,-1.79003334,1.599829674,0
1344,1344,1.55965328065e+18,-0.24036479,3.690488338,-2.448115826,0
1345,1345,1.55965328071e+18,9.476415634,5.02648735,-4.127761364,0
1346,1346,1.55965328077e+18,3.453286648,12.1447258,-25.12399864,0
1347,1347,1.55965328083e+18,3.647110939,6.424798489,-6.992759228,0
1348,1348,1.55965328089e+18,4.850212097,-26.05571175,7.337073326,0
1349,1349,1.55965328095e+18,-10.55671406,-24.00805855,-5.644921303,0
1350,1350,1.55965328101e+18,0.7872314453,-4.381943703,-1.139300346,0
1351,1351,1.55965328107e+18,1.937489986,4.468770027,2.29556179,0
1352,1352,1.55965328113e+18,-1.756261826,5.792114258,-1.460143089,0
1353,1353,1.55965328119e+18,3.648068905,2.634188175,-0.3723478317,0
1354,1354,1.55965328125e+18,4.579678535,-0.246278286,1.224217415,0
1355,1355,1.55965328131e+18,-3.720869303,-1.36913085,-4.045968533,0
1356,1356,1.55965328137e+18,-0.4783623219,-2.360625029,5.201706886,0
1357,1357,1.55965328143e+18,-4.08206892,-4.079687119,1.807353973,0
1358,1358,1.55965328149e+18,5.960673332,10.73481178,-22.75045776,0
1359,1359,1.55965328155e+18,5.387682438,5.727301598,-12.77746201,0
1360,1360,1.55965328161e+18,-3.355625629,-19.87799263,6.788272858,0
1361,1361,1.55965328167e+18,-11.30953217,-26.87267685,-12.34529305,0
1362,1362,1.55965328173e+18,1.167176723,-10.69029808,-1.274253368,0
1363,1363,1.55965328179e+18,1.162806153,-1.238653421,1.757586479,0
1364,1364,1.55965328185e+18,-4.567527771,3.055522442,-2.025898457,0
1365,1365,1.55965328191e+18,-0.6390581131,4.866571426,-3.115286827,0
1366,1366,1.55965328197e+18,4.824951172,-0.9889916182,-0.9203491211,0
1367,1367,1.55965328203e+18,0.6234000921,-2.585141897,-2.388597488,0
1368,1368,1.55965328209e+18,-6.373263836,6.353552341,-2.867301941,0
1369,1369,1.55965328215e+18,4.801000595,12.30126572,-14.1193037,0
1370,1370,1.55965328221e+18,-1.450141668,-4.309859276,0.09961795807,0
1371,1371,1.55965328227e+18,-2.016054392,-12.92108536,-0.18338871,0
1372,1372,1.55965328233e+18,3.956755638,-14.15896606,-9.181473732,0
1373,1373,1.55965328239e+18,-3.899815559,-5.75776577,-5.67245388,0
1374,1374,1.55965328245e+18,-2.898658514,-1.951224327,4.973995209,0
1375,1375,1.55965328251e+18,-4.159976959,-9.379787445,6.63812542,0
1376,1376,1.55965328257e+18,-1.801798105,-3.219081402,2.677307129,0
1377,1377,1.55965328263e+18,2.861214876,-1.987469196,-2.982960701,0
1378,1378,1.55965328269e+18,1.610023618,-2.006816387,-5.468483925,0
1379,1379,1.55965328275e+18,-0.4948951006,-2.259992361,-4.50686264,0
1380,1380,1.55965328281e+18,-3.27101469,-2.285878658,-2.145137787,0
1381,1381,1.55965328287e+18,-5.592665672,-5.442117691,-11.73254395,0
1382,1382,1.55965328293e+18,7.601297379,1.893126726,-22.28701591,0
1383,1383,1.55965328299e+18,7.144826412,2.339974403,-10.58371925,0
1384,1384,1.55965328305e+18,1.269924641,-20.57457733,8.358622551,0
1385,1385,1.55965328311e+18,-15.40942001,-16.98352051,2.864439964,0
1386,1386,1.55965328317e+18,0.4519455135,-7.573366165,-1.033447742,0
1387,1387,1.55965328323e+18,-2.655648232,-5.597966671,-2.454626083,0
1388,1388,1.55965328329e+18,-0.4047613144,-4.593615532,-3.023486137,0
1389,1389,1.55965328335e+18,-2.08710885,0.0482673645,-2.247477531,0
1390,1390,1.55965328341e+18,-4.808391571,5.509631634,-5.088575363,0
1391,1391,1.55965328347e+18,4.260419369,12.62742233,3.71286869,0
1392,1392,1.55965328353e+18,7.76260376,0.5372270346,-2.335691929,0
1393,1393,1.55965328359e+18,-4.14575386,3.531508207,-8.83823967,0
1394,1394,1.55965328365e+18,7.020358562,1.930374622,-12.83033371,0
1395,1395,1.55965328371e+18,-3.593369246,0.6517846584,-10.3503418,0
1396,1396,1.55965328377e+18,-0.463512212,-14.65781593,7.072272301,0
1397,1397,1.55965328383e+18,-10.28157711,-25.95214653,-1.093820572,0
1398,1398,1.55965328389e+18,-3.473782778,-2.329987526,-3.134592533,0
1399,1399,1.55965328395e+18,4.37608099,-1.38289547,-3.184272289,0
1400,1400,1.55965328401e+18,-1.125114202,-4.19136858,-4.217904091,0
1401,1401,1.55965328407e+18,-3.274459839,-2.584177494,3.298732281,0
1402,1402,1.55965328413e+18,1.518982291,1.082449675,0.4028296471,0
1403,1403,1.55965328419e+18,-0.007445335388,1.570134163,-2.24379921,0
1404,1404,1.55965328425e+18,-2.430853367,-5.259480476,2.152944565,0
1405,1405,1.55965328431e+18,8.840130806,12.91836929,-13.52576828,0
1406,1406,1.55965328437e+18,9.969770432,13.09914494,-13.13967609,0
1407,1407,1.55965328443e+18,0.635394454,-17.62324715,4.502096176,0
1408,1408,1.55965328449e+18,5.188741684,-22.57776451,-0.2756147385,0
1409,1409,1.55965328455e+18,-4.322686672,-16.79235458,-7.725849628,0
1410,1410,1.55965328461e+18,1.344676495,-3.435736656,-0.6063461304,0
1411,1411,1.55965328467e+18,1.401855946,0.6549201012,2.484295845,0
1412,1412,1.55965328473e+18,0.5004267693,-2.567008018,3.859874249,0
1413,1413,1.55965328479e+18,-1.100278854,-3.525532246,0.6030898094,0
1414,1414,1.55965328485e+18,0.2189497948,-2.565859795,-1.477498055,0
1415,1415,1.55965328491e+18,-1.223254442,-3.170328617,-1.201390266,0
1416,1416,1.55965328497e+18,-0.6500394344,-2.777944326,-3.900213242,0
1417,1417,1.55965328503e+18,6.14953804,4.278713703,-21.42074966,0
1418,1418,1.55965328509e+18,6.055914879,3.469083071,-11.82945824,0
1419,1419,1.55965328515e+18,1.272823811,-1.598649025,3.82491684,0
1420,1420,1.55965328521e+18,8.430019379,-34.07939911,-2.027642727,0
1421,1421,1.55965328527e+18,-9.367241859,-18.09325409,-5.865888119,0
1422,1422,1.55965328533e+18,0.3303627968,-8.499868393,2.331507683,0
1423,1423,1.55965328539e+18,0.07820987701,-3.056130409,0.463385582,0
1424,1424,1.55965328545e+18,-2.091589451,3.141401291,1.777525902,0
1425,1425,1.55965328551e+18,3.728488684,1.461266279,0.7599592209,0
1426,1426,1.55965328557e+18,0.5794153214,-0.2468850613,0.2087087631,0
1427,1427,1.55965328563e+18,-2.526833534,-5.29828167,-0.7087249756,0
1428,1428,1.55965328569e+18,-1.796618462,-1.097767115,0.8744707108,0
1429,1429,1.55965328575e+18,9.455874443,7.155881405,-14.10693073,0
1430,1430,1.55965328581e+18,6.120985508,4.756520271,-13.75567245,0
1431,1431,1.55965328587e+18,-0.067466259,-7.853458881,8.975842476,0
1432,1432,1.55965328593e+18,3.177194118,-13.65065193,-5.691606522,0
1433,1433,1.55965328599e+18,-8.358106613,-16.4305706,-3.448732853,0
1434,1434,1.55965328605e+18,-1.304413319,-10.97555733,5.52750206,0
1435,1435,1.55965328611e+18,-2.636307716,-2.036179781,-1.261303425,0
1436,1436,1.55965328617e+18,-1.414499283,-0.8104186058,-0.9841108322,0
1437,1437,1.55965328623e+18,2.437180996,1.593650103,-0.03990650177,0
1438,1438,1.55965328629e+18,-0.3528962135,1.232329249,-2.659363747,0
1439,1439,1.55965328635e+18,-0.6756167412,-0.3024548292,-2.067639828,0
1440,1440,1.55965328641e+18,10.56263351,9.610125542,-23.21329308,0
1441,1441,1.55965328647e+18,4.38911438,4.05479908,-11.76033211,0
1442,1442,1.55965328653e+18,3.378216743,-17.44583893,4.827931404,0
1443,1443,1.55965328659e+18,-26.18876839,-23.90910721,-5.077447891,0
1444,1444,1.55965328665e+18,3.631975889,-5.936512947,-2.84630394,0
1445,1445,1.55965328671e+18,5.032849789,-2.49524498,-5.686059952,0
1446,1446,1.55965328677e+18,3.700929165,3.210749149,-4.837758064,0
1447,1447,1.55965328683e+18,-5.670548916,1.460902214,-1.475821495,0
1448,1448,1.55965328689e+18,-0.1630425453,3.077314854,0.6177554131,0
1449,1449,1.55965328695e+18,-0.8473172188,3.926298618,1.910426617,0
1450,1450,1.55965328701e+18,0.8117930889,4.478148937,4.348635674,0
1451,1451,1.55965328707e+18,0.7556970119,-0.4288068414,-8.775053978,0
1452,1452,1.55965328713e+18,2.065185547,4.215812683,-21.62514305,0
1453,1453,1.55965328719e+18,-2.746123552,-15.2200346,10.06328964,0
1454,1454,1.55965328725e+18,8.985337257,-33.27416229,-7.903691769,0
1455,1455,1.55965328731e+18,-10.1376915,-15.303792,-2.26040554,0
1456,1456,1.55965328737e+18,9.736261368,-4.971507072,0.7329301834,0
1457,1457,1.55965328743e+18,6.249676704,-1.891179562,-0.643778801,0
1458,1458,1.55965328749e+18,-6.838008404,-2.649539471,1.239970207,0
1459,1459,1.55965328755e+18,2.043587685,1.016113043,6.745577812,0
1460,1460,1.55965328761e+18,-12.60345268,-3.011430025,3.485785007,0
1461,1461,1.55965328767e+18,0.04662561417,0.2238249183,0.03485488892,0
1462,1462,1.55965328773e+18,2.178608418,5.06850338,-22.23716545,0
1463,1463,1.55965328779e+18,4.47853756,0.05525687337,-14.23293781,0
1464,1464,1.55965328785e+18,7.41944313,-4.196692944,2.871222973,0
1465,1465,1.55965328791e+18,-1.147027493,-27.82341385,-5.688558578,0
1466,1466,1.55965328797e+18,-2.864706993,-13.93378544,6.785210609,0
1467,1467,1.55965328803e+18,11.02260017,-6.271903038,8.272830963,0
1468,1468,1.55965328809e+18,7.336881638,1.541357994,4.887708664,0
1469,1469,1.55965328815e+18,-0.00972032547,4.050615788,4.612335682,0
1470,1470,1.55965328821e+18,0.4908905029,4.690295219,0.1004128456,0
1471,1471,1.55965328827e+18,1.011106014,3.858473539,-0.8570728302,0
1472,1472,1.55965328833e+18,-1.664021969,-6.739624023,-3.20435071,0
1473,1473,1.55965328839e+18,-0.4169416428,-11.60605049,-6.333529472,0
1474,1474,1.55965328845e+18,1.288504124,-2.286896706,-2.153001785,0
1475,1475,1.55965328851e+18,1.339701653,-8.534814835,-0.3344917297,0
1476,1476,1.55965328857e+18,8.962712288,-3.582037449,-8.996139526,0
1477,1477,1.55965328863e+18,2.025791645,-5.441570282,-3.891185999,0
1478,1478,1.55965328869e+18,12.94205952,-5.840212822,-7.129991055,0
1479,1479,1.55965328875e+18,-0.503508091,-7.426482201,7.157240391,0
1480,1480,1.55965328881e+18,-3.510863781,-3.985676765,14.16415596,0
1481,1481,1.55965328887e+18,-5.353222847,1.130854607,6.313358784,0
1482,1482,1.55965328893e+18,-1.155996323,5.951370239,5.679666042,0
1483,1483,1.55965328899e+18,4.809316158,4.517076015,0.8341293335,0
1484,1484,1.55965328905e+18,4.020996094,2.216634512,-3.5131495,0
1485,1485,1.55965328911e+18,-1.125061512,-4.143836021,2.102985382,0
1486,1486,1.55965328917e+18,-2.09202528,-3.324826241,-5.279276848,0
1487,1487,1.55965328923e+18,-0.03069734573,-1.007609487,-4.154729843,0
1488,1488,1.55965328929e+18,3.629855394,3.660348892,-4.933736801,0
1489,1489,1.55965328935e+18,5.926196098,3.094974041,-8.388548851,0
1490,1490,1.55965328941e+18,4.994351387,1.926045775,-15.44863987,0
1491,1491,1.55965328947e+18,1.748050928,-5.198989391,4.101628304,0
1492,1492,1.55965328953e+18,-7.825349808,-27.37571716,11.46366596,0
1493,1493,1.55965328959e+18,1.113836765,-13.21335602,3.755265236,0
1494,1494,1.55965328965e+18,0.4404382706,-3.647912979,3.895073891,0
1495,1495,1.55965328971e+18,1.995383263,6.991991997,2.314713001,0
1496,1496,1.55965328977e+18,2.271333694,8.963634491,0.8526363373,0
1497,1497,1.55965328983e+18,4.17468071,6.663051605,0.9806461334,0
1498,1498,1.55965328989e+18,3.434850693,8.038438797,2.140629292,0
1499,1499,1.55965328995e+18,-2.08320713,2.086728573,3.391839504,0
1500,1500,1.55965329001e+18,-0.9579324722,-5.222518921,-1.621956348,0
1501,1501,1.55965329007e+18,-3.967151165,-5.056045532,-4.492618561,0
1502,1502,1.55965329013e+18,14.02441692,5.830708027,-22.58469772,0
1503,1503,1.55965329019e+18,8.022003174,0.1047060639,-9.330845833,0
1504,1504,1.55965329025e+18,-2.515144348,-11.08348179,8.377416611,0
1505,1505,1.55965329031e+18,10.68706894,-27.73623848,1.860810757,0
1506,1506,1.55965329037e+18,-8.123968124,-10.25909424,-3.021586895,0
1507,1507,1.55965329043e+18,-0.8737735748,-3.630540133,2.650822639,0
1508,1508,1.55965329049e+18,2.657739162,5.102540493,1.759350777,0
1509,1509,1.55965329055e+18,5.130860806,4.054838181,-2.075915813,0
1510,1510,1.55965329061e+18,6.932102203,-3.651512146,-0.244222641,0
1511,1511,1.55965329067e+18,3.93865633,-3.5308249,-1.827520847,0
1512,1512,1.55965329072e+18,-2.526979208,13.03925705,10.13802433,0
1513,1513,1.55965329078e+18,8.003062248,14.89505005,-15.61754799,0
1514,1514,1.55965329084e+18,8.192763329,8.045854568,-10.09237576,0
1515,1515,1.5596532909e+18,-0.3130321503,-19.658144,3.959976196,0
1516,1516,1.55965329096e+18,-1.401028633,-23.80583954,-14.38290024,0
1517,1517,1.55965329102e+18,2.74461174,-5.745305538,-3.549694538,0
1518,1518,1.55965329108e+18,1.990664124,-7.468039513,-0.9810228348,0
1519,1519,1.55965329114e+18,-1.525875092,-6.591608047,0.711979866,0
1520,1520,1.5596532912e+18,-4.614728928,-1.75350368,-2.861450672,0
1521,1521,1.55965329126e+18,-1.303122044,-0.6330208778,-0.5504946709,0
1522,1522,1.55965329132e+18,2.618129253,1.908746958,-2.774712563,0
1523,1523,1.55965329138e+18,3.605652094,3.10449338,-2.83199358,0
1524,1524,1.55965329144e+18,4.457193375,-0.9237594604,-6.575870514,0
1525,1525,1.5596532915e+18,2.978711128,-2.453052282,-13.37293434,0
1526,1526,1.55965329156e+18,4.187734604,2.966419458,-18.22710228,0
1527,1527,1.55965329162e+18,2.734920979,-10.98987198,-6.847459316,0
1528,1528,1.55965329168e+18,-9.532632828,-20.89824486,17.86083412,0
1529,1529,1.55965329174e+18,-7.657012939,-15.66767979,-8.883140564,0
1530,1530,1.5596532918e+18,2.78166914,-8.028681755,-3.380716801,0
1531,1531,1.55965329186e+18,4.452440739,-14.90934849,-6.229045391,0
1532,1532,1.55965329192e+18,-5.421591282,-9.950825691,-2.863239765,0
1533,1533,1.55965329198e+18,-2.654770374,-1.611228228,-1.334681988,0
1534,1534,1.55965329204e+18,2.030434608,2.69108057,-0.5334100723,0
1535,1535,1.5596532921e+18,0.9920363426,6.219827175,-2.349641323,0
1536,1536,1.55965329216e+18,-3.346693516,-1.93809557,1.904533386,0
1537,1537,1.55965329222e+18,11.49116802,14.76503658,-11.89290333,0
1538,1538,1.55965329228e+18,3.520938873,6.364981174,-11.48818398,0
1539,1539,1.55965329234e+18,-3.86804986,-21.58509445,6.343270302,0
1540,1540,1.5596532924e+18,-2.766586304,-25.81264114,-0.847867012,0
1541,1541,1.55965329246e+18,-3.593072176,-17.43735695,-3.514938354,0
1542,1542,1.55965329252e+18,-0.7745556831,-4.196229458,-3.240396976,0
1543,1543,1.55965329258e+18,0.9820053577,-0.08781099319,-0.2978572845,0
1544,1544,1.55965329264e+18,-0.529112339,-0.733694315,-0.03262519836,0
1545,1545,1.5596532927e+18,-11.13339424,-7.920480251,1.176774025,0
1546,1546,1.55965329276e+18,-8.607834816,-1.628682494,1.212284088,0
1547,1547,1.55965329282e+18,-11.75994301,-2.330387831,-3.355080605,0
1548,1548,1.55965329288e+18,-2.039799213,-9.004270554,-0.2304925919,0
1549,1549,1.55965329294e+18,-7.421473503,-0.5003511906,-5.693413258,0
1550,1550,1.559653293e+18,-2.95442915,-7.383960247,-18.45927048,0
1551,1551,1.55965329306e+18,-4.616488934,-6.336674213,-21.49682045,0
1552,1552,1.55965329312e+18,-4.218082428,-16.45155334,-0.5539708138,0
1553,1553,1.55965329318e+18,-11.37550545,-30.32683945,8.461133003,0
1554,1554,1.55965329324e+18,-17.5103035,-11.64986038,15.00069332,0
1555,1555,1.5596532933e+18,-4.256614208,-2.793169975,16.66436005,0
1556,1556,1.55965329336e+18,0.7328865528,-3.397114754,3.678200245,0
1557,1557,1.55965329342e+18,2.440874815,-0.7510490417,3.124011993,0
1558,1558,1.55965329348e+18,1.806592464,0.05028963089,-3.539430141,0
1559,1559,1.55965329354e+18,-3.2069664,-1.462503433,3.646425247,0
1560,1560,1.5596532936e+18,-5.74909687,2.948715687,-2.6225667,0
1561,1561,1.55965329366e+18,-4.257844925,3.385582924,-3.477191448,0
1562,1562,1.55965329372e+18,-4.061324596,8.840768814,-7.443238735,0
1563,1563,1.55965329378e+18,-5.691718102,3.939004421,-11.76909065,0
1564,1564,1.55965329384e+18,0.8366727829,7.320030689,-7.380708694,0
1565,1565,1.5596532939e+18,1.794616699,-4.885408401,12.88627338,0
1566,1566,1.55965329396e+18,-3.695937395,-4.858193398,7.147455215,0
1567,1567,1.55965329402e+18,-8.568857193,-22.93785858,2.550942421,0
1568,1568,1.55965329408e+18,-7.434048653,-11.49451828,1.335386753,0
1569,1569,1.55965329414e+18,-7.690916061,-1.07869482,-0.4047369957,0
1570,1570,1.5596532942e+18,-5.035953522,-0.8437786102,-0.1661381721,0
1571,1571,1.55965329426e+18,-8.625781059,-7.357059002,-0.4625968933,0
1572,1572,1.55965329432e+18,-3.86592555,-3.360795975,-1.646761894,0
1573,1573,1.55965329438e+18,0.7822666168,2.883526325,-2.519902229,0
1574,1574,1.55965329444e+18,5.224977493,5.281728745,-2.317966461,0
1575,1575,1.5596532945e+18,1.394408941,4.155259132,-6.399579525,0
1576,1576,1.55965329456e+18,-2.501467943,6.290893555,-8.439266205,0
1577,1577,1.55965329462e+18,0.09601902962,12.17427254,-12.46562672,0
1578,1578,1.55965329468e+18,0.2800580263,-0.1833461821,-1.200537682,0
1579,1579,1.55965329474e+18,-1.050902724,-42.74007416,2.060721397,0
1580,1580,1.5596532948e+18,-0.8796184063,-25.2830658,-6.990818977,0
1581,1581,1.55965329486e+18,-5.197482586,-3.359129906,-1.384305477,0
1582,1582,1.55965329492e+18,4.16157341,-1.306496143,-1.66516161,0
1583,1583,1.55965329498e+18,0.6726145744,2.334119797,-1.559500217,0
1584,1584,1.55965329504e+18,-1.6118927,-1.111043215,-1.555749416,0
1585,1585,1.5596532951e+18,-0.476798296,-2.061836243,0.04554653168,0
1586,1586,1.55965329516e+18,0.3964776993,-1.319313765,-0.1502723694,0
1587,1587,1.55965329522e+18,-1.600526571,-0.4605166018,-3.387981415,0
1588,1588,1.55965329528e+18,-1.044330835,-0.5028362274,-1.945676804,0
1589,1589,1.55965329534e+18,3.141762018,5.867647648,-15.95690727,0
1590,1590,1.5596532954e+18,3.303784609,0.5694389343,-15.28494263,0
1591,1591,1.55965329546e+18,0.3195376396,-7.162893295,4.114097595,0
1592,1592,1.55965329552e+18,5.834092617,-15.2429266,-6.581283569,0
1593,1593,1.55965329558e+18,-9.528089523,-17.80755234,-3.744920492,0
1594,1594,1.55965329564e+18,-4.091938972,-5.898898602,2.509751797,0
1595,1595,1.5596532957e+18,-1.346532822,-1.181125164,3.064360142,0
1596,1596,1.55965329576e+18,-4.889836311,0.09172677994,1.587948322,0
1597,1597,1.55965329582e+18,2.296568632,-2.383969307,1.325839043,0
1598,1598,1.55965329588e+18,1.991643548,-5.654276371,-5.546438217,0
1599,1599,1.55965329594e+18,-0.4232800007,-0.7604715824,-3.179931641,0
1600,1600,1.559653296e+18,-1.993179321,-1.262503266,2.353868484,0
1601,1601,1.55965329606e+18,-1.162651062,-1.669674635,-15.85186577,0
1602,1602,1.55965329612e+18,3.819041967,2.668465614,-18.37573433,0
1603,1603,1.55965329618e+18,6.404056549,1.967639804,-8.494532585,0
1604,1604,1.55965329624e+18,0.5758686066,-3.53409791,3.840964317,0
1605,1605,1.5596532963e+18,4.307283401,-20.57052231,-4.345890999,0
1606,1606,1.55965329636e+18,-7.528659821,-15.10106182,-0.99025774,0
1607,1607,1.55965329642e+18,-3.366717339,-5.409418583,0.4767122269,0
1608,1608,1.55965329648e+18,1.90621376,-2.324230194,4.949451447,0
1609,1609,1.55965329654e+18,-0.74355793,0.9749693871,3.747276783,0
1610,1610,1.5596532966e+18,2.068766117,0.1743810177,1.367026329,0
1611,1611,1.55965329666e+18,2.955923557,0.1489992142,-1.872972488,0
1612,1612,1.55965329672e+18,1.396283627,1.930495858,-0.3964223862,0
1613,1613,1.55965329678e+18,-0.4668636322,-0.04464226961,-2.290330887,0
1614,1614,1.55965329684e+18,-7.917078972,-9.032440186,-4.109389782,0
1615,1615,1.5596532969e+18,6.87146759,5.478569031,-10.08993816,0
1616,1616,1.55965329696e+18,0.8144986629,-2.314698219,-9.768948555,0
1617,1617,1.55965329702e+18,2.983314991,-3.806061506,-4.866997719,0
1618,1618,1.55965329708e+18,-8.21411705,-12.13183212,-7.096447945,0
1619,1619,1.55965329714e+18,-4.059587955,-7.079228878,-5.099274158,0
1620,1620,1.5596532972e+18,11.38897705,-10.05594444,7.784351349,0
1621,1621,1.55965329726e+18,3.461203098,-5.546205044,5.955262184,0
1622,1622,1.55965329732e+18,-5.692782402,0.844479084,7.699690342,0
1623,1623,1.55965329738e+18,-0.2330403328,5.238749981,6.934580326,0
1624,1624,1.55965329744e+18,2.995015621,-3.143715858,-1.994746685,0
1625,1625,1.5596532975e+18,-0.5485138893,-5.769232273,-8.256558418,0
1626,1626,1.55965329756e+18,-1.303460598,-6.504533291,-8.696388245,0
1627,1627,1.55965329762e+18,3.704761982,4.107417583,-13.82118225,0
1628,1628,1.55965329768e+18,3.548874378,3.841743946,-7.981597424,0
1629,1629,1.55965329774e+18,7.786226749,4.682889462,0.4640908241,0
1630,1630,1.5596532978e+18,1.904931545,-3.662533283,8.977134705,0
1631,1631,1.55965329786e+18,6.837384224,-7.102002144,-4.148914814,0
1632,1632,1.55965329792e+18,-6.827271461,-13.7539463,2.589397192,0
1633,1633,1.55965329798e+18,-0.06612920761,-8.113368034,3.21626687,0
1634,1634,1.55965329804e+18,-1.415519238,-2.414912224,2.243755579,0
1635,1635,1.5596532981e+18,-1.469471455,-0.4744539261,1.422381639,0
1636,1636,1.55965329816e+18,4.301148415,-1.092555523,1.810227871,0
1637,1637,1.55965329822e+18,3.900243044,-2.105329275,-2.470239639,0
1638,1638,1.55965329828e+18,3.487833261,2.766412735,-1.358732224,0
1639,1639,1.55965329834e+18,2.039099932,4.620660782,-1.856473446,0
1640,1640,1.5596532984e+18,-2.645050526,-3.275622606,1.1245327,0
1641,1641,1.55965329846e+18,3.043653727,-4.414221764,-15.11891937,0
1642,1642,1.55965329852e+18,1.857907295,-1.284152269,-17.78497314,0
1643,1643,1.55965329858e+18,5.403796196,-2.966713428,0.2808690071,0
1644,1644,1.55965329864e+18,4.061680794,-19.25798416,4.196768761,0
1645,1645,1.5596532987e+18,-13.48928547,-9.875703812,-0.9666366577,0
1646,1646,1.55965329876e+18,-0.6709098816,-8.502031326,4.402583122,0
1647,1647,1.55965329882e+18,-6.092775822,-5.171434402,2.190968037,0
1648,1648,1.55965329888e+18,-2.725687027,-0.6781206131,2.481113911,0
1649,1649,1.55965329894e+18,7.275874615,2.348560572,3.580914974,0
1650,1650,1.559653299e+18,8.286444664,2.06080246,0.7792510986,0
1651,1651,1.55965329906e+18,-2.443764687,4.559596062,-0.096118927,0
1652,1652,1.55965329912e+18,-5.54613781,2.715168715,-5.893515587,0
1653,1653,1.55965329918e+18,-4.09442997,-2.118919373,-6.687260628,0
1654,1654,1.55965329924e+18,8.481519699,-7.9025774,-2.407691479,0
1655,1655,1.5596532993e+18,5.221920013,-0.02989435196,-14.5443306,0
1656,1656,1.55965329936e+18,5.697344303,-1.436228037,-7.812467575,0
1657,1657,1.55965329942e+18,-4.785132885,-20.8556366,0.4716873169,0
1658,1658,1.55965329948e+18,-13.60069847,-8.154379845,3.408512592,0
1659,1659,1.55965329954e+18,-6.768153667,-6.701618195,8.311906815,0
1660,1660,1.5596532996e+18,-5.124640465,-1.110641956,2.107723236,0
1661,1661,1.55965329966e+18,0.6919381618,1.099573612,-0.5872488022,0
1662,1662,1.55965329972e+18,1.337484837,3.151273727,-3.509384632,0
1663,1663,1.55965329978e+18,0.7159261107,2.663780689,-5.319233894,0
1664,1664,1.55965329984e+18,-1.075269699,1.556416273,-10.34562111,0
1665,1665,1.5596532999e+18,5.448436737,0.2950407267,-17.58446121,0
1666,1666,1.55965329996e+18,-10.62836552,-11.7430706,-0.5522375107,0
1667,1667,1.55965330002e+18,-0.725874424,-7.586601734,5.136123657,0
1668,1668,1.55965330008e+18,4.246050835,-16.88542175,3.390048504,0
1669,1669,1.55965330014e+18,-16.09719086,-12.30053425,-6.604421139,0
1670,1670,1.5596533002e+18,-5.223611832,3.165646076,1.27063179,0
1671,1671,1.55965330026e+18,0.1026194096,1.693415165,0.6329350471,0
1672,1672,1.55965330032e+18,-1.738907337,1.515719891,2.736275196,0
1673,1673,1.55965330038e+18,-5.199653149,-1.76909256,2.408099174,0
1674,1674,1.55965330044e+18,-6.110628605,-1.100865602,-5.494452953,0
1675,1675,1.5596533005e+18,-4.11015892,2.14479804,-7.918959141,0
1676,1676,1.55965330056e+18,-0.8763465881,0.6526792049,-15.95623207,0
1677,1677,1.55965330062e+18,10.69983864,3.083381176,-20.74701118,0
1678,1678,1.55965330068e+18,11.41182709,4.728674889,-9.78502655,0
1679,1679,1.55965330074e+18,4.968136787,-2.086908817,1.154474258,0
1680,1680,1.5596533008e+18,1.894003868,-37.92340469,-0.4251403809,0
1681,1681,1.55965330086e+18,-2.12353611,-19.02544403,1.11895895,0
1682,1682,1.55965330092e+18,4.249302864,-4.505306244,2.362172127,0
1683,1683,1.55965330098e+18,6.341212273,0.7214064598,0.1201777458,0
1684,1684,1.55965330104e+18,1.424468517,5.297437668,-1.534054279,0
1685,1685,1.5596533011e+18,1.74661541,2.096534014,0.1509947777,0
1686,1686,1.55965330116e+18,4.905045509,2.598616838,-0.1535282135,0
1687,1687,1.55965330122e+18,-3.840045452,5.369240284,-0.1646900177,0
1688,1688,1.55965330128e+18,-11.13783836,-2.691252232,-1.1943326,0
1689,1689,1.55965330134e+18,-9.067966461,-5.737496376,-4.996385574,0
1690,1690,1.5596533014e+18,11.86242962,-5.39345789,-10.06783867,0
1691,1691,1.55965330146e+18,5.658825874,-0.07103514671,-10.04873943,0
1692,1692,1.55965330152e+18,-2.145031214,-6.866952419,-3.528602123,0
1693,1693,1.55965330158e+18,0.4809708595,-12.51342869,-8.562828064,0
1694,1694,1.55965330164e+18,-3.796660662,-19.8477993,-0.7588400841,0
1695,1695,1.5596533017e+18,-3.317068577,-6.245099545,3.341125965,0
1696,1696,1.55965330176e+18,-3.654335976,-1.300928593,6.732359409,0
1697,1697,1.55965330182e+18,-1.399736404,1.576878309,2.431895256,0
1698,1698,1.55965330188e+18,-0.6042170525,4.459526539,0.3747110367,0
1699,1699,1.55965330194e+18,-0.7021956444,1.483223438,-2.21041441,0
1700,1700,1.559653302e+18,-0.171192646,-1.286320329,-4.488614559,0
1701,1701,1.55965330206e+18,-4.065500736,-0.4494402409,-4.083564758,0
1702,1702,1.55965330212e+18,-1.470613718,1.809607267,-5.03608799,0
1703,1703,1.55965330218e+18,7.772475719,2.471813679,-14.49581718,0
1704,1704,1.55965330224e+18,13.43724823,-7.116109371,-8.231291771,0
1705,1705,1.5596533023e+18,3.587843657,-8.93373394,-1.35055542,0
1706,1706,1.55965330236e+18,-2.266856432,-23.48545456,0.5945777893,0
1707,1707,1.55965330242e+18,-8.063232422,-14.14401722,-12.78859138,0
1708,1708,1.55965330248e+18,0.6409244537,-10.7248764,-2.511473894,0
1709,1709,1.55965330254e+18,0.1906633377,-3.374620914,14.02801895,0
1710,1710,1.5596533026e+18,-8.035840988,1.834548473,5.384158611,0
1711,1711,1.55965330266e+18,5.610185146,5.794625282,4.443353653,0
1712,1712,1.55965330272e+18,4.532214642,5.440605164,0.1672067642,0
1713,1713,1.55965330278e+18,1.505825043,-0.4262506962,-5.339718819,0
1714,1714,1.55965330284e+18,-3.738749027,-6.53509903,-6.512113571,0
1715,1715,1.5596533029e+18,1.810681939,-5.909536362,-4.904983521,0
1716,1716,1.55965330296e+18,3.442630291,5.720669746,-6.966230869,0
1717,1717,1.55965330302e+18,6.747676849,0.6223339438,-9.240180016,0
1718,1718,1.55965330308e+18,2.592199802,-10.02450085,-3.202906132,0
1719,1719,1.55965330314e+18,5.851771355,-11.55334091,-2.535531998,0
1720,1720,1.5596533032e+18,-10.69941521,-8.955904007,-3.097402811,0
1721,1721,1.55965330326e+18,-8.256764412,-12.07585716,-4.587248802,0
1722,1722,1.55965330332e+18,-6.016099453,-4.728125095,12.74782944,0
1723,1723,1.55965330338e+18,2.188420296,-0.7190680504,2.118134499,0
1724,1724,1.55965330344e+18,2.530064821,0.533936739,1.52837944,0
1725,1725,1.5596533035e+18,6.359893799,3.657973289,-2.674323082,0
1726,1726,1.55965330356e+18,5.839244843,0.1966084242,-5.34700489,0
1727,1727,1.55965330362e+18,2.178348541,-0.2683106661,-8.983622551,0
1728,1728,1.55965330368e+18,0.3507096767,3.784962654,-8.849392891,0
1729,1729,1.55965330374e+18,3.25019145,6.434065342,-6.663576603,0
1730,1730,1.5596533038e+18,1.045960188,-6.796254635,2.72325325,0
1731,1731,1.55965330386e+18,2.754651546,-19.80541229,-9.381198883,0
1732,1732,1.55965330392e+18,-14.38270855,-3.210294724,-4.476642609,0
1733,1733,1.55965330398e+18,3.621868849,-2.272358418,2.05099535,0
1734,1734,1.55965330404e+18,6.91064167,-4.718733788,4.64949131,0
1735,1735,1.5596533041e+18,-8.518156052,-6.352561951,7.45258379,0
1736,1736,1.55965330416e+18,-1.280121326,-1.078349113,4.506649971,0
1737,1737,1.55965330422e+18,4.893394947,1.734493732,-0.08671998978,0
1738,1738,1.55965330428e+18,-0.07150125504,-1.058853626,-10.89972019,0
1739,1739,1.55965330434e+18,-2.104438782,-0.6868000031,-7.906733036,0
1740,1740,1.5596533044e+18,3.951012611,7.392466068,-12.3133812,0
1741,1741,1.55965330446e+18,11.20287132,11.1037693,-10.23108959,0
1742,1742,1.55965330452e+18,2.172146797,-2.166534901,-0.7355594635,0
1743,1743,1.55965330458e+18,0.1779010296,-10.69840813,6.345338821,0
1744,1744,1.55965330464e+18,7.887354851,-15.36686134,-3.091699123,0
1745,1745,1.5596533047e+18,-6.488466263,-9.84965229,-1.668829918,0
1746,1746,1.55965330476e+18,-1.304698467,-0.83360672,1.160265446,0
1747,1747,1.55965330482e+18,1.616852999,4.202159882,0.7679934502,0
1748,1748,1.55965330488e+18,0.7837491035,-2.656367779,5.757409096,0
1749,1749,1.55965330494e+18,-0.9324965477,-2.633208513,4.462807655,0
1750,1750,1.559653305e+18,1.70480752,-0.9741265774,1.821088314,0
1751,1751,1.55965330506e+18,-1.858130455,-0.4189743996,-3.759748936,0
1752,1752,1.55965330512e+18,-0.6988143921,2.341282129,-6.520173073,0
1753,1753,1.55965330518e+18,1.85661602,2.028866768,-9.025665283,0
1754,1754,1.55965330524e+18,4.359717846,1.299481034,-0.09129047394,0
1755,1755,1.55965330529e+18,2.016611338,0.9785901308,-8.67732048,0
1756,1756,1.55965330535e+18,5.66114521,-1.489568472,-13.61248112,0
1757,1757,1.55965330541e+18,2.742945433,-12.54739571,0.7970371246,0
1758,1758,1.55965330547e+18,-6.205850601,-22.61365128,6.51366663,0
1759,1759,1.55965330553e+18,-2.759218693,-4.0265131,0.4962663651,0
1760,1760,1.55965330559e+18,1.767488241,2.06842041,1.785453796,0
1761,1761,1.55965330565e+18,3.058339596,3.555914879,1.26756382,0
1762,1762,1.55965330571e+18,-1.403584957,-3.910757542,0.8233218193,0
1763,1763,1.55965330577e+18,-3.74274683,-4.639251709,3.062636852,0
1764,1764,1.55965330583e+18,-2.540326595,0.2086544037,0.8856163025,0
1765,1765,1.55965330589e+18,0.6397767067,2.477547884,-1.109423637,0
1766,1766,1.55965330595e+18,4.4867239,9.495718956,-0.5296630859,0
1767,1767,1.55965330601e+18,6.636825562,8.527463913,1.38599968,0
1768,1768,1.55965330607e+18,6.283623695,4.065130234,-0.09109020233,0
1769,1769,1.55965330613e+18,-1.924197197,2.463172674,-5.950942993,0
1770,1770,1.55965330619e+18,-2.56822896,-2.889058113,-23.03460312,0
1771,1771,1.55965330625e+18,5.442273617,-3.784298658,3.426632881,0
1772,1772,1.55965330631e+18,17.5248909,-26.93810844,-6.242173672,0
1773,1773,1.55965330637e+18,-4.504541874,-4.87908411,-9.482309341,0
1774,1774,1.55965330643e+18,-2.779961586,-4.668170452,1.327366352,0
1775,1775,1.55965330649e+18,10.46383095,2.804456949,-1.71175766,0
1776,1776,1.55965330655e+18,-2.28331852,-0.7040910721,8.69420433,0
1777,1777,1.55965330661e+18,-4.954468727,-3.780369282,3.56002903,0
1778,1778,1.55965330667e+18,0.6525940895,-4.615898132,0.1615858078,0
1779,1779,1.55965330673e+18,6.6699543,0.2357046604,-2.872962952,0
1780,1780,1.55965330679e+18,2.77025485,5.491732121,-8.379898071,0
1781,1781,1.55965330685e+18,2.049794197,13.45634842,-15.66182899,0
1782,1782,1.55965330691e+18,12.13295174,7.038256168,-13.35702705,0
1783,1783,1.55965330697e+18,-0.4197573662,-10.84559917,4.767450333,0
1784,1784,1.55965330703e+18,0.815508604,-23.54006386,2.308869362,0
1785,1785,1.55965330709e+18,-6.843299389,-15.64545727,-4.082134247,0
1786,1786,1.55965330715e+18,1.504054785,-5.784073353,-0.3024716377,0
1787,1787,1.55965330721e+18,4.814494133,0.9653215408,5.748746872,0
1788,1788,1.55965330727e+18,0.9883229733,2.40079999,0.9919457436,0
1789,1789,1.55965330733e+18,-3.263947964,-1.636977434,0.9027519226,0
1790,1790,1.55965330739e+18,0.01829862595,-1.634477615,4.52573967,0
1791,1791,1.55965330745e+18,-2.292672396,-2.066789865,0.6959056854,0
1792,1792,1.55965330751e+18,-1.56959033,-3.856655121,-0.1386203766,0
1793,1793,1.55965330757e+18,1.925450325,-9.938000679,-9.155809402,0
1794,1794,1.55965330763e+18,7.060599804,3.539123535,-25.15474319,0
1795,1795,1.55965330769e+18,0.1671490669,3.199130058,-9.890799522,0
1796,1796,1.55965330775e+18,-2.738824368,-9.942931175,8.339045525,0
1797,1797,1.55965330781e+18,5.281946182,-19.9085598,-5.106842518,0
1798,1798,1.55965330787e+18,-13.57862091,-10.15417099,-1.927872658,0
1799,1799,1.55965330793e+18,-2.728697777,-3.387188911,0.3107028008,0
1800,1800,1.55965330799e+18,-3.199795246,1.321507931,0.4065508842,0
1801,1801,1.55965330805e+18,-2.462192059,1.280316353,1.145377159,0
