,Time (s),Acceleration x (m/s^2),Acceleration y (m/s^2),Acceleration z (m/s^2)
0,1.55965351605e+18,-1.482056141,-0.9409499764,5.660065651
1,1.5596535161e+18,-1.891477108,-1.374313712,1.769369125
2,1.55965351616e+18,-2.537931204,-5.159662247,-1.956122518
3,1.55965351621e+18,-1.517970204,-0.3615354896,-2.602576733
4,1.55965351626e+18,2.590605259,1.927391171,-7.644919395
5,1.55965351631e+18,0.3064671755,-0.6871568561,-1.664021015
6,1.55965351636e+18,-2.174001455,-9.763853073,13.51089287
7,1.55965351642e+18,-1.134886265,-20.31063271,17.66256523
8,1.55965351647e+18,-1.872322917,-21.7471981,6.816500187
9,1.55965351652e+18,-6.057515144,-13.36005306,11.34646797
10,1.55965351657e+18,-0.1723877788,-9.636956215,14.21002102
11,1.55965351662e+18,-1.915419817,-9.134158134,10.89873886
12,1.55965351668e+18,-3.849993944,-5.911464691,9.744698524
13,1.55965351673e+18,-3.840416908,-5.272192955,7.618582249
14,1.55965351678e+18,-2.578634024,-3.684788942,4.45574522
15,1.55965351683e+18,-2.274561167,-5.643305779,2.418217659
16,1.55965351688e+18,-1.71669507,-1.817254543,6.40468502
17,1.55965351694e+18,0.6608198285,4.055901527,-1.879505754
18,1.55965351699e+18,6.653689861,7.623371124,-7.132544518
19,1.55965351704e+18,3.87872529,4.098998547,-1.71669507
20,1.55965351709e+18,0.7039167881,-5.042342663,7.173247337
21,1.55965351714e+18,-3.948159218,-29.10480499,23.12869453
22,1.5596535172e+18,-3.134105682,-25.12791443,3.545921087
23,1.55965351725e+18,-3.802108288,-17.11667061,3.160442829
24,1.5596535173e+18,-4.649681568,-13.15653992,7.36000061
25,1.55965351735e+18,-4.170826912,-10.70480251,10.50128937
26,1.5596535174e+18,-4.783761024,-5.944984436,6.122160912
27,1.55965351746e+18,-3.129317284,-3.325647593,7.395915031
28,1.55965351751e+18,-2.791724443,-2.578634024,6.83086586
29,1.55965351756e+18,-4.49644804,-1.218685865,5.822876453
30,1.55965351761e+18,-3.519583941,-0.4908263385,3.126922846
31,1.55965351766e+18,-1.927391171,2.856369734,-1.371919513
32,1.55965351772e+18,1.850774407,5.099805355,-4.980091572
33,1.55965351777e+18,-0.1125309169,3.656057596,-3.73267436
34,1.55965351782e+18,0.2753416002,-2.243435383,4.051113129
35,1.55965351787e+18,-4.11336422,-21.93634605,20.13585091
36,1.55965351792e+18,2.887495518,-20.7463913,6.900300026
37,1.55965351798e+18,-5.1333251,-21.20848656,2.406246185
38,1.55965351803e+18,-4.108575344,-15.26589584,6.12694931
39,1.55965351808e+18,-3.201145411,-11.79419804,7.010436535
40,1.55965351813e+18,-2.0375278,-8.731920242,7.510839939
41,1.55965351818e+18,-2.604970932,-5.650488377,8.095043182
42,1.55965351824e+18,-1.924996972,-3.131711483,5.844424725
43,1.55965351829e+18,-0.462095052,-2.930592299,6.964945316
44,1.55965351834e+18,-0.335198462,-1.443747759,1.905842781
45,1.55965351839e+18,-0.2059076279,-0.5889915824,6.316096783
46,1.55965351844e+18,1.206714511,0.332804203,2.743839025
47,1.5596535185e+18,1.247417212,0.1819648892,1.405439258
48,1.55965351855e+18,1.259388566,2.367937803,-2.686376333
49,1.5596535186e+18,-2.604970932,-5.071074009,3.179596901
50,1.55965351865e+18,-1.951334,-12.31136131,12.78063869
51,1.5596535187e+18,-3.03115201,-21.13665771,7.61379385
52,1.55965351876e+18,-5.135719299,-23.0185585,3.87872529
53,1.55965351881e+18,-4.527573586,-13.74313736,6.450176239
54,1.55965351886e+18,-4.477293968,-12.16770458,9.433443069
55,1.55965351891e+18,-2.473285913,-9.35203743,8.504464149
56,1.55965351896e+18,-4.652075768,-6.272999763,7.93223238
57,1.55965351902e+18,-3.083826065,-3.893090725,6.028783798
58,1.55965351907e+18,-3.809291124,-5.954561234,-0.7326480746
59,1.55965351912e+18,-3.474092722,-19.18053627,0.8954587579
60,1.55965351917e+18,-2.083019018,-18.18212318,2.557085514
61,1.55965351922e+18,-5.794145107,-13.37681293,6.495667458
62,1.55965351928e+18,-6.081458092,-9.809344292,7.927443981
63,1.55965351933e+18,-4.503631115,-5.559505939,6.828471661
64,1.55965351938e+18,-1.596981287,-2.664827824,9.366402626
65,1.55965351943e+18,0.8858816624,-0.2011190802,8.794171333
66,1.55965351948e+18,1.450930476,-0.07661679387,6.612987041
67,1.55965351954e+18,0.8739103079,-1.031932473,2.825244188
68,1.55965351959e+18,-3.22269392,-4.098998547,2.231464148
69,1.55965351964e+18,-0.5818088055,-0.7709565163,-7.072687626
70,1.55965351969e+18,4.067873001,-1.163617611,-9.33767128
71,1.55965351974e+18,-5.375146866,-17.55961227,11.37041092
72,1.5596535198e+18,-0.6201171875,-24.06964493,6.828471661
73,1.55965351985e+18,-2.264983892,-21.38087463,4.92023468
74,1.5596535199e+18,-7.570696831,-13.77186871,5.478100777
75,1.55965351995e+18,-4.11336422,-13.20681953,11.82053471
76,1.55965352e+18,-2.695953369,-9.445414543,8.226728439
77,1.55965352006e+18,-3.876330853,-5.430215359,8.660092354
78,1.55965352011e+18,-0.4477293789,-4.424619675,8.197997093
79,1.55965352016e+18,-2.341600657,-2.995237827,2.604970932
80,1.55965352021e+18,-2.011190891,-1.376708031,8.425453186
81,1.55965352026e+18,0.9146129489,0.3256213665,4.211529255
82,1.55965352032e+18,1.434170604,3.849993944,-4.836435318
83,1.55965352037e+18,0.3423812985,2.004008055,-9.624984741
84,1.55965352042e+18,-1.606558442,-3.447755814,-2.640885115
85,1.55965352047e+18,-2.894678354,-7.86519289,7.901106834
86,1.55965352052e+18,-8.887548447,-19.23081589,13.75989723
87,1.55965352058e+18,-11.09746361,-28.95875359,3.148471355
88,1.55965352063e+18,-6.258634567,-17.65538216,8.669669151
89,1.55965352068e+18,-4.170826912,-11.69363785,13.04161453
90,1.55965352073e+18,-5.868367672,-8.935433388,10.14933109
91,1.55965352078e+18,-4.9609375,-6.138920784,7.958569527
92,1.55965352084e+18,-3.378321648,-5.276981831,7.309720993
93,1.55965352089e+18,-5.928224564,-3.574652195,3.419024467
94,1.55965352094e+18,-5.468523502,-0.5818088055,5.018400192
95,1.55965352099e+18,-1.309668303,1.247417212,5.276981831
96,1.55965352104e+18,1.486844659,2.463708878,0.5171633363
97,1.5596535211e+18,1.522758722,3.253819466,-2.985660791
98,1.55965352115e+18,1.649655342,0.7278595567,-3.344801903
99,1.5596535212e+18,0.7781392932,-1.92978549,-1.331216812
100,1.55965352125e+18,-1.939362645,-7.029590607,4.503631115
101,1.5596535213e+18,-6.861991405,-17.83255959,15.47419834
102,1.55965352136e+18,3.510006905,-15.62743187,-1.640078187
103,1.55965352141e+18,-19.04406166,-24.56765366,1.594586968
104,1.55965352146e+18,-5.933012962,-12.84288979,3.88111949
105,1.55965352151e+18,-4.154066563,-12.57952023,9.174860954
106,1.55965352156e+18,-5.085439682,-9.49569416,6.866780281
107,1.55965352162e+18,-4.881926537,-8.099831581,7.541965485
108,1.55965352167e+18,-3.706337452,-6.074275017,8.691217422
109,1.55965352172e+18,-0.6536370516,-2.595393896,8.564320564
110,1.55965352177e+18,0.1173194647,-0.5195576549,7.204372883
111,1.55965352182e+18,0.7972934842,0.8116591573,7.120573044
112,1.55965352188e+18,2.071047783,0.6249057055,6.16765213
113,1.55965352193e+18,7.805335999,5.628940105,5.98089838
114,1.55965352198e+18,7.616188049,3.263396502,7.094236374
115,1.55965352203e+18,4.010410309,7.984906673,0.9792584181
116,1.55965352208e+18,-2.892283916,-5.207547665,-2.370332003
117,1.55965352214e+18,-8.602629662,-27.5724678,-6.514821529
118,1.55965352219e+18,-8.071100235,-15.79742527,-3.469304085
119,1.55965352224e+18,0.3280156553,-15.37363815,4.728692532
120,1.55965352229e+18,2.080624819,-14.46860313,14.15016365
121,1.55965352234e+18,-6.589044094,-14.59310532,18.80702782
122,1.5596535224e+18,-2.609759569,-10.77423668,18.05522728
123,1.55965352245e+18,-7.170853138,-7.534782887,18.35690498
124,1.5596535225e+18,-2.748627424,-4.498842239,13.92270756
125,1.55965352255e+18,-0.1795706153,-4.326454639,10.58269501
126,1.5596535226e+18,1.383890867,-7.058321953,7.072687626
127,1.55965352265e+18,0.6775797606,-5.284164429,2.451737404
128,1.55965352271e+18,-5.865973473,-3.598595142,-2.384697676
129,1.55965352276e+18,-2.573845387,5.253038883,6.452570438
130,1.55965352281e+18,-2.023162127,3.651269197,-0.483643502
131,1.55965352286e+18,-0.3112557232,1.391073704,-2.243435383
132,1.55965352291e+18,-2.291321039,-2.360754967,4.003227711
133,1.55965352297e+18,-10.38157558,-8.988107681,14.29382038
134,1.55965352302e+18,2.442160368,-6.814105988,-2.882706881
135,1.55965352307e+18,-5.480494976,-21.44791412,11.17647457
136,1.55965352312e+18,-13.86763954,-16.56359291,4.936994553
137,1.55965352317e+18,-5.274587631,-10.61142635,9.443019867
138,1.55965352323e+18,-4.479688168,-8.983319283,8.736708641
139,1.55965352328e+18,-5.126142502,-7.410280704,7.843644142
140,1.55965352333e+18,-4.003227711,-6.438204765,8.655303001
141,1.55965352338e+18,-5.837242126,-3.821262598,5.63851738
142,1.55965352343e+18,-0.6727912426,0.03830839694,6.680026531
143,1.55965352349e+18,1.510787368,0.1005595401,1.920208454
144,1.55965352354e+18,2.078230619,2.688770533,-7.307326794
145,1.55965352359e+18,2.463708878,1.137280583,-7.707170486
146,1.55965352364e+18,0.9050358534,-2.655250788,1.989642382
147,1.55965352369e+18,-3.241847992,-8.147717476,13.31695652
148,1.55965352375e+18,-3.737462997,-20.60512924,16.89879227
149,1.5596535238e+18,-2.865947008,-22.33618927,5.085439682
150,1.55965352385e+18,-5.681613922,-13.53962421,6.296942711
151,1.5596535239e+18,-7.711959362,-11.20999432,5.243461609
152,1.55965352395e+18,-6.548341751,-10.1062336,9.656110764
153,1.55965352401e+18,0.7015225291,-6.694392204,8.071100235
154,1.55965352406e+18,-2.147664547,-6.876357079,6.675238132
155,1.55965352411e+18,-0.2466102988,-4.913052082,6.878751755
156,1.55965352416e+18,-0.8499675393,-2.181184292,5.631334305
157,1.55965352421e+18,-3.395081758,2.327235222,6.93860817
158,1.55965352427e+18,2.983266354,5.06867981,-4.56109333
159,1.55965352432e+18,4.479688168,5.336838722,-3.0119977
160,1.55965352437e+18,0.4860377908,1.491633177,1.44135344
161,1.55965352442e+18,-5.039948463,-11.83968925,11.54998207
162,1.55965352447e+18,-5.312895775,-22.61631966,15.62743187
163,1.55965352453e+18,-0.1149251908,-22.96588326,1.338399649
164,1.55965352458e+18,-4.87953186,-12.39755535,3.778165579
165,1.55965352463e+18,-6.857203007,-10.31932449,6.495667458
166,1.55965352468e+18,-5.976109982,-7.328875065,9.969759941
167,1.55965352473e+18,-4.103786945,-3.893090725,9.304151535
168,1.55965352479e+18,-3.040729046,-3.294522047,7.589851379
169,1.55965352484e+18,-0.22266756,-3.026363373,8.865999222
170,1.55965352489e+18,1.331216812,-5.229096413,5.257827282
171,1.55965352494e+18,-0.7805336118,-2.595393896,9.601041794
172,1.55965352499e+18,-0.4309694767,-0.1221080124,-3.038334846
173,1.55965352505e+18,1.252205729,1.072635174,-9.024022102
174,1.5596535251e+18,0.8763045669,-1.668809533,-1.704723716
175,1.55965352515e+18,-2.69116497,-12.5962801,13.10865498
176,1.5596535252e+18,-5.111776829,-21.94592285,11.63856983
177,1.55965352525e+18,-0.7110996246,-19.02969551,6.019207001
178,1.55965352531e+18,-5.085439682,-11.82053471,6.227508545
179,1.55965352536e+18,-6.196382999,-10.29777622,8.530800819
180,1.55965352541e+18,-6.117372036,-8.933039665,7.685622215
181,1.55965352546e+18,-3.952947617,-7.273807049,9.919480324
182,1.55965352551e+18,-4.637710094,-5.789356709,7.50844574
183,1.55965352557e+18,-2.427794695,-4.60179615,6.44538784
184,1.55965352562e+18,-1.233051538,-3.201145411,4.060689926
185,1.55965352567e+18,-3.129317284,-1.139674783,7.522811413
186,1.55965352572e+18,-1.740637779,0.591385901,1.192348838
187,1.55965352577e+18,3.102980137,4.043930054,-4.319271564
188,1.55965352583e+18,1.218685865,-0.1771763414,-1.587404251
189,1.55965352588e+18,-0.6967339516,-3.713520288,3.287339211
190,1.55965352593e+18,-5.044736862,-12.2131958,14.30100346
191,1.55965352598e+18,0.5075862408,-16.08952713,7.285778046
192,1.55965352603e+18,-6.538764477,-21.56044388,4.965725899
193,1.55965352609e+18,-6.852414608,-12.01447105,4.254626274
194,1.55965352614e+18,-8.58108139,-9.622590065,6.44778204
195,1.55965352619e+18,-6.419050694,-8.291373253,8.707977295
196,1.55965352624e+18,-1.680780888,-5.760625362,8.79656601
197,1.55965352629e+18,-3.950553417,-4.39109993,7.465348721
198,1.55965352635e+18,-2.284138203,-3.059883118,6.462147713
199,1.5596535264e+18,-6.835654736,-7.850827217,7.877163887
200,1.55965352645e+18,2.238646984,-2.463708878,8.286584854
201,1.5596535265e+18,0.1699935049,1.814860344,-7.984906673
202,1.55965352655e+18,0.01197137404,2.82045579,-8.05194664
203,1.55965352661e+18,3.112557173,1.089395046,-2.379909277
204,1.55965352666e+18,-5.806116581,-12.80937004,14.53803635
205,1.55965352671e+18,-7.86758709,-21.99380875,13.63060665
206,1.55965352676e+18,-3.620143414,-19.61389923,0.2801301479
207,1.55965352681e+18,-6.201171875,-12.30417824,6.344828129
208,1.55965352687e+18,-4.64249897,-8.559532166,6.356799603
209,1.55965352692e+18,-3.442967176,-7.472531796,7.075081825
210,1.55965352697e+18,-5.382329941,-6.507638931,4.77418375
211,1.55965352702e+18,-5.176422119,-5.901887417,6.811711788
212,1.55965352707e+18,-3.976890564,-3.715914488,6.392713547
213,1.55965352713e+18,-3.275367975,-2.712713242,7.374366283
214,1.55965352718e+18,-1.778946161,-2.492439985,6.289760113
215,1.55965352723e+18,-0.7709565163,-0.7565908432,9.687235832
216,1.55965352728e+18,-2.875524044,-0.4237866402,4.106181145
217,1.55965352733e+18,0.7565908432,3.37113905,-2.37512064
218,1.55965352739e+18,2.317657948,0.9960182905,-0.03112557158
219,1.55965352744e+18,-5.075862408,-9.273026466,12.74711895
220,1.55965352749e+18,-4.180403709,-10.96338463,6.464541912
221,1.55965352754e+18,1.084606528,-21.92437363,3.565075159
222,1.55965352759e+18,-7.82688427,-16.11825752,4.817280769
223,1.55965352765e+18,-7.846038342,-11.01366425,6.86917448
224,1.5596535277e+18,-5.564294815,-9.519637108,8.142929077
225,1.55965352775e+18,-4.659258842,-6.65847826,9.17725563
226,1.5596535278e+18,-5.818087578,-6.268211365,7.477320194
227,1.55965352785e+18,-2.648067951,-5.480494976,7.577879906
228,1.55965352791e+18,-5.923435688,-6.009629726,6.768614769
229,1.55965352796e+18,-4.75024128,-2.504411459,5.973715782
230,1.55965352801e+18,0.3687183261,-0.002394274808,1.970488191
231,1.55965352806e+18,3.249030828,1.61134696,-3.146077156
232,1.55965352811e+18,3.141288519,-0.6823683381,-3.335224867
233,1.55965352817e+18,0.0287312977,-4.685595989,1.386285067
234,1.55965352822e+18,-1.340793848,-8.142929077,8.43742466
235,1.55965352827e+18,-4.865166187,-15.79742527,16.9610424
236,1.55965352832e+18,1.917814136,-15.01928616,3.452544212
237,1.55965352837e+18,-8.05194664,-18.19648933,6.601015568
238,1.55965352843e+18,-6.342433929,-9.692024231,5.257827282
239,1.55965352848e+18,-6.411868095,-8.322499275,6.414262295
240,1.55965352853e+18,-2.351177931,-7.031985283,7.223526955
241,1.55965352858e+18,-1.845985889,-7.522811413,8.839662552
242,1.55965352863e+18,-1.845985889,-6.62016964,7.237892628
243,1.55965352869e+18,-2.102173328,-4.951360226,5.959350109
244,1.55965352874e+18,-4.702355862,-4.204346657,11.25788021
245,1.55965352879e+18,-2.482862949,-1.170800328,4.527573586
246,1.55965352884e+18,-1.415016413,1.807677507,-1.163617611
247,1.55965352889e+18,1.091789365,2.643279314,-4.077449799
248,1.55965352895e+18,-1.201925993,-0.5099805593,0.8882759809
249,1.559653529e+18,-8.150111198,-6.680026531,10.90352726
250,1.55965352905e+18,-6.308914185,-15.34969616,11.85405445
251,1.5596535291e+18,-3.691971779,-23.43276787,6.179623127
252,1.55965352915e+18,-7.889135361,-13.0918951,4.798126698
253,1.55965352921e+18,-6.730306625,-8.640937805,6.72551775
254,1.55965352926e+18,-7.67843914,-8.054340363,7.788576126
255,1.55965352931e+18,-4.992063046,-5.873156071,7.300143719
256,1.55965352936e+18,-4.817280769,-5.087833881,6.332856655
257,1.55965352941e+18,-2.116539001,-4.374340057,8.107014656
258,1.55965352947e+18,-0.6536370516,-6.65847826,3.380716085
259,1.55965352952e+18,-5.801327705,0.05985686928,2.339206457
260,1.55965352957e+18,2.432583094,2.88510108,1.256994247
261,1.55965352962e+18,4.2426548,3.560286522,-2.609759569
262,1.55965352967e+18,1.525153041,0.8284190893,0.5674431324
263,1.55965352973e+18,-5.530774593,-10.45819283,10.42467213
264,1.55965352978e+18,-4.058295727,-20.12866783,16.40078163
265,1.55965352983e+18,-1.764580488,-21.27552605,-0.1771763414
266,1.55965352988e+18,-7.355212212,-13.06795216,3.634509087
267,1.55965352993e+18,-4.027170181,-9.447808266,8.006455421
268,1.55965352999e+18,-6.572284222,-8.63375473,9.002472878
269,1.55965353004e+18,-5.19797039,-6.093429565,6.517216206
270,1.55965353009e+18,-3.639297724,-5.32007885,6.957762718
271,1.55965353014e+18,-2.597788095,-4.012804508,7.898712635
272,1.55965353019e+18,-3.577046633,-2.772570133,5.080651283
273,1.55965353025e+18,-2.935380936,-2.164424419,3.749434233
274,1.5596535303e+18,-3.179596901,-1.50599885,5.825270653
275,1.55965353035e+18,-2.054287672,-0.03830839694,-0.3759011328
276,1.5596535304e+18,3.035940409,1.256994247,-3.821262598
277,1.55965353045e+18,1.922602654,-0.9960182905,-3.373533249
278,1.55965353051e+18,-2.272166729,-9.668081284,8.087860107
279,1.55965353056e+18,-4.683201313,-20.27232552,17.71284485
280,1.55965353061e+18,2.578634024,-17.64341164,2.755810261
281,1.55965353066e+18,-3.131711483,-15.29462719,4.611373425
282,1.55965353071e+18,-2.133298874,-10.79578495,6.402290821
283,1.55965353077e+18,-4.448562622,-10.67128277,11.43026829
284,1.55965353082e+18,-3.993650436,-8.212362289,11.38717079
285,1.55965353087e+18,-0.3759011328,-4.829252243,9.196409225
286,1.55965353092e+18,-1.285725594,-6.074275017,7.984906673
287,1.55965353097e+18,1.434170604,-7.965752125,2.578634024
288,1.55965353103e+18,-6.186806202,-2.964112282,5.863578796
289,1.55965353108e+18,0.3759011328,1.862745762,-0.04309694469
290,1.55965353113e+18,1.477267504,4.00562191,-4.786155224
291,1.55965353118e+18,2.018373728,3.502824068,-4.458139896
292,1.55965353123e+18,2.614548206,2.159635782,-4.953754425
293,1.55965353129e+18,-3.955342054,-11.73912907,9.24429512
294,1.55965353134e+18,-8.526012421,-24.01457596,23.44473839
295,1.55965353139e+18,-0.03591412306,-23.12390518,3.265790939
296,1.55965353144e+18,-6.27539444,-16.21881676,3.94576478
297,1.55965353149e+18,-5.176422119,-12.66331959,7.288172722
298,1.55965353155e+18,-2.205127001,-10.92268181,11.01366425
299,1.5596535316e+18,-2.039922237,-6.378347874,9.81413269
300,1.55965353165e+18,-2.288926601,-3.893090725,7.666468143
301,1.5596535317e+18,-2.257801056,-1.065452337,4.910657406
302,1.55965353175e+18,-2.343995094,0.1508393139,4.168432236
303,1.55965353181e+18,-4.422225475,1.180377483,5.02558279
304,1.55965353186e+18,-3.126922846,1.48445034,6.749460697
305,1.55965353191e+18,-1.860351562,3.701548815,3.955342054
306,1.55965353196e+18,0.09098244458,3.110162973,1.553884387
307,1.55965353201e+18,1.345582485,1.867534399,0.7063110471
308,1.55965353207e+18,-3.727885962,-7.271412373,9.514847755
309,1.55965353212e+18,-4.9609375,-4.151672363,9.780612946
310,1.55965353217e+18,0.9050358534,-8.447001457,-3.73267436
311,1.55965353222e+18,-12.78063869,-19.24996948,14.25551224
312,1.55965353227e+18,-10.53480911,-14.02805614,15.61306572
313,1.55965353233e+18,-5.298530102,-7.261835575,12.49571991
314,1.55965353238e+18,-4.312088966,-5.473312378,10.30016994
315,1.55965353243e+18,-4.022381783,-4.968120098,10.63776302
316,1.55965353248e+18,-2.255406857,-4.28335762,10.61142635
317,1.55965353253e+18,-3.462121487,-2.083019018,7.422251701
318,1.55965353259e+18,-2.432583094,-1.268965602,7.185218811
319,1.55965353264e+18,-4.412648678,2.523565531,6.680026531
320,1.55965353269e+18,-0.7685621977,3.543526649,5.152479172
321,1.55965353274e+18,0.5411061049,2.952140808,0.4597007632
322,1.55965353279e+18,1.968093872,-2.492439985,-2.980872154
323,1.55965353285e+18,-0.962498486,-6.835654736,-5.245856285
324,1.5596535329e+18,-2.33441782,-12.53163433,1.350371003
325,1.55965353295e+18,-5.262616158,-17.70087433,9.356825829
326,1.559653533e+18,1.242628574,-16.94907188,2.911438227
327,1.55965353305e+18,-2.741444588,-16.54683304,14.07115269
328,1.55965353311e+18,-4.793338299,-12.36642933,15.5675745
329,1.55965353316e+18,-5.439792156,-10.64255142,12.94823837
330,1.55965353321e+18,-6.263422966,-8.418270111,12.67289639
331,1.55965353326e+18,-3.833234072,-6.220325947,11.04000092
332,1.55965353331e+18,-2.449343204,-6.601015568,7.683228016
333,1.55965353337e+18,-2.281744003,-7.376760483,7.235498428
334,1.55965353342e+18,-3.658451796,-4.733481407,2.063864946
335,1.55965353347e+18,0.9816526771,3.292127848,4.817280769
336,1.55965353352e+18,0.5746259689,3.993650436,-3.124528646
337,1.55965353357e+18,4.757423878,5.897099018,-5.959350109
338,1.55965353363e+18,0.9984126091,1.86514008,-2.217098475
339,1.55965353368e+18,-0.5387118459,-2.853975534,5.351204395
340,1.55965353373e+18,-6.742278099,-14.99773693,16.4558506
341,1.55965353378e+18,-0.5746259689,-24.1055584,9.33767128
342,1.55965353383e+18,-4.716721535,-24.54610443,4.333637238
343,1.55965353389e+18,-5.310501575,-13.27864838,2.212309837
344,1.55965353394e+18,-6.16765213,-11.81814003,8.564320564
345,1.55965353399e+18,-0.5315290093,-8.719948769,11.09746361
346,1.55965353404e+18,-2.712713242,-4.970514297,7.063110828
347,1.55965353409e+18,-2.35596633,-6.155680656,6.893116951
348,1.55965353415e+18,-2.889889717,-4.769395351,3.632114887
349,1.5596535342e+18,-3.469304085,-4.965725899,6.718335152
350,1.55965353425e+18,-1.764580488,1.376708031,3.806896925
351,1.5596535343e+18,2.909043789,5.722316742,-7.237892628
352,1.55965353435e+18,3.275367975,3.433390141,-2.533142805
353,1.55965353441e+18,1.86514008,0.5794144869,0.1340793967
354,1.55965353446e+18,-2.205127001,-11.20281219,13.36005306
355,1.55965353451e+18,-7.807730198,-19.77192116,13.6545496
356,1.55965353456e+18,3.761405706,-21.42875862,1.0606637
357,1.55965353461e+18,-7.446194649,-14.02087307,4.822069645
358,1.55965353467e+18,-6.12934351,-11.08070374,5.724710941
359,1.55965353472e+18,-4.403071404,-10.43424988,5.858790398
360,1.55965353477e+18,-2.916226625,-7.860404015,6.27539444
361,1.55965353482e+18,-3.682394743,-5.06628561,6.44538784
362,1.55965353487e+18,-3.770982742,-4.343214512,6.809317589
363,1.55965353493e+18,-1.053480864,-1.659232497,4.867560863
364,1.55965353498e+18,-2.58581686,-0.6632141471,7.659285069
365,1.55965353503e+18,0.1771763414,0.5674431324,8.79656601
366,1.55965353508e+18,3.708731651,0.7757450342,9.950606346
367,1.55965353513e+18,0.6009629965,2.636096478,3.591412306
368,1.55965353519e+18,3.466909885,3.974496126,-1.850774407
369,1.55965353524e+18,-2.174001455,-2.705530643,-1.755003452
370,1.55965353529e+18,-5.552323341,-12.53642273,8.60741806
371,1.55965353534e+18,-2.583422422,-12.0001049,10.18045616
372,1.55965353539e+18,-0.7374366522,-28.62116051,3.100585938
373,1.55965353545e+18,-4.067873001,-18.17015076,7.410280704
374,1.5596535355e+18,2.118933201,-10.96338463,11.60026169
375,1.55965353555e+18,-7.585062504,-9.359220505,11.13098335
376,1.5596535356e+18,-7.71914196,-6.751854897,10.11102295
377,1.55965353565e+18,-4.156461239,-5.590631485,10.0487709
378,1.55965353571e+18,-7.276201248,-4.738269806,-8.909096718
379,1.55965353576e+18,-3.249030828,-5.128536701,8.660092354
380,1.55965353581e+18,-2.236252785,0.646454215,3.392687321
381,1.55965353586e+18,-2.305686712,3.419024467,0.1723877788
382,1.55965353591e+18,-1.743032098,3.313676357,-0.335198462
383,1.55965353597e+18,-2.703136206,0.967287004,0.04549122229
384,1.55965353602e+18,-2.423006058,-0.2250618339,-0.2154847383
385,1.55965353607e+18,-0.950527072,-2.346389294,-0.01436564885
386,1.55965353612e+18,-4.034353256,-8.710371971,7.520417213
387,1.55965353617e+18,-5.432609558,-12.28981304,9.273026466
388,1.55965353623e+18,0.7877163887,-22.89645004,1.247417212
389,1.55965353628e+18,-6.378347874,-20.40161514,9.833286285
390,1.55965353633e+18,-3.430995703,-11.45899963,8.643332481
391,1.55965353638e+18,-4.412648678,-10.8101511,12.45022869
392,1.55965353643e+18,-4.43180275,-8.638543129,8.91149044
393,1.55965353649e+18,-2.126116037,-8.619389534,9.787795067
394,1.55965353654e+18,-2.851581335,-7.515628815,8.95219326
395,1.55965353659e+18,-10.25946712,-6.349617004,8.470944405
396,1.55965353664e+18,-5.008822918,-1.16601181,3.931399345
397,1.55965353669e+18,-0.483643502,1.731060743,1.005595446
398,1.55965353675e+18,-1.256994247,2.478074312,-1.743032098
399,1.5596535368e+18,-1.051086664,0.8739103079,-2.26977253
400,1.55965353685e+18,1.65444386,0.29689008,-2.188367128
401,1.5596535369e+18,-0.6632141471,-6.708757877,5.509226322
402,1.55965353695e+18,-4.017592907,-10.33368969,11.14295483
403,1.55965353701e+18,-1.041509509,-17.72002792,9.27063179
404,1.55965353706e+18,-3.213116884,-21.21566963,5.327261448
405,1.55965353711e+18,-8.226728439,-14.88999462,2.525959969
406,1.55965353716e+18,-4.082238674,-12.3879776,7.283383846
407,1.55965353721e+18,-2.719896078,-10.58269501,9.186832428
408,1.55965353727e+18,-4.211529255,-8.178842545,8.197997093
409,1.55965353732e+18,-3.696760416,-6.098217964,9.287391663
410,1.55965353737e+18,-3.33043623,-2.001613855,7.154093266
411,1.55965353742e+18,-1.78134048,-2.746233225,9.301757812
412,1.55965353747e+18,-1.091789365,-2.418217659,5.995264053
413,1.55965353753e+18,-0.5339232683,-1.130097747,3.304099321
414,1.55965353758e+18,1.652049661,0.8140534163,-4.848406315
415,1.55965353763e+18,2.901860952,0.8810931444,-5.085439682
416,1.55965353768e+18,-0.22266756,-2.224281311,-0.7972934842
417,1.55965353773e+18,-2.293715239,-7.407886028,8.229122162
418,1.55965353779e+18,-10.252285,-16.92752266,16.38162804
419,1.55965353784e+18,5.06867981,-21.15581131,1.520364523
420,1.55965353789e+18,-12.13897324,-15.82136822,6.014418125
421,1.55965353794e+18,-6.172440529,-10.2666502,8.075888634
422,1.55965353799e+18,-1.472478986,-8.638543129,9.634561539
423,1.55965353805e+18,-6.76622057,-6.732700825,8.030397415
424,1.5596535381e+18,-3.950553417,-5.27937603,7.793364525
425,1.55965353815e+18,-4.273780346,-3.87872529,5.923435688
426,1.5596535382e+18,-0.9361614585,-2.959323645,-0.4668835998
427,1.55965353825e+18,-2.485257149,2.470891714,3.660846233
428,1.55965353831e+18,2.276955366,7.051139355,-7.510839939
429,1.55965353836e+18,2.46131444,2.174001455,-0.6847625971
430,1.55965353841e+18,-3.385504484,-0.1460507661,3.900273561
431,1.55965353846e+18,-6.182017326,-12.74472523,13.16611671
432,1.55965353851e+18,1.012778282,-19.58995628,3.888302326
433,1.55965353857e+18,-7.951386452,-19.41996384,7.321692467
434,1.55965353862e+18,-7.029590607,-9.407105446,7.491685867
435,1.55965353867e+18,-3.531555414,-9.146129608,11.61941528
436,1.55965353872e+18,-3.974496126,-7.436617374,8.573898315
437,1.55965353877e+18,-4.877137661,-5.494860649,6.859597206
438,1.55965353883e+18,-4.11097002,-4.091815472,6.16765213
439,1.55965353888e+18,-2.351177931,-1.520364523,5.473312378
440,1.55965353893e+18,-2.293715239,0.1867534369,4.38870573
441,1.55965353898e+18,-4.094210148,-1.137280583,3.512401104
442,1.55965353903e+18,1.374313712,-0.7996878028,2.37512064
443,1.55965353909e+18,0.3423812985,0.668002665,-3.265790939
444,1.55965353914e+18,-2.954535007,-6.014418125,7.896318436
445,1.55965353919e+18,-5.49007225,-5.224307537,9.780612946
446,1.55965353924e+18,6.251451492,-19.91557693,3.66802907
447,1.55965353929e+18,-15.34969616,-15.37363815,7.319298267
448,1.55965353934e+18,-4.058295727,-8.978530884,12.21080112
449,1.5596535394e+18,-3.864359617,-8.200390816,9.897932053
450,1.55965353945e+18,-4.829252243,-7.170853138,7.005648136
451,1.5596535395e+18,-3.026363373,-5.317684174,6.48609066
452,1.55965353955e+18,-2.403851986,-2.88510108,8.250671387
453,1.5596535396e+18,-4.415042877,1.417410731,8.485309601
454,1.55965353966e+18,-3.246636629,0.7733507752,8.913885117
455,1.55965353971e+18,-3.198751211,0.7925049663,6.019207001
456,1.55965353976e+18,-1.343188167,0.01436564885,5.106987953
457,1.55965353981e+18,-1.699935079,1.273754239,6.97691679
458,1.55965353986e+18,-2.547508478,5.53316927,6.296942711
459,1.55965353992e+18,-1.678386688,3.378321648,6.198777676
460,1.55965353997e+18,2.564268351,1.173194647,-5.820482254
461,1.55965354002e+18,2.614548206,-8.221940041,-8.846845627
462,1.55965354007e+18,-7.252258301,-24.77835083,15.47180367
463,1.55965354012e+18,0.5698373914,-15.49095821,7.61379385
464,1.55965354018e+18,-10.87479591,-17.36088753,13.73356056
465,1.55965354023e+18,-5.396695614,-11.81335163,12.76866722
466,1.55965354028e+18,-1.50599885,-8.645726204,9.873989105
467,1.55965354033e+18,-4.848406315,-6.797346115,8.46376133
468,1.55965354038e+18,-5.049525738,-5.305713177,8.327287674
469,1.55965354044e+18,-4.968120098,-4.45574522,8.267431259
470,1.55965354049e+18,-5.138113976,-5.564294815,8.174054146
471,1.55965354054e+18,-19.79107475,-27.32106972,14.95224571
472,1.55965354059e+18,-0.3375927508,-3.43578434,-2.897072554
473,1.55965354064e+18,-2.205127001,7.537177086,-11.32252598
474,1.55965354069e+18,8.849239349,13.36723614,-7.479714394
475,1.55965354075e+18,-4.175615311,-6.105400562,10.23073673
476,1.5596535408e+18,-9.897932053,-15.81179047,15.65616322
477,1.55965354085e+18,1.170800328,-31.92047119,5.348809719
478,1.5596535409e+18,-5.978504181,-18.49816704,5.763019562
479,1.55965354095e+18,-1.170800328,-10.21876526,7.71914196
480,1.55965354101e+18,-3.131711483,-6.979310989,7.709564686
481,1.55965354106e+18,-5.609786034,-5.06867981,9.397528648
482,1.55965354111e+18,-4.692778587,-3.033546209,7.568302631
483,1.55965354116e+18,-5.657671452,-1.743032098,7.834067345
484,1.55965354121e+18,-3.888302326,0.3543526828,7.410280704
485,1.55965354127e+18,-2.513988495,-1.795706153,6.598621368
486,1.55965354132e+18,-3.854782343,-4.848406315,9.598648071
487,1.55965354137e+18,2.949746609,0.1125309169,-5.954561234
488,1.55965354142e+18,0.5004034638,-2.815667152,-4.793338299
489,1.55965354147e+18,-5.267404556,-7.668862343,7.273807049
490,1.55965354153e+18,-5.588237286,-9.227535248,15.08632565
491,1.55965354158e+18,3.976890564,-19.15419769,7.484503269
492,1.55965354163e+18,-11.59547329,-13.39357281,9.663292885
493,1.55965354168e+18,-5.650488377,-7.079870701,10.54678059
494,1.55965354173e+18,-0.2442160249,-7.671256542,12.24192715
495,1.55965354179e+18,-4.592218876,-6.873962879,8.6888237
496,1.55965354184e+18,-2.681587696,-6.112583637,9.720755577
497,1.55965354189e+18,-2.652856588,-2.394274712,7.36239481
498,1.55965354194e+18,-3.586623669,-1.740637779,9.534002304
499,1.55965354199e+18,-5.758230686,-1.898659945,8.178842545
500,1.55965354205e+18,1.261782765,-0.8619389534,6.162863255
501,1.5596535421e+18,0.5291347504,1.570644259,-5.854001999
502,1.55965354215e+18,-0.7948992252,-0.8739103079,-4.058295727
503,1.5596535422e+18,-1.616135478,-5.140508175,6.452570438
504,1.55965354225e+18,-3.976890564,-5.971321583,9.045570374
505,1.55965354231e+18,3.37113905,-14.98097706,3.94576478
506,1.55965354236e+18,-16.25712585,-16.71443176,12.27544689
507,1.55965354241e+18,-4.666441441,-8.894730568,12.22037888
508,1.55965354246e+18,-3.88111949,-7.405491829,12.09108734
509,1.55965354251e+18,-6.481301785,-5.806116581,9.550762177
510,1.55965354257e+18,-3.505218267,-5.34641552,9.189227104
511,1.55965354262e+18,-5.66485405,-3.658451796,6.569890022
512,1.55965354267e+18,-7.36239481,-0.3256213665,7.89152956
513,1.55965354272e+18,-5.870761871,1.426987767,7.027196407
514,1.55965354277e+18,-4.575459003,0.7901107073,6.929031372
515,1.55965354283e+18,-3.708731651,-1.352765322,5.413455486
516,1.55965354288e+18,0.9601042271,-2.559479713,3.332830429
517,1.55965354293e+18,3.519583941,-1.096577883,-4.917840481
518,1.55965354298e+18,-0.3591412306,-2.446948767,-3.471698523
519,1.55965354303e+18,-0.7709565163,-5.791750908,5.083045483
520,1.55965354309e+18,-1.63289547,-8.451789856,11.10943508
521,1.55965354314e+18,1.960911036,-15.89080143,13.7766571
522,1.55965354319e+18,-15.445467,-22.94194031,9.476539612
523,1.55965354324e+18,-8.775016785,-11.53082752,8.229122162
524,1.55965354329e+18,-3.141288519,-9.859623909,14.3441
525,1.55965354335e+18,-4.206740856,-5.205153465,8.834874153
526,1.5596535434e+18,-4.314483166,-3.526766777,8.032792091
527,1.55965354345e+18,-3.416630268,-2.899466753,6.464541912
528,1.5596535435e+18,-2.755810261,-2.995237827,5.229096413
529,1.55965354355e+18,-2.58821106,-2.006402254,3.265790939
530,1.55965354361e+18,-6.014418125,-1.541913033,1.036720991
531,1.55965354366e+18,6.502850533,4.824463844,1.592192769
532,1.55965354371e+18,3.512401104,3.517189741,-5.154873848
533,1.55965354376e+18,1.33600533,-0.5458946824,0.3064671755
534,1.55965354381e+18,-1.29290843,-7.065505028,8.097437859
535,1.55965354387e+18,-6.428627968,-22.55885696,17.23638344
536,1.55965354392e+18,2.604970932,-24.74004173,2.293715239
537,1.55965354397e+18,-7.156487465,-14.95703506,2.806090117
538,1.55965354402e+18,-6.035966873,-10.24270725,7.513234138
539,1.55965354407e+18,-3.193962574,-9.052753448,10.0822916
540,1.55965354413e+18,-3.921822071,-5.870761871,6.150891781
541,1.55965354418e+18,-4.692778587,-4.422225475,5.640911579
542,1.55965354423e+18,-3.110162973,-3.598595142,7.063110828
543,1.55965354428e+18,-4.316877365,-5.755836487,6.399896622
544,1.55965354433e+18,-3.993650436,-1.628106833,7.551542759
545,1.55965354439e+18,-2.387091875,0.7637736797,1.683175206
546,1.55965354444e+18,1.429382086,3.167625666,-2.533142805
547,1.55965354449e+18,2.01597929,1.0606637,-1.726272106
548,1.55965354454e+18,-1.180377483,-4.630527496,7.65210247
549,1.55965354459e+18,-4.00562191,-4.407859802,9.469356537
550,1.55965354465e+18,1.630501151,-23.03531837,5.090228081
551,1.5596535447e+18,-14.81337833,-18.01452446,7.393520832
552,1.55965354475e+18,-3.150865555,-9.783006668,10.30016994
553,1.5596535448e+18,-1.71669507,-7.357606411,8.379961967
554,1.55965354485e+18,-6.356799603,-6.184412003,7.925049782
555,1.55965354491e+18,-4.846012115,-4.42940855,7.913078308
556,1.55965354496e+18,-4.302511692,-3.313676357,9.095849991
557,1.55965354501e+18,-2.940169573,-2.549902678,5.17402792
558,1.55965354506e+18,-6.153286457,-3.344801903,4.910657406
559,1.55965354511e+18,-4.695172787,-2.511594296,3.440572977
560,1.55965354517e+18,1.101366401,3.040729046,-3.067065954
561,1.55965354522e+18,0.5123748183,1.431776285,-2.063864946
562,1.55965354527e+18,-1.376708031,-5.348809719,7.697593689
563,1.55965354532e+18,-6.189200401,-6.55073595,10.66409969
564,1.55965354537e+18,3.102980137,-14.37522602,6.790163517
565,1.55965354543e+18,-15.90995598,-19.53009987,5.332049847
566,1.55965354548e+18,-7.659285069,-8.35601902,7.697593689
567,1.55965354553e+18,-1.489238977,-8.224333763,13.93946838
568,1.55965354558e+18,-6.071880817,-6.44778204,7.917866707
569,1.55965354563e+18,-4.656864643,-5.640911579,8.75586319
570,1.55965354569e+18,-4.743058205,-3.818868399,7.33605814
571,1.55965354574e+18,-4.201952457,-2.470891714,7.209161282
572,1.55965354579e+18,-5.142902374,-1.573038578,5.322473049
573,1.55965354584e+18,-2.782147408,0.3232271075,11.02563572
574,1.55965354589e+18,0.3399870098,1.261782765,-2.257801056
575,1.55965354595e+18,2.329629421,1.996825218,-6.960156918
576,1.559653546e+18,-1.0175668,-2.281744003,0.5004034638
577,1.55965354605e+18,-1.862745762,-5.822876453,7.640130997
578,1.5596535461e+18,-8.061523438,-14.93548584,15.31378174
579,1.55965354615e+18,1.467690468,-17.51651382,6.790163517
580,1.55965354621e+18,-11.02563572,-15.32096481,8.107014656
581,1.55965354626e+18,-4.987274647,-9.672870636,7.965752125
582,1.55965354631e+18,-3.64887476,-8.195602417,9.150918007
583,1.55965354636e+18,-4.846012115,-6.261028767,7.556331158
584,1.55965354641e+18,-3.914639235,-4.860377789,6.634535313
585,1.55965354647e+18,-3.586623669,-3.749434233,6.213143349
586,1.55965354652e+18,-3.45733285,-2.983266354,5.686402798
587,1.55965354657e+18,-3.083826065,-2.315263748,3.835628271
588,1.55965354662e+18,-1.175588965,-0.4261809289,6.280182838
589,1.55965354667e+18,3.478881359,3.79492569,-1.218685865
590,1.55965354673e+18,-1.755003452,-0.4309694767,1.561067224
591,1.55965354678e+18,-4.889109135,-5.310501575,10.54917526
592,1.55965354683e+18,0.2561874092,-8.341653824,9.205986977
593,1.55965354688e+18,-5.437397957,-21.61790657,4.678412914
594,1.55965354693e+18,-18.42873383,-10.18285084,5.375146866
595,1.55965354699e+18,-2.604970932,-7.264229774,10.72874546
596,1.55965354704e+18,-2.600182533,-6.421444893,9.809344292
597,1.55965354709e+18,-7.371972084,-5.602602959,6.572284222
598,1.55965354714e+18,-4.984879971,-5.32007885,6.431022167
599,1.55965354719e+18,-4.412648678,-4.994457245,6.533976078
600,1.55965354725e+18,-3.404658794,-2.868341208,3.996044636
601,1.5596535473e+18,-4.206740856,-1.558672905,0.5650488734
602,1.55965354735e+18,0.3782954216,0.8308133483,5.576265812
603,1.5596535474e+18,-0.1077423692,2.250618219,1.426987767
604,1.55965354745e+18,-0.1867534369,-1.383890867,3.385504484
605,1.55965354751e+18,-6.308914185,-6.720729351,8.854028702
606,1.55965354756e+18,-3.20353961,-7.958569527,15.28026199
607,1.55965354761e+18,2.751021862,-16.49655342,2.949746609
608,1.55965354766e+18,-7.472531796,-14.02087307,10.22594738
609,1.55965354771e+18,-6.261028767,-5.399089813,7.747873306
610,1.55965354777e+18,-6.438204765,-6.859597206,10.1014452
611,1.55965354782e+18,-7.252258301,-5.32007885,8.28897953
612,1.55965354787e+18,-2.384697676,-4.886714935,9.909903526
613,1.55965354792e+18,-5.226701736,-4.00562191,8.090254784
614,1.55965354797e+18,-2.935380936,-3.165231228,6.12694931
615,1.55965354803e+18,-3.938581944,-3.165231228,5.336838722
616,1.55965354808e+18,-3.404658794,-2.621730804,3.366350412
617,1.55965354813e+18,-3.033546209,-2.784541607,4.527573586
618,1.55965354818e+18,0.4573064744,1.115732074,-4.692778587
619,1.55965354823e+18,1.012778282,-1.877111435,-0.3639297783
620,1.55965354829e+18,-3.13889432,-8.767834663,12.36882401
621,1.55965354834e+18,-4.084632874,-12.00489426,16.4750042
622,1.55965354839e+18,0.09098244458,-18.20606613,7.039167881
623,1.55965354844e+18,-5.715134144,-11.56913567,6.596227169
624,1.55965354849e+18,-8.279402733,-6.842837334,6.229903221
625,1.55965354855e+18,-6.754249096,-7.182824612,9.088666916
626,1.5596535486e+18,-6.253845692,-4.613767624,6.007235527
627,1.55965354865e+18,-1.996825218,-4.175615311,8.142929077
628,1.5596535487e+18,-3.043123245,-3.234665155,6.660872459
629,1.55965354875e+18,-2.806090117,-2.389486313,7.67843914
630,1.55965354881e+18,-2.202732801,-1.063058019,3.840416908
631,1.55965354886e+18,-3.533949614,-0.316044271,7.778998852
632,1.55965354891e+18,3.833234072,3.354378939,-1.482056141
633,1.55965354896e+18,0.5578660369,0.8930644989,-3.392687321
634,1.55965354901e+18,-2.154847383,-5.442186832,10.41030693
635,1.55965354907e+18,-3.361561775,-4.925023079,9.775823593
636,1.55965354912e+18,-0.4908263385,-20.76794052,6.62016964
637,1.55965354917e+18,-11.79659176,-16.43909073,7.929838181
638,1.55965354922e+18,-5.083045483,-8.090254784,8.968953133
639,1.55965354927e+18,-3.672817469,-7.127756119,10.62100315
640,1.55965354933e+18,-5.317684174,-4.908263206,8.978530884
641,1.55965354938e+18,-4.096604347,-3.782954216,8.339259148
642,1.55965354943e+18,-4.130124092,-2.324840784,7.178035736
643,1.55965354948e+18,-2.956929445,-1.769369125,6.730306625
644,1.55965354953e+18,-2.346389294,-1.395862222,5.727105141
645,1.55965354959e+18,-2.822849989,-1.683175206,5.365570068
646,1.55965354964e+18,-0.22266756,-0.9313728809,7.182824612
647,1.55965354969e+18,2.281744003,1.027143836,-0.59378016
648,1.55965354974e+18,-1.448536277,-1.723877907,-0.8356019258
649,1.55965354979e+18,-3.565075159,-6.914665699,7.424646378
650,1.55965354985e+18,-1.036720991,-8.961771011,13.7862339
651,1.5596535499e+18,1.142069101,-18.68492126,2.049499273
652,1.55965354995e+18,-9.148524284,-17.0472374,9.493299484
653,1.55965355e+18,-4.625739098,-6.852414608,7.994483471
654,1.55965355005e+18,-5.011217117,-7.233104229,11.54998207
655,1.55965355011e+18,-7.65449667,-5.042342663,9.040781975
656,1.55965355016e+18,-2.810878515,-4.381523132,8.921068192
657,1.55965355021e+18,-4.556304932,-3.73267436,7.498868465
658,1.55965355026e+18,-3.529160976,-3.433390141,5.640911579
659,1.55965355031e+18,-6.220325947,-2.734261751,4.826858044
660,1.55965355037e+18,-4.510813713,-1.199531674,4.122941017
661,1.55965355042e+18,0.3184385598,-2.842004299,8.449396133
662,1.55965355047e+18,1.182771802,3.153259993,-1.470084786
663,1.55965355052e+18,3.842811108,2.104567528,-4.790944099
664,1.55965355057e+18,-1.419804931,-3.885908127,3.471698523
665,1.55965355063e+18,-4.767001152,-7.714353561,14.40874577
666,1.55965355068e+18,0.964892745,-15.81657982,14.76070404
667,1.55965355073e+18,-6.344828129,-20.35372925,5.561900616
668,1.55965355078e+18,-10.53959751,-10.56832886,5.365570068
669,1.55965355083e+18,-2.940169573,-7.884346962,9.605830193
670,1.55965355089e+18,-3.921822071,-7.034379482,9.443019867
671,1.55965355094e+18,-5.499649048,-5.684008598,8.779806137
672,1.55965355099e+18,-4.757423878,-3.531555414,8.188420296
673,1.55965355104e+18,-2.679193497,-2.24822402,8.447001457
674,1.55965355109e+18,-3.232270956,-1.946545362,5.49007225
675,1.55965355115e+18,-2.518777132,1.324033976,8.32968235
676,1.5596535512e+18,2.202732801,1.403045058,4.458139896
677,1.55965355125e+18,-0.7422251701,1.455719113,-1.805283189
678,1.5596535513e+18,-0.5363175869,-1.843591571,-0.6177229285
679,1.55965355135e+18,-3.258608103,-6.280182838,4.419831276
680,1.55965355141e+18,-7.812518597,-16.68570137,10.53002071
681,1.55965355146e+18,0.9313728809,-18.43831062,3.407052994
682,1.55965355151e+18,-1.747820616,-13.57793236,9.112609863
683,1.55965355156e+18,-3.969707727,-9.409500122,13.30737972
684,1.55965355161e+18,-5.760625362,-8.233911514,11.94982529
685,1.55965355167e+18,-5.854001999,-4.70953846,9.335277557
686,1.55965355172e+18,-4.503631115,-1.862745762,9.665687561
687,1.55965355177e+18,-4.17800951,-0.4357580245,8.351230621
688,1.55965355182e+18,-4.17800951,-0.1268965602,7.558725357
689,1.55965355187e+18,-4.508419514,-0.2537931204,6.450176239
690,1.55965355193e+18,-3.533949614,-0.3543526828,5.185999393
691,1.55965355198e+18,-3.677606106,-1.628106833,3.660846233
692,1.55965355203e+18,-0.09816526622,-2.753416061,1.78134048
693,1.55965355208e+18,-0.629694283,-2.506805658,-0.8763045669
694,1.55965355213e+18,0.4429408312,-2.873129845,-0.5794144869
695,1.55965355219e+18,-2.576239586,-9.383162498,10.62100315
696,1.55965355224e+18,-3.34959054,-17.13821983,13.57074928
697,1.55965355229e+18,-7.50605154,-22.1542244,8.107014656
698,1.55965355234e+18,-8.339259148,-10.58269501,9.205986977
699,1.55965355239e+18,-0.7805336118,-8.710371971,12.91471863
700,1.55965355245e+18,-2.90664959,-6.114977837,7.178035736
701,1.5596535525e+18,-6.828471661,-5.080651283,7.539571285
702,1.55965355255e+18,-4.843617916,-4.084632874,6.823683262
703,1.5596535526e+18,-3.742251635,-4.575459003,5.976109982
704,1.55965355265e+18,-1.960911036,-4.03195858,3.739857197
705,1.55965355271e+18,-9.672870636,-4.539545059,2.097384691
706,1.55965355276e+18,1.242628574,4.333637238,4.422225475
707,1.55965355281e+18,3.124528646,6.143709183,-3.390293121
708,1.55965355286e+18,-0.277735889,-1.953728199,3.483669758
709,1.55965355291e+18,-1.352765322,-11.58829021,12.15812778
710,1.55965355297e+18,-7.805335999,-22.58519363,5.34641552
711,1.55965355302e+18,-4.74784708,-22.25478363,4.393494129
712,1.55965355307e+18,-2.82045579,-13.05598068,8.039975166
713,1.55965355312e+18,-4.228289127,-10.83648777,8.913885117
714,1.55965355317e+18,-3.584229469,-6.802134514,4.580247879
715,1.55965355323e+18,-3.572257996,-4.38870573,6.65847826
716,1.55965355328e+18,-1.108549237,-2.731867552,8.200390816
717,1.55965355333e+18,-2.535537004,-1.544307232,8.913885117
718,1.55965355338e+18,-2.24822402,-0.8978530765,8.456578255
719,1.55965355343e+18,-2.14048171,-0.6967339516,6.366376877
720,1.55965355349e+18,-2.37272644,-1.209108829,2.231464148
721,1.55965355354e+18,0.2801301479,-0.5315290093,1.508393168
722,1.55965355359e+18,-0.1508393139,0.3543526828,-1.000806928
723,1.55965355364e+18,-2.351177931,-3.474092722,4.21871233
724,1.55965355369e+18,-6.816500187,-10.88916206,14.21720409
725,1.55965355375e+18,0.9337671995,-19.63305283,6.100612164
726,1.5596535538e+18,-8.923461914,-19.47742462,2.861158371
727,1.55965355385e+18,-4.405465603,-10.11581135,6.442993641
728,1.5596535539e+18,-4.975303173,-7.489291668,8.880365372
729,1.55965355395e+18,-4.089421272,-5.70316267,10.63057995
730,1.55965355401e+18,-4.999245644,-3.33043623,9.677659035
731,1.55965355406e+18,-6.103006363,-1.934574008,8.571503639
732,1.55965355411e+18,-5.784567833,0.2059076279,5.909070015
733,1.55965355416e+18,-4.139701366,-0.09337671846,4.520390987
734,1.55965355421e+18,-3.220299721,-0.9960182905,3.134105682
735,1.55965355427e+18,-0.9026415944,-2.818061352,1.180377483
736,1.55965355432e+18,-0.3615354896,0.9026415944,1.03911531
737,1.55965355437e+18,2.576239586,0.668002665,-1.97288239
738,1.55965355442e+18,0.9720755816,-2.504411459,3.694365978
739,1.55965355447e+18,-2.478074312,-10.89155579,12.15094471
740,1.55965355453e+18,-1.853168726,-20.88765335,11.59068394
741,1.55965355458e+18,-5.032765865,-22.60674286,5.037554264
742,1.55965355463e+18,-6.61777544,-11.63378143,5.925830364
743,1.55965355468e+18,-2.377514839,-9.275420189,9.871595383
744,1.55965355473e+18,-2.760598898,-6.751854897,8.37038517
745,1.55965355479e+18,-6.055120945,-5.55711174,9.047964096
746,1.55965355484e+18,-2.937775135,-4.56109333,7.422251701
747,1.55965355489e+18,-1.403045058,-3.976890564,6.572284222
748,1.55965355494e+18,0.8379961848,-1.65444386,5.511620522
749,1.55965355499e+18,1.106154919,0.44533512,4.867560863
750,1.55965355505e+18,-0.7374366522,0.1963305324,6.416656494
751,1.5596535551e+18,0.4046324492,-1.307274103,12.39037228
752,1.55965355515e+18,0.962498486,0.8260248303,11.55955887
753,1.5596535552e+18,0.4261809289,0.9601042271,-0.0837996155
754,1.55965355525e+18,-2.157241583,-3.742251635,-4.017592907
755,1.55965355531e+18,-7.812518597,-14.92590904,4.728692532
756,1.55965355536e+18,-5.329655647,-16.23797226,4.886714935
757,1.55965355541e+18,-6.694392204,-19.73361206,8.597841263
758,1.55965355546e+18,-1.54670155,-8.856422424,12.52684593
759,1.55965355551e+18,-0.7805336118,-9.443019867,15.7375679
760,1.55965355557e+18,-5.525986195,-8.64812088,8.968953133
761,1.55965355562e+18,-4.939388752,-6.83086586,11.62420464
762,1.55965355567e+18,-2.456526041,-5.109382629,10.06074238
763,1.55965355572e+18,-2.391880512,-3.392687321,8.071100235
764,1.55965355577e+18,-2.921015263,-2.013585091,6.366376877
765,1.55965355582e+18,-3.395081758,-1.585009933,6.572284222
766,1.55965355588e+18,-3.028757572,-0.1316851079,1.836408734
767,1.55965355593e+18,-6.229903221,0.1388679445,3.419024467
768,1.55965355598e+18,-1.769369125,-0.3878725171,0.2729473412
769,1.55965355603e+18,1.563461423,-0.9816526771,0.6249057055
770,1.55965355608e+18,-0.646454215,-3.629720688,7.520417213
771,1.55965355614e+18,-5.111776829,-4.996851444,9.622590065
772,1.55965355619e+18,2.406246185,-6.294548512,6.861991405
773,1.55965355624e+18,-9.835680962,-18.56760025,13.13020325
774,1.55965355629e+18,-8.178842545,-7.515628815,10.05116558
775,1.55965355634e+18,-2.135693073,-5.49007225,13.58990383
776,1.5596535564e+18,-3.122134447,-4.769395351,11.06154919
777,1.55965355645e+18,-3.998438835,-4.592218876,9.917086601
778,1.5596535565e+18,-2.561874151,-3.433390141,8.997684479
779,1.55965355655e+18,-2.921015263,-4.223500729,8.348835945
780,1.5596535566e+18,-2.094990492,-4.85558939,8.200390816
781,1.55965355666e+18,-3.102980137,-2.676799297,2.499622822
782,1.55965355671e+18,-2.652856588,-0.2513988614,3.043123245
783,1.55965355676e+18,3.933793545,1.381496549,-4.556304932
784,1.55965355681e+18,1.999219418,0.2609759569,-3.016786337
785,1.55965355686e+18,1.795706153,-2.964112282,4.089421272
786,1.55965355692e+18,-5.159662247,-11.09267521,15.36884975
787,1.55965355697e+18,-1.800494671,-18.91716576,13.88439941
788,1.55965355702e+18,-12.59867382,-19.77192116,3.560286522
789,1.55965355707e+18,-6.603409767,-9.794978142,8.097437859
790,1.55965355712e+18,-4.067873001,-6.565101624,10.45100975
791,1.55965355718e+18,-3.830839634,-6.510033131,8.916279793
792,1.55965355723e+18,-6.680026531,-5.636122704,7.673650742
793,1.55965355728e+18,-2.188367128,-4.11336422,10.02961731
794,1.55965355733e+18,-3.656057596,-3.519583941,7.276201248
795,1.55965355738e+18,-4.66883564,0.009577099234,7.070293427
796,1.55965355744e+18,-3.268185139,0.8595446348,8.147717476
797,1.55965355749e+18,-2.26977253,0.6416656375,5.265010357
798,1.55965355754e+18,-0.02394274808,-0.09816526622,3.629720688
799,1.55965355759e+18,1.771763325,1.043903828,-2.583422422
800,1.55965355764e+18,1.137280583,-0.928978622,-0.1125309169
801,1.5596535577e+18,-2.731867552,-6.574678421,7.561120033
802,1.55965355775e+18,-3.73267436,-14.13340378,13.93707371
803,1.5596535578e+18,-2.087807655,-14.81337833,5.74386549
804,1.55965355785e+18,-12.01207638,-12.88119888,2.842004299
805,1.5596535579e+18,-8.552350044,-7.54914856,8.291373253
806,1.55965355796e+18,-4.723904133,-7.314509392,12.3879776
807,1.55965355801e+18,-7.585062504,-6.208354473,9.411893845
808,1.55965355806e+18,-5.98089838,-4.743058205,8.164477348
809,1.55965355811e+18,-4.551516533,-2.952140808,7.623371124
810,1.55965355816e+18,-2.205127001,-1.455719113,7.328875065
811,1.55965355822e+18,-1.304879785,0.1268965602,6.816500187
812,1.55965355827e+18,-0.8715160489,0.06225114316,5.889915943
813,1.55965355832e+18,-1.438959122,-2.75820446,0.926584363
814,1.55965355837e+18,0.4070267081,0.2394274771,-0.01915419847
815,1.55965355842e+18,-0.8188419938,0.3735068738,-4.118152618
816,1.55965355848e+18,-0.8739103079,-5.332049847,3.890696526
817,1.55965355853e+18,-6.87156868,-13.36244774,14.19804955
818,1.55965355858e+18,-0.3950553536,-16.82217407,8.090254784
819,1.55965355863e+18,-6.198777676,-17.80622101,5.21473074
820,1.55965355868e+18,-6.244268894,-10.75029373,8.482915878
821,1.55965355874e+18,-4.889109135,-9.510059357,11.34167957
822,1.55965355879e+18,-3.687183142,-7.127756119,8.233911514
823,1.55965355884e+18,-4.453351021,-5.403878212,8.954587936
824,1.55965355889e+18,-2.145270348,-4.975303173,8.406298637
825,1.55965355894e+18,-2.537931204,-3.459727049,5.722316742
826,1.559653559e+18,-1.585009933,-2.470891714,6.045543671
827,1.55965355905e+18,-6.016812801,-2.308080912,7.127756119
828,1.5596535591e+18,-2.190761566,-1.405439258,5.339232922
829,1.55965355915e+18,-1.795706153,1.177983165,0.9696813226
830,1.5596535592e+18,-1.939362645,0.5195576549,3.064671755
831,1.55965355926e+18,-4.740664005,-4.223500729,6.708757877
832,1.55965355931e+18,-4.958543301,-8.684034348,10.42467213
833,1.55965355936e+18,-7.668862343,-7.280989647,5.722316742
834,1.55965355941e+18,1.922602654,-14.60268211,1.043903828
835,1.55965355946e+18,-2.592999697,-17.71045113,11.09028053
836,1.55965355952e+18,-7.240286827,-10.30256462,8.818114281
837,1.55965355957e+18,-4.407859802,-9.739910126,8.892336845
838,1.55965355962e+18,-2.796513081,-10.13257122,9.49569416
839,1.55965355967e+18,-3.723097324,-8.846845627,7.570696831
840,1.55965355972e+18,-4.228289127,-7.458166122,5.700768471
841,1.55965355978e+18,-3.581835032,-5.001639843,4.383917332
842,1.55965355983e+18,-0.7757450342,-0.7829278708,4.877137661
843,1.55965355988e+18,-0.4381522834,1.170800328,3.186779737
844,1.55965355993e+18,1.113337755,0.5075862408,-0.634482801
845,1.55965355998e+18,2.571451187,-0.2442160249,-4.304905891
846,1.55965356004e+18,0.6009629965,-7.561120033,10.87000751
847,1.55965356009e+18,-5.765413761,-7.656890869,1.690358043
848,1.55965356014e+18,-6.565101624,-24.19175339,13.98735332
849,1.55965356019e+18,9.220352173,-18.057621,-0.9337671995
850,1.55965356024e+18,-5.193181992,-13.50131607,1.010383964
851,1.5596535603e+18,-8.435029984,-12.75190735,6.665660858
852,1.55965356035e+18,-3.957736254,-9.35203743,5.877944469
853,1.5596535604e+18,-7.896318436,-9.452596664,11.29618835
854,1.55965356045e+18,-7.36239481,-6.313702583,8.815719604
855,1.5596535605e+18,-7.245075703,-4.39109993,5.676825523
856,1.55965356056e+18,-5.090228081,-1.551490068,3.162837029
857,1.55965356061e+18,-2.614548206,-0.6656084061,3.220299721
858,1.55965356066e+18,-1.927391171,0.5171633363,2.626519442
859,1.55965356071e+18,-0.2537931204,0.7015225291,1.453324795
860,1.55965356076e+18,2.35596633,2.099778891,-3.395081758
861,1.55965356082e+18,2.300898075,-2.58821106,-4.525179386
862,1.55965356087e+18,-1.778946161,-6.821289062,5.291347504
863,1.55965356092e+18,-7.429434776,-10.59945488,11.83968925
864,1.55965356097e+18,1.027143836,-18.19648933,5.59781456
865,1.55965356102e+18,-4.541939259,-20.01134872,6.215537548
866,1.55965356108e+18,-5.351204395,-9.806949615,4.261809349
867,1.55965356113e+18,-5.964138508,-9.076695442,9.507665634
868,1.55965356118e+18,-6.244268894,-7.676044941,10.2570734
869,1.55965356123e+18,-4.953754425,-6.29933691,9.993702888
870,1.55965356128e+18,-6.435810566,-4.525179386,9.953000069
871,1.55965356134e+18,-3.026363373,-1.817254543,9.502876282
872,1.55965356139e+18,-1.367130876,0.0287312977,6.97691679
873,1.55965356144e+18,0.8308133483,-0.316044271,8.190814018
874,1.55965356149e+18,0.648848474,-0.09337671846,5.98329258
875,1.55965356154e+18,0.5818088055,1.668809533,0.7182824612
876,1.5596535616e+18,1.340793848,0.6536370516,-1.860351562
877,1.55965356165e+18,-1.54670155,-5.020794392,0.06703969836
878,1.5596535617e+18,-4.951360226,-11.09267521,5.298530102
879,1.55965356175e+18,-5.825270653,-16.61147881,4.857983589
880,1.5596535618e+18,1.345582485,-17.31539536,4.778972626
881,1.55965356186e+18,-3.517189741,-12.71359921,7.953781128
882,1.55965356191e+18,-6.833260536,-10.30735302,12.12460804
883,1.55965356196e+18,-6.751854897,-8.794171333,14.8923893
884,1.55965356201e+18,-6.495667458,-5.300924301,11.81574631
885,1.55965356206e+18,-5.020794392,-3.888302326,12.20601273
886,1.55965356212e+18,-3.134105682,-2.154847383,10.45340347
887,1.55965356217e+18,-2.762993097,-0.59378016,8.997684479
888,1.55965356222e+18,-2.408640385,1.771763325,7.585062504
889,1.55965356227e+18,-1.386285067,2.14048171,6.584255695
890,1.55965356232e+18,-2.425400496,1.118126392,2.209915638
891,1.55965356238e+18,-1.072635174,-2.621730804,-2.073441982
892,1.55965356243e+18,-1.793311834,-4.517996788,-0.2609759569
893,1.55965356248e+18,0.1292908341,-3.816473961,-4.781366825
894,1.55965356253e+18,-1.977671027,-10.6449461,2.164424419
895,1.55965356258e+18,-5.128536701,-16.42472458,7.635342598
896,1.55965356263e+18,-2.157241583,-17.25553894,7.14930439
897,1.55965356269e+18,-1.800494671,-19.1446209,11.20999432
898,1.55965356274e+18,-6.270605564,-14.66014481,11.47575951
899,1.55965356279e+18,-5.63851738,-10.58987713,12.33769798
900,1.55965356284e+18,-4.936994553,-8.049551964,15.03843975
901,1.55965356289e+18,0.1221080124,-4.810098171,12.60825157
902,1.55965356295e+18,-0.07422251999,-1.984853864,9.852440834
903,1.559653563e+18,-1.192348838,-2.506805658,7.331269264
904,1.55965356305e+18,-3.129317284,-4.824463844,3.660846233
905,1.5596535631e+18,-3.510006905,-4.166038036,1.458113313
906,1.55965356315e+18,-6.584255695,-3.718308687,9.364008904
907,1.55965356321e+18,-1.953728199,4.692778587,-1.848380208
908,1.55965356326e+18,5.051919937,5.894704342,-9.69681263
909,1.55965356331e+18,4.513207912,0.6560313106,-3.323253393
910,1.55965356336e+18,-1.647261024,-7.529994488,4.333637238
911,1.55965356341e+18,-11.65293503,-32.01384735,26.24843407
912,1.55965356347e+18,3.799714088,-19.90121269,2.983266354
913,1.55965356352e+18,-2.14048171,-13.90115929,5.367964268
914,1.55965356357e+18,-6.031178474,-9.531607628,6.65847826
915,1.55965356362e+18,-4.513207912,-8.451789856,12.21080112
916,1.55965356367e+18,-5.712739468,-6.718335152,10.44382668
917,1.55965356373e+18,-5.583448887,-5.537957668,8.667274475
918,1.55965356378e+18,-3.119740009,-6.823683262,7.292961121
919,1.55965356383e+18,-2.581028223,-6.064698219,4.261809349
920,1.55965356388e+18,-2.56666255,-4.611373425,4.043930054
921,1.55965356393e+18,-3.524372578,-0.612934351,3.079037428
922,1.55965356399e+18,1.419804931,2.420611858,-1.699935079
923,1.55965356404e+18,3.603383541,3.984073162,-6.668055534
924,1.55965356409e+18,3.237059593,0.9601042271,-0.4860377908
925,1.55965356414e+18,-3.356773376,-7.999272346,8.815719604
926,1.55965356419e+18,-8.619389534,-20.55963707,17.69129562
927,1.55965356425e+18,-0.9385557175,-21.11271477,2.54511404
928,1.5596535643e+18,-5.660065651,-15.20125103,4.398283005
929,1.55965356435e+18,-2.77735877,-8.973741531,7.300143719
930,1.5596535644e+18,-3.428601503,-8.28897953,11.95461369
931,1.55965356445e+18,-3.854782343,-6.095823765,10.16369629
932,1.55965356451e+18,-3.917033672,-4.881926537,9.926663399
933,1.55965356456e+18,-2.628913641,-3.517189741,9.093455315
934,1.55965356461e+18,-2.796513081,-1.280937076,7.168458939
935,1.55965356466e+18,-4.553910732,-1.015172482,10.05595398
936,1.55965356471e+18,-2.126116037,-0.7494080067,6.505244732
937,1.55965356477e+18,-1.304879785,1.35755384,-0.6967339516
938,1.55965356482e+18,0.5339232683,-0.4357580245,-3.826051235
939,1.55965356487e+18,-1.266571403,-3.229876757,-1.692752242
940,1.55965356492e+18,-3.759011507,-9.720755577,6.768614769
941,1.55965356497e+18,-6.881145954,-11.34407425,8.832479477
942,1.55965356503e+18,1.206714511,-13.16132832,4.486870766
943,1.55965356508e+18,-2.889889717,-15.82136822,9.155706406
944,1.55965356513e+18,-4.910657406,-9.60343647,10.11581135
945,1.55965356518e+18,-2.399063349,-8.705583572,16.23078918
946,1.55965356523e+18,-2.351177931,-6.493273258,14.14776993
947,1.55965356529e+18,-2.039922237,-5.083045483,10.52283764
948,1.55965356534e+18,-2.049499273,-4.367157459,9.356825829
949,1.55965356539e+18,-2.403851986,-3.155654192,7.587456703
950,1.55965356544e+18,-1.831620216,-1.558672905,3.191568375
951,1.55965356549e+18,-4.984879971,-1.695146561,10.22115898
952,1.55965356555e+18,-1.738243461,0.2490045726,6.007235527
953,1.5596535656e+18,2.475680113,2.14048171,-2.099778891
954,1.55965356565e+18,1.118126392,0.4525179267,-3.086220264
955,1.5596535657e+18,-0.5387118459,-2.255406857,1.300091267
956,1.55965356575e+18,-2.485257149,-5.389512539,7.233104229
957,1.55965356581e+18,-5.74386549,-10.80775642,13.10386562
958,1.55965356586e+18,-3.387898922,-15.41673565,6.390319347
959,1.55965356591e+18,-6.150891781,-13.4366703,10.46537495
960,1.55965356596e+18,0.03591412306,-8.995290756,14.70563602
961,1.55965356601e+18,-3.909850836,-8.490098,13.79102325
962,1.55965356607e+18,-4.506025314,-5.485283375,12.53881741
963,1.55965356612e+18,-1.920208454,-2.827638626,9.316123009
964,1.55965356617e+18,-2.624125242,-2.154847383,8.942616463
965,1.55965356622e+18,-2.853975534,-1.577827096,7.192401409
966,1.55965356627e+18,-2.75820446,-1.486844659,5.832453251
967,1.55965356633e+18,-4.067873001,-1.884294271,6.9122715
968,1.55965356638e+18,-2.921015263,0.299284339,4.834040642
969,1.55965356643e+18,-0.316044271,2.602576733,-3.114951611
970,1.55965356648e+18,2.473285913,2.463708878,-7.326480865
971,1.55965356653e+18,-0.06464541703,-2.870735407,-0.7470137477
972,1.55965356659e+18,-1.043903828,-7.146910191,8.822902679
973,1.55965356664e+18,-8.585869789,-17.97621536,18.06959152
974,1.55965356669e+18,-2.212309837,-14.98337173,7.585062504
975,1.55965356674e+18,-7.580274105,-13.9945364,6.577073097
976,1.55965356679e+18,-4.506025314,-8.277008057,10.03440571
977,1.55965356685e+18,-3.294522047,-8.341653824,11.7127924
978,1.5596535669e+18,-6.481301785,-6.476513386,8.044763565
979,1.55965356695e+18,-4.312088966,-5.138113976,9.150918007
980,1.559653567e+18,-2.092596292,-2.99044919,7.778998852
981,1.55965356705e+18,-2.449343204,-0.9960182905,6.371165276
982,1.55965356711e+18,-5.260221958,-0.7518022656,8.56671524
983,1.55965356716e+18,-3.052700281,0.1388679445,7.242681503
984,1.55965356721e+18,-3.205934048,-0.9744698405,5.554717541
985,1.55965356726e+18,-3.241847992,-0.04549122229,0.2322446555
986,1.55965356731e+18,1.264177084,1.240234375,-3.407052994
987,1.55965356737e+18,1.723877907,0.7565908432,-1.120520592
988,1.55965356742e+18,-2.18357873,-4.968120098,7.048745155
989,1.55965356747e+18,-3.227482557,-8.262641907,10.05595398
990,1.55965356752e+18,0.3687183261,-15.40955257,12.92190075
991,1.55965356757e+18,-6.191594601,-21.79987144,8.111803055
992,1.55965356763e+18,-5.865973473,-10.06074238,7.529994488
993,1.55965356768e+18,-2.157241583,-8.205180168,12.65853119
994,1.55965356773e+18,-2.430188894,-7.266623974,10.19721603
995,1.55965356778e+18,-4.132518291,-5.758230686,8.212362289
996,1.55965356783e+18,-3.811685562,-4.520390987,7.920260906
997,1.55965356789e+18,-2.33441782,-3.256213665,7.853221416
998,1.55965356794e+18,-2.229069948,-1.561067224,6.155680656
999,1.55965356799e+18,-0.4716721475,-0.3040728867,7.702382088
1000,1.55965356804e+18,1.149251938,0.9720755816,7.29535532
1001,1.55965356809e+18,1.580221415,3.083826065,5.253038883
1002,1.55965356815e+18,0.5794144869,1.0606637,3.313676357
1003,1.5596535682e+18,2.231464148,0.4908263385,0.5099805593
1004,1.55965356825e+18,-2.660039425,-7.948992252,5.873156071
1005,1.5596535683e+18,-4.683201313,-7.54914856,4.680807114
1006,1.55965356835e+18,-2.37272644,-8.662486076,-2.207521439
1007,1.55965356841e+18,-9.986519814,-20.64104271,4.383917332
1008,1.55965356846e+18,-2.786935806,-15.9458704,12.30657291
1009,1.55965356851e+18,0.8954587579,-10.20439911,15.01449776
1010,1.55965356856e+18,-2.944957972,-8.751074791,15.07674885
1011,1.55965356861e+18,-7.922655106,-8.044763565,12.23953247
1012,1.55965356867e+18,-6.9122715,-5.992869854,9.560338974
1013,1.55965356872e+18,-3.335224867,-3.996044636,10.46058655
1014,1.55965356877e+18,-2.188367128,-1.996825218,8.427846909
1015,1.55965356882e+18,-2.590605259,0.5291347504,9.052753448
1016,1.55965356887e+18,0.0837996155,3.823656797,4.168432236
1017,1.55965356893e+18,0.3615354896,-0.8810931444,1.836408734
1018,1.55965356898e+18,-2.214704275,-4.192375183,2.772570133
1019,1.55965356903e+18,1.664021015,-7.118178844,-0.4908263385
1020,1.55965356908e+18,-2.449343204,-8.578686714,-1.826831698
1021,1.55965356913e+18,-2.619336605,-9.268238068,0.3567469418
1022,1.55965356919e+18,-2.298503876,-12.17728138,4.290540695
1023,1.55965356924e+18,-0.9720755816,-20.24838257,6.047938347
1024,1.55965356929e+18,-10.21876526,-16.47021675,13.13259697
1025,1.55965356934e+18,-1.786128998,-14.06157589,17.91396332
1026,1.55965356939e+18,-2.296109438,-10.36002731,17.73199844
1027,1.55965356945e+18,-9.3783741,-7.158881664,12.01686573
1028,1.5596535695e+18,-7.975329399,-4.798126698,12.78782177
1029,1.55965356955e+18,-4.307300568,-2.715107679,10.12299347
1030,1.5596535696e+18,-1.795706153,-0.7948992252,9.842864037
1031,1.55965356965e+18,-3.600989342,-0.6656084061,7.946598053
1032,1.55965356971e+18,-3.174808502,0.4501236677,5.449369431
1033,1.55965356976e+18,-3.100585938,-0.8236305118,4.733481407
1034,1.55965356981e+18,-1.510787368,-1.927391171,-1.537124395
1035,1.55965356986e+18,-2.054287672,-7.482108593,-2.782147408
1036,1.55965356991e+18,-2.69116497,-2.164424419,-2.224281311
1037,1.55965356997e+18,-0.5530774593,-1.438959122,-1.479661822
1038,1.55965357002e+18,-4.757423878,-10.07032013,9.804554939
1039,1.55965357007e+18,-1.745426297,-10.16130257,11.54998207
1040,1.55965357012e+18,0.926584363,-17.11427689,5.27937603
1041,1.55965357017e+18,-10.32650757,-21.72804451,11.27942848
1042,1.55965357023e+18,-4.939388752,-13.58272076,12.13897324
1043,1.55965357028e+18,-3.711125851,-9.902720451,12.97457504
1044,1.55965357033e+18,-5.959350109,-9.347249031,12.01925945
1045,1.55965357038e+18,-5.889915943,-7.537177086,10.71198559
1046,1.55965357043e+18,-5.514014721,-5.686402798,12.00249958
1047,1.55965357049e+18,-2.118933201,-3.644086361,9.27063179
1048,1.55965357054e+18,-2.648067951,-3.153259993,4.836435318
1049,1.55965357059e+18,-2.765387297,-6.519610405,10.79339123
1050,1.55965357064e+18,-2.997632027,-1.015172482,-7.647313595
1051,1.55965357069e+18,-1.762186289,0.04549122229,-8.255459785
1052,1.55965357075e+18,3.37113905,1.778946161,-3.979284763
1053,1.5596535708e+18,-1.065452337,-1.304879785,0.3591412306
1054,1.55965357085e+18,-1.312062621,-6.924242973,6.993676662
1055,1.5596535709e+18,-6.426233768,-18.23000908,19.84135628
1056,1.55965357095e+18,3.102980137,-16.85569382,8.231516838
1057,1.55965357101e+18,-9.620196342,-18.05522728,7.048745155
1058,1.55965357106e+18,-6.091034889,-10.59466648,7.29535532
1059,1.55965357111e+18,-3.854782343,-9.222746849,10.76465988
1060,1.55965357116e+18,-4.733481407,-6.941002846,9.919480324
1061,1.55965357121e+18,-3.658451796,-5.619362831,9.684841156
1062,1.55965357127e+18,-2.786935806,-4.180403709,7.04395628
1063,1.55965357132e+18,-3.186779737,-2.341600657,6.12934351
1064,1.55965357137e+18,-3.873936653,-2.772570133,8.219545364
1065,1.55965357142e+18,-0.4166038036,0.4237866402,8.023215294
1066,1.55965357147e+18,-0.1197137386,1.513181686,-1.35755384
1067,1.55965357153e+18,2.073441982,1.438959122,-5.322473049
1068,1.55965357158e+18,0.2035133541,-1.924996972,0.2274561077
1069,1.55965357163e+18,-2.631308079,-5.854001999,6.215537548
1070,1.55965357168e+18,-6.373559475,-12.57233715,11.40632534
1071,1.55965357173e+18,2.16203022,-14.67451,3.905062199
1072,1.55965357179e+18,-6.608198643,-18.60590935,7.039167881
1073,1.55965357184e+18,-6.86917448,-10.8197279,7.166064739
1074,1.55965357189e+18,-3.735068798,-9.421471596,12.18925285
1075,1.55965357194e+18,-4.462928295,-8.073494911,8.834874153
1076,1.55965357199e+18,-5.329655647,-6.878751755,8.794171333
1077,1.55965357205e+18,-3.411841631,-5.473312378,7.929838181
1078,1.5596535721e+18,-3.768588543,-4.436591148,6.895511627
1079,1.55965357215e+18,-2.662433624,-2.454131603,6.002447128
1080,1.5596535722e+18,-4.151672363,-1.88668859,7.051139355
1081,1.55965357225e+18,-3.016786337,-0.1268965602,5.933012962
1082,1.5596535723e+18,0.2250618339,1.592192769,-0.08858817071
1083,1.55965357236e+18,2.243435383,1.235445857,-3.150865555
1084,1.55965357241e+18,0.8092648983,-2.051893473,0.4788549542
1085,1.55965357246e+18,-4.984879971,-7.57309103,10.16848469
1086,1.55965357251e+18,-2.315263748,-21.21088028,9.301757812
1087,1.55965357256e+18,-10.14933109,-22.58279991,6.335251331
1088,1.55965357262e+18,-5.619362831,-9.423865318,8.341653824
1089,1.55965357267e+18,-3.876330853,-7.589851379,9.155706406
1090,1.55965357272e+18,-5.370358467,-6.751854897,7.944203854
1091,1.55965357277e+18,-4.39109993,-5.827664852,8.497281075
1092,1.55965357282e+18,-4.403071404,-5.130930901,9.141341209
1093,1.55965357288e+18,-3.361561775,-4.304905891,8.272219658
1094,1.55965357293e+18,-5.55711174,-3.972101927,5.844424725
1095,1.55965357298e+18,-0.8284190893,-1.618529797,10.08947372
1096,1.55965357303e+18,-0.610540092,2.217098475,-1.352765322
1097,1.55965357308e+18,-0.06703969836,3.093403101,-5.748653889
1098,1.55965357314e+18,0.646454215,-0.8858816624,-0.335198462
1099,1.55965357319e+18,-3.43578434,-9.457385063,10.85085297
1100,1.55965357324e+18,-10.04637718,-17.83974075,11.5380106
1101,1.55965357329e+18,-0.0837996155,-18.93871307,1.491633177
1102,1.55965357334e+18,-1.158828974,-12.82852459,4.956148624
1103,1.5596535734e+18,-3.124528646,-8.509252548,7.151699066
1104,1.55965357345e+18,-4.75024128,-8.875576973,10.252285
1105,1.5596535735e+18,-2.22667551,-6.902694225,10.49410629
1106,1.55965357355e+18,-3.555498123,-5.719922543,9.852440834
1107,1.5596535736e+18,-4.127729893,-4.326454639,9.186832428
1108,1.55965357366e+18,-4.719115734,-3.110162973,6.416656494
1109,1.55965357371e+18,-3.021574736,-4.32406044,6.996070862
1110,1.55965357376e+18,-3.383110285,-0.6751855016,4.898686409
1111,1.55965357381e+18,-0.4980091453,0.950527072,3.143682718
1112,1.55965357386e+18,1.048692346,1.920208454,1.934574008
1113,1.55965357392e+18,-0.2753416002,-2.54511404,6.203566074
1114,1.55965357397e+18,-0.8379961848,-3.325647593,8.810931206
1115,1.55965357402e+18,0.5506832004,-5.686402798,0.06703969836
1116,1.55965357407e+18,-7.951386452,-18.20127678,7.352818012
1117,1.55965357412e+18,-9.232323647,-15.49814129,14.31776333
1118,1.55965357418e+18,-3.866753817,-5.564294815,14.1597414
1119,1.55965357423e+18,-2.842004299,-5.391906738,13.86285114
1120,1.55965357428e+18,-5.600208759,-4.187586784,10.14454269
1121,1.55965357433e+18,-4.448562622,-2.396669149,10.13017654
1122,1.55965357438e+18,-4.369551659,-1.924996972,7.807730198
1123,1.55965357444e+18,-3.665634632,-2.930592299,6.203566074
1124,1.55965357449e+18,-4.522785187,-7.031985283,1.321639657
1125,1.55965357454e+18,-3.64887476,-10.20439911,-1.338399649
1126,1.55965357459e+18,-1.790917516,-7.623371124,-0.610540092
1127,1.55965357464e+18,-0.2298503816,-4.597007751,3.699154615
1128,1.5596535747e+18,0.2729473412,-5.126142502,0.6967339516
1129,1.55965357475e+18,-5.707951069,-12.58670235,7.182824612
1130,1.5596535748e+18,-3.03115201,-18.42873383,14.3345232
1131,1.55965357485e+18,3.636903524,-20.48302078,6.924242973
1132,1.5596535749e+18,-8.336864471,-16.52289009,7.666468143
1133,1.55965357496e+18,-7.374366283,-9.878777504,9.050358772
1134,1.55965357501e+18,-4.77418375,-8.322499275,13.99214172
1135,1.55965357506e+18,-3.043123245,-4.532361984,11.07831001
1136,1.55965357511e+18,-3.035940409,-3.581835032,8.028003693
1137,1.55965357516e+18,-2.99044919,-3.337619066,8.255459785
1138,1.55965357522e+18,-4.063084126,-2.176395893,5.628940105
1139,1.55965357527e+18,-5.652883053,-2.755810261,3.909850836
1140,1.55965357532e+18,-2.729473352,-2.310475111,1.388679385
1141,1.55965357537e+18,-5.157268047,0.4884320498,-4.118152618
1142,1.55965357542e+18,5.755836487,4.70953846,-6.184412003
1143,1.55965357548e+18,2.844398499,-1.415016413,2.624125242
1144,1.55965357553e+18,-6.318490982,-13.07992363,14.94266891
1145,1.55965357558e+18,-2.616942406,-16.74316406,9.960183144
1146,1.55965357563e+18,-4.003227711,-23.19094658,6.859597206
1147,1.55965357568e+18,-7.058321953,-12.97457504,5.894704342
1148,1.55965357574e+18,-3.478881359,-8.763046265,10.19721603
1149,1.55965357579e+18,-3.64648056,-7.987300873,10.29298782
1150,1.55965357584e+18,-6.265817165,-6.464541912,10.49171257
1151,1.55965357589e+18,-3.828445435,-5.260221958,9.399923325
1152,1.55965357594e+18,-2.437371731,-4.336031914,8.073494911
1153,1.559653576e+18,-5.049525738,-3.189173937,5.061496735
1154,1.55965357605e+18,-4.091815472,-1.539518714,7.819701672
1155,1.5596535761e+18,-2.518777132,-0.1867534369,2.686376333
1156,1.55965357615e+18,0.9912297726,0.7877163887,-5.260221958
1157,1.5596535762e+18,1.431776285,-2.05668211,-4.321666241
1158,1.55965357626e+18,-2.102173328,-4.094210148,0.5698373914
1159,1.55965357631e+18,-5.303318501,-7.9729352,10.28819847
1160,1.55965357636e+18,-5.116565228,-14.1597414,12.43586349
1161,1.55965357641e+18,-8.78219986,-19.62826538,4.889109135
1162,1.55965357646e+18,-7.18761301,-11.65054131,8.978530884
1163,1.55965357652e+18,-4.92023468,-8.578686714,10.70719719
1164,1.55965357657e+18,-4.168432236,-8.083071709,10.55635738
1165,1.55965357662e+18,-7.137333393,-6.440599442,8.221940041
1166,1.55965357667e+18,-4.790944099,-5.482889175,8.949799538
1167,1.55965357672e+18,-4.53475666,-4.582642078,7.33605814
1168,1.55965357678e+18,-4.063084126,-3.742251635,5.504437923
1169,1.55965357683e+18,-7.292961121,-11.98334503,12.58430862
1170,1.55965357688e+18,-0.4764606953,-0.6608198285,0.967287004
1171,1.55965357693e+18,0.8571503758,3.591412306,-5.779779434
1172,1.55965357698e+18,-2.695953369,-1.254600048,-0.4381522834
1173,1.55965357704e+18,-4.259414673,-6.110189438,6.529187202
1174,1.55965357709e+18,-3.153259993,-7.637736797,7.379155159
1175,1.55965357714e+18,-2.1213274,-13.50610447,6.431022167
1176,1.55965357719e+18,-5.06628561,-20.38006783,8.564320564
1177,1.55965357724e+18,-7.695199013,-11.64096451,5.379935265
1178,1.5596535773e+18,-5.023188591,-8.664880753,8.947404861
1179,1.55965357735e+18,-7.40070343,-8.049551964,9.2035923
1180,1.5596535774e+18,-4.225894928,-6.107795238,8.236305237
1181,1.55965357745e+18,-6.387925148,-5.236279011,7.958569527
1182,1.5596535775e+18,-3.929004908,-3.596200705,8.286584854
1183,1.55965357756e+18,-2.626519442,-1.529941559,6.737489223
1184,1.55965357761e+18,-3.198751211,-1.295302629,6.986494064
1185,1.55965357766e+18,-2.734261751,-1.922602654,4.501236439
1186,1.55965357771e+18,-2.288926601,-2.185972929,-0.1340793967
1187,1.55965357776e+18,-0.2370332032,-1.608952641,-2.243435383
1188,1.55965357782e+18,3.256213665,0.09098244458,-2.085413456
1189,1.55965357787e+18,-1.177983165,-5.075862408,3.210722446
1190,1.55965357792e+18,-6.885934353,-13.17090607,11.1501379
1191,1.55965357797e+18,0.0837996155,-22.4846344,9.344854355
1192,1.55965357802e+18,-7.944203854,-20.13824463,3.158048391
1193,1.55965357808e+18,-5.727105141,-12.57712555,4.563488007
1194,1.55965357813e+18,-6.177228928,-11.04000092,7.707170486
1195,1.55965357818e+18,-3.311282158,-8.631361008,7.752661705
1196,1.55965357823e+18,-4.379128456,-5.930618763,6.890722752
1197,1.55965357828e+18,-4.254626274,-4.127729893,5.952167034
1198,1.55965357834e+18,-3.428601503,-2.482862949,6.318490982
1199,1.55965357839e+18,-3.342407703,-1.029538155,4.738269806
1200,1.55965357844e+18,-2.363149166,-0.4285751879,3.158048391
1201,1.55965357849e+18,-4.156461239,-0.5171633363,7.683228016
1202,1.55965357854e+18,1.084606528,2.176395893,0.8643332124
1203,1.5596535786e+18,0.4070267081,-0.4357580245,-0.4525179267
1204,1.55965357865e+18,-1.826831698,-3.464515686,6.395108223
1205,1.5596535787e+18,-5.260221958,-4.42940855,9.771035194
1206,1.55965357875e+18,2.370332003,-21.49340439,-1.163617611
1207,1.5596535788e+18,-5.430215359,-21.82621002,16.11107445
1208,1.55965357886e+18,-0.03351984918,-10.49889469,8.846845627
1209,1.55965357891e+18,-3.617749214,-8.1453228,6.790163517
1210,1.55965357896e+18,-3.040729046,-6.476513386,7.898712635
1211,1.55965357901e+18,-3.148471355,-5.80851078,8.830085754
1212,1.55965357906e+18,-3.03115201,-4.280963421,7.520417213
1213,1.55965357912e+18,-4.312088966,-3.450150013,6.76382637
1214,1.55965357917e+18,-3.976890564,-0.3543526828,9.708784103
1215,1.55965357922e+18,-0.184359163,-0.2657645047,6.926637173
1216,1.55965357927e+18,-0.967287004,2.224281311,4.872349262
1217,1.55965357932e+18,0.6536370516,3.337619066,0.5027977228
1218,1.55965357938e+18,0.04788549617,-0.924190104,-1.043903828
1219,1.55965357943e+18,-3.797319889,-5.87555027,3.998438835
1220,1.55965357948e+18,-5.281770229,-8.233911514,9.510059357
1221,1.55965357953e+18,2.516382933,-14.8445034,0.928978622
1222,1.55965357958e+18,-6.847625732,-16.85090637,11.37998772
1223,1.55965357964e+18,-3.735068798,-9.095849991,12.2227726
1224,1.55965357969e+18,-3.296916485,-6.459753513,11.06154919
1225,1.55965357974e+18,-4.508419514,-5.684008598,9.423865318
1226,1.55965357979e+18,-5.561900616,-5.523591995,10.73353386
1227,1.55965357984e+18,-4.656864643,-4.70953846,9.742303848
1228,1.5596535799e+18,-3.759011507,-3.567469358,8.717555046
1229,1.55965357995e+18,-2.937775135,-2.346389294,6.354405403
1230,1.55965358e+18,-4.508419514,-2.296109438,6.30173111
1231,1.55965358005e+18,-2.135693073,-1.106154919,4.568276405
1232,1.5596535801e+18,0.06703969836,-0.6799740195,-2.420611858
1233,1.55965358016e+18,-0.2178790122,-2.047105074,-3.675211906
1234,1.55965358021e+18,-3.014391899,-7.161275864,1.984853864
1235,1.55965358026e+18,-3.976890564,-9.933846474,7.422251701
1236,1.55965358031e+18,-3.747040033,-13.24273396,8.109408379
1237,1.55965358036e+18,-4.946571827,-19.01772499,6.052726746
1238,1.55965358042e+18,-4.520390987,-13.25709915,8.456578255
1239,1.55965358047e+18,-3.486064196,-10.11820507,12.79979324
1240,1.55965358052e+18,-5.456552505,-9.055147171,9.677659035
1241,1.55965358057e+18,-5.183605194,-8.231516838,9.835680962
1242,1.55965358062e+18,-4.041535854,-8.10461998,10.16130257
1243,1.55965358068e+18,-3.191568375,-7.345634937,8.447001457
1244,1.55965358073e+18,-1.618529797,-5.712739468,7.46774292
1245,1.55965358078e+18,-2.935380936,-2.597788095,3.600989342
1246,1.55965358083e+18,-2.171607256,-1.120520592,2.858764172
1247,1.55965358088e+18,-1.558672905,-1.757397652,1.374313712
1248,1.55965358094e+18,-2.276955366,-0.2250618339,-0.8643332124
1249,1.55965358099e+18,0.462095052,-0.1532335877,-3.093403101
1250,1.55965358104e+18,-2.169213057,-5.8516078,3.790137053
1251,1.55965358109e+18,-9.263449669,-9.809344292,11.62899303
1252,1.55965358114e+18,-2.178790092,-10.93465328,9.586676598
1253,1.5596535812e+18,-1.415016413,-20.68413925,7.146910191
1254,1.55965358125e+18,-0.7063110471,-10.31214142,9.481328011
1255,1.5596535813e+18,-1.721483588,-7.78618145,12.12460804
1256,1.55965358135e+18,-4.369551659,-7.051139355,9.534002304
1257,1.5596535814e+18,-5.581054688,-7.070293427,9.624984741
1258,1.55965358146e+18,-3.988861799,-5.947378635,10.06792545
1259,1.55965358151e+18,-3.912245035,-5.111776829,8.806142807
1260,1.55965358156e+18,-2.044710636,-4.846012115,5.952167034
1261,1.55965358161e+18,-2.497228622,-4.180403709,3.797319889
1262,1.55965358166e+18,-4.776578426,-3.62732625,3.617749214
1263,1.55965358172e+18,-1.903448462,-1.496421814,3.828445435
1264,1.55965358177e+18,0.7948992252,0.3926610649,-2.492439985
1265,1.55965358182e+18,-0.8284190893,-2.592999697,0.9888355136
1266,1.55965358187e+18,-4.041535854,-6.993676662,8.868393898
1267,1.55965358192e+18,-6.579467297,-8.195602417,12.34966946
1268,1.55965358198e+18,-1.101366401,-19.24757576,5.590631485
1269,1.55965358203e+18,-7.810124397,-13.0966835,9.84046936
1270,1.55965358208e+18,-4.568276405,-7.2546525,11.80138016
1271,1.55965358213e+18,-3.426207304,-5.98089838,9.775823593
1272,1.55965358218e+18,-5.909070015,-5.748653889,7.795758724
1273,1.55965358224e+18,-6.311308384,-5.049525738,8.784594536
1274,1.55965358229e+18,-5.633728504,-5.27937603,8.557138443
1275,1.55965358234e+18,-4.063084126,-5.128536701,7.702382088
1276,1.55965358239e+18,-3.409447432,-3.723097324,5.06867981
1277,1.55965358244e+18,-3.991255999,-4.611373425,6.205960274
1278,1.5596535825e+18,-1.280937076,0.0837996155,2.468497276
1279,1.55965358255e+18,3.22508812,3.663240433,-5.624151707
1280,1.5596535826e+18,2.657644987,0.6799740195,-2.58581686
1281,1.55965358265e+18,-1.371919513,-5.233884811,3.54113245
1282,1.5596535827e+18,-6.993676662,-14.78464699,16.41993713
1283,1.55965358276e+18,-2.35596633,-15.5627861,8.731920242
1284,1.55965358281e+18,-4.563488007,-20.28429604,5.657671452
1285,1.55965358286e+18,-7.731113434,-9.490905762,5.645699978
1286,1.55965358291e+18,-5.547534943,-8.351230621,10.22115898
1287,1.55965358296e+18,-2.485257149,-6.754249096,8.724737167
1288,1.55965358302e+18,-6.30173111,-6.000052452,8.609811783
1289,1.55965358307e+18,-5.224307537,-5.45176363,8.549955368
1290,1.55965358312e+18,-4.352791786,-4.565882206,8.293767929
1291,1.55965358317e+18,-3.153259993,-2.69355917,6.239480019
1292,1.55965358322e+18,1.905842781,-1.182771802,5.21473074
1293,1.55965358328e+18,1.213897347,0.6775797606,3.466909885
1294,1.55965358333e+18,2.923409462,0.06464541703,-5.044736862
1295,1.55965358338e+18,-3.83802247,-1.003201127,-2.080624819
1296,1.55965358343e+18,-0.1891477108,-3.694365978,2.69116497
1297,1.55965358348e+18,-0.8954587579,-12.97936344,8.791776657
1298,1.55965358354e+18,-8.691217422,-19.6689682,6.773403645
1299,1.55965358359e+18,-1.185166001,-15.96981335,11.30337143
1300,1.55965358364e+18,-2.54511404,-9.385557175,11.73673534
1301,1.55965358369e+18,-4.948966026,-7.671256542,8.67445755
1302,1.55965358374e+18,-4.32406044,-6.751854897,7.836461544
1303,1.5596535838e+18,-4.479688168,-5.332049847,7.783787251
1304,1.55965358385e+18,-4.175615311,-4.343214512,7.925049782
1305,1.5596535839e+18,-3.665634632,-3.428601503,6.857203007
1306,1.55965358395e+18,-3.526766777,-2.947352171,5.882733345
1307,1.559653584e+18,-1.800494671,-2.468497276,4.85558939
1308,1.55965358406e+18,1.209108829,-1.094183564,-0.1795706153
1309,1.55965358411e+18,-1.371919513,-2.370332003,2.741444588
1310,1.55965358416e+18,-2.262589693,-5.899493217,8.605023384
1311,1.55965358421e+18,-7.374366283,-5.640911579,8.154899597
1312,1.55965358426e+18,4.56109333,-6.213143349,2.37512064
1313,1.55965358431e+18,-5.885127544,-15.63700867,6.768614769
1314,1.55965358437e+18,-5.02797699,-9.773429871,10.37918091
1315,1.55965358442e+18,-2.681587696,-7.060716629,11.47815323
1316,1.55965358447e+18,-6.258634567,-6.435810566,9.751881599
1317,1.55965358452e+18,-6.117372036,-6.002447128,9.035993576
1318,1.55965358457e+18,-4.551516533,-4.848406315,8.377567291
1319,1.55965358463e+18,-4.331243038,-4.515602112,7.764633179
1320,1.55965358468e+18,-3.512401104,-3.830839634,5.411061287
1321,1.55965358473e+18,-3.864359617,-2.858764172,4.096604347
1322,1.55965358478e+18,-3.323253393,-2.762993097,4.529967785
1323,1.55965358483e+18,-0.02633702382,-0.3759011328,0.9768640995
1324,1.55965358489e+18,0.2154847383,-1.891477108,0.2106961906
1325,1.55965358494e+18,-3.311282158,-4.740664005,2.932986736
1326,1.55965358499e+18,-3.445361376,-9.474145889,12.32333279
1327,1.55965358504e+18,-4.197163582,-10.17087936,12.28741837
1328,1.55965358509e+18,1.805283189,-18.97462845,6.174834728
1329,1.55965358515e+18,-8.873182297,-10.72395706,5.454157829
1330,1.5596535852e+18,-5.097411156,-8.138139725,9.960183144
1331,1.55965358525e+18,-4.00562191,-7.714353561,10.76465988
1332,1.5596535853e+18,-5.549929142,-5.815693378,7.065505028
1333,1.55965358535e+18,-4.091815472,-4.781366825,6.852414608
1334,1.55965358541e+18,-3.596200705,-5.454157829,6.287365437
1335,1.55965358546e+18,-1.927391171,-4.599401951,4.905869007
1336,1.55965358551e+18,-2.463708878,-2.176395893,3.215511084
1337,1.55965358556e+18,-0.1053480953,0.3615354896,3.629720688
1338,1.55965358561e+18,0.634482801,0.8499675393,-0.332804203
1339,1.55965358567e+18,-1.980065227,-1.029538155,0.3926610649
1340,1.55965358572e+18,-3.299310684,-9.328094482,9.680052757
1341,1.55965358577e+18,-9.555550575,-11.89715195,11.47336483
1342,1.55965358582e+18,6.143709183,-14.22438622,2.157241583
1343,1.55965358587e+18,-4.21871233,-18.02649498,6.172440529
1344,1.55965358593e+18,-7.834067345,-8.569109917,5.765413761
1345,1.55965358598e+18,-2.849187136,-8.267431259,10.91071033
1346,1.55965358603e+18,-4.671230316,-7.108602047,6.9122715
1347,1.55965358608e+18,-3.323253393,-6.30173111,7.321692467
1348,1.55965358613e+18,-2.341600657,-5.394300938,6.368771076
1349,1.55965358619e+18,-2.887495518,-6.332856655,5.209941864
1350,1.55965358624e+18,-3.100585938,-5.181210518,3.818868399
1351,1.55965358629e+18,-4.462928295,-5.985687256,9.143735886
1352,1.55965358634e+18,-2.363149166,-1.570644259,4.379128456
1353,1.55965358639e+18,-0.5435003638,0.5698373914,-0.6871568561
1354,1.55965358645e+18,-0.8739103079,-2.150058746,2.205127001
1355,1.5596535865e+18,-3.306493521,-6.603409767,10.00088596
1356,1.55965358655e+18,-4.721509933,-8.190814018,11.75828362
1357,1.5596535866e+18,7.616188049,-21.06961823,6.876357079
1358,1.55965358665e+18,-8.616994858,-15.27547359,4.865166187
1359,1.55965358671e+18,-7.40070343,-7.664073467,4.936994553
1360,1.55965358676e+18,-2.066259146,-7.053533554,10.23791885
1361,1.55965358681e+18,-4.881926537,-6.672843933,7.218738556
1362,1.55965358686e+18,-5.169239521,-6.263422966,7.994483471
1363,1.55965358691e+18,-5.377541065,-5.439792156,8.035185814
1364,1.55965358697e+18,-4.556304932,-4.529967785,8.260248184
1365,1.55965358702e+18,-4.094210148,-3.471698523,7.50844574
1366,1.55965358707e+18,-3.301704884,-2.664827824,7.218738556
1367,1.55965358712e+18,-2.099778891,-1.692752242,4.585036278
1368,1.55965358717e+18,0.907430172,-0.01675992459,-1.158828974
1369,1.55965358723e+18,0.4860377908,-1.707117915,-2.473285913
1370,1.55965358728e+18,-1.338399649,-6.462147713,4.046324253
1371,1.55965358733e+18,-6.174834728,-7.266623974,10.90831566
1372,1.55965358738e+18,-2.315263748,-11.89475727,9.672870636
1373,1.55965358743e+18,-9.33767128,-21.06482887,5.355992794
1374,1.55965358749e+18,-7.800547123,-9.581888199,6.349617004
1375,1.55965358754e+18,-2.454131603,-6.751854897,12.23953247
1376,1.55965358759e+18,-3.507612705,-6.244268894,9.323306084
1377,1.55965358764e+18,-4.968120098,-6.189200401,8.906702042
1378,1.55965358769e+18,-4.029564381,-5.523591995,7.716747761
1379,1.55965358775e+18,-4.479688168,-5.858790398,6.035966873
1380,1.5596535878e+18,-3.0957973,-4.597007751,6.249057293
1381,1.55965358785e+18,-5.23867321,-3.849993944,8.154899597
1382,1.5596535879e+18,-2.049499273,-0.9337671995,6.100612164
1383,1.55965358795e+18,1.189954638,1.510787368,2.415823221
1384,1.55965358801e+18,2.293715239,0.9912297726,-0.2011190802
1385,1.55965358806e+18,-2.403851986,-3.150865555,1.661626697
1386,1.55965358811e+18,-4.312088966,-8.734314919,10.07032013
1387,1.55965358816e+18,-3.000026226,-6.864386082,5.284164429
1388,1.55965358821e+18,-2.470891714,-21.85733414,2.312869549
1389,1.55965358827e+18,-8.602629662,-16.83893394,10.71916866
1390,1.55965358832e+18,-0.9960182905,-8.032792091,12.91950703
1391,1.55965358837e+18,-4.410254002,-8.602629662,11.87560272
1392,1.55965358842e+18,-6.421444893,-6.493273258,10.18763924
1393,1.55965358847e+18,-2.542719841,-6.103006363,10.62818623
1394,1.55965358853e+18,-3.035940409,-4.944177628,4.130124092
1395,1.55965358858e+18,-3.210722446,-5.205153465,2.14048171
1396,1.55965358863e+18,-3.162837029,-5.401484013,1.383890867
1397,1.55965358868e+18,-5.628940105,-5.17402792,6.955368519
1398,1.55965358873e+18,-1.850774407,1.091789365,-1.867534399
1399,1.55965358879e+18,3.792531252,3.407052994,-2.245829821
1400,1.55965358884e+18,-2.940169573,-5.607391834,7.048745155
1401,1.55965358889e+18,-7.213950157,-12.53642273,18.06001472
1402,1.55965358894e+18,0.3830839694,-11.09028053,5.154873848
1403,1.55965358899e+18,-7.977723598,-15.61785412,4.010410309
1404,1.55965358904e+18,-5.624151707,-9.210775375,5.09262228
1405,1.5596535891e+18,-5.619362831,-8.020820618,8.238699913
1406,1.55965358915e+18,-5.837242126,-7.163670063,8.269824982
1407,1.5596535892e+18,-6.150891781,-7.544359684,11.95461369
1408,1.55965358925e+18,-5.535563469,-6.12934351,9.739910126
1409,1.5596535893e+18,-4.462928295,-3.510006905,6.411868095
1410,1.55965358936e+18,-3.600989342,-1.592192769,3.806896925
1411,1.55965358941e+18,-3.13889432,-0.1580221355,3.071854591
1412,1.55965358946e+18,-3.845205307,-0.2849186957,4.685595989
1413,1.55965358951e+18,-2.291321039,0.4213923812,4.166038036
1414,1.55965358956e+18,0.4070267081,0.2011190802,0.2561874092
1415,1.55965358962e+18,-2.296109438,-3.56268096,0.9792584181
1416,1.55965358967e+18,-2.45892024,-5.458946705,7.314509392
1417,1.55965358972e+18,-1.625712633,-7.273807049,8.846845627
1418,1.55965358977e+18,-0.14844504,-17.99776459,4.869955063
1419,1.55965358982e+18,-17.10709381,-14.65535641,7.539571285
1420,1.55965358988e+18,-2.24822402,-6.842837334,12.86443901
1421,1.55965358993e+18,-5.097411156,-6.483695984,9.289786339
1422,1.55965358998e+18,-7.630553722,-5.19797039,6.098217964
1423,1.55965359003e+18,-6.213143349,-4.881926537,7.233104229
1424,1.55965359008e+18,-4.592218876,-4.470110893,7.50844574
1425,1.55965359014e+18,-3.565075159,-4.687990189,7.103813171
1426,1.55965359019e+18,-2.767781734,-3.703943014,6.354405403
1427,1.55965359024e+18,-3.043123245,-3.253819466,4.498842239
1428,1.55965359029e+18,-4.53475666,-0.8763045669,3.62732625
1429,1.55965359034e+18,-0.1915419847,1.285725594,0.3471698463
1430,1.5596535904e+18,2.185972929,1.273754239,-0.648848474
1431,1.55965359045e+18,-2.066259146,-4.276175022,3.924216509
1432,1.5596535905e+18,-4.49644804,-7.053533554,7.094236374
1433,1.55965359055e+18,-7.340846539,-13.45582485,5.849213123
1434,1.5596535906e+18,-4.079844475,-23.24361992,7.223526955
1435,1.55965359066e+18,-1.826831698,-13.90115929,7.321692467
1436,1.55965359071e+18,-2.942563772,-8.980924606,8.964164734
1437,1.55965359076e+18,-8.255459785,-8.516435623,8.971347809
1438,1.55965359081e+18,-3.988861799,-7.072687626,10.84367085
1439,1.55965359086e+18,-3.261002302,-5.861184597,10.24031353
1440,1.55965359092e+18,-3.713520288,-4.273780346,7.999272346
1441,1.55965359097e+18,-1.845985889,-3.445361376,4.058295727
1442,1.55965359102e+18,-1.673598051,-3.265790939,2.547508478
1443,1.55965359107e+18,-3.433390141,-4.482082367,8.499675751
1444,1.55965359112e+18,-0.59378016,2.253012657,-3.354378939
1445,1.55965359118e+18,1.714300752,1.29290843,-3.136499882
1446,1.55965359123e+18,-0.5985686779,-2.576239586,4.676018715
1447,1.55965359128e+18,-5.394300938,-8.418270111,12.2610817
1448,1.55965359133e+18,-2.482862949,-14.320158,13.59948063
1449,1.55965359138e+18,-3.835628271,-21.04088783,7.316903591
1450,1.55965359144e+18,-6.818894863,-11.35365105,6.691998005
1451,1.55965359149e+18,-2.370332003,-9.002472878,11.72955227
1452,1.55965359154e+18,-2.961717844,-7.156487465,7.22831583
1453,1.55965359159e+18,-2.930592299,-5.748653889,10.18285084
1454,1.55965359164e+18,-2.276955366,-4.563488007,9.150918007
1455,1.55965359169e+18,-2.602576733,-2.451737404,7.75984478
1456,1.55965359175e+18,-1.527547359,-0.8858816624,7.134938717
1457,1.5596535918e+18,-1.491633177,0.1077423692,6.93860817
1458,1.55965359185e+18,-1.726272106,0.5818088055,5.645699978
1459,1.5596535919e+18,-1.304879785,-0.2130904645,4.826858044
1460,1.55965359195e+18,-0.1652049571,1.345582485,2.592999697
1461,1.55965359201e+18,0.2944957912,-0.591385901,2.37272644
1462,1.55965359206e+18,-0.313650012,-4.817280769,4.599401951
1463,1.55965359211e+18,-3.086220264,-8.763046265,7.070293427
1464,1.55965359216e+18,-1.407833576,-7.982511997,-0.1173194647
1465,1.55965359221e+18,-3.234665155,-23.82782364,5.741470814
1466,1.55965359227e+18,-6.574678421,-18.37845421,9.0335989
1467,1.55965359232e+18,-2.837215662,-11.35125732,11.26027489
1468,1.55965359237e+18,-5.684008598,-8.571503639,14.52367115
1469,1.55965359242e+18,-5.918647289,-5.796539307,11.29379463
1470,1.55965359247e+18,-4.951360226,-3.919427872,9.85483551
1471,1.55965359253e+18,-2.79890728,-3.835628271,7.915472507
1472,1.55965359258e+18,-2.475680113,-3.050306082,8.312922478
1473,1.55965359263e+18,-2.150058746,-1.084606528,5.842030525
1474,1.55965359268e+18,-2.133298874,-0.5530774593,4.043930054
1475,1.55965359273e+18,-4.647287369,-4.254626274,4.087027073
1476,1.55965359279e+18,0.3040728867,-2.516382933,0.7541965842
1477,1.55965359284e+18,-0.462095052,-0.3878725171,-6.744672298
1478,1.55965359289e+18,-1.470084786,-5.061496735,-0.8020820618
1479,1.55965359294e+18,-3.950553417,-10.51326084,9.443019867
1480,1.55965359299e+18,-9.184437752,-16.24994278,15.2275877
1481,1.55965359305e+18,0.1867534369,-17.40637779,5.583448887
1482,1.5596535931e+18,-5.181210518,-13.31695652,6.134131908
1483,1.55965359315e+18,-4.357580185,-8.279402733,11.61462688
1484,1.5596535932e+18,-2.664827824,-7.956175327,11.57153034
1485,1.55965359325e+18,-6.134131908,-6.900300026,6.325674057
1486,1.55965359331e+18,-7.027196407,-6.296942711,6.881145954
1487,1.55965359336e+18,-3.905062199,-6.636929989,6.861991405
1488,1.55965359341e+18,-3.998438835,-5.619362831,5.037554264
1489,1.55965359346e+18,-6.615381241,-11.44702816,6.426233768
1490,1.55965359351e+18,-2.69355917,-0.8834874034,2.650462151
1491,1.55965359357e+18,3.519583941,3.320859194,-3.483669758
1492,1.55965359362e+18,3.423812866,4.300117493,-2.796513081
1493,1.55965359367e+18,-0.1723877788,-3.883513689,7.632947922
1494,1.55965359372e+18,-7.106207848,-11.30097675,10.72874546
1495,1.55965359377e+18,-1.898659945,-17.51172638,8.293767929
1496,1.55965359383e+18,-2.43976593,-27.09361458,7.398309231
1497,1.55965359388e+18,-6.146103382,-13.39357281,4.510813713
1498,1.55965359393e+18,-1.371919513,-9.821314812,6.974522591
1499,1.55965359398e+18,-3.720703125,-7.498868465,5.695979595
1500,1.55965359403e+18,-4.661653042,-6.148497581,8.197997093
1501,1.55965359409e+18,-4.735875607,-4.503631115,6.852414608
1502,1.55965359414e+18,-3.045517445,-4.685595989,6.1939888
1503,1.55965359419e+18,-3.351984739,-5.039948463,4.067873001
1504,1.55965359424e+18,-4.75024128,-11.05915546,12.34009266
1505,1.55965359429e+18,-2.14287591,0.3591412306,2.633702278
1506,1.55965359435e+18,2.411034822,4.328848839,-4.376734257
1507,1.5596535944e+18,3.000026226,1.774157643,-1.915419817
1508,1.55965359445e+18,-2.154847383,-5.032765865,6.720729351
1509,1.5596535945e+18,-6.610592842,-12.46459484,17.1645565
1510,1.55965359455e+18,0.6033572555,-17.44708061,7.740690231
1511,1.55965359461e+18,-4.92023468,-19.48939705,4.783761024
1512,1.55965359466e+18,-3.73267436,-9.615407944,6.253845692
1513,1.55965359471e+18,-2.573845387,-9.189227104,11.3344965
1514,1.55965359476e+18,-4.304905891,-7.091842175,7.711959362
1515,1.55965359481e+18,-5.166844845,-5.300924301,8.020820618
1516,1.55965359487e+18,-4.163643837,-3.799714088,8.291373253
1517,1.55965359492e+18,-3.703943014,-1.82204318,8.425453186
1518,1.55965359497e+18,-2.260195494,-0.1508393139,7.54675436
1519,1.55965359502e+18,-1.664021015,0.002394274808,6.383136749
1520,1.55965359507e+18,-1.340793848,-0.1053480953,5.159662247
1521,1.55965359513e+18,1.697540879,1.264177084,1.393467903
1522,1.55965359518e+18,0.08858817071,-2.099778891,-0.7853221297
1523,1.55965359523e+18,-1.561067224,-7.072687626,0.8308133483
1524,1.55965359528e+18,-7.151699066,-14.3441,8.303344727
1525,1.55965359533e+18,-3.957736254,-14.31776333,3.033546209
1526,1.55965359539e+18,0.5578660369,-16.27627945,4.606584549
1527,1.55965359544e+18,-1.046298146,-12.98175812,7.309720993
1528,1.55965359549e+18,-2.942563772,-11.27464008,10.25946712
1529,1.55965359554e+18,-4.336031914,-9.974549294,11.8301115
1530,1.55965359559e+18,-5.858790398,-8.475732803,10.25946712
1531,1.55965359565e+18,-5.607391834,-7.235498428,11.93067169
1532,1.5596535957e+18,-4.374340057,-5.679219723,12.31614971
1533,1.55965359575e+18,-3.32804203,-4.053507328,11.16689777
1534,1.5596535958e+18,-2.33441782,-3.002420664,6.720729351
1535,1.55965359585e+18,-2.377514839,-3.988861799,2.561874151
1536,1.55965359591e+18,-3.105374336,-6.787769318,4.438985348
1537,1.55965359596e+18,-1.453324795,0.6656084061,-4.948966026
1538,1.55965359601e+18,1.443747759,0.5315290093,-6.72312355
1539,1.55965359606e+18,0.4022381604,-2.58821106,-2.406246185
1540,1.55965359611e+18,-3.988861799,-11.29139996,6.828471661
1541,1.55965359617e+18,-6.488484859,-16.6785183,9.541185379
1542,1.55965359622e+18,2.324840784,-20.13345718,4.28335762
1543,1.55965359627e+18,2.959323645,-18.30423164,3.62732625
1544,1.55965359632e+18,-0.8834874034,-12.26826382,3.486064196
1545,1.55965359637e+18,-2.69116497,-11.52843285,7.599428177
1546,1.55965359643e+18,-5.016005516,-10.74311066,10.02243423
1547,1.55965359648e+18,-2.14048171,-9.701601982,11.76786041
1548,1.55965359653e+18,-2.964112282,-7.692804813,13.43906403
1549,1.55965359658e+18,-2.312869549,-4.695172787,8.588263512
1550,1.55965359663e+18,-1.980065227,-4.213923454,3.893090725
1551,1.55965359669e+18,-0.646454215,-3.215511084,6.402290821
1552,1.55965359674e+18,0.2513988614,1.268965602,-5.272192955
1553,1.55965359679e+18,0.03112557158,0.8858816624,-7.304932594
1554,1.55965359684e+18,-0.8403904438,-2.05668211,-1.312062621
1555,1.55965359689e+18,-4.130124092,-6.890722752,4.245049
1556,1.55965359695e+18,-5.382329941,-14.3345232,12.08151054
1557,1.559653597e+18,2.023162127,-19.31461525,9.797372818
1558,1.55965359705e+18,-1.520364523,-19.02730179,5.63851738
1559,1.5596535971e+18,-1.312062621,-10.66888809,7.965752125
1560,1.55965359715e+18,-0.8571503758,-11.22914886,12.85964966
1561,1.55965359721e+18,-2.959323645,-8.672063828,9.275420189
1562,1.55965359726e+18,-4.170826912,-7.034379482,10.49889469
1563,1.55965359731e+18,-4.168432236,-4.982485771,9.428654671
1564,1.55965359736e+18,-2.257801056,-3.802108288,8.456578255
1565,1.55965359741e+18,-3.155654192,-3.292127848,3.476486921
1566,1.55965359747e+18,-4.513207912,-2.830032825,3.440572977
1567,1.55965359752e+18,-3.998438835,-1.585009933,2.238646984
1568,1.55965359757e+18,-2.006402254,0.4668835998,2.044710636
1569,1.55965359762e+18,2.619336605,2.774964571,-1.608952641
1570,1.55965359767e+18,1.853168726,-0.5267404318,1.211503029
1571,1.55965359773e+18,-0.670396924,-4.824463844,5.073468208
1572,1.55965359778e+18,-3.026363373,-10.13735962,11.25309181
1573,1.55965359783e+18,-0.3423812985,-20.10233116,7.235498428
1574,1.55965359788e+18,-6.035966873,-22.8629303,5.435003757
1575,1.55965359793e+18,-2.844398499,-10.97774982,6.205960274
1576,1.55965359799e+18,0.03112557158,-9.775823593,11.80616951
1577,1.55965359804e+18,-1.577827096,-5.650488377,5.918647289
1578,1.55965359809e+18,-2.930592299,-5.74386549,7.407886028
1579,1.55965359814e+18,-2.722290516,-5.226701736,7.290566921
1580,1.55965359819e+18,-2.571451187,-4.503631115,6.572284222
1581,1.55965359825e+18,-2.45892024,-3.131711483,4.142095566
1582,1.5596535983e+18,-2.899466753,-1.874717116,7.089447498
1583,1.55965359835e+18,-1.106154919,-0.1771763414,5.250644684
1584,1.5596535984e+18,2.719896078,3.282550812,-1.065452337
1585,1.55965359845e+18,2.657644987,0.4285751879,-3.459727049
1586,1.55965359851e+18,-0.9792584181,-5.224307537,4.733481407
1587,1.55965359856e+18,-3.73267436,-9.050358772,8.832479477
1588,1.55965359861e+18,-3.706337452,-21.01454926,7.022408009
1589,1.55965359866e+18,-9.474145889,-23.05447197,1.271359921
1590,1.55965359871e+18,-3.033546209,-11.19562912,5.075862408
1591,1.55965359877e+18,-1.778946161,-9.893143654,11.24590874
1592,1.55965359882e+18,-3.921822071,-8.209968567,7.154093266
1593,1.55965359887e+18,-6.182017326,-7.680833817,7.656890869
1594,1.55965359892e+18,-5.06867981,-5.971321583,7.240286827
1595,1.55965359897e+18,-3.833234072,-4.640104771,6.835654736
1596,1.55965359903e+18,-2.942563772,-4.38870573,8.849239349
1597,1.55965359908e+18,-4.268991947,-1.369525194,6.632141113
1598,1.55965359913e+18,-3.316070557,-0.3759011328,3.612960577
1599,1.55965359918e+18,-3.723097324,0.6751855016,2.808484316
1600,1.55965359923e+18,-3.608172178,1.450930476,1.580221415
1601,1.55965359929e+18,1.403045058,0.5626545548,0.1867534369
1602,1.55965359934e+18,-0.8451790214,-5.200365067,3.632114887
1603,1.55965359939e+18,-3.675211906,-8.717555046,7.925049782
1604,1.55965359944e+18,-1.309668303,-15.53166103,10.5970602
1605,1.55965359949e+18,-1.628106833,-21.56762695,4.194769382
1606,1.55965359955e+18,-9.878777504,-14.69605923,3.900273561
1607,1.5596535996e+18,-4.35039711,-8.420664787,9.009655952
1608,1.55965359965e+18,-6.12694931,-8.846845627,12.27305222
1609,1.5596535997e+18,-6.969734192,-6.141314983,8.825297356
1610,1.55965359975e+18,-4.472505569,-4.17800951,7.846038342
1611,1.55965359981e+18,-3.232270956,-2.90425539,7.261835575
1612,1.55965359986e+18,-2.782147408,-2.348783493,5.774991035
1613,1.55965359991e+18,-2.382303476,-1.635289669,3.656057596
1614,1.55965359996e+18,2.916226625,-1.429382086,9.158101082
1615,1.55965360001e+18,2.37272644,-0.3208328187,-0.668002665
1616,1.55965360007e+18,4.223500729,0.6368771195,-7.156487465
1617,1.55965360012e+18,-2.470891714,-4.860377789,0.9170072675
1618,1.55965360017e+18,-3.94576478,-15.44786072,15.56518078
1619,1.55965360022e+18,-2.801301479,-16.40557098,7.257047176
1620,1.55965360027e+18,-11.51406765,-22.30506325,0.8236305118
1621,1.55965360033e+18,-4.237866402,-11.11661816,8.818114281
1622,1.55965360038e+18,-2.67201066,-9.838075638,13.85566807
1623,1.55965360043e+18,-4.348002911,-7.096630573,8.044763565
1624,1.55965360048e+18,-5.044736862,-6.80452919,8.983319283
1625,1.55965360053e+18,-3.96491909,-5.789356709,8.760651588
1626,1.55965360059e+18,-3.430995703,-4.9609375,8.004060745
1627,1.55965360064e+18,-4.905869007,-3.43578434,7.927443981
1628,1.55965360069e+18,-2.688770533,-2.181184292,6.986494064
1629,1.55965360074e+18,-3.54113245,-0.9002473354,4.024775982
1630,1.55965360079e+18,-2.229069948,-0.3040728867,-1.324033976
1631,1.55965360085e+18,2.616942406,4.187586784,-4.237866402
1632,1.5596536009e+18,1.036720991,-0.4477293789,-0.6033572555
1633,1.55965360095e+18,-3.055094719,-8.616994858,11.39435387
1634,1.559653601e+18,-7.625765324,-13.13259697,11.80138016
1635,1.55965360105e+18,3.890696526,-16.67133522,4.460534096
1636,1.55965360111e+18,-4.599401951,-13.96580505,6.581861496
1637,1.55965360116e+18,-5.080651283,-8.291373253,8.130957603
1638,1.55965360121e+18,-5.861184597,-8.188420296,12.08390522
1639,1.55965360126e+18,-4.221106529,-6.680026531,10.83169937
1640,1.55965360131e+18,-4.783761024,-5.360781193,9.488511086
1641,1.55965360137e+18,-3.359167576,-4.448562622,8.425453186
1642,1.55965360142e+18,-3.658451796,-3.081431627,6.270605564
1643,1.55965360147e+18,-3.742251635,-2.320052385,5.734288216
1644,1.55965360152e+18,-2.205127001,-0.689551115,8.025609016
1645,1.55965360157e+18,-1.965699673,0.4046324492,5.109382629
1646,1.55965360163e+18,1.249811411,2.377514839,-1.470084786
1647,1.55965360168e+18,0.6057515144,-1.757397652,-2.157241583
1648,1.55965360173e+18,-0.9792584181,-5.09262228,0.5961744189
1649,1.55965360178e+18,-6.222720146,-12.86683273,11.88039207
1650,1.55965360183e+18,-4.661653042,-15.47659206,10.94423008
1651,1.55965360189e+18,-2.044710636,-19.17814064,5.020794392
1652,1.55965360194e+18,-6.718335152,-9.85483551,6.356799603
1653,1.55965360199e+18,-4.613767624,-9.428654671,13.81496525
1654,1.55965360204e+18,-3.124528646,-6.471724987,8.906702042
1655,1.55965360209e+18,-6.363982677,-6.900300026,8.779806137
1656,1.55965360215e+18,-4.915446281,-6.146103382,7.901106834
1657,1.5596536022e+18,-4.9609375,-5.66485405,7.958569527
1658,1.55965360225e+18,-4.197163582,-3.823656797,6.80452919
1659,1.5596536023e+18,-4.70714426,-2.686376333,6.038361073
1660,1.55965360235e+18,-2.1213274,-2.712713242,8.983319283
1661,1.55965360241e+18,-0.8523618579,-1.144463301,7.391126156
1662,1.55965360246e+18,2.104567528,1.000806928,-0.1723877788
1663,1.55965360251e+18,3.976890564,2.030344963,-5.593026161
1664,1.55965360256e+18,-0.4549122155,-2.79890728,2.346389294
1665,1.55965360261e+18,-3.842811108,-6.883540154,7.711959362
1666,1.55965360267e+18,-5.688796997,-18.24676895,9.009655952
1667,1.55965360272e+18,-6.574678421,-23.18855095,6.170046329
1668,1.55965360277e+18,-6.055120945,-12.18206978,7.958569527
1669,1.55965360282e+18,-5.178816319,-8.672063828,9.617801666
1670,1.55965360287e+18,-4.494053841,-6.694392204,8.049551964
1671,1.55965360293e+18,-5.573871613,-5.985687256,9.742303848
1672,1.55965360298e+18,-4.520390987,-4.427014351,8.88515377
1673,1.55965360303e+18,-3.782954216,-3.64648056,8.310527802
1674,1.55965360308e+18,-2.525959969,-2.640885115,6.9098773
1675,1.55965360313e+18,-2.339206457,-3.996044636,5.090228081
1676,1.55965360319e+18,-1.656838179,-1.728666425,7.379155159
1677,1.55965360324e+18,-0.2585816681,0.9146129489,0.1268965602
1678,1.55965360329e+18,-1.731060743,0.4189980924,-3.730280161
1679,1.55965360334e+18,-3.146077156,-5.018400192,2.865947008
1680,1.55965360339e+18,-4.831646442,-7.096630573,6.490879059
1681,1.55965360345e+18,-5.406272411,-12.49811459,4.975303173
1682,1.5596536035e+18,-0.950527072,-20.66498566,5.207547665
1683,1.55965360355e+18,-1.098972082,-15.50292969,9.328094482
1684,1.5596536036e+18,-0.7541965842,-10.03919411,7.783787251
1685,1.55965360365e+18,-5.123748302,-10.38636398,11.8875742
1686,1.55965360371e+18,-5.889915943,-7.927443981,8.121379852
1687,1.55965360376e+18,-2.300898075,-7.503657341,9.953000069
1688,1.55965360381e+18,-3.902667999,-6.083852291,10.38875866
1689,1.55965360386e+18,-3.22508812,-3.897879362,7.570696831
1690,1.55965360391e+18,-3.0096035,-1.245022893,4.077449799
1691,1.55965360397e+18,-2.188367128,-0.1699935049,3.387898922
1692,1.55965360402e+18,-1.905842781,-0.2944957912,1.326428294
1693,1.55965360407e+18,1.410227895,-1.245022893,-3.703943014
1694,1.55965360412e+18,0.01436564885,-2.497228622,-0.102953814
1695,1.55965360417e+18,-0.4692778587,-6.387925148,3.34959054
1696,1.55965360423e+18,-2.322446585,-10.42946148,9.124581337
1697,1.55965360428e+18,-3.895485163,-12.24671555,6.014418125
1698,1.55965360433e+18,4.687990189,-21.49101067,4.915446281
1699,1.55965360438e+18,-1.182771802,-16.90118599,6.957762718
1700,1.55965360443e+18,-1.831620216,-11.36562252,6.979310989
1701,1.55965360449e+18,-4.383917332,-10.63057995,9.426259995
1702,1.55965360454e+18,-6.191594601,-9.553156853,9.773429871
1703,1.55965360459e+18,-3.035940409,-8.008849144,11.05676079
1704,1.55965360464e+18,-3.87872529,-5.865973473,7.668862343
1705,1.55965360469e+18,-2.521171331,-5.413455486,4.697566986
1706,1.55965360475e+18,-0.9984126091,-3.375927448,2.291321039
1707,1.5596536048e+18,0.8236305118,-2.181184292,3.768588543
1708,1.55965360485e+18,-0.4932205975,0.1532335877,-2.842004299
1709,1.5596536049e+18,2.394274712,2.789330244,-5.755836487
1710,1.55965360495e+18,0.3806896806,-2.130904675,2.106961727
1711,1.55965360501e+18,-2.918621063,-8.37038517,8.150111198
1712,1.55965360506e+18,-4.259414673,-14.09270191,10.01046276
1713,1.55965360511e+18,3.64887476,-18.54605293,4.043930054
1714,1.55965360516e+18,-2.590605259,-18.44788742,4.857983589
1715,1.55965360521e+18,-3.976890564,-11.19323444,5.27937603
1716,1.55965360527e+18,-7.644919395,-10.63776302,9.261054993
1717,1.55965360532e+18,-5.063891411,-8.458972931,9.318517685
1718,1.55965360537e+18,-5.827664852,-6.452570438,10.77663136
1719,1.55965360542e+18,-5.497254848,-3.742251635,8.784594536
1720,1.55965360547e+18,-4.869955063,-1.989642382,6.684815407
1721,1.55965360552e+18,-2.554691315,-0.6201171875,5.66245985
1722,1.55965360558e+18,-1.999219418,0.01436564885,4.089421272
1723,1.55965360563e+18,-1.860351562,-1.170800328,1.9944309
1724,1.55965360568e+18,0.7589851022,-3.883513689,0.7230709791
1725,1.55965360573e+18,2.188367128,-0.5674431324,-4.74784708
1726,1.55965360578e+18,-0.2944957912,-4.798126698,1.649655342
1727,1.55965360584e+18,-8.506858826,-13.75510883,14.78464699
1728,1.55965360589e+18,-1.31445682,-15.96741867,10.63536835
1729,1.55965360594e+18,-1.604164124,-18.98659897,4.934600353
1730,1.55965360599e+18,-3.495641232,-11.82292938,6.433416367
1731,1.55965360604e+18,-4.506025314,-8.854028702,10.23791885
1732,1.5596536061e+18,-8.561926842,-7.896318436,9.490905762
1733,1.55965360615e+18,-6.562707424,-7.04156208,10.33129597
1734,1.5596536062e+18,-6.610592842,-6.026389599,10.93944168
1735,1.55965360625e+18,-5.463735104,-3.423812866,10.64733982
1736,1.5596536063e+18,-4.343214512,-1.671203852,8.162082672
1737,1.55965360635e+18,-2.751021862,-1.48445034,7.843644142
1738,1.55965360641e+18,-2.712713242,-1.529941559,5.628940105
1739,1.55965360646e+18,-2.05668211,-1.154040456,5.140508175
1740,1.55965360651e+18,0.9337671995,0.668002665,-0.2513988614
1741,1.55965360656e+18,0.6392713785,0.3423812985,-4.046324253
1742,1.55965360661e+18,-2.739050388,-5.085439682,-0.4381522834
1743,1.55965360667e+18,-3.778165579,-8.035185814,4.738269806
1744,1.55965360672e+18,-3.955342054,-12.12221336,6.555524349
1745,1.55965360677e+18,0.6656084061,-17.0089283,4.230683804
1746,1.55965360682e+18,-8.660092354,-16.27867508,11.40632534
1747,1.55965360687e+18,-1.455719113,-10.14454269,14.60268211
1748,1.55965360693e+18,-5.87555027,-9.677659035,14.0089016
1749,1.55965360698e+18,-9.624984741,-8.43742466,10.20439911
1750,1.55965360703e+18,-5.403878212,-6.931425571,9.835680962
1751,1.55965360708e+18,-4.367157459,-4.379128456,9.189227104
1752,1.55965360713e+18,-2.621730804,-3.057488918,7.235498428
1753,1.55965360719e+18,-3.0119977,-1.156434774,5.573871613
1754,1.55965360724e+18,-4.21871233,-0.7278595567,4.489265442
1755,1.55965360729e+18,-6.730306625,-3.943370581,4.85558939
1756,1.55965360734e+18,-4.288146019,-0.984046936,-1.264177084
1757,1.55965360739e+18,1.678386688,3.067065954,-3.885908127
1758,1.55965360745e+18,1.383890867,0.6560313106,-1.192348838
1759,1.5596536075e+18,-2.43976593,-5.650488377,4.757423878
1760,1.55965360755e+18,-5.854001999,-12.82373619,17.2124424
1761,1.5596536076e+18,-1.031932473,-14.13579845,9.545973778
1762,1.55965360765e+18,-7.958569527,-17.59791946,6.483695984
1763,1.55965360771e+18,-5.104593754,-8.894730568,6.960156918
1764,1.55965360776e+18,-5.736682415,-6.038361073,9.919480324
1765,1.55965360781e+18,-5.21473074,-6.122160912,8.837267876
1766,1.55965360786e+18,-5.389512539,-5.609786034,9.84046936
1767,1.55965360791e+18,-5.81090498,-4.486870766,9.210775375
1768,1.55965360797e+18,-4.575459003,-3.955342054,7.146910191
1769,1.55965360802e+18,-3.600989342,-2.640885115,5.298530102
1770,1.55965360807e+18,-2.250618219,-2.415823221,2.025556564
1771,1.55965360812e+18,-3.193962574,-0.1556278616,2.846792698
1772,1.55965360817e+18,5.588237286,3.593806505,-4.632921696
1773,1.55965360823e+18,2.279349566,1.189954638,-2.662433624
1774,1.55965360828e+18,-3.830839634,-6.838048935,6.785374641
1775,1.55965360833e+18,-7.498868465,-11.3201313,11.64335823
1776,1.55965360838e+18,1.376708031,-15.49095821,5.367964268
1777,1.55965360843e+18,-8.06391716,-15.6154604,6.258634567
1778,1.55965360849e+18,-7.601822376,-8.901913643,7.055927753
1779,1.55965360854e+18,-3.392687321,-7.465348721,10.17327404
1780,1.55965360859e+18,-4.489265442,-7.178035736,8.530800819
1781,1.55965360864e+18,-7.743084908,-6.596227169,7.436617374
1782,1.55965360869e+18,-5.013611317,-5.085439682,9.239506721
1783,1.55965360875e+18,-3.280156374,-4.161249638,8.650514603
1784,1.5596536088e+18,-4.120546818,-2.82045579,5.856396198
1785,1.55965360885e+18,-5.257827282,-2.231464148,1.649655342
1786,1.5596536089e+18,-1.496421814,-1.340793848,3.727885962
1787,1.55965360895e+18,1.019961119,1.558672905,-0.5339232683
1788,1.55965360901e+18,2.423006058,1.831620216,-3.847599506
1789,1.55965360906e+18,-1.834014535,-6.948185444,4.381523132
1790,1.55965360911e+18,-6.44778204,-11.79659176,13.27864838
1791,1.55965360916e+18,-2.796513081,-17.37046432,10.01525116
1792,1.55965360921e+18,-6.929031372,-19.88205719,4.192375183
1793,1.55965360927e+18,-7.070293427,-8.468549728,5.655277252
1794,1.55965360932e+18,-5.693585396,-7.716747761,9.852440834
1795,1.55965360937e+18,-3.433390141,-5.420638084,7.728719234
1796,1.55965360942e+18,-6.395108223,-4.393494129,7.470137596
1797,1.55965360947e+18,-6.40707922,-4.008016109,7.805335999
1798,1.55965360953e+18,-4.101392746,-2.921015263,7.953781128
1799,1.55965360958e+18,-3.433390141,-2.650462151,5.959350109
1800,1.55965360963e+18,-3.344801903,-1.915419817,5.583448887
1801,1.55965360968e+18,0.8116591573,-0.1987248063,3.047911882
1802,1.55965360973e+18,3.835628271,1.553884387,-2.039922237
1803,1.55965360979e+18,-0.8427847624,-1.786128998,1.094183564
1804,1.55965360984e+18,-5.406272411,-9.90750885,13.23794556
1805,1.55965360989e+18,-2.628913641,-8.260248184,4.628133297
1806,1.55965360994e+18,-1.498816013,-20.49978065,3.0981915
1807,1.55965360999e+18,-6.531581879,-14.30100346,5.195576191
1808,1.55965361005e+18,-2.69116497,-8.533195496,8.894730568
1809,1.5596536101e+18,-4.513207912,-8.10461998,12.0479908
1810,1.55965361015e+18,-7.558725357,-5.425426483,8.851634026
1811,1.5596536102e+18,-6.409473896,-6.893116951,12.51487446
1812,1.55965361025e+18,-4.778972626,-5.221913338,12.35685253
1813,1.55965361031e+18,-1.977671027,-2.324840784,9.016839027
1814,1.55965361036e+18,-1.807677507,-1.503604531,5.21473074
1815,1.55965361041e+18,1.563461423,-3.617749214,6.172440529
1816,1.55965361046e+18,-0.06464541703,-1.247417212,-0.8643332124
1817,1.55965361051e+18,-1.642472506,-2.468497276,-6.483695984
1818,1.55965361057e+18,-2.367937803,-5.255433083,-2.413429022
1819,1.55965361062e+18,0.08619388938,-9.624984741,7.714353561
1820,1.55965361067e+18,-4.980091572,-15.98178482,13.78384018
1821,1.55965361072e+18,-2.475680113,-16.19966316,1.072635174
1822,1.55965361077e+18,-3.177202702,-12.35924625,9.699207306
1823,1.55965361083e+18,-3.830839634,-10.80296803,13.40075588
1824,1.55965361088e+18,-5.944984436,-8.842057228,11.04239559
1825,1.55965361093e+18,-5.839636326,-6.622564316,9.435836792
1826,1.55965361098e+18,-3.533949614,-5.123748302,10.58987713
1827,1.55965361103e+18,-3.569863796,-4.067873001,8.937828064
1828,1.55965361109e+18,-3.402264595,-4.003227711,7.261835575
1829,1.55965361114e+18,-2.911438227,-3.833234072,3.41423583
1830,1.55965361119e+18,-1.783734679,-4.024775982,0.4668835998
1831,1.55965361124e+18,-1.256994247,1.82204318,0.483643502
1832,1.55965361129e+18,3.840416908,3.818868399,-4.53715086
1833,1.55965361135e+18,1.630501151,-1.613741279,2.478074312
1834,1.5596536114e+18,-4.182797909,-11.39914227,10.92028713
1835,1.55965361145e+18,-3.603383541,-11.30815983,10.76944828
1836,1.5596536115e+18,5.24106741,-15.94826412,2.473285913
1837,1.55965361155e+18,-5.367964268,-17.75354767,4.419831276
1838,1.55965361161e+18,-5.458946705,-10.6018486,5.367964268
1839,1.55965361166e+18,-5.537957668,-9.862017632,9.364008904
1840,1.55965361171e+18,-6.179623127,-8.597841263,9.313729286
1841,1.55965361176e+18,-5.221913338,-8.190814018,11.98334503
1842,1.55965361181e+18,-3.246636629,-6.368771076,6.945791245
1843,1.55965361187e+18,-2.959323645,-4.460534096,1.819648862
1844,1.55965361192e+18,-1.862745762,-1.802888989,-0.7733507752
1845,1.55965361197e+18,-1.975276709,-0.6416656375,0.6847625971
1846,1.55965361202e+18,7.563514233,5.291347504,-0.6249057055
1847,1.55965361207e+18,2.066259146,1.599375606,-1.905842781
1848,1.55965361213e+18,-1.896265626,-5.753442287,8.121379852
1849,1.55965361218e+18,-5.928224564,-16.01291084,17.91635895
1850,1.55965361223e+18,0.29689008,-15.41673565,8.786988258
1851,1.55965361228e+18,-6.677632332,-20.08796501,2.310475111
1852,1.55965361233e+18,-4.513207912,-10.23552513,4.515602112
1853,1.55965361239e+18,-6.510033131,-8.399115562,7.443800449
1854,1.55965361244e+18,-6.653689861,-7.393520832,8.195602417
1855,1.55965361249e+18,-4.482082367,-5.70555687,8.229122162
1856,1.55965361254e+18,-3.641691923,-4.517996788,8.006455421
1857,1.55965361259e+18,-3.270579338,-3.34959054,6.756643295
1858,1.55965361265e+18,-2.803695917,-2.389486313,4.254626274
1859,1.5596536127e+18,-3.22269392,-3.579440832,2.873129845
1860,1.55965361275e+18,-1.201925993,-3.821262598,6.390319347
1861,1.5596536128e+18,0.1963305324,2.451737404,-2.604970932
1862,1.55965361285e+18,0.1364736706,0.7158881426,-0.2897072434
1863,1.55965361291e+18,-4.824463844,-8.197997093,6.419050694
1864,1.55965361296e+18,-4.541939259,-14.36564922,16.49655342
1865,1.55965361301e+18,-1.151646137,-13.36005306,3.402264595
1866,1.55965361306e+18,-2.679193497,-17.21962357,4.340820312
1867,1.55965361311e+18,-2.633702278,-9.883566856,4.087027073
1868,1.55965361317e+18,-4.551516533,-9.373585701,9.189227104
1869,1.55965361322e+18,-7.927443981,-8.846845627,9.194015503
1870,1.55965361327e+18,-2.762993097,-7.46774292,8.825297356
1871,1.55965361332e+18,-2.909043789,-5.494860649,8.492492676
1872,1.55965361337e+18,-2.604970932,-4.441379547,6.684815407
1873,1.55965361343e+18,-2.094990492,-2.559479713,3.524372578
1874,1.55965361348e+18,-1.376708031,-0.6799740195,1.65444386
1875,1.55965361353e+18,-2.449343204,-1.582615614,3.442967176
1876,1.55965361358e+18,0.3543526828,1.901054144,-0.04070267081
1877,1.55965361363e+18,1.965699673,-1.18756032,0.5842030644
1878,1.55965361369e+18,-2.547508478,-8.559532166,8.248276711
1879,1.55965361374e+18,-5.820482254,-13.92989063,12.55078888
1880,1.55965361379e+18,4.027170181,-14.69605923,0.8427847624
1881,1.55965361384e+18,-7.89152956,-16.71443176,1.664021015
1882,1.55965361389e+18,-3.342407703,-9.584281921,5.468523502
1883,1.55965361395e+18,-3.428601503,-8.99289608,10.18524456
1884,1.559653614e+18,-6.634535313,-7.29535532,7.020013809
1885,1.55965361405e+18,-6.522004604,-6.641718388,7.829278469
1886,1.5596536141e+18,-5.971321583,-5.609786034,7.72153616
1887,1.55965361415e+18,-5.248250484,-4.278569221,6.632141113
1888,1.55965361421e+18,-3.960130453,-2.628913641,3.677606106
1889,1.55965361426e+18,-2.875524044,-1.127703428,2.887495518
1890,1.55965361431e+18,-1.206714511,-0.1652049571,1.142069101
1891,1.55965361436e+18,0.4046324492,-0.04788549617,-0.5722316504
1892,1.55965361441e+18,2.552296877,-3.689577579,-0.3280156553
1893,1.55965361447e+18,-1.321639657,-8.99289608,4.948966026
1894,1.55965361452e+18,-4.85558939,-11.69124413,11.08788681
1895,1.55965361457e+18,-4.517996788,-7.417463303,0.5027977228
1896,1.55965361462e+18,-3.0957973,-20.14782333,1.453324795
1897,1.55965361467e+18,-3.622537851,-17.21004677,7.132544518
1898,1.55965361473e+18,-2.79890728,-10.43903828,7.383943558
1899,1.55965361478e+18,-6.105400562,-9.529213905,9.428654671
1900,1.55965361483e+18,-7.838855743,-8.430241585,8.231516838
1901,1.55965361488e+18,-6.749460697,-6.141314983,6.885934353
1902,1.55965361493e+18,-5.537957668,-4.465322495,7.099024773
1903,1.55965361499e+18,-0.7398309112,-3.447755814,8.499675751
1904,1.55965361504e+18,-0.4716721475,-3.691971779,4.628133297
1905,1.55965361509e+18,0.0,-4.058295727,2.288926601
1906,1.55965361514e+18,-2.300898075,-1.350371003,3.158048391
1907,1.55965361519e+18,0.2657645047,0.4525179267,-1.312062621
1908,1.55965361525e+18,0.6967339516,-1.130097747,-2.061470509
1909,1.5596536153e+18,-1.752609134,-7.060716629,3.20353961
1910,1.55965361535e+18,-6.170046329,-13.49173832,8.988107681
1911,1.5596536154e+18,-7.01761961,-18.55802345,7.283383846
1912,1.55965361545e+18,3.033546209,-21.34495926,2.118933201
1913,1.55965361551e+18,-2.995237827,-11.70082092,2.557085514
1914,1.55965361556e+18,-12.79739857,-14.14298153,13.494133
1915,1.55965361561e+18,-9.323306084,-9.996097565,7.36000061
1916,1.55965361566e+18,-2.700742006,-6.399896622,9.926663399
1917,1.55965361571e+18,-3.026363373,-3.483669758,6.828471661
1918,1.55965361577e+18,-3.632114887,-2.573845387,3.277762175
1919,1.55965361582e+18,-3.263396502,-3.110162973,3.241847992
1920,1.55965361587e+18,-3.076643229,-2.126116037,2.511594296
1921,1.55965361592e+18,-4.115758419,-1.501210332,8.068706512
1922,1.55965361597e+18,-1.395862222,0.7230709791,1.477267504
1923,1.55965361603e+18,2.734261751,2.071047783,-1.180377483
1924,1.55965361608e+18,-0.5363175869,-1.678386688,0.09577099234
1925,1.55965361613e+18,-2.456526041,-7.070293427,9.73751545
1926,1.55965361618e+18,-6.057515144,-12.77345657,13.51568127
1927,1.55965361623e+18,3.186779737,-17.41834831,2.664827824
1928,1.55965361629e+18,-8.087860107,-19.79107475,5.408666611
1929,1.55965361634e+18,-7.343240738,-9.663292885,6.97691679
1930,1.55965361639e+18,-9.016839027,-7.86758709,9.510059357
1931,1.55965361644e+18,-3.833234072,-4.206740856,7.022408009
1932,1.55965361649e+18,-2.99044919,-2.942563772,7.841249943
1933,1.55965361655e+18,-2.281744003,-2.521171331,7.192401409
1934,1.5596536166e+18,-3.019180536,-2.698347807,6.957762718
1935,1.55965361665e+18,-2.241041183,-3.909850836,6.684815407
1936,1.5596536167e+18,1.266571403,-0.4285751879,6.727912426
1937,1.55965361675e+18,1.23065722,1.901054144,-2.973689318
1938,1.55965361681e+18,-0.648848474,0.3926610649,-3.909850836
1939,1.55965361686e+18,-1.268965602,-3.067065954,1.539518714
1940,1.55965361691e+18,-4.807703972,-9.979337692,9.01923275
1941,1.55965361696e+18,-4.599401951,-19.92276001,12.92190075
1942,1.55965361701e+18,-8.310527802,-18.06001472,0.9217957854
1943,1.55965361707e+18,-3.263396502,-12.94823837,4.161249638
1944,1.55965361712e+18,-2.731867552,-7.496474266,7.338452339
1945,1.55965361717e+18,-5.27937603,-8.38235569,10.80057335
1946,1.55965361722e+18,-5.976109982,-6.852414608,7.872375488
1947,1.55965361727e+18,-3.644086361,-5.906675816,9.24429512
1948,1.55965361733e+18,-3.277762175,-4.671230316,8.049551964
1949,1.55965361738e+18,-4.735875607,-3.835628271,5.722316742
1950,1.55965361743e+18,-3.258608103,-2.58581686,4.822069645
1951,1.55965361748e+18,-3.311282158,-1.9944309,1.407833576
1952,1.55965361753e+18,-2.868341208,-0.9002473354,3.514795303
1953,1.55965361759e+18,1.216291547,0.1340793967,-0.6368771195
1954,1.55965361764e+18,-1.544307232,-3.167625666,2.964112282
1955,1.55965361769e+18,-3.253819466,-7.436617374,12.29938984
1956,1.55965361774e+18,-1.790917516,-9.684841156,5.118959427
1957,1.55965361779e+18,-9.526819229,-19.78628731,1.975276709
1958,1.55965361785e+18,-4.53475666,-14.154953,7.46774292
1959,1.5596536179e+18,-1.204320192,-7.587456703,8.418270111
1960,1.55965361795e+18,-4.824463844,-8.183630943,9.375980377
1961,1.559653618e+18,-9.668081284,-7.125361919,6.998465061
1962,1.55965361805e+18,-4.857983589,-6.885934353,8.044763565
1963,1.55965361811e+18,-3.347196102,-6.184412003,8.020820618
1964,1.55965361816e+18,-3.344801903,-4.92262888,4.692778587
1965,1.55965361821e+18,-2.516382933,-3.126922846,1.046298146
1966,1.55965361826e+18,1.805283189,-1.570644259,5.607391834
1967,1.55965361831e+18,0.007182824425,3.500429869,-2.274561167
1968,1.55965361837e+18,1.084606528,1.419804931,-1.072635174
1969,1.55965361842e+18,-2.442160368,-5.382329941,6.040755272
1970,1.55965361847e+18,-3.11734581,-12.77824497,16.85808945
1971,1.55965361852e+18,-2.102173328,-17.38243484,-0.6919454336
1972,1.55965361857e+18,-9.167677879,-16.15896034,6.385530949
1973,1.55965361863e+18,-2.286532402,-8.846845627,7.72153616
1974,1.55965361868e+18,-2.358360767,-6.998465061,7.970541
1975,1.55965361873e+18,-4.21871233,-5.968926907,4.972908974
1976,1.55965361878e+18,-6.964945316,-8.293767929,4.628133297
1977,1.55965361883e+18,-8.257853508,-8.956981659,6.548341751
1978,1.55965361889e+18,-5.971321583,-8.813325882,8.693612099
1979,1.55965361894e+18,-1.094183564,-4.680807114,8.870788574
1980,1.55965361899e+18,-2.801301479,-2.039922237,4.520390987
1981,1.55965361904e+18,2.645673752,3.632114887,-0.2490045726
1982,1.55965361909e+18,2.478074312,3.076643229,-7.831672668
1983,1.55965361915e+18,-2.715107679,5.458946705,-1.149251938
1984,1.5596536192e+18,-0.7230709791,-2.238646984,5.882733345
1985,1.55965361925e+18,4.616161823,-23.73205185,8.109408379
1986,1.5596536193e+18,-15.5579977,-26.33462906,-0.7470137477
1987,1.55965361935e+18,-1.295302629,-15.32575321,6.861991405
1988,1.55965361941e+18,-2.255406857,-11.32731438,6.0216012
1989,1.55965361946e+18,-5.463735104,-9.296969414,3.976890564
1990,1.55965361951e+18,-4.936994553,-7.020013809,4.194769382
1991,1.55965361956e+18,-3.952947617,-4.838829517,4.764606953
1992,1.55965361961e+18,-4.386311531,-3.696760416,3.519583941
