,Time (s),Acceleration x (m/s^2),Acceleration y (m/s^2),Acceleration z (m/s^2)
0,1.55965411805e+18,3.641691923,-0.004788549617,5.633728504
1,1.5596541181e+18,1.120520592,-1.300091267,4.024775982
2,1.55965411816e+18,-1.024749637,-1.843591571,3.442967176
3,1.55965411821e+18,-4.53715086,-1.12530911,5.681613922
4,1.55965411826e+18,-10.5970602,-1.807677507,6.498061657
5,1.55965411831e+18,-13.64018345,-0.1005595401,0.9960182905
6,1.55965411836e+18,-7.482108593,-2.762993097,9.205986977
7,1.55965411842e+18,-7.75984478,-5.660065651,8.803748131
8,1.55965411847e+18,-13.12780857,-4.620950222,1.769369125
9,1.55965411852e+18,-16.61626625,-6.12934351,4.180403709
10,1.55965411857e+18,-18.33056831,-8.523618698,6.790163517
11,1.55965411862e+18,-20.14064026,-7.371972084,7.185218811
12,1.55965411868e+18,-17.95945549,-8.197997093,4.587430477
13,1.55965411873e+18,-11.83250618,-6.924242973,1.046298146
14,1.55965411878e+18,-3.711125851,-6.004841328,0.8356019258
15,1.55965411883e+18,0.986441195,-0.2035133541,-2.736656189
16,1.55965411888e+18,1.783734679,-0.8188419938,0.5722316504
17,1.55965411894e+18,-0.8164477348,0.926584363,3.100585938
18,1.55965411899e+18,-6.629746914,4.077449799,3.723097324
19,1.55965411904e+18,0.06464541703,4.60179615,8.308133125
20,1.55965411909e+18,3.612960577,5.652883053,5.779779434
21,1.55965411914e+18,3.64648056,8.892336845,3.483669758
22,1.5596541192e+18,3.112557173,9.828497887,5.023188591
23,1.55965411925e+18,2.643279314,9.809344292,6.361588001
24,1.5596541193e+18,4.027170181,8.834874153,7.606611252
25,1.55965411935e+18,1.90823698,7.127756119,6.237085819
26,1.5596541194e+18,1.664021015,6.691998005,4.992063046
27,1.55965411946e+18,2.861158371,6.323279858,5.17402792
28,1.55965411951e+18,2.099778891,7.460560322,5.901887417
29,1.55965411956e+18,1.755003452,6.605803967,7.54914856
30,1.55965411961e+18,0.7518022656,6.943397045,7.04395628
31,1.55965411966e+18,1.766974807,6.426233768,6.713546753
32,1.55965411972e+18,3.79492569,6.095823765,5.648094177
33,1.55965411977e+18,3.543526649,7.371972084,4.927417755
34,1.55965411982e+18,8.085466385,11.56434727,6.244268894
35,1.55965411987e+18,17.19089317,22.79349709,4.798126698
36,1.55965411992e+18,23.24840927,33.50069427,1.027143836
37,1.55965411998e+18,10.79099655,3.270579338,12.92908382
38,1.55965412003e+18,-16.74077034,-30.59883118,-14.82056141
39,1.55965412008e+18,-15.03365135,-20.59315681,5.885127544
40,1.55965412013e+18,-2.765387297,1.664021015,-5.083045483
41,1.55965412018e+18,11.90194035,24.54610443,-1.395862222
42,1.55965412024e+18,-7.929838181,14.73676109,-3.763799906
43,1.55965412029e+18,-7.40309763,5.921041489,4.800520897
44,1.55965412034e+18,-4.386311531,0.9553156495,8.92585659
45,1.55965412039e+18,-1.735849261,-0.184359163,7.953781128
46,1.55965412044e+18,2.825244188,2.770175934,6.522004604
47,1.5596541205e+18,1.826831698,1.309668303,6.244268894
48,1.55965412055e+18,3.074248791,2.365543604,8.621783257
49,1.5596541206e+18,6.050332546,0.3088614643,10.2666502
50,1.55965412065e+18,5.502043724,-1.455719113,10.41749001
51,1.5596541207e+18,7.649707794,-2.391880512,9.047964096
52,1.55965412076e+18,6.644112587,-1.910631299,8.142929077
53,1.55965412081e+18,5.34402132,-1.788523316,6.438204765
54,1.55965412086e+18,3.612960577,-1.417410731,5.030371189
55,1.55965412091e+18,2.475680113,1.515576005,3.533949614
56,1.55965412096e+18,0.9194015265,5.628940105,4.719115734
57,1.55965412102e+18,-2.011190891,7.834067345,5.753442287
58,1.55965412107e+18,-5.822876453,2.794118643,9.172467232
59,1.55965412112e+18,-9.107821465,-3.94576478,9.69681263
60,1.55965412117e+18,-8.07828331,-3.557892323,7.450983047
61,1.55965412122e+18,-6.902694225,-2.595393896,4.661653042
62,1.55965412127e+18,-8.305739403,-4.271386147,4.321666241
63,1.55965412133e+18,-5.691191196,-4.053507328,3.787742853
64,1.55965412138e+18,-3.912245035,-4.599401951,3.610566378
65,1.55965412143e+18,-4.029564381,-5.640911579,3.929004908
66,1.55965412148e+18,-3.620143414,-7.134938717,4.939388752
67,1.55965412153e+18,-4.28335762,-10.17566776,5.078257084
68,1.55965412159e+18,-5.152479172,-11.24590874,3.943370581
69,1.55965412164e+18,-3.076643229,-10.41030693,3.131711483
70,1.55965412169e+18,-3.306493521,-10.36242104,3.074248791
71,1.55965412174e+18,-2.67201066,-9.567522049,2.640885115
72,1.55965412179e+18,-2.24822402,-8.928250313,2.801301479
73,1.55965412185e+18,-2.231464148,-8.75586319,2.561874151
74,1.5596541219e+18,-2.276955366,-9.361614227,2.272166729
75,1.55965412195e+18,-2.612153769,-9.974549294,2.238646984
76,1.559654122e+18,-2.559479713,-9.986519814,2.394274712
77,1.55965412205e+18,-2.262589693,-9.804554939,2.418217659
78,1.55965412211e+18,-1.197137356,-9.699207306,2.430188894
79,1.55965412216e+18,-0.8068706393,-9.715967178,2.619336605
80,1.55965412221e+18,-0.7206767201,-9.390345573,1.936968327
81,1.55965412226e+18,-1.127703428,-9.273026466,1.477267504
82,1.55965412231e+18,-1.383890867,-9.490905762,1.687963724
83,1.55965412237e+18,-1.697540879,-9.445414543,1.491633177
84,1.55965412242e+18,-1.58979845,-9.725543976,1.565855742
85,1.55965412247e+18,-1.223474383,-10.04158878,1.668809533
86,1.55965412252e+18,-0.9529213905,-10.21158218,1.628106833
87,1.55965412257e+18,-1.091789365,-10.01046276,1.67599237
88,1.55965412263e+18,-1.168406129,-9.385557175,1.036720991
89,1.55965412268e+18,-0.9696813226,-9.373585701,1.82443738
90,1.55965412273e+18,-1.182771802,-9.194015503,1.659232497
91,1.55965412278e+18,-0.9122186899,-9.115004539,1.63289547
92,1.55965412283e+18,-1.087000728,-9.830892563,1.687963724
93,1.55965412289e+18,-1.110943556,-9.921875,1.625712633
94,1.55965412294e+18,-1.115732074,-9.768641472,1.714300752
95,1.55965412299e+18,-1.185166001,-9.579493523,1.438959122
96,1.55965412304e+18,-0.964892745,-9.596253395,1.750214934
97,1.55965412309e+18,-1.063058019,-9.601041794,1.625712633
98,1.55965412315e+18,-1.144463301,-9.534002304,1.750214934
99,1.5596541232e+18,-1.158828974,-9.591464996,1.585009933
100,1.55965412325e+18,-1.139674783,-9.680052757,1.580221415
101,1.5596541233e+18,-1.077423692,-9.577098846,1.508393168
102,1.55965412335e+18,-1.087000728,-9.684841156,1.405439258
103,1.55965412341e+18,-1.087000728,-9.725543976,1.35755384
104,1.55965412346e+18,-1.154040456,-9.979337692,1.436564922
105,1.55965412351e+18,-0.9936240315,-9.799766541,1.608952641
106,1.55965412356e+18,-0.7518022656,-9.598648071,1.690358043
107,1.55965412361e+18,-0.6009629965,-9.553156853,1.685569525
108,1.55965412367e+18,-0.6081457734,-9.689630508,1.644866824
109,1.55965412372e+18,-0.5985686779,-9.833286285,1.644866824
110,1.55965412377e+18,-0.59378016,-9.996097565,1.86514008
111,1.55965412382e+18,-0.4381522834,-9.452596664,1.410227895
112,1.55965412387e+18,-0.8499675393,-9.268238068,1.393467903
113,1.55965412393e+18,-1.494027495,-10.33368969,2.004008055
114,1.55965412398e+18,-1.058269501,-9.500482559,1.007989645
115,1.55965412403e+18,-0.2154847383,-9.253871918,1.168406129
116,1.55965412408e+18,-0.44533512,-10.00088596,2.118933201
117,1.55965412413e+18,-1.63289547,-8.794171333,0.8236305118
118,1.55965412419e+18,-1.185166001,-8.956981659,1.403045058
119,1.55965412424e+18,-0.7709565163,-10.07032013,2.16203022
120,1.55965412429e+18,-1.03911531,-9.888355255,1.501210332
121,1.55965412434e+18,-0.8044763207,-9.862017632,1.790917516
122,1.55965412439e+18,-1.290514112,-9.818921089,1.984853864
123,1.55965412445e+18,-1.532335877,-9.440625191,1.82204318
124,1.5596541245e+18,-1.142069101,-9.579493523,2.123721838
125,1.55965412455e+18,-0.9026415944,-9.620196342,1.989642382
126,1.5596541246e+18,-1.376708031,-9.596253395,1.831620216
127,1.55965412465e+18,-1.647261024,-9.60343647,1.738243461
128,1.55965412471e+18,-1.197137356,-9.613013268,1.788523316
129,1.55965412476e+18,-0.984046936,-9.52203083,1.814860344
130,1.55965412481e+18,-0.9553156495,-9.53639698,1.783734679
131,1.55965412486e+18,-0.9026415944,-9.431048393,2.01597929
132,1.55965412491e+18,-0.6751855016,-9.706390381,2.174001455
133,1.55965412497e+18,-0.9577099085,-10.02482891,3.102980137
134,1.55965412502e+18,-1.793311834,-9.86680603,3.955342054
135,1.55965412507e+18,-3.186779737,-9.665687561,3.885908127
136,1.55965412512e+18,-4.326454639,-9.21795845,4.438985348
137,1.55965412517e+18,-4.616161823,-8.229122162,4.395888329
138,1.55965412523e+18,-5.444581032,-8.152505875,3.9864676
139,1.55965412528e+18,-5.38711834,-7.328875065,4.151672363
140,1.55965412533e+18,-5.17163372,-7.40070343,4.249837875
141,1.55965412538e+18,-6.064698219,-6.696786404,3.526766777
142,1.55965412543e+18,-6.888328552,-6.941002846,3.129317284
143,1.55965412549e+18,-6.543552876,-6.107795238,2.731867552
144,1.55965412554e+18,-6.210748672,-5.470917702,2.679193497
145,1.55965412559e+18,-6.428627968,-5.011217117,3.086220264
146,1.55965412564e+18,-7.072687626,-4.692778587,2.794118643
147,1.55965412569e+18,-7.484503269,-4.034353256,2.24822402
148,1.55965412575e+18,-8.15968895,-3.811685562,2.26737833
149,1.5596541258e+18,-8.909096718,-3.526766777,2.312869549
150,1.55965412585e+18,-8.375173569,-3.708731651,1.9944309
151,1.5596541259e+18,-9.500482559,-4.051113129,2.487651587
152,1.55965412595e+18,-9.213169098,-3.217905283,2.913832426
153,1.55965412601e+18,-9.433443069,-2.813272953,3.617749214
154,1.55965412606e+18,-10.45579815,-2.463708878,2.006402254
155,1.55965412611e+18,-9.543579102,-2.437371731,1.604164124
156,1.55965412616e+18,-8.554743767,-2.968900681,2.75820446
157,1.55965412621e+18,-7.922655106,-3.287339211,1.800494671
158,1.55965412627e+18,-7.680833817,-4.482082367,0.8475732803
159,1.55965412632e+18,-11.93546009,-8.621783257,-2.159635782
160,1.55965412637e+18,-10.84367085,1.953728199,-2.911438227
161,1.55965412642e+18,-6.615381241,-2.736656189,0.9553156495
162,1.55965412647e+18,-7.929838181,1.661626697,0.1987248063
163,1.55965412653e+18,-7.695199013,1.422199249,1.237840056
164,1.55965412658e+18,-5.942590237,1.410227895,1.766974807
165,1.55965412663e+18,-5.933012962,0.2561874092,1.731060743
166,1.55965412668e+18,-9.909903526,-1.977671027,4.422225475
167,1.55965412673e+18,-15.71362591,-8.949799538,6.368771076
168,1.55965412679e+18,-22.31224632,-10.64255142,10.30495834
169,1.55965412684e+18,-21.7759285,-10.45579815,13.55638409
170,1.55965412689e+18,-19.98501205,-9.780612946,7.099024773
171,1.55965412694e+18,-15.53166103,-9.634561539,2.442160368
172,1.55965412699e+18,-5.748653889,-7.489291668,0.4860377908
173,1.55965412705e+18,-6.009629726,-4.472505569,-0.3064671755
174,1.5596541271e+18,-3.663240433,-2.944957972,-2.90664959
175,1.55965412715e+18,2.698347807,-2.16203022,-0.22266756
176,1.5596541272e+18,2.229069948,0.8643332124,-2.789330244
177,1.55965412725e+18,3.100585938,5.332049847,0.7972934842
178,1.55965412731e+18,8.947404861,12.90274715,2.722290516
179,1.55965412736e+18,17.79185677,31.29077721,5.487678051
180,1.55965412741e+18,26.05928612,37.17829895,4.817280769
181,1.55965412746e+18,13.16611671,12.82373619,20.84216309
182,1.55965412751e+18,-0.5746259689,-68.3182373,-16.00812149
183,1.55965412757e+18,-12.69923401,-22.95151901,5.59781456
184,1.55965412762e+18,9.050358772,1.891477108,-5.906675816
185,1.55965412767e+18,3.268185139,15.35927296,-7.510839939
186,1.55965412772e+18,-7.455771923,12.29938984,-5.013611317
187,1.55965412777e+18,-0.3112557232,11.19562912,-0.102953814
188,1.55965412783e+18,1.587404251,10.51804924,3.565075159
189,1.55965412788e+18,3.081431627,7.314509392,5.272192955
190,1.55965412793e+18,1.460507631,5.38711834,6.100612164
191,1.55965412798e+18,-0.7925049663,3.052700281,6.929031372
192,1.55965412803e+18,-0.9792584181,3.0119977,5.935407162
193,1.55965412809e+18,-0.651242733,2.516382933,6.83086586
194,1.55965412814e+18,-1.731060743,4.585036278,5.188393593
195,1.55965412819e+18,-1.565855742,4.822069645,5.988081455
196,1.55965412824e+18,-4.972908974,6.981705189,7.115784645
197,1.55965412829e+18,-1.88668859,8.092648506,8.01124382
198,1.55965412835e+18,-3.198751211,6.289760113,8.703188896
199,1.5596541284e+18,-5.317684174,7.053533554,6.926637173
200,1.55965412845e+18,-6.23469162,5.190787792,7.561120033
201,1.5596541285e+18,-7.515628815,4.805309772,4.726298332
202,1.55965412855e+18,-11.56195259,3.816473961,5.243461609
203,1.55965412861e+18,-8.681640625,2.58581686,6.201171875
204,1.55965412866e+18,-10.95859623,0.2346389294,4.235472202
205,1.55965412871e+18,-9.447808266,0.0,4.010410309
206,1.55965412876e+18,-9.656110764,-0.5578660369,2.303292274
207,1.55965412881e+18,-9.653716087,-1.642472506,2.35596633
208,1.55965412887e+18,-11.34886265,-2.865947008,1.415016413
209,1.55965412892e+18,-10.72395706,-2.391880512,1.359948039
210,1.55965412897e+18,-9.921875,-2.33441782,2.106961727
211,1.55965412902e+18,-10.16130257,-2.116539001,1.118126392
212,1.55965412907e+18,-8.803748131,-2.492439985,3.404658794
213,1.55965412913e+18,-8.427846909,-2.683982134,3.426207304
214,1.55965412918e+18,-7.465348721,-2.090201855,2.097384691
215,1.55965412923e+18,-5.995264053,-2.059076309,0.3280156553
216,1.55965412928e+18,-5.609786034,-3.66802907,1.63289547
217,1.55965412933e+18,-3.572257996,-5.248250484,3.0957973
218,1.55965412938e+18,-5.470917702,-8.906702042,5.62175703
219,1.55965412944e+18,-6.962551117,-9.660899162,4.513207912
220,1.55965412949e+18,-7.635342598,-9.49569416,4.479688168
221,1.55965412954e+18,-6.541158676,-8.854028702,4.053507328
222,1.55965412959e+18,-5.470917702,-8.11898613,4.022381783
223,1.55965412964e+18,-5.499649048,-8.140534401,4.173221111
224,1.5596541297e+18,-4.795732498,-7.745479107,3.936187744
225,1.55965412975e+18,-4.563488007,-7.601822376,3.960130453
226,1.5596541298e+18,-4.264203548,-7.695199013,3.713520288
227,1.55965412985e+18,-3.282550812,-7.905895233,3.739857197
228,1.5596541299e+18,-2.542719841,-8.152505875,3.912245035
229,1.55965412996e+18,-2.434977531,-8.042368889,3.505218267
230,1.55965413001e+18,-2.703136206,-7.9729352,3.261002302
231,1.55965413006e+18,-2.442160368,-8.133351326,2.686376333
232,1.55965413011e+18,-2.367937803,-8.650514603,2.592999697
233,1.55965413016e+18,-1.975276709,-9.167677879,2.221887112
234,1.55965413022e+18,-1.652049661,-9.90750885,2.094990492
235,1.55965413027e+18,-1.704723716,-10.58987713,2.071047783
236,1.55965413032e+18,-1.829225898,-10.64255142,1.917814136
237,1.55965413037e+18,-1.472478986,-10.2474966,1.640078187
238,1.55965413042e+18,-1.091789365,-10.19482231,1.637683988
239,1.55965413048e+18,-1.022355318,-10.12538815,1.58979845
240,1.55965413053e+18,-1.142069101,-9.586676598,1.687963724
241,1.55965413058e+18,-0.4189980924,-9.33767128,2.123721838
242,1.55965413063e+18,-0.6727912426,-9.320911407,2.094990492
243,1.55965413068e+18,-1.12530911,-9.553156853,2.217098475
244,1.55965413074e+18,-1.596981287,-9.531607628,2.253012657
245,1.55965413079e+18,-0.8643332124,-9.569916725,3.074248791
246,1.55965413084e+18,-0.7709565163,-9.182044029,3.375927448
247,1.55965413089e+18,-1.841197371,-9.967366219,4.163643837
248,1.55965413094e+18,-4.319271564,-10.15651417,3.9864676
249,1.559654131e+18,-5.731894016,-8.887548447,4.302511692
250,1.55965413105e+18,-6.182017326,-8.561926842,4.142095566
251,1.5596541311e+18,-6.857203007,-8.008849144,3.581835032
252,1.55965413115e+18,-6.929031372,-6.366376877,3.770982742
253,1.5596541312e+18,-7.601822376,-6.747066498,3.155654192
254,1.55965413126e+18,-7.264229774,-7.510839939,3.043123245
255,1.55965413131e+18,-8.013637543,-7.003253937,2.281744003
256,1.55965413136e+18,-7.2546525,-6.306519985,1.517970204
257,1.55965413141e+18,-6.821289062,-4.652075768,1.984853864
258,1.55965413146e+18,-6.701575279,-3.66802907,0.9098244309
259,1.55965413152e+18,-6.984099388,-2.865947008,1.491633177
260,1.55965413157e+18,-7.374366283,-3.062277555,2.066259146
261,1.55965413162e+18,-8.169265747,-3.37113905,2.367937803
262,1.55965413167e+18,-8.64812088,-3.840416908,3.641691923
263,1.55965413172e+18,-8.827691078,-2.67201066,2.174001455
264,1.55965413178e+18,-7.544359684,-3.181991339,2.751021862
265,1.55965413183e+18,-8.061523438,-3.660846233,1.731060743
266,1.55965413188e+18,-8.75586319,-6.785374641,-0.4668835998
267,1.55965413193e+18,-9.354432106,-7.04156208,-1.218685865
268,1.55965413198e+18,-0.1436564922,-9.725543976,-0.2585816681
269,1.55965413204e+18,-8.37038517,0.3280156553,1.766974807
270,1.55965413209e+18,-7.388731956,3.493247032,3.023969173
271,1.55965413214e+18,-8.006455421,0.04070267081,0.926584363
272,1.55965413219e+18,-8.569109917,2.336812258,-0.7637736797
273,1.55965413224e+18,-7.664073467,-0.4549122155,0.5458946824
274,1.5596541323e+18,-10.24510193,-1.78134048,3.73267436
275,1.55965413235e+18,-12.64416504,-3.744645834,5.595420361
276,1.5596541324e+18,-21.00018501,-6.148497581,8.389538765
277,1.55965413245e+18,-19.99698257,-5.868367672,13.49652672
278,1.5596541325e+18,-21.73762131,-5.454157829,6.806923389
279,1.55965413256e+18,-11.84687138,-8.047157288,6.057515144
280,1.55965413261e+18,-10.29298782,-6.727912426,1.508393168
281,1.55965413266e+18,-12.36882401,-5.710345268,-1.005595446
282,1.55965413271e+18,1.106154919,-2.877918243,0.8451790214
283,1.55965413276e+18,2.241041183,-0.8212362528,-0.8930644989
284,1.55965413282e+18,1.869928598,1.132491946,-1.582615614
285,1.55965413287e+18,1.735849261,3.639297724,-1.343188167
286,1.55965413292e+18,7.288172722,8.197997093,0.7326480746
287,1.55965413297e+18,10.03680038,13.6162405,1.709512234
288,1.55965413302e+18,16.34331894,30.70178604,5.952167034
289,1.55965413308e+18,23.38967133,36.34269714,1.328822494
290,1.55965413313e+18,5.739076614,6.141314983,28.55651474
291,1.55965413318e+18,43.5422821,-70.86334991,-4.968120098
292,1.55965413323e+18,-14.83013821,-11.64335823,2.094990492
293,1.55965413328e+18,4.434196949,7.587456703,-2.705530643
294,1.55965413334e+18,1.175588965,9.529213905,0.481249243
295,1.55965413339e+18,-2.842004299,3.258608103,4.486870766
296,1.55965413344e+18,1.273754239,5.147690773,4.802915096
297,1.55965413349e+18,2.676799297,7.070293427,4.465322495
298,1.55965413354e+18,3.603383541,8.147717476,3.119740009
299,1.5596541336e+18,4.898686409,9.876383781,3.272973776
300,1.55965413365e+18,3.680000305,10.39115238,1.472478986
301,1.5596541337e+18,3.428601503,10.75029373,2.214704275
302,1.55965413375e+18,2.504411459,9.289786339,1.927391171
303,1.5596541338e+18,1.857957244,9.88117218,2.930592299
304,1.55965413386e+18,1.077423692,9.201197624,3.186779737
305,1.55965413391e+18,0.7158881426,8.698400497,4.996851444
306,1.55965413396e+18,-0.4549122155,8.767834663,5.185999393
307,1.55965413401e+18,-0.4213923812,8.341653824,4.369551659
308,1.55965413406e+18,-1.189954638,7.843644142,4.436591148
309,1.55965413412e+18,-2.260195494,6.845231533,1.625712633
310,1.55965413417e+18,-2.020767927,4.491659641,1.850774407
311,1.55965413422e+18,-1.905842781,4.846012115,-0.007182824425
312,1.55965413427e+18,-2.202732801,4.869955063,2.755810261
313,1.55965413432e+18,-5.439792156,3.284945011,4.477293968
314,1.55965413438e+18,-12.11742496,0.4860377908,6.672843933
315,1.55965413443e+18,-13.82693672,0.2322446555,6.306519985
316,1.55965413448e+18,-9.301757812,-1.022355318,7.963357925
317,1.55965413453e+18,-8.195602417,-1.647261024,6.067092419
318,1.55965413458e+18,-5.722316742,-5.569083214,8.087860107
319,1.55965413464e+18,-4.869955063,-7.283383846,7.71914196
320,1.55965413469e+18,-4.00562191,-6.842837334,5.595420361
321,1.55965413474e+18,-4.857983589,-8.506858826,5.38711834
322,1.55965413479e+18,-3.210722446,-8.676852226,5.379935265
323,1.55965413484e+18,-2.126116037,-9.265843391,5.525986195
324,1.5596541349e+18,-1.951334,-8.976136208,4.42940855
325,1.55965413495e+18,-1.513181686,-8.801354408,3.445361376
326,1.559654135e+18,-2.257801056,-10.14214802,3.112557173
327,1.55965413505e+18,-3.553103924,-11.69124413,2.69355917
328,1.5596541351e+18,-3.301704884,-11.94503689,1.608952641
329,1.55965413516e+18,-2.197944164,-11.66251278,2.274561167
330,1.55965413521e+18,-1.374313712,-9.984126091,2.291321039
331,1.55965413526e+18,-1.134886265,-9.706390381,1.347976685
332,1.55965413531e+18,-1.443747759,-10.03919411,1.501210332
333,1.55965413536e+18,-1.699935079,-9.275420189,1.54909575
334,1.55965413542e+18,-1.120520592,-9.289786339,1.321639657
335,1.55965413547e+18,-1.132491946,-9.213169098,1.46290195
336,1.55965413552e+18,-1.16601181,-9.239506721,1.35755384
337,1.55965413557e+18,-1.046298146,-9.945817947,1.154040456
338,1.55965413562e+18,-0.8164477348,-10.07989693,1.405439258
339,1.55965413568e+18,-0.8954587579,-9.680052757,1.685569525
340,1.55965413573e+18,-0.7853221297,-8.997684479,1.465296149
341,1.55965413578e+18,-0.6584255695,-9.165284157,1.800494671
342,1.55965413583e+18,-0.8092648983,-9.555550575,1.778946161
343,1.55965413588e+18,-1.019961119,-9.481328011,1.659232497
344,1.55965413594e+18,-1.173194647,-9.888355255,1.350371003
345,1.55965413599e+18,-1.149251938,-10.04398251,1.532335877
346,1.55965413604e+18,-1.261782765,-9.90750885,1.544307232
347,1.55965413609e+18,-1.537124395,-9.620196342,1.429382086
348,1.55965413614e+18,-1.474873304,-9.608224869,1.599375606
349,1.5596541362e+18,-1.12291491,-9.859623909,1.517970204
350,1.55965413625e+18,-1.048692346,-10.21397591,1.539518714
351,1.5596541363e+18,-0.9888355136,-10.03680038,1.726272106
352,1.55965413635e+18,-1.075029373,-9.641744614,1.54909575
353,1.5596541364e+18,-1.029538155,-9.474145889,1.623318315
354,1.55965413646e+18,-0.907430172,-9.469356537,1.580221415
355,1.55965413651e+18,-0.8092648983,-9.706390381,1.529941559
356,1.55965413656e+18,-0.7757450342,-9.517242432,1.436564922
357,1.55965413661e+18,-0.8164477348,-9.409500122,1.450930476
358,1.55965413666e+18,-0.9553156495,-9.205986977,1.321639657
359,1.55965413672e+18,-1.094183564,-9.196409225,1.312062621
360,1.55965413677e+18,-1.245022893,-9.407105446,1.664021015
361,1.55965413682e+18,-1.647261024,-10.21876526,1.728666425
362,1.55965413687e+18,-2.487651587,-9.754275322,1.391073704
363,1.55965413692e+18,-2.219492674,-9.318517685,1.534730196
364,1.55965413698e+18,-2.69355917,-9.201197624,1.82204318
365,1.55965413703e+18,-3.047911882,-9.64413929,1.601769805
366,1.55965413708e+18,-3.143682718,-9.759063721,1.702329397
367,1.55965413713e+18,-2.552296877,-9.452596664,1.814860344
368,1.55965413718e+18,-2.528354168,-9.402317047,2.094990492
369,1.55965413724e+18,-2.923409462,-9.672870636,2.346389294
370,1.55965413729e+18,-3.380716085,-9.402317047,2.389486313
371,1.55965413734e+18,-4.817280769,-9.332882881,2.921015263
372,1.55965413739e+18,-4.865166187,-9.0335989,3.043123245
373,1.55965413744e+18,-5.181210518,-8.693612099,3.488458395
374,1.5596541375e+18,-5.17402792,-8.176448822,3.306493521
375,1.55965413755e+18,-5.763019562,-7.738296032,2.995237827
376,1.5596541376e+18,-5.880339146,-7.194795609,2.832427025
377,1.55965413765e+18,-6.0216012,-6.735095024,2.621730804
378,1.5596541377e+18,-6.014418125,-6.586649895,2.669616461
379,1.55965413776e+18,-6.026389599,-6.718335152,2.992843628
380,1.55965413781e+18,-6.12694931,-6.440599442,2.99044919
381,1.55965413786e+18,-6.045543671,-5.930618763,3.524372578
382,1.55965413791e+18,-6.833260536,-5.087833881,3.720703125
383,1.55965413796e+18,-7.666468143,-4.70714426,3.744645834
384,1.55965413802e+18,-8.217150688,-4.733481407,4.582642078
385,1.55965413807e+18,-8.169265747,-4.362368584,4.60179615
386,1.55965413812e+18,-8.162082672,-4.292934895,5.037554264
387,1.55965413817e+18,-7.755055904,-3.684788942,4.755029678
388,1.55965413822e+18,-7.307326794,-3.067065954,4.975303173
389,1.55965413828e+18,-7.01761961,-2.58581686,4.984879971
390,1.55965413833e+18,-6.711152077,-2.255406857,5.121353626
391,1.55965413838e+18,-6.924242973,-2.856369734,5.090228081
392,1.55965413843e+18,-6.878751755,-2.609759569,5.044736862
393,1.55965413848e+18,-7.142121792,-2.174001455,5.140508175
394,1.55965413854e+18,-7.003253937,-1.857957244,5.253038883
395,1.55965413859e+18,-7.216344357,-1.987248063,5.394300938
396,1.55965413864e+18,-7.031985283,-0.8691217303,5.102199554
397,1.55965413869e+18,-7.520417213,-3.361561775,4.970514297
398,1.55965413874e+18,-5.205153465,-4.714327335,5.976109982
399,1.5596541388e+18,-3.909850836,-6.000052452,5.377541065
400,1.55965413885e+18,-4.084632874,-6.44778204,4.755029678
401,1.5596541389e+18,-6.256239891,-9.198803902,2.138087511
402,1.55965413895e+18,-7.479714394,-8.705583572,2.741444588
403,1.559654139e+18,-7.436617374,-10.46776962,5.044736862
404,1.55965413906e+18,-7.053533554,-7.922655106,4.465322495
405,1.55965413911e+18,-6.34003973,-5.389512539,2.683982134
406,1.55965413916e+18,-6.122160912,-1.738243461,1.324033976
407,1.55965413921e+18,-6.696786404,-0.646454215,1.604164124
408,1.55965413926e+18,-10.61382008,-0.4573064744,5.62175703
409,1.55965413932e+18,-17.09991074,-4.656864643,5.8516078
410,1.55965413937e+18,-23.50220108,-3.718308687,8.832479477
411,1.55965413942e+18,-22.44393158,-4.656864643,9.423865318
412,1.55965413947e+18,-17.29384613,-6.196382999,5.813299179
413,1.55965413952e+18,-12.27065849,-5.006428719,3.0096035
414,1.55965413958e+18,-6.708757877,-1.577827096,-1.271359921
415,1.55965413963e+18,1.101366401,-1.376708031,-0.3088614643
416,1.55965413968e+18,1.0606637,1.726272106,-1.419804931
417,1.55965413973e+18,-0.5267404318,0.3615354896,2.382303476
418,1.55965413978e+18,1.845985889,3.292127848,-0.9553156495
419,1.55965413984e+18,2.928198099,5.195576191,-0.5075862408
420,1.55965413989e+18,4.618556023,9.732727051,3.52197814
421,1.55965413994e+18,8.054340363,14.90675449,4.790944099
422,1.55965413999e+18,17.50693703,31.06332207,5.276981831
423,1.55965414004e+18,24.25879288,35.67230225,1.999219418
424,1.5596541401e+18,11.11901188,7.388731956,26.92362022
425,1.55965414015e+18,21.77353477,-62.12664413,-1.757397652
426,1.5596541402e+18,-26.00421906,-14.62423038,-5.504437923
427,1.55965414025e+18,6.811711788,3.270579338,-3.232270956
428,1.5596541403e+18,3.246636629,7.077476501,1.410227895
429,1.55965414036e+18,3.158048391,8.669669151,1.340793848
430,1.55965414041e+18,-2.79890728,5.695979595,3.569863796
431,1.55965414046e+18,2.238646984,11.90194035,3.557892323
432,1.55965414051e+18,-1.347976685,7.194795609,6.419050694
433,1.55965414056e+18,-1.920208454,8.451789856,4.223500729
434,1.55965414062e+18,-0.7541965842,9.179649353,4.525179386
435,1.55965414067e+18,-2.727078915,8.547560692,3.883513689
436,1.55965414072e+18,-1.007989645,6.680026531,5.758230686
437,1.55965414077e+18,-0.8834874034,6.311308384,6.555524349
438,1.55965414082e+18,-1.209108829,5.959350109,5.930618763
439,1.55965414088e+18,-1.007989645,7.213950157,6.450176239
440,1.55965414093e+18,-1.630501151,6.818894863,5.458946705
441,1.55965414098e+18,-1.563461423,6.182017326,6.759037971
442,1.55965414103e+18,-1.637683988,5.839636326,4.984879971
443,1.55965414108e+18,-1.879505754,5.056708336,5.142902374
444,1.55965414114e+18,-2.473285913,2.69355917,2.087807655
445,1.55965414119e+18,-5.822876453,4.616161823,1.003201127
446,1.55965414124e+18,-4.168432236,3.395081758,0.03591412306
447,1.55965414129e+18,-3.617749214,2.600182533,2.913832426
448,1.55965414134e+18,-3.608172178,0.5075862408,6.323279858
449,1.5596541414e+18,-6.974522591,-1.608952641,10.98253822
450,1.55965414145e+18,-10.4749527,-3.323253393,10.4366436
451,1.5596541415e+18,-6.483695984,-5.992869854,10.46298122
452,1.55965414155e+18,-2.068653345,-8.552350044,11.62180996
453,1.5596541416e+18,-0.924190104,-11.49730778,13.13020325
454,1.55965414166e+18,-3.936187744,-9.486116409,5.485283375
455,1.55965414171e+18,-6.311308384,-10.71198559,3.241847992
456,1.55965414176e+18,-3.787742853,-10.78381348,3.797319889
457,1.55965414181e+18,-0.5411061049,-10.32650757,4.300117493
458,1.55965414186e+18,-0.2130904645,-10.12778282,3.368744612
459,1.55965414192e+18,-1.328822494,-10.4270668,2.743839025
460,1.55965414197e+18,-3.227482557,-10.252285,1.223474383
461,1.55965414202e+18,-3.871542454,-10.00088596,1.177983165
462,1.55965414207e+18,-3.03115201,-9.986519814,1.527547359
463,1.55965414212e+18,-1.862745762,-10.38397026,2.083019018
464,1.55965414218e+18,-0.9577099085,-9.938634872,2.123721838
465,1.55965414223e+18,-0.6751855016,-9.730332375,2.071047783
466,1.55965414228e+18,-0.629694283,-9.790189743,2.032739401
467,1.55965414233e+18,-0.1963305324,-9.524425507,2.059076309
468,1.55965414238e+18,0.1508393139,-9.201197624,1.944151163
469,1.55965414244e+18,0.1268965602,-9.026415825,2.042316437
470,1.55965414249e+18,-0.2537931204,-8.887548447,1.862745762
471,1.55965414254e+18,-0.7494080067,-9.21795845,1.769369125
472,1.55965414259e+18,-1.18756032,-9.62977314,1.608952641
473,1.55965414264e+18,-1.486844659,-9.909903526,1.608952641
474,1.5596541427e+18,-1.625712633,-9.967366219,1.556278586
475,1.55965414275e+18,-1.707117915,-9.838075638,1.680780888
476,1.5596541428e+18,-1.608952641,-9.651321411,1.690358043
477,1.55965414285e+18,-1.477267504,-9.615407944,1.817254543
478,1.5596541429e+18,-1.529941559,-9.56273365,1.853168726
479,1.55965414296e+18,-1.510787368,-9.651321411,1.831620216
480,1.55965414301e+18,-1.369525194,-9.794978142,1.877111435
481,1.55965414306e+18,-1.101366401,-9.830892563,1.944151163
482,1.55965414311e+18,-0.9960182905,-9.991309166,1.934574008
483,1.55965414316e+18,-0.7278595567,-9.830892563,1.898659945
484,1.55965414322e+18,-0.4525179267,-9.488511086,1.898659945
485,1.55965414327e+18,-0.2250618339,-9.306546211,1.944151163
486,1.55965414332e+18,-0.1699935049,-9.318517685,1.874717116
487,1.55965414337e+18,-0.3854782581,-9.385557175,1.78134048
488,1.55965414342e+18,-0.6656084061,-9.320911407,1.690358043
489,1.55965414348e+18,-0.8978530765,-9.557945251,1.582615614
490,1.55965414353e+18,-1.022355318,-9.742303848,1.71669507
491,1.55965414358e+18,-0.9002473354,-9.684841156,1.843591571
492,1.55965414363e+18,-0.945738554,-9.641744614,1.893871427
493,1.55965414368e+18,-0.8356019258,-9.816526413,2.075836182
494,1.55965414374e+18,-0.986441195,-9.785401344,2.097384691
495,1.55965414379e+18,-0.9768640995,-9.71117878,2.114144564
496,1.55965414384e+18,-0.7829278708,-9.723150253,2.329629421
497,1.55965414389e+18,-0.7613793612,-9.648927689,2.324840784
498,1.55965414394e+18,-1.132491946,-9.474145889,2.418217659
499,1.559654144e+18,-1.340793848,-9.474145889,3.0119977
500,1.55965414405e+18,-1.503604531,-9.773429871,3.739857197
501,1.5596541441e+18,-2.312869549,-9.507665634,3.529160976
502,1.55965414415e+18,-3.217905283,-9.263449669,3.897879362
503,1.5596541442e+18,-3.780560017,-8.722343445,4.254626274
504,1.55965414426e+18,-4.936994553,-8.614601135,3.897879362
505,1.55965414431e+18,-5.128536701,-8.705583572,3.438178539
506,1.55965414436e+18,-5.91625309,-8.703188896,3.170019865
507,1.55965414441e+18,-5.55711174,-8.188420296,3.289733648
508,1.55965414446e+18,-5.49007225,-7.314509392,2.614548206
509,1.55965414452e+18,-5.906675816,-6.462147713,2.968900681
510,1.55965414457e+18,-5.593026161,-5.779779434,2.753416061
511,1.55965414462e+18,-6.469330311,-5.353598595,2.190761566
512,1.55965414467e+18,-6.203566074,-4.644893169,3.050306082
513,1.55965414472e+18,-6.589044094,-4.510813713,2.899466753
514,1.55965414478e+18,-7.297749519,-4.503631115,3.280156374
515,1.55965414483e+18,-8.628966331,-4.745452881,3.433390141
516,1.55965414488e+18,-8.497281075,-3.905062199,3.85957098
517,1.55965414493e+18,-9.22992897,-3.409447432,3.37113905
518,1.55965414498e+18,-9.160495758,-3.069460392,3.040729046
519,1.55965414504e+18,-9.155706406,-3.150865555,3.316070557
520,1.55965414509e+18,-9.534002304,-2.82045579,3.268185139
521,1.55965414514e+18,-8.806142807,-2.813272953,3.150865555
522,1.55965414519e+18,-7.628159523,-2.384697676,3.351984739
523,1.55965414524e+18,-6.991282463,-1.936968327,3.533949614
524,1.5596541453e+18,-7.297749519,-2.940169573,2.487651587
525,1.55965414535e+18,-6.852414608,-3.093403101,2.719896078
526,1.5596541454e+18,-5.858790398,-3.864359617,1.601769805
527,1.55965414545e+18,-7.527599812,-5.700768471,1.245022893
528,1.5596541455e+18,-10.25467873,-8.868393898,1.453324795
529,1.55965414555e+18,-9.608224869,-3.77337718,1.005595446
530,1.55965414561e+18,-6.964945316,-0.4788549542,3.478881359
531,1.55965414566e+18,-5.947378635,0.5482889414,2.205127001
532,1.55965414571e+18,-7.448588848,0.02633702382,0.4740664065
533,1.55965414576e+18,-8.224333763,-0.3735068738,2.466103077
534,1.55965414581e+18,-12.56754875,-3.703943014,2.856369734
535,1.55965414587e+18,-13.09428883,-6.30173111,6.696786404
536,1.55965414592e+18,-19.21644974,-6.840443134,7.946598053
537,1.55965414597e+18,-17.6889019,-5.686402798,9.344854355
538,1.55965414602e+18,-17.47102356,-7.735901833,8.32968235
539,1.55965414607e+18,-15.48616982,-9.794978142,5.628940105
540,1.55965414613e+18,-12.25389862,-10.58748341,3.201145411
541,1.55965414618e+18,-8.188420296,-9.024022102,2.217098475
542,1.55965414623e+18,-3.538738251,-4.951360226,1.446141958
543,1.55965414628e+18,1.731060743,-0.8499675393,-1.192348838
544,1.55965414633e+18,1.110943556,1.529941559,0.1388679445
545,1.55965414639e+18,3.177202702,3.373533249,0.6608198285
546,1.55965414644e+18,5.176422119,8.372778893,0.7422251701
547,1.55965414649e+18,11.79898643,19.46306038,0.299284339
548,1.55965414654e+18,22.09436798,41.7465744,-1.268965602
549,1.55965414659e+18,14.27706051,17.10948753,7.874769688
550,1.55965414665e+18,-2.815667152,-17.26750946,-11.58110714
551,1.5596541467e+18,-22.61871338,-25.76000214,-4.395888329
552,1.55965414675e+18,4.376734257,1.295302629,-0.6536370516
553,1.5596541468e+18,4.017592907,11.19562912,-1.027143836
554,1.55965414685e+18,-0.9194015265,8.233911514,1.867534399
555,1.55965414691e+18,-0.9170072675,7.410280704,2.621730804
556,1.55965414696e+18,0.5698373914,6.799740314,4.338426113
557,1.55965414701e+18,2.178790092,7.036773682,6.464541912
558,1.55965414706e+18,1.637683988,10.53959751,3.170019865
559,1.55965414711e+18,1.798100352,11.73434067,1.644866824
560,1.55965414717e+18,1.101366401,10.10383987,2.818061352
561,1.55965414722e+18,1.034326673,10.89634418,1.838803053
562,1.55965414727e+18,0.7398309112,9.818921089,2.236252785
563,1.55965414732e+18,0.3256213665,9.289786339,2.336812258
564,1.55965414737e+18,-0.4070267081,9.246688843,2.504411459
565,1.55965414743e+18,-0.7709565163,9.179649353,2.832427025
566,1.55965414748e+18,-0.09098244458,8.956981659,4.221106529
567,1.55965414753e+18,-0.948132813,9.122186661,3.016786337
568,1.55965414758e+18,-1.359948039,8.609811783,4.058295727
569,1.55965414763e+18,-0.8763045669,9.277814865,2.597788095
570,1.55965414769e+18,-1.637683988,8.494887352,3.028757572
571,1.55965414774e+18,-1.532335877,8.549955368,3.124528646
572,1.55965414779e+18,-1.44135344,7.944203854,2.67440486
573,1.55965414784e+18,-0.9026415944,5.966532707,2.767781734
574,1.55965414789e+18,-0.6033572555,4.331243038,2.241041183
575,1.55965414795e+18,-0.3735068738,3.670423269,2.138087511
576,1.559654148e+18,0.7853221297,3.253819466,2.207521439
577,1.55965414805e+18,1.86514008,3.77337718,2.983266354
578,1.5596541481e+18,0.2442160249,4.470110893,3.069460392
579,1.55965414815e+18,-1.051086664,3.474092722,7.039167881
580,1.55965414821e+18,-6.136526108,0.29689008,9.399923325
581,1.55965414826e+18,-8.825297356,-1.501210332,11.00648117
582,1.55965414831e+18,-2.985660791,-4.70714426,11.85405445
583,1.55965414836e+18,2.822849989,-8.75586319,14.23396397
584,1.55965414841e+18,0.5985686779,-9.62977314,10.03680038
585,1.55965414847e+18,-3.735068798,-11.32731438,8.025609016
586,1.55965414852e+18,-5.842030525,-10.69522572,4.608979225
587,1.55965414857e+18,-3.241847992,-10.09426212,4.03195858
588,1.55965414862e+18,-0.984046936,-10.58508873,4.635315895
589,1.55965414867e+18,-1.453324795,-11.65054131,4.008016109
590,1.55965414873e+18,-2.185972929,-11.58110714,2.913832426
591,1.55965414878e+18,-2.365543604,-10.66409969,2.123721838
592,1.55965414883e+18,-2.360754967,-9.984126091,2.16203022
593,1.55965414888e+18,-2.14287591,-9.538790703,2.154847383
594,1.55965414893e+18,-1.788523316,-9.5483675,2.066259146
595,1.55965414899e+18,-1.422199249,-9.620196342,1.9944309
596,1.55965414904e+18,-1.326428294,-9.833286285,1.956122518
597,1.55965414909e+18,-1.075029373,-9.768641472,1.71908927
598,1.55965414914e+18,-1.051086664,-9.699207306,1.774157643
599,1.55965414919e+18,-0.8356019258,-9.553156853,1.848380208
600,1.55965414925e+18,-0.629694283,-9.411893845,1.845985889
601,1.5596541493e+18,-0.5770202279,-9.280209541,1.879505754
602,1.55965414935e+18,-0.4668835998,-9.028810501,1.879505754
603,1.5596541494e+18,-0.6057515144,-9.095849991,1.834014535
604,1.55965414945e+18,-0.8523618579,-9.196409225,1.975276709
605,1.55965414951e+18,-1.12530911,-9.265843391,1.810071707
606,1.55965414956e+18,-1.304879785,-9.471751213,2.001613855
607,1.55965414961e+18,-1.489238977,-9.785401344,2.047105074
608,1.55965414966e+18,-1.656838179,-10.17087936,2.236252785
609,1.55965414971e+18,-1.613741279,-10.13017654,2.26977253
610,1.55965414977e+18,-2.370332003,-9.921875,2.116539001
611,1.55965414982e+18,-2.413429022,-9.665687561,2.116539001
612,1.55965414987e+18,-2.968900681,-9.799766541,2.073441982
613,1.55965414992e+18,-3.275367975,-9.330489159,2.212309837
614,1.55965414997e+18,-3.083826065,-9.263449669,2.164424419
615,1.55965415003e+18,-2.724684715,-9.632167816,2.37512064
616,1.55965415008e+18,-2.743839025,-9.569916725,2.063864946
617,1.55965415013e+18,-3.019180536,-9.929058075,2.197944164
618,1.55965415018e+18,-3.249030828,-9.665687561,2.049499273
619,1.55965415023e+18,-3.682394743,-10.06792545,2.937775135
620,1.55965415028e+18,-3.957736254,-9.24429512,2.736656189
621,1.55965415034e+18,-5.609786034,-8.253065109,3.615355015
622,1.55965415039e+18,-6.598621368,-6.883540154,3.806896925
623,1.55965415044e+18,-7.611399651,-5.863578796,3.581835032
624,1.55965415049e+18,-7.769421577,-5.114171028,4.142095566
625,1.55965415054e+18,-8.219545364,-4.652075768,3.73267436
626,1.5596541506e+18,-7.711959362,-3.701548815,4.03195858
627,1.55965415065e+18,-8.018425941,-2.830032825,3.854782343
628,1.5596541507e+18,-8.147717476,-1.989642382,3.399870157
629,1.55965415075e+18,-7.424646378,-2.102173328,3.313676357
630,1.5596541508e+18,-6.854808807,-2.468497276,3.347196102
631,1.55965415086e+18,-7.192401409,-2.822849989,4.094210148
632,1.55965415091e+18,-7.893924236,-4.041535854,4.017592907
633,1.55965415096e+18,-7.690410614,-4.822069645,4.723904133
634,1.55965415101e+18,-7.680833817,-6.028783798,4.482082367
635,1.55965415106e+18,-6.562707424,-6.349617004,3.569863796
636,1.55965415112e+18,-4.582642078,-6.40707922,2.604970932
637,1.55965415117e+18,-5.396695614,-9.435836792,1.652049661
638,1.55965415122e+18,-4.927417755,-10.26425648,3.0957973
639,1.55965415127e+18,-8.083071709,-3.261002302,3.148471355
640,1.55965415132e+18,-8.877970695,2.640885115,5.487678051
641,1.55965415138e+18,-7.247469902,3.680000305,6.454965115
642,1.55965415143e+18,-8.616994858,0.5770202279,7.817307472
643,1.55965415148e+18,-12.40473747,0.5195576549,-2.190761566
644,1.55965415153e+18,-11.47575951,-10.56354046,-0.7374366522
645,1.55965415158e+18,-1.422199249,-9.239506721,2.296109438
646,1.55965415164e+18,-5.367964268,-4.726298332,0.8882759809
647,1.55965415169e+18,-8.109408379,-1.889082789,2.449343204
648,1.55965415174e+18,-8.312922478,-1.747820616,3.62732625
649,1.55965415179e+18,-14.77267551,-4.503631115,2.741444588
650,1.55965415184e+18,-12.58670235,-2.827638626,5.427821159
651,1.5596541519e+18,-12.34727478,-1.850774407,2.602576733
652,1.55965415195e+18,-10.89634418,-1.721483588,4.953754425
653,1.559654152e+18,-11.85884285,-0.9098244309,2.827638626
654,1.55965415205e+18,-8.202785492,0.3208328187,7.714353561
655,1.5596541521e+18,-12.96739197,0.6656084061,6.131737709
656,1.55965415216e+18,-12.69205093,0.4405465722,8.415876389
657,1.55965415221e+18,-11.28182316,-0.5530774593,6.818894863
658,1.55965415226e+18,-8.260248184,-0.6608198285,5.243461609
659,1.55965415231e+18,-4.484476566,-0.6249057055,3.933793545
660,1.55965415236e+18,-0.6656084061,1.352765322,1.680780888
661,1.55965415242e+18,2.023162127,1.312062621,1.149251938
662,1.55965415247e+18,2.432583094,3.380716085,-1.915419817
663,1.55965415252e+18,3.373533249,5.593026161,-0.2059076279
664,1.55965415257e+18,6.198777676,9.936240196,1.326428294
665,1.55965415262e+18,12.43825722,19.38644218,0.2059076279
666,1.55965415268e+18,24.57962608,39.66834641,-2.257801056
667,1.55965415273e+18,10.937047,14.62183666,13.56117249
668,1.55965415278e+18,1.103760719,-25.01059532,-15.09111404
669,1.55965415283e+18,-27.53894806,-19.49658012,-1.151646137
670,1.55965415288e+18,10.14454269,6.727912426,0.2298503816
671,1.55965415294e+18,1.867534399,16.24754906,-4.237866402
672,1.55965415299e+18,-4.180403709,2.387091875,3.948159218
673,1.55965415304e+18,-1.446141958,6.826077461,4.659258842
674,1.55965415309e+18,0.01675992459,9.064723969,5.276981831
675,1.55965415314e+18,1.527547359,6.72312355,5.786962032
676,1.5596541532e+18,2.004008055,7.695199013,3.404658794
677,1.55965415325e+18,2.995237827,6.86917448,3.890696526
678,1.5596541533e+18,1.637683988,8.073494911,2.22667551
679,1.55965415335e+18,1.877111435,9.098244667,2.145270348
680,1.5596541534e+18,2.133298874,9.443019867,1.697540879
681,1.55965415346e+18,3.040729046,10.08947372,1.807677507
682,1.55965415351e+18,3.545921087,10.67128277,1.443747759
683,1.55965415356e+18,4.565882206,10.23552513,0.8667274714
684,1.55965415361e+18,4.687990189,9.354432106,1.149251938
685,1.55965415366e+18,3.703943014,7.606611252,-0.2609759569
686,1.55965415372e+18,2.643279314,5.458946705,0.6153286099
687,1.55965415377e+18,3.802108288,5.34402132,-0.0287312977
688,1.55965415382e+18,3.598595142,4.120546818,0.7230709791
689,1.55965415387e+18,2.257801056,5.243461609,0.7398309112
690,1.55965415392e+18,-0.0837996155,3.543526649,4.0726614
691,1.55965415398e+18,-5.044736862,2.073441982,7.676044941
692,1.55965415403e+18,-9.294574738,0.3064671755,12.64655972
693,1.55965415408e+18,-9.081484795,-0.6727912426,11.74631214
694,1.55965415413e+18,-8.684034348,-2.346389294,12.92908382
695,1.55965415418e+18,-8.439818382,-2.942563772,10.92028713
696,1.55965415424e+18,-7.036773682,-3.442967176,11.07831001
697,1.55965415429e+18,-4.848406315,-3.13889432,9.775823593
698,1.55965415434e+18,-5.415849686,-2.324840784,7.494080067
699,1.55965415439e+18,-6.718335152,-3.301704884,7.144515991
700,1.55965415444e+18,-6.146103382,-3.75422287,6.964945316
701,1.5596541545e+18,-5.765413761,-4.302511692,6.950579643
702,1.55965415455e+18,-4.800520897,-3.574652195,6.9098773
703,1.5596541546e+18,-5.063891411,-3.270579338,6.38074255
704,1.55965415465e+18,-5.944984436,-4.142095566,6.510033131
705,1.5596541547e+18,-6.55073595,-4.575459003,6.469330311
706,1.55965415476e+18,-6.134131908,-4.81488657,6.648900986
707,1.55965415481e+18,-4.630527496,-4.130124092,6.284971237
708,1.55965415486e+18,-5.207547665,-4.060689926,6.694392204
709,1.55965415491e+18,-6.442993641,-3.579440832,6.457359314
710,1.55965415496e+18,-8.686429024,-3.471698523,6.251451492
711,1.55965415502e+18,-9.031204224,-2.432583094,5.844424725
712,1.55965415507e+18,-8.74149704,-1.235445857,5.032765865
713,1.55965415512e+18,-9.27063179,-1.051086664,6.16765213
714,1.55965415517e+18,-8.344047546,-1.460507631,6.809317589
715,1.55965415522e+18,-7.553936958,-0.634482801,7.0822649
716,1.55965415528e+18,-8.978530884,-1.795706153,6.392713547
717,1.55965415533e+18,-7.225921154,-0.945738554,5.511620522
718,1.55965415538e+18,-7.173247337,-1.369525194,4.984879971
719,1.55965415543e+18,-7.877163887,-1.189954638,3.744645834
720,1.55965415548e+18,-7.731113434,-2.511594296,3.828445435
721,1.55965415554e+18,-6.663266659,-4.103786945,3.713520288
722,1.55965415559e+18,-6.632141113,-5.257827282,3.026363373
723,1.55965415564e+18,-5.643305779,-6.229903221,3.105374336
724,1.55965415569e+18,-6.514821529,-9.273026466,2.365543604
725,1.55965415574e+18,-8.497281075,-12.57952023,1.762186289
726,1.5596541558e+18,-5.322473049,-9.543579102,13.80538845
727,1.55965415585e+18,-9.038387299,-1.855562925,8.030397415
728,1.5596541559e+18,-11.37041092,4.462928295,9.756669998
729,1.55965415595e+18,-16.70006752,3.148471355,10.2570734
730,1.559654156e+18,-17.55961227,-0.7613793612,7.992089272
731,1.55965415606e+18,-12.08629894,-1.410227895,5.32007885
732,1.55965415611e+18,-4.17800951,-0.6081457734,1.527547359
733,1.55965415616e+18,-0.5243461728,1.71908927,0.7039167881
734,1.55965415621e+18,0.5458946824,3.347196102,-2.710319042
735,1.55965415626e+18,-0.2849186957,5.478100777,-3.952947617
736,1.55965415632e+18,2.329629421,8.071100235,-0.06225114316
737,1.55965415637e+18,8.945011139,13.92749691,4.175615311
738,1.55965415642e+18,16.10868073,34.07531738,4.321666241
739,1.55965415647e+18,18.44070435,30.91487694,-0.06943397224
740,1.55965415652e+18,2.602576733,5.499649048,28.37215614
741,1.55965415658e+18,2.576239586,-41.89262772,33.57730865
742,1.55965415663e+18,7.340846539,-11.28421688,-6.469330311
743,1.55965415668e+18,2.281744003,0.8212362528,-2.35357213
744,1.55965415673e+18,3.943370581,8.320104599,-6.387925148
745,1.55965415678e+18,4.934600353,11.94982529,-1.989642382
746,1.55965415684e+18,4.079844475,12.03123093,-3.969707727
747,1.55965415689e+18,4.733481407,11.47336483,-1.814860344
748,1.55965415694e+18,6.668055534,9.371191978,-4.632921696
749,1.55965415699e+18,5.506832123,8.444606781,-3.821262598
750,1.55965415704e+18,8.39672184,9.10063839,-4.970514297
751,1.5596541571e+18,10.51565456,8.432636261,-5.95695591
752,1.55965415715e+18,6.572284222,8.609811783,-2.087807655
753,1.5596541572e+18,7.664073467,7.630553722,-1.347976685
754,1.55965415725e+18,5.360781193,7.776604652,-0.3950553536
755,1.5596541573e+18,5.604997158,7.592245579,-0.5746259689
756,1.55965415736e+18,6.332856655,7.659285069,0.3375927508
757,1.55965415741e+18,6.117372036,7.642525196,-0.907430172
758,1.55965415746e+18,6.802134514,7.314509392,-0.1604164094
759,1.55965415751e+18,6.308914185,6.931425571,0.2011190802
760,1.55965415756e+18,7.130150318,6.466936111,-1.197137356
761,1.55965415762e+18,5.968926907,5.590631485,0.2705530524
762,1.55965415767e+18,5.698374271,6.143709183,-0.2130904645
763,1.55965415772e+18,4.917840481,5.822876453,-0.5387118459
764,1.55965415777e+18,2.554691315,5.604997158,1.168406129
765,1.55965415782e+18,-1.587404251,6.040755272,1.498816013
766,1.55965415788e+18,-3.280156374,5.777385235,2.861158371
767,1.55965415793e+18,-4.158855438,6.023995399,4.369551659
768,1.55965415798e+18,-6.895511627,3.907456398,7.44140625
769,1.55965415803e+18,-11.20760059,0.6249057055,9.313729286
770,1.55965415808e+18,0.632088542,-0.7063110471,7.29535532
771,1.55965415814e+18,8.64812088,-2.980872154,10.97774982
772,1.55965415819e+18,1.352765322,-4.996851444,7.781393051
773,1.55965415824e+18,-3.282550812,-8.334470749,9.816526413
774,1.55965415829e+18,-0.7350423932,-8.195602417,6.749460697
775,1.55965415834e+18,0.3256213665,-10.61142635,8.140534401
776,1.5596541584e+18,-1.352765322,-11.45421028,5.961744308
777,1.55965415845e+18,-0.928978622,-11.97616291,5.140508175
778,1.5596541585e+18,-0.7925049663,-12.1988306,5.348809719
779,1.55965415855e+18,-0.6416656375,-11.36083412,3.816473961
780,1.5596541586e+18,-1.31445682,-10.5922718,3.507612705
781,1.55965415866e+18,-0.4549122155,-10.23552513,3.181991339
782,1.55965415871e+18,-0.629694283,-9.694418907,2.834821463
783,1.55965415876e+18,-0.1292908341,-9.210775375,2.712713242
784,1.55965415881e+18,-0.184359163,-9.095849991,2.743839025
785,1.55965415886e+18,-0.04549122229,-9.476539612,2.463708878
786,1.55965415892e+18,-0.7996878028,-9.862017632,2.078230619
787,1.55965415897e+18,-0.986441195,-9.797372818,2.061470509
788,1.55965415902e+18,-0.6416656375,-9.706390381,2.071047783
789,1.55965415907e+18,-0.3926610649,-9.517242432,2.154847383
790,1.55965415912e+18,-0.5650488734,-9.397528648,2.085413456
791,1.55965415918e+18,-0.7925049663,-9.241900444,1.82204318
792,1.55965415923e+18,-0.8403904438,-9.402317047,1.755003452
793,1.55965415928e+18,-0.9720755816,-9.466962814,1.891477108
794,1.55965415933e+18,-1.063058019,-9.574705124,1.965699673
795,1.55965415938e+18,-1.075029373,-9.567522049,2.032739401
796,1.55965415944e+18,-0.9313728809,-9.469356537,2.133298874
797,1.55965415949e+18,-0.8116591573,-9.35203743,2.205127001
798,1.55965415954e+18,-0.8571503758,-9.550762177,2.157241583
799,1.55965415959e+18,-0.9385557175,-9.739910126,2.135693073
800,1.55965415964e+18,-0.8978530765,-9.615407944,2.085413456
801,1.5596541597e+18,-0.9553156495,-9.457385063,2.0351336
802,1.55965415975e+18,-0.8140534163,-9.466962814,1.948939681
803,1.5596541598e+18,-0.627300024,-9.596253395,2.135693073
804,1.55965415985e+18,-0.462095052,-9.505270958,2.104567528
805,1.5596541599e+18,-0.4597007632,-9.414288521,2.150058746
806,1.55965415996e+18,-0.4309694767,-9.438231468,2.063864946
807,1.55965416001e+18,-0.3759011328,-9.478934288,2.133298874
808,1.55965416006e+18,-0.8403904438,-9.73751545,3.43578434
809,1.55965416011e+18,-1.276148438,-11.02084732,5.02558279
810,1.55965416016e+18,-4.019987583,-11.88518047,4.788549423
811,1.55965416022e+18,-1.570644259,-11.44463348,3.73267436
812,1.55965416027e+18,1.453324795,-10.4366436,6.421444893
813,1.55965416032e+18,0.5698373914,-7.465348721,5.559505939
814,1.55965416037e+18,-0.6560313106,-4.470110893,3.344801903
815,1.55965416042e+18,0.0574625954,-4.592218876,4.649681568
816,1.55965416048e+18,0.5746259689,-4.012804508,4.134912491
817,1.55965416053e+18,-1.541913033,-6.067092419,7.778998852
818,1.55965416058e+18,0.08140534163,-8.89951992,12.43586349
819,1.55965416063e+18,-0.5985686779,-7.635342598,12.30417824
820,1.55965416068e+18,-0.2322446555,-5.135719299,10.21397591
821,1.55965416074e+18,1.671203852,-1.790917516,5.813299179
822,1.55965416079e+18,1.300091267,-1.968093872,6.584255695
823,1.55965416084e+18,2.001613855,-0.8571503758,6.141314983
824,1.55965416089e+18,0.962498486,-1.652049661,7.067899227
825,1.55965416094e+18,1.194743156,-1.096577883,7.455771923
826,1.559654161e+18,1.096577883,-1.956122518,8.269824982
827,1.55965416105e+18,1.0175668,-2.442160368,8.810931206
828,1.5596541611e+18,1.491633177,-2.54511404,9.256266594
829,1.55965416115e+18,1.860351562,-2.679193497,9.433443069
830,1.5596541612e+18,1.438959122,-2.43976593,6.675238132
831,1.55965416126e+18,0.646454215,-2.650462151,5.518803596
832,1.55965416131e+18,-0.1891477108,-4.939388752,6.768614769
833,1.55965416136e+18,-0.8403904438,-6.012023926,9.208380699
834,1.55965416141e+18,-0.8739103079,-6.615381241,11.20281219
835,1.55965416146e+18,-1.199531674,-6.751854897,12.5962801
836,1.55965416152e+18,-3.148471355,-5.396695614,11.02802944
837,1.55965416157e+18,-3.196356773,-3.148471355,11.1453495
838,1.55965416162e+18,-3.241847992,-1.426987767,10.27383327
839,1.55965416167e+18,-5.446975231,-2.662433624,8.727131844
840,1.55965416172e+18,-6.397502422,-3.028757572,8.363202095
841,1.55965416178e+18,-8.442213058,-3.34959054,6.117372036
842,1.55965416183e+18,-7.280989647,-1.889082789,4.944177628
843,1.55965416188e+18,-5.839636326,-1.46290195,4.623344421
844,1.55965416193e+18,-6.802134514,-3.205934048,2.389486313
845,1.55965416198e+18,-5.858790398,-4.877137661,3.404658794
846,1.55965416204e+18,-7.788576126,-9.373585701,3.004814863
847,1.55965416209e+18,-9.21795845,-8.07828331,-0.3088614643
848,1.55965416214e+18,-8.245882034,-6.007235527,4.189980984
849,1.55965416219e+18,-8.277008057,3.828445435,3.605777979
850,1.55965416224e+18,-9.251478195,2.087807655,4.336031914
851,1.55965416229e+18,-9.90750885,4.582642078,3.66802907
852,1.55965416235e+18,-8.195602417,3.526766777,2.317657948
853,1.5596541624e+18,-2.612153769,3.404658794,3.287339211
854,1.55965416245e+18,2.583422422,1.048692346,5.102199554
855,1.5596541625e+18,-9.526819229,2.197944164,9.821314812
856,1.55965416255e+18,-17.04484177,-5.74386549,10.73114014
857,1.55965416261e+18,-21.6011467,-7.46774292,16.6785183
858,1.55965416266e+18,-19.69769859,-3.840416908,12.75669575
859,1.55965416271e+18,-7.702382088,-4.666441441,3.641691923
860,1.55965416276e+18,-2.025556564,-2.808484316,3.452544212
861,1.55965416281e+18,-2.952140808,1.642472506,-2.976083517
862,1.55965416287e+18,5.523591995,3.100585938,-1.709512234
863,1.55965416292e+18,12.10545349,14.0041132,-2.147664547
864,1.55965416297e+18,20.60512924,44.68674469,-1.687963724
865,1.55965416302e+18,11.84208298,16.86527252,7.194795609
866,1.55965416307e+18,-31.91328812,-35.34428406,-36.06735611
867,1.55965416313e+18,-27.21093369,-27.38332176,7.22831583
868,1.55965416318e+18,13.19484806,-0.1149251908,-5.906675816
869,1.55965416323e+18,3.452544212,11.89475727,-6.138920784
870,1.55965416328e+18,0.7589851022,8.38235569,-2.001613855
871,1.55965416333e+18,2.870735407,8.913885117,0.5099805593
872,1.55965416339e+18,4.75024128,10.38875866,-0.3902668059
873,1.55965416344e+18,5.236279011,10.24031353,-2.497228622
874,1.55965416349e+18,7.697593689,9.639349937,-3.742251635
875,1.55965416354e+18,12.70162773,9.091061592,-5.288952827
876,1.55965416359e+18,13.04161453,8.092648506,-4.764606953
877,1.55965416365e+18,8.533195496,7.702382088,-2.126116037
878,1.5596541637e+18,7.340846539,6.442993641,-0.4381522834
879,1.55965416375e+18,2.327235222,6.823683262,1.743032098
880,1.5596541638e+18,5.624151707,6.488484859,2.645673752
881,1.55965416385e+18,4.877137661,7.309720993,1.968093872
882,1.55965416391e+18,7.213950157,6.888328552,3.43578434
883,1.55965416396e+18,7.671256542,6.974522591,1.733454943
884,1.55965416401e+18,7.67843914,6.562707424,2.33441782
885,1.55965416406e+18,7.537177086,6.289760113,1.982459545
886,1.55965416411e+18,6.878751755,5.578660488,1.776551962
887,1.55965416417e+18,5.772596359,5.921041489,2.695953369
888,1.55965416422e+18,5.454157829,5.746259689,1.601769805
889,1.55965416427e+18,4.477293968,5.114171028,2.200338602
890,1.55965416432e+18,3.402264595,5.188393593,1.843591571
891,1.55965416437e+18,0.7948992252,5.502043724,3.107768774
892,1.55965416443e+18,-1.108549237,6.124555111,5.332049847
893,1.55965416448e+18,-0.1460507661,5.573871613,4.836435318
894,1.55965416453e+18,-1.331216812,3.217905283,7.211555958
895,1.55965416458e+18,-1.386285067,1.896265626,3.907456398
896,1.55965416463e+18,-3.912245035,-2.363149166,7.774210453
897,1.55965416468e+18,-1.90823698,-3.689577579,5.06867981
898,1.55965416474e+18,-4.395888329,-11.01366425,7.628159523
899,1.55965416479e+18,-5.480494976,-13.58990383,7.170853138
900,1.55965416484e+18,-4.745452881,-14.46142006,6.000052452
901,1.55965416489e+18,-3.428601503,-15.33533001,7.192401409
902,1.55965416494e+18,-2.511594296,-13.84609127,8.643332481
903,1.559654165e+18,-3.981678963,-11.10464668,7.810124397
904,1.55965416505e+18,-5.578660488,-9.383162498,7.113390446
905,1.5596541651e+18,-7.14930439,-8.873182297,5.396695614
906,1.55965416515e+18,-9.062330246,-8.968953133,5.514014721
907,1.5596541652e+18,-7.051139355,-7.841249943,5.334444046
908,1.55965416526e+18,-7.094236374,-6.548341751,4.474899769
909,1.55965416531e+18,-5.901887417,-6.605803967,4.266597748
910,1.55965416536e+18,-4.673624516,-5.463735104,3.586623669
911,1.55965416541e+18,-4.369551659,-5.135719299,4.194769382
912,1.55965416546e+18,-4.74784708,-4.28575182,3.038334846
913,1.55965416552e+18,-5.123748302,-4.21631813,4.434196949
914,1.55965416557e+18,-5.181210518,-4.053507328,4.21631813
915,1.55965416562e+18,-5.712739468,-3.790137053,5.360781193
916,1.55965416567e+18,-5.351204395,-3.395081758,5.037554264
917,1.55965416572e+18,-7.345634937,-3.962524891,5.1333251
918,1.55965416578e+18,-6.842837334,-4.075055599,5.123748302
919,1.55965416583e+18,-6.454965115,-4.716721535,4.417437077
920,1.55965416588e+18,-7.688016415,-5.030371189,2.832427025
921,1.55965416593e+18,-7.975329399,-5.573871613,1.922602654
922,1.55965416598e+18,-8.736708641,-7.304932594,1.266571403
923,1.55965416604e+18,-9.524425507,-6.057515144,-2.727078915
924,1.55965416609e+18,-13.68088627,-1.395862222,5.178816319
925,1.55965416614e+18,-16.39360046,1.051086664,9.093455315
926,1.55965416619e+18,-12.2179842,1.374313712,12.8931694
927,1.55965416624e+18,-10.4318552,1.671203852,8.130957603
928,1.5596541663e+18,-5.482889175,0.335198462,5.961744308
929,1.55965416635e+18,1.695146561,0.6081457734,0.6057515144
930,1.5596541664e+18,-0.5458946824,0.2011190802,1.319245458
931,1.55965416645e+18,2.801301479,4.292934895,0.332804203
932,1.5596541665e+18,7.814912796,9.359220505,0.4692778587
933,1.55965416656e+18,17.04963112,24.60356712,2.717501879
934,1.55965416661e+18,26.42800522,38.25811768,2.58581686
935,1.55965416666e+18,12.12700176,12.47417164,25.49663162
936,1.55965416671e+18,25.84859085,-78.00786591,-10.29059315
937,1.55965416676e+18,-20.13585091,-12.82134151,-10.71677399
938,1.55965416682e+18,12.26826382,4.206740856,-3.052700281
939,1.55965416687e+18,1.910631299,13.52046967,-2.988054991
940,1.55965416692e+18,-1.975276709,9.694418907,-2.260195494
941,1.55965416697e+18,-1.829225898,11.35125732,-0.5865973234
942,1.55965416702e+18,-0.1053480953,10.59945488,2.027950764
943,1.55965416708e+18,-1.666415215,5.870761871,3.861965179
944,1.55965416713e+18,0.924190104,6.287365437,4.355185986
945,1.55965416718e+18,0.3854782581,6.395108223,5.38472414
946,1.55965416723e+18,0.4668835998,7.288172722,5.525986195
947,1.55965416728e+18,0.5099805593,6.548341751,4.92023468
948,1.55965416734e+18,0.2561874092,3.996044636,6.213143349
949,1.55965416739e+18,-0.6656084061,3.998438835,5.487678051
950,1.55965416744e+18,-0.1292908341,3.193962574,4.944177628
951,1.55965416749e+18,-0.002394274808,3.241847992,4.925023079
952,1.55965416754e+18,-1.29290843,4.170826912,5.842030525
953,1.5596541676e+18,-0.5315290093,6.328068256,6.747066498
954,1.55965416765e+18,-2.049499273,6.644112587,8.200390816
955,1.5596541677e+18,-3.890696526,7.644919395,8.047157288
956,1.55965416775e+18,-6.189200401,6.833260536,8.626572609
957,1.5596541678e+18,-9.320911407,4.755029678,9.332882881
958,1.55965416786e+18,-9.167677879,3.869148016,8.985713005
959,1.55965416791e+18,-11.08309841,2.45892024,8.751074791
960,1.55965416796e+18,-7.434223175,1.956122518,7.72153616
961,1.55965416801e+18,-9.328094482,0.6871568561,7.853221416
962,1.55965416806e+18,-9.373585701,0.5075862408,6.464541912
963,1.55965416812e+18,-8.516435623,0.03591412306,5.224307537
964,1.55965416817e+18,-8.375173569,0.03351984918,3.816473961
965,1.55965416822e+18,-6.72312355,0.7063110471,3.957736254
966,1.55965416827e+18,-9.069513321,0.004788549617,4.125335693
967,1.55965416832e+18,-8.284191132,0.7781392932,5.813299179
968,1.55965416838e+18,-10.52044392,-0.7182824612,5.109382629
969,1.55965416843e+18,-7.920260906,-1.177983165,7.575485706
970,1.55965416848e+18,-9.205986977,-2.846792698,7.201978683
971,1.55965416853e+18,-7.685622215,-2.37272644,8.080677032
972,1.55965416858e+18,-7.683228016,-2.597788095,7.348029613
973,1.55965416864e+18,-6.565101624,-1.9944309,7.273807049
974,1.55965416869e+18,-5.858790398,-1.094183564,6.780586243
975,1.55965416874e+18,-5.265010357,-1.180377483,6.55073595
976,1.55965416879e+18,-6.344828129,-1.333611012,6.428627968
977,1.55965416884e+18,-6.366376877,-1.309668303,5.995264053
978,1.5596541689e+18,-6.047938347,-1.261782765,6.577073097
979,1.55965416895e+18,-6.790163517,-0.8356019258,5.880339146
980,1.559654169e+18,-6.107795238,-0.7374366522,6.356799603
981,1.55965416905e+18,-6.691998005,-1.003201127,5.832453251
982,1.5596541691e+18,-5.988081455,-0.9888355136,5.930618763
983,1.55965416916e+18,-7.338452339,-1.144463301,5.317684174
984,1.55965416921e+18,-7.367183685,-1.228263021,4.800520897
985,1.55965416926e+18,-8.035185814,-1.834014535,5.784567833
986,1.55965416931e+18,-8.458972931,-3.091008663,5.123748302
987,1.55965416936e+18,-7.78618145,-3.495641232,4.714327335
988,1.55965416942e+18,-6.629746914,-4.058295727,3.569863796
989,1.55965416947e+18,-9.474145889,-6.687209606,0.1556278616
990,1.55965416952e+18,-7.994483471,-10.29298782,9.27063179
991,1.55965416957e+18,-11.03281784,6.347222328,3.857176781
992,1.55965416962e+18,-10.72156239,4.563488007,9.634561539
993,1.55965416968e+18,-13.16611671,7.235498428,9.423865318
994,1.55965416973e+18,-13.76229191,2.01597929,5.614574432
995,1.55965416978e+18,-13.68806934,-0.8284190893,2.722290516
996,1.55965416983e+18,-5.645699978,-1.743032098,5.104593754
997,1.55965416988e+18,-3.577046633,1.204320192,3.670423269
998,1.55965416994e+18,2.657644987,1.280937076,3.20353961
999,1.55965416999e+18,2.22667551,3.596200705,1.146857619
1000,1.55965417004e+18,2.937775135,5.571477413,0.7015225291
1001,1.55965417009e+18,4.201952457,8.739103317,3.337619066
1002,1.55965417014e+18,3.450150013,8.255459785,6.158074856
1003,1.5596541702e+18,5.226701736,9.292180061,5.660065651
1004,1.55965417025e+18,8.181237221,11.02324104,4.039141655
1005,1.5596541703e+18,12.45262337,18.97223282,3.636903524
1006,1.55965417035e+18,23.38488197,38.48078537,-2.437371731
1007,1.5596541704e+18,13.18766594,14.73915577,12.91950703
1008,1.55965417046e+18,15.62024879,-21.47664452,-11.12380123
1009,1.55965417051e+18,-40.61169052,-23.11432838,2.020767927
1010,1.55965417056e+18,12.5436058,-3.150865555,-3.301704884
1011,1.55965417061e+18,5.408666611,4.204346657,-1.007989645
1012,1.55965417066e+18,1.249811411,8.734314919,-0.8739103079
1013,1.55965417072e+18,7.630553722,11.47097015,-6.596227169
1014,1.55965417077e+18,4.237866402,13.94665051,-6.031178474
1015,1.55965417082e+18,8.296162605,12.70881081,-7.599428177
1016,1.55965417087e+18,4.819674969,10.07271385,-4.778972626
1017,1.55965417092e+18,6.363982677,8.322499275,-3.919427872
1018,1.55965417098e+18,4.42940855,8.107014656,-3.172414064
1019,1.55965417103e+18,2.770175934,8.64812088,-1.790917516
1020,1.55965417108e+18,3.565075159,8.916279793,-0.2130904645
1021,1.55965417113e+18,3.512401104,8.758256912,0.9816526771
1022,1.55965417118e+18,4.166038036,8.320104599,2.640885115
1023,1.55965417124e+18,3.624932051,8.181237221,2.628913641
1024,1.55965417129e+18,3.478881359,7.810124397,3.153259993
1025,1.55965417134e+18,2.67201066,8.358413696,3.948159218
1026,1.55965417139e+18,3.162837029,8.375173569,3.270579338
1027,1.55965417144e+18,2.293715239,7.218738556,3.344801903
1028,1.5596541715e+18,1.460507631,7.197190285,3.193962574
1029,1.55965417155e+18,2.123721838,7.568302631,3.553103924
1030,1.5596541716e+18,2.324840784,7.953781128,3.73267436
1031,1.55965417165e+18,1.922602654,8.569109917,4.757423878
1032,1.5596541717e+18,0.962498486,7.805335999,5.281770229
1033,1.55965417176e+18,1.268965602,6.742278099,4.383917332
1034,1.55965417181e+18,0.6967339516,4.807703972,4.221106529
1035,1.55965417186e+18,-0.1245022863,4.812492371,3.122134447
1036,1.55965417191e+18,0.05506832153,4.412648678,2.521171331
1037,1.55965417196e+18,-0.8715160489,4.458139896,3.268185139
1038,1.55965417201e+18,-2.023162127,3.526766777,2.176395893
1039,1.55965417207e+18,-5.509226322,-0.4549122155,5.889915943
1040,1.55965417212e+18,-6.282577038,-2.791724443,7.822095871
1041,1.55965417217e+18,-5.844424725,-8.200390816,12.29220676
1042,1.55965417222e+18,-3.486064196,-9.890748978,11.89715195
1043,1.55965417227e+18,-1.101366401,-11.08788681,12.18206978
1044,1.55965417233e+18,-0.4764606953,-9.931451797,8.224333763
1045,1.55965417238e+18,-1.156434774,-10.99211597,6.064698219
1046,1.55965417243e+18,-2.14287591,-12.18925285,4.683201313
1047,1.55965417248e+18,-2.892283916,-12.06953907,3.323253393
1048,1.55965417253e+18,-2.628913641,-10.90592194,2.238646984
1049,1.55965417259e+18,-1.407833576,-10.36481571,2.324840784
1050,1.55965417264e+18,-0.9146129489,-10.4749527,2.35357213
1051,1.55965417269e+18,-0.4908263385,-10.06792545,2.102173328
1052,1.55965417274e+18,-0.4213923812,-9.596253395,1.46290195
1053,1.55965417279e+18,-0.7781392932,-9.86680603,1.312062621
1054,1.55965417285e+18,-1.295302629,-9.713572502,1.537124395
1055,1.5596541729e+18,-0.9385557175,-9.957788467,1.491633177
1056,1.55965417295e+18,-0.5363175869,-9.929058075,1.470084786
1057,1.559654173e+18,-0.2944957912,-9.842864037,1.537124395
1058,1.55965417305e+18,-0.2011190802,-9.251478195,1.810071707
1059,1.55965417311e+18,-0.4070267081,-8.933039665,1.728666425
1060,1.55965417316e+18,-0.2825244367,-8.873182297,1.893871427
1061,1.55965417321e+18,-0.2944957912,-9.234718323,2.126116037
1062,1.55965417326e+18,-0.5027977228,-9.526819229,2.018373728
1063,1.55965417331e+18,-0.928978622,-9.950606346,1.968093872
1064,1.55965417337e+18,-1.132491946,-10.02961731,2.212309837
1065,1.55965417342e+18,-1.163617611,-9.945817947,1.980065227
1066,1.55965417347e+18,-1.345582485,-9.94821167,2.147664547
1067,1.55965417352e+18,-1.371919513,-9.842864037,1.975276709
1068,1.55965417357e+18,-1.321639657,-9.699207306,2.011190891
1069,1.55965417363e+18,-1.307274103,-9.579493523,2.006402254
1070,1.55965417368e+18,-1.338399649,-9.543579102,2.0375278
1071,1.55965417373e+18,-1.206714511,-9.675264359,1.889082789
1072,1.55965417378e+18,-0.9960182905,-9.809344292,2.0351336
1073,1.55965417383e+18,-0.8619389534,-9.732727051,2.027950764
1074,1.55965417389e+18,-0.7350423932,-9.605830193,2.073441982
1075,1.55965417394e+18,-0.5219519138,-9.581888199,2.111750364
1076,1.55965417399e+18,-0.4932205975,-9.488511086,2.051893473
1077,1.55965417404e+18,-0.4501236677,-9.457385063,2.068653345
1078,1.55965417409e+18,-0.4884320498,-9.328094482,1.97288239
1079,1.55965417415e+18,-0.5219519138,-9.354432106,2.020767927
1080,1.5596541742e+18,-0.5818088055,-9.256266594,2.025556564
1081,1.55965417425e+18,-0.7637736797,-9.330489159,1.975276709
1082,1.5596541743e+18,-0.8810931444,-9.493299484,1.982459545
1083,1.55965417435e+18,-0.9098244309,-9.62977314,2.152452946
1084,1.55965417441e+18,-0.962498486,-9.744698524,2.130904675
1085,1.55965417446e+18,-1.087000728,-9.921875,2.133298874
1086,1.55965417451e+18,-1.146857619,-9.85483551,2.16203022
1087,1.55965417456e+18,-1.063058019,-9.73751545,2.312869549
1088,1.55965417461e+18,-0.9146129489,-9.545973778,2.343995094
1089,1.55965417467e+18,-0.8595446348,-9.498087883,2.341600657
1090,1.55965417472e+18,-0.7948992252,-9.53639698,2.298503876
1091,1.55965417477e+18,-0.6009629965,-9.596253395,2.621730804
1092,1.55965417482e+18,-0.7039167881,-9.718361855,3.263396502
1093,1.55965417487e+18,-1.321639657,-9.771035194,3.129317284
1094,1.55965417493e+18,-1.86514008,-9.354432106,2.932986736
1095,1.55965417498e+18,-3.086220264,-9.275420189,3.335224867
1096,1.55965417503e+18,-2.264983892,-9.201197624,3.670423269
1097,1.55965417508e+18,-2.35357213,-9.366402626,4.223500729
1098,1.55965417513e+18,-2.774964571,-9.000079155,4.395888329
1099,1.55965417519e+18,-3.272973776,-9.047964096,4.980091572
1100,1.55965417524e+18,-3.919427872,-8.628966331,4.944177628
1101,1.55965417529e+18,-4.506025314,-7.664073467,5.154873848
1102,1.55965417534e+18,-4.223500729,-6.531581879,5.717528343
1103,1.55965417539e+18,-4.738269806,-5.602602959,6.569890022
1104,1.55965417545e+18,-5.418243885,-4.484476566,6.177228928
1105,1.5596541755e+18,-5.700768471,-4.168432236,6.574678421
1106,1.55965417555e+18,-5.401484013,-4.077449799,6.031178474
1107,1.5596541756e+18,-5.588237286,-4.381523132,6.203566074
1108,1.55965417565e+18,-5.777385235,-5.06867981,6.150891781
1109,1.55965417571e+18,-6.572284222,-4.738269806,5.906675816
1110,1.55965417576e+18,-6.44538784,-4.424619675,5.336838722
1111,1.55965417581e+18,-7.055927753,-3.742251635,5.126142502
1112,1.55965417586e+18,-7.496474266,-3.917033672,4.367157459
1113,1.55965417591e+18,-6.220325947,-4.055901527,2.839609861
1114,1.55965417597e+18,-7.448588848,-5.700768471,2.027950764
1115,1.55965417602e+18,-9.191620827,-6.100612164,0.3902668059
1116,1.55965417607e+18,-5.777385235,-8.42305851,8.305739403
1117,1.55965417612e+18,-8.928250313,1.664021015,4.984879971
1118,1.55965417617e+18,-15.91235065,6.72312355,10.9418354
1119,1.55965417623e+18,-15.90516758,3.735068798,6.9122715
1120,1.55965417628e+18,-9.289786339,-0.7470137477,8.894730568
1121,1.55965417633e+18,-9.10063839,-2.662433624,6.409473896
1122,1.55965417638e+18,-1.240234375,0.05506832153,3.210722446
1123,1.55965417643e+18,2.846792698,3.301704884,0.02154847234
1124,1.55965417649e+18,3.275367975,6.294548512,-0.8619389534
1125,1.55965417654e+18,1.249811411,7.577879906,-0.6751855016
1126,1.55965417659e+18,2.190761566,8.696005821,3.45733285
1127,1.55965417664e+18,3.079037428,10.00806904,5.765413761
1128,1.55965417669e+18,2.861158371,9.012050629,6.174834728
1129,1.55965417675e+18,1.12291491,8.152505875,6.780586243
1130,1.5596541768e+18,5.147690773,6.023995399,6.433416367
1131,1.55965417685e+18,1.965699673,5.655277252,6.320885658
1132,1.5596541769e+18,3.153259993,6.318490982,4.168432236
1133,1.55965417695e+18,5.535563469,8.075888634,3.835628271
1134,1.55965417701e+18,7.556331158,11.26266861,3.979284763
1135,1.55965417706e+18,16.3289547,24.66102982,1.529941559
1136,1.55965417711e+18,19.12067795,32.90451813,-1.580221415
1137,1.55965417716e+18,9.553156853,8.298556328,23.47347069
1138,1.55965417721e+18,29.10240936,-77.8690033,23.329813
1139,1.55965417727e+18,-11.70082092,-8.638543129,-6.972128391
1140,1.55965417732e+18,15.22998238,5.083045483,-4.75024128
1141,1.55965417737e+18,5.564294815,22.91560364,-7.352818012
1142,1.55965417742e+18,-0.1316851079,13.2762537,-1.309668303
1143,1.55965417747e+18,-5.537957668,5.794145107,0.6847625971
1144,1.55965417753e+18,-1.903448462,6.727912426,4.470110893
1145,1.55965417758e+18,-0.4573064744,6.711152077,3.026363373
1146,1.55965417763e+18,-0.241821751,5.439792156,4.704750061
1147,1.55965417768e+18,3.261002302,8.351230621,2.842004299
1148,1.55965417773e+18,2.542719841,8.973741531,3.172414064
1149,1.55965417779e+18,2.33441782,10.00088596,2.803695917
1150,1.55965417784e+18,2.236252785,9.505270958,2.959323645
1151,1.55965417789e+18,2.030344963,9.747093201,1.618529797
1152,1.55965417794e+18,1.690358043,10.03919411,1.412622094
1153,1.55965417799e+18,2.078230619,9.993702888,0.962498486
1154,1.55965417805e+18,2.310475111,9.953000069,0.9361614585
1155,1.5596541781e+18,1.855562925,9.541185379,0.3567469418
1156,1.55965417815e+18,2.066259146,10.12059975,0.5123748183
1157,1.5596541782e+18,2.262589693,9.608224869,-0.05027977005
1158,1.55965417825e+18,3.258608103,9.246688843,0.9194015265
1159,1.55965417831e+18,3.275367975,8.193208694,0.8188419938
1160,1.55965417836e+18,2.988054991,6.646506786,0.7972934842
1161,1.55965417841e+18,2.020767927,4.386311531,-0.08619388938
1162,1.55965417846e+18,1.235445857,3.64887476,-0.2059076279
1163,1.55965417851e+18,1.000806928,4.11336422,-0.1652049571
1164,1.55965417857e+18,-0.4381522834,5.640911579,0.3447755575
1165,1.55965417862e+18,-1.898659945,4.134912491,0.8571503758
1166,1.55965417867e+18,-3.512401104,0.335198462,5.727105141
1167,1.55965417872e+18,-7.704776287,-1.628106833,6.816500187
1168,1.55965417877e+18,-7.36239481,-5.413455486,10.95141315
1169,1.55965417883e+18,-6.052726746,-10.6497345,12.67768478
1170,1.55965417888e+18,-5.461340904,-12.0336256,12.40473747
1171,1.55965417893e+18,-4.125335693,-11.79898643,9.498087883
1172,1.55965417898e+18,-1.503604531,-11.3297081,7.788576126
1173,1.55965417903e+18,-1.192348838,-10.91310501,5.87555027
1174,1.55965417909e+18,-1.850774407,-10.84367085,4.398283005
1175,1.55965417914e+18,-2.370332003,-10.76465988,3.323253393
1176,1.55965417919e+18,-2.724684715,-10.24270725,2.063864946
1177,1.55965417924e+18,-1.903448462,-10.03201103,2.023162127
1178,1.55965417929e+18,-0.7541965842,-10.18285084,2.516382933
1179,1.55965417934e+18,-0.7206767201,-10.11581135,2.238646984
1180,1.5596541794e+18,-1.218685865,-10.0487709,2.011190891
1181,1.55965417945e+18,-1.079817891,-9.368797302,1.620923996
1182,1.5596541795e+18,-1.007989645,-9.541185379,1.757397652
1183,1.55965417955e+18,-0.6440598965,-9.610619545,1.848380208
1184,1.5596541796e+18,-0.464489311,-9.383162498,1.819648862
1185,1.55965417965e+18,-0.2921015322,-9.136552811,2.485257149
1186,1.55965417971e+18,-0.7637736797,-8.930644989,3.284945011
1187,1.55965417976e+18,-2.494834423,-9.105426788,3.146077156
1188,1.55965417981e+18,-3.275367975,-9.450202942,2.533142805
1189,1.55965417986e+18,-3.378321648,-9.469356537,3.569863796
1190,1.55965417991e+18,-2.765387297,-9.282603264,4.597007751
1191,1.55965417997e+18,-3.536343813,-8.79656601,3.955342054
1192,1.55965418002e+18,-4.953754425,-9.040781975,5.118959427
1193,1.55965418007e+18,-4.438985348,-8.454184532,5.590631485
1194,1.55965418012e+18,-5.403878212,-8.243488312,5.827664852
1195,1.55965418017e+18,-5.758230686,-8.004060745,6.107795238
1196,1.55965418023e+18,-5.827664852,-7.383943558,5.837242126
1197,1.55965418028e+18,-5.801327705,-6.682421207,5.468523502
1198,1.55965418033e+18,-5.849213123,-5.442186832,5.305713177
1199,1.55965418038e+18,-5.406272411,-4.048718929,4.800520897
1200,1.55965418043e+18,-4.810098171,-3.150865555,4.848406315
1201,1.55965418049e+18,-4.680807114,-3.380716085,5.001639843
1202,1.55965418054e+18,-4.89629221,-3.462121487,5.083045483
1203,1.55965418059e+18,-5.260221958,-3.811685562,5.854001999
1204,1.55965418064e+18,-5.612180233,-3.577046633,5.782173634
1205,1.55965418069e+18,-5.885127544,-3.122134447,6.366376877
1206,1.55965418075e+18,-6.27539444,-2.351177931,5.588237286
1207,1.5596541808e+18,-6.392713547,-1.776551962,6.203566074
1208,1.55965418085e+18,-7.182824612,-1.913025618,6.177228928
1209,1.5596541809e+18,-6.986494064,-1.896265626,6.241874218
1210,1.55965418095e+18,-7.585062504,-2.911438227,6.622564316
1211,1.55965418101e+18,-6.373559475,-2.837215662,6.471724987
1212,1.55965418106e+18,-6.421444893,-3.146077156,6.004841328
1213,1.55965418111e+18,-6.277788639,-3.366350412,5.224307537
1214,1.55965418116e+18,-7.386337757,-7.039167881,4.300117493
1215,1.55965418121e+18,-11.62899303,-7.237892628,-0.004788549617
1216,1.55965418127e+18,9.955394745,-6.392713547,10.07032013
1217,1.55965418132e+18,-22.07760811,6.929031372,6.742278099
1218,1.55965418137e+18,-13.79341698,6.325674057,8.861210823
1219,1.55965418142e+18,-12.80458164,1.874717116,7.776604652
1220,1.55965418147e+18,-13.02006626,-0.3854782581,4.223500729
1221,1.55965418153e+18,-1.278542757,-0.5075862408,3.100585938
1222,1.55965418158e+18,2.195549965,-0.1460507661,3.720703125
1223,1.55965418163e+18,1.39825654,2.964112282,0.4549122155
1224,1.55965418168e+18,3.639297724,6.237085819,-0.648848474
1225,1.55965418173e+18,3.713520288,9.474145889,1.587404251
1226,1.55965418179e+18,6.826077461,13.14696312,3.603383541
1227,1.55965418184e+18,10.05116558,18.27549934,3.902667999
1228,1.55965418189e+18,14.76549244,34.75289917,2.624125242
1229,1.55965418194e+18,12.99612331,20.2220459,11.34886265
1230,1.55965418199e+18,-14.75831032,-3.37113905,-12.54121113
1231,1.55965418205e+18,-22.04408836,-13.8293314,5.619362831
1232,1.5596541821e+18,15.31857014,3.280156374,-5.502043724
1233,1.55965418215e+18,-0.7422251701,19.37686539,-5.55711174
1234,1.5596541822e+18,-3.363956213,8.616994858,-1.151646137
1235,1.55965418225e+18,0.0,8.229122162,1.862745762
1236,1.55965418231e+18,-3.24424243,5.336838722,3.845205307
1237,1.55965418236e+18,0.8427847624,5.789356709,5.856396198
1238,1.55965418241e+18,3.634509087,6.165257454,7.72153616
1239,1.55965418246e+18,2.868341208,8.214756966,5.923435688
1240,1.55965418251e+18,1.127703428,8.597841263,6.457359314
1241,1.55965418257e+18,-1.853168726,8.056735039,4.357580185
1242,1.55965418262e+18,-3.141288519,7.668862343,5.394300938
1243,1.55965418267e+18,-3.313676357,8.415876389,4.757423878
1244,1.55965418272e+18,-2.470891714,8.214756966,5.595420361
1245,1.55965418277e+18,-3.007209063,7.881952763,4.783761024
1246,1.55965418283e+18,-2.401457548,8.662486076,5.128536701
1247,1.55965418288e+18,-2.583422422,7.113390446,4.125335693
1248,1.55965418293e+18,-1.958516836,4.757423878,4.197163582
1249,1.55965418298e+18,-1.161223292,2.590605259,2.930592299
1250,1.55965418303e+18,-1.005595446,0.3016786277,2.573845387
1251,1.55965418309e+18,-1.529941559,1.855562925,1.951334
1252,1.55965418314e+18,-0.2130904645,2.645673752,3.131711483
1253,1.55965418319e+18,0.4956148863,3.782954216,3.474092722
1254,1.55965418324e+18,0.2346389294,6.761432171,5.95695591
1255,1.55965418329e+18,-2.387091875,6.110189438,8.334470749
1256,1.55965418335e+18,-7.951386452,-0.907430172,9.88117218
1257,1.5596541834e+18,-11.07112694,-6.632141113,12.67289639
1258,1.55965418345e+18,-7.992089272,-6.943397045,12.32572651
1259,1.5596541835e+18,-5.061496735,-8.763046265,10.2714386
1260,1.55965418355e+18,-0.5171633363,-9.160495758,10.32411289
1261,1.55965418361e+18,-0.05985686928,-8.95219326,8.190814018
1262,1.55965418366e+18,-2.212309837,-9.830892563,6.785374641
1263,1.55965418371e+18,-2.243435383,-9.531607628,4.182797909
1264,1.55965418376e+18,-2.770175934,-10.57311726,3.770982742
1265,1.55965418381e+18,-2.217098475,-10.6545229,3.196356773
1266,1.55965418387e+18,-1.474873304,-10.46298122,2.705530643
1267,1.55965418392e+18,-1.041509509,-10.45819283,2.724684715
1268,1.55965418397e+18,-1.40065074,-10.50128937,2.746233225
1269,1.55965418402e+18,-0.9720755816,-10.11341667,2.703136206
1270,1.55965418407e+18,-0.8571503758,-9.715967178,2.308080912
1271,1.55965418413e+18,-0.6560313106,-9.744698524,2.154847383
1272,1.55965418418e+18,-0.4956148863,-9.680052757,2.231464148
1273,1.55965418423e+18,-0.3782954216,-9.601041794,2.178790092
1274,1.55965418428e+18,-0.4118152559,-9.450202942,1.944151163
1275,1.55965418433e+18,-0.4525179267,-9.380768776,1.932179809
1276,1.55965418439e+18,-0.3974496126,-9.35203743,1.920208454
1277,1.55965418444e+18,-0.2346389294,-9.268238068,2.05668211
1278,1.55965418449e+18,-0.2801301479,-9.119792938,1.814860344
1279,1.55965418454e+18,-0.3759011328,-9.280209541,2.094990492
1280,1.55965418459e+18,-0.3806896806,-9.471751213,2.051893473
1281,1.55965418465e+18,-0.6416656375,-9.579493523,1.960911036
1282,1.5596541847e+18,-0.7996878028,-9.732727051,1.999219418
1283,1.55965418475e+18,-0.8499675393,-9.806949615,2.025556564
1284,1.5596541848e+18,-0.7972934842,-9.524425507,2.011190891
1285,1.55965418485e+18,-0.7206767201,-9.730332375,2.0351336
1286,1.55965418491e+18,-0.8858816624,-9.941028595,1.948939681
1287,1.55965418496e+18,-0.8260248303,-9.821314812,1.877111435
1288,1.55965418501e+18,-0.7948992252,-9.624984741,1.841197371
1289,1.55965418506e+18,-0.5985686779,-9.577098846,1.879505754
1290,1.55965418511e+18,-0.4788549542,-9.67047596,1.881899953
1291,1.55965418517e+18,-0.4237866402,-9.687235832,1.860351562
1292,1.55965418522e+18,-0.4381522834,-9.675264359,1.71908927
1293,1.55965418527e+18,-0.4764606953,-9.639349937,1.75979197
1294,1.55965418532e+18,-0.481249243,-9.610619545,1.857957244
1295,1.55965418537e+18,-0.4692778587,-9.553156853,1.834014535
1296,1.55965418543e+18,-0.4261809289,-9.454991341,2.030344963
1297,1.55965418548e+18,-0.4381522834,-9.416683197,1.992036581
1298,1.55965418553e+18,-0.646454215,-9.773429871,2.212309837
1299,1.55965418558e+18,0.7829278708,-9.715967178,3.871542454
1300,1.55965418563e+18,-1.091789365,-10.79817963,4.767001152
1301,1.55965418569e+18,-3.828445435,-10.29777622,5.547534943
1302,1.55965418574e+18,-3.019180536,-10.07032013,6.095823765
1303,1.55965418579e+18,-3.076643229,-9.083878517,6.359193802
1304,1.55965418584e+18,-3.019180536,-8.403904915,5.202759266
1305,1.55965418589e+18,-3.696760416,-7.326480865,5.45176363
1306,1.55965418595e+18,-3.79492569,-6.292154312,5.200365067
1307,1.559654186e+18,-4.460534096,-5.104593754,4.862771988
1308,1.55965418605e+18,-4.850800991,-4.11336422,5.415849686
1309,1.5596541861e+18,-6.012023926,-3.680000305,4.063084126
1310,1.55965418615e+18,-6.38074255,-4.003227711,5.166844845
1311,1.55965418621e+18,-7.472531796,-3.189173937,4.367157459
1312,1.55965418626e+18,-7.429434776,-3.280156374,4.367157459
1313,1.55965418631e+18,-8.221940041,-3.840416908,3.450150013
1314,1.55965418636e+18,-9.0335989,-4.515602112,1.036720991
1315,1.55965418641e+18,-9.031204224,-4.185192585,-0.1556278616
1316,1.55965418647e+18,-9.009655952,-6.567495823,-1.479661822
1317,1.55965418652e+18,-7.477320194,-6.605803967,5.106987953
1318,1.55965418657e+18,-10.0918684,4.446168423,2.597788095
1319,1.55965418662e+18,-6.651295185,-0.3567469418,3.055094719
1320,1.55965418667e+18,-9.038387299,3.258608103,-0.009577099234
1321,1.55965418673e+18,-9.967366219,3.768588543,3.395081758
1322,1.55965418678e+18,-4.891503334,3.126922846,8.940221786
1323,1.55965418683e+18,-25.04411507,-3.007209063,12.11981869
1324,1.55965418688e+18,-14.56197929,-6.790163517,15.82376194
1325,1.55965418693e+18,-12.98415184,-2.940169573,10.70240879
1326,1.55965418699e+18,-7.970541,-1.992036581,5.628940105
1327,1.55965418704e+18,-3.249030828,0.4333637357,1.213897347
1328,1.55965418709e+18,0.8379961848,1.527547359,-2.341600657
1329,1.55965418714e+18,4.769395351,-0.4166038036,1.774157643
1330,1.55965418719e+18,2.897072554,0.8332076073,2.174001455
1331,1.55965418725e+18,-0.3878725171,2.794118643,-0.4597007632
1332,1.5596541873e+18,-0.002394274808,4.776578426,1.501210332
1333,1.55965418735e+18,6.138920784,8.947404861,5.099805355
1334,1.5596541874e+18,10.79099655,12.68726254,9.639349937
1335,1.55965418745e+18,10.85564232,14.45902538,8.202785492
1336,1.55965418751e+18,16.24036598,23.19812775,5.990475655
1337,1.55965418756e+18,23.04968452,37.2022438,0.6823683381
1338,1.55965418761e+18,14.40635109,14.8780241,13.35765934
1339,1.55965418766e+18,26.25801277,-20.64104271,-17.82058716
1340,1.55965418771e+18,-33.74969864,-17.98579216,-6.081458092
1341,1.55965418777e+18,11.28182316,-3.237059593,-2.310475111
1342,1.55965418782e+18,3.591412306,13.23794556,-5.391906738
1343,1.55965418787e+18,-2.008796453,5.377541065,0.1556278616
1344,1.55965418792e+18,-0.3878725171,5.631334305,1.192348838
1345,1.55965418797e+18,1.776551962,8.260248184,4.352791786
1346,1.55965418803e+18,2.456526041,10.26425648,0.7996878028
1347,1.55965418808e+18,3.481275558,10.2666502,0.9984126091
1348,1.55965418813e+18,4.501236439,10.5970602,-1.237840056
1349,1.55965418818e+18,4.288146019,10.68564892,-1.920208454
1350,1.55965418823e+18,4.03195858,10.75268841,-1.850774407
1351,1.55965418829e+18,4.477293968,10.89395046,-1.410227895
1352,1.55965418834e+18,4.297723293,9.672870636,-0.2729473412
1353,1.55965418839e+18,3.993650436,8.892336845,-0.1053480953
1354,1.55965418844e+18,3.708731651,8.535589218,0.7685621977
1355,1.55965418849e+18,4.118152618,8.923461914,1.422199249
1356,1.55965418855e+18,3.45733285,8.719948769,1.185166001
1357,1.5596541886e+18,3.737462997,8.1453228,1.75979197
1358,1.55965418865e+18,3.342407703,7.374366283,1.486844659
1359,1.5596541887e+18,3.256213665,6.488484859,1.312062621
1360,1.55965418875e+18,3.038334846,6.306519985,1.575432777
1361,1.55965418881e+18,2.628913641,6.27539444,2.221887112
1362,1.55965418886e+18,2.401457548,6.059909344,2.181184292
1363,1.55965418891e+18,2.291321039,6.124555111,1.915419817
1364,1.55965418896e+18,1.288119793,6.258634567,2.631308079
1365,1.55965418901e+18,0.6081457734,6.38074255,4.869955063
1366,1.55965418907e+18,-1.817254543,7.482108593,5.17163372
1367,1.55965418912e+18,-2.50201726,7.185218811,6.107795238
1368,1.55965418917e+18,-4.934600353,5.992869854,7.925049782
1369,1.55965418922e+18,-7.738296032,4.386311531,7.944203854
1370,1.55965418927e+18,-6.876357079,2.880312681,8.667274475
1371,1.55965418933e+18,-5.379935265,1.592192769,7.752661705
1372,1.55965418938e+18,-3.205934048,-0.2394274771,9.519637108
1373,1.55965418943e+18,-2.025556564,-1.324033976,11.84926605
1374,1.55965418948e+18,-3.002420664,-3.936187744,14.01368999
1375,1.55965418953e+18,-4.798126698,-4.676018715,12.84288979
1376,1.55965418959e+18,-4.884320736,-4.788549423,12.48614311
1377,1.55965418964e+18,-3.833234072,-4.249837875,10.64255142
1378,1.55965418969e+18,-3.205934048,-3.890696526,9.725543976
1379,1.55965418974e+18,-3.979284763,-3.861965179,8.89951992
1380,1.55965418979e+18,-3.469304085,-2.628913641,8.095043182
1381,1.55965418985e+18,-3.469304085,-2.499622822,7.680833817
1382,1.5596541899e+18,-4.628133297,-1.989642382,6.545947552
1383,1.55965418995e+18,-4.482082367,-0.950527072,6.555524349
1384,1.55965419e+18,-6.196382999,-1.48445034,5.992869854
1385,1.55965419005e+18,-5.032765865,-1.319245458,5.973715782
1386,1.55965419011e+18,-7.089447498,-0.6943396926,4.939388752
1387,1.55965419016e+18,-6.993676662,-1.695146561,5.80851078
1388,1.55965419021e+18,-8.140534401,-2.894678354,5.741470814
1389,1.55965419026e+18,-8.655303001,-4.551516533,5.02558279
1390,1.55965419031e+18,-8.454184532,-4.450956821,3.826051235
1391,1.55965419037e+18,-11.31773663,-6.608198643,2.068653345
1392,1.55965419042e+18,-12.08629894,-4.491659641,0.22266756
1393,1.55965419047e+18,-11.83250618,-11.24830341,8.013637543
1394,1.55965419052e+18,-10.21637058,3.847599506,8.095043182
1395,1.55965419057e+18,-13.03682613,4.556304932,8.777411461
1396,1.55965419063e+18,-11.39674854,2.370332003,8.509252548
1397,1.55965419068e+18,-10.69522572,1.048692346,3.074248791
1398,1.55965419073e+18,1.508393168,-0.332804203,6.435810566
1399,1.55965419078e+18,-2.049499273,1.577827096,1.407833576
1400,1.55965419083e+18,1.850774407,1.558672905,1.036720991
1401,1.55965419089e+18,2.389486313,3.249030828,-0.2801301479
1402,1.55965419094e+18,2.628913641,5.753442287,1.46290195
1403,1.55965419099e+18,7.398309231,9.656110764,3.998438835
1404,1.55965419104e+18,8.138139725,13.89397717,6.59143877
1405,1.55965419109e+18,16.29782867,25.89887047,4.276175022
1406,1.55965419115e+18,25.24762726,34.86303711,1.331216812
1407,1.5596541912e+18,13.19963741,12.93387222,21.98662567
1408,1.55965419125e+18,10.06553173,-14.10946178,-15.69207668
1409,1.5596541913e+18,-29.60760307,-20.94750977,-2.308080912
1410,1.55965419135e+18,9.225140572,-0.4908263385,-1.319245458
1411,1.55965419141e+18,1.510787368,17.08794022,-5.947378635
1412,1.55965419146e+18,-4.288146019,9.10063839,-4.427014351
1413,1.55965419151e+18,-2.88510108,7.664073467,1.810071707
1414,1.55965419156e+18,1.424593568,10.45340347,2.391880512
1415,1.55965419161e+18,-1.762186289,5.016005516,5.789356709
1416,1.55965419167e+18,-0.05267404765,5.854001999,6.359193802
1417,1.55965419172e+18,0.4022381604,7.300143719,6.337645531
1418,1.55965419177e+18,-1.007989645,9.62977314,5.588237286
1419,1.55965419182e+18,-0.6009629965,8.765439987,6.270605564
1420,1.55965419187e+18,-1.0175668,6.69918108,5.877944469
1421,1.55965419193e+18,-1.78134048,5.514014721,5.468523502
1422,1.55965419198e+18,-0.8403904438,5.765413761,5.32007885
1423,1.55965419203e+18,0.299284339,4.343214512,5.569083214
1424,1.55965419208e+18,0.09337671846,3.490852594,5.815693378
1425,1.55965419213e+18,-0.04070267081,4.434196949,4.948966026
1426,1.55965419219e+18,-0.2537931204,4.115758419,4.685595989
1427,1.55965419224e+18,-0.9002473354,4.348002911,4.343214512
1428,1.55965419229e+18,-4.618556023,5.087833881,3.332830429
1429,1.55965419234e+18,-4.336031914,6.522004604,1.834014535
1430,1.55965419239e+18,-5.624151707,7.609005451,3.261002302
1431,1.55965419245e+18,-7.259441376,5.856396198,5.217124939
1432,1.5596541925e+18,-9.160495758,2.272166729,11.52843285
1433,1.55965419255e+18,-9.457385063,1.592192769,12.59149075
1434,1.5596541926e+18,-9.299363136,0.7757450342,12.98894119
1435,1.55965419265e+18,-4.778972626,-0.9337671995,11.42308521
1436,1.55965419271e+18,-1.568249941,-3.641691923,9.998491287
1437,1.55965419276e+18,-0.8260248303,-5.21473074,9.146129608
1438,1.55965419281e+18,-0.2801301479,-6.998465061,8.317710876
1439,1.55965419286e+18,-1.620923996,-7.099024773,7.592245579
1440,1.55965419291e+18,-4.053507328,-8.803748131,5.868367672
1441,1.55965419297e+18,-3.320859194,-9.639349937,6.680026531
1442,1.55965419302e+18,-3.069460392,-9.802161217,5.411061287
1443,1.55965419307e+18,-1.496421814,-9.361614227,5.011217117
1444,1.55965419312e+18,-2.008796453,-9.742303848,4.49644804
1445,1.55965419317e+18,-1.450930476,-9.852440834,3.687183142
1446,1.55965419323e+18,-0.8475732803,-10.40791225,4.036747456
1447,1.55965419328e+18,-0.7254652381,-10.38157558,3.129317284
1448,1.55965419333e+18,-0.943344295,-10.29298782,3.086220264
1449,1.55965419338e+18,-1.098972082,-9.897932053,2.894678354
1450,1.55965419343e+18,-0.8092648983,-9.591464996,2.542719841
1451,1.55965419349e+18,-0.8906702399,-9.543579102,2.178790092
1452,1.55965419354e+18,-0.8906702399,-9.560338974,2.14287591
1453,1.55965419359e+18,-0.7853221297,-9.488511086,1.982459545
1454,1.55965419364e+18,-1.0606637,-9.488511086,1.893871427
1455,1.55965419369e+18,-1.094183564,-9.567522049,1.893871427
1456,1.55965419375e+18,-0.7733507752,-9.390345573,1.853168726
1457,1.5596541938e+18,-0.5961744189,-9.481328011,2.059076309
1458,1.55965419385e+18,-0.5099805593,-9.514847755,2.214704275
1459,1.5596541939e+18,-0.3998439014,-9.476539612,2.174001455
1460,1.55965419395e+18,-0.2178790122,-9.292180061,2.229069948
1461,1.55965419401e+18,-0.06943397224,-9.340065956,2.214704275
1462,1.55965419406e+18,-0.08858817071,-9.342460632,2.293715239
1463,1.55965419411e+18,-0.5075862408,-9.39274025,2.004008055
1464,1.55965419416e+18,-0.4285751879,-9.428654671,2.087807655
1465,1.55965419421e+18,-0.5506832004,-9.653716087,2.109356165
1466,1.55965419427e+18,-0.5315290093,-9.665687561,2.145270348
1467,1.55965419432e+18,-0.7948992252,-9.617801666,2.128510237
1468,1.55965419437e+18,-0.7230709791,-9.512454033,2.224281311
1469,1.55965419442e+18,-0.4046324492,-9.665687561,2.37512064
1470,1.55965419447e+18,-0.4573064744,-9.852440834,2.336812258
1471,1.55965419453e+18,-0.7637736797,-9.773429871,2.176395893
1472,1.55965419458e+18,-0.926584363,-9.723150253,2.14048171
1473,1.55965419463e+18,-0.7661679387,-9.545973778,2.200338602
1474,1.55965419468e+18,-0.5961744189,-9.596253395,2.174001455
1475,1.55965419473e+18,-0.591385901,-9.763853073,2.102173328
1476,1.55965419479e+18,-0.5482889414,-9.727938652,2.114144564
1477,1.55965419484e+18,-0.4932205975,-9.543579102,2.023162127
1478,1.55965419489e+18,-0.4932205975,-9.500482559,2.011190891
1479,1.55965419494e+18,-0.4573064744,-9.447808266,1.977671027
1480,1.55965419499e+18,-0.3950553536,-9.423865318,2.116539001
1481,1.55965419505e+18,-0.4381522834,-9.474145889,2.059076309
1482,1.5596541951e+18,-0.4549122155,-9.560338974,2.181184292
1483,1.55965419515e+18,-0.4884320498,-9.53639698,2.109356165
1484,1.5596541952e+18,-0.5291347504,-9.565128326,2.094990492
1485,1.55965419525e+18,-0.5267404318,-9.555550575,2.135693073
1486,1.55965419531e+18,-0.4788549542,-9.579493523,2.195549965
1487,1.55965419536e+18,-0.5291347504,-9.62977314,2.150058746
1488,1.55965419541e+18,-0.2513988614,-9.936240196,2.37512064
1489,1.55965419546e+18,-0.8212362528,-10.04637718,4.869955063
1490,1.55965419551e+18,-4.103786945,-12.01686573,5.631334305
1491,1.55965419557e+18,-0.05506832153,-12.27544689,6.857203007
1492,1.55965419562e+18,2.14048171,-12.61064529,9.387951851
1493,1.55965419567e+18,-0.2130904645,-11.52125072,8.533195496
1494,1.55965419572e+18,-1.134886265,-8.336864471,5.418243885
1495,1.55965419577e+18,1.434170604,-5.336838722,6.818894863
1496,1.55965419583e+18,1.16601181,-3.368744612,4.987274647
1497,1.55965419588e+18,2.956929445,-1.300091267,4.630527496
1498,1.55965419593e+18,2.717501879,-0.8739103079,6.038361073
1499,1.55965419598e+18,3.155654192,-0.3519583941,5.839636326
1500,1.55965419603e+18,3.0957973,-0.3375927508,7.302538395
1501,1.55965419609e+18,3.584229469,-0.06464541703,8.135746002
1502,1.55965419614e+18,3.380716085,0.4285751879,7.709564686
1503,1.55965419619e+18,3.526766777,0.5219519138,8.3153162
1504,1.55965419624e+18,3.905062199,0.7996878028,8.336864471
1505,1.55965419629e+18,3.419024467,0.2681587934,8.305739403
1506,1.55965419634e+18,3.909850836,0.2513988614,8.846845627
1507,1.5596541964e+18,3.912245035,-0.14844504,8.904308319
1508,1.55965419645e+18,3.933793545,-0.2705530524,9.091061592
1509,1.5596541965e+18,4.082238674,-0.2609759569,9.225140572
1510,1.55965419655e+18,3.943370581,-0.102953814,8.940221786
1511,1.5596541966e+18,4.213923454,0.1436564922,9.613013268
1512,1.55965419666e+18,4.316877365,0.3519583941,9.447808266
1513,1.55965419671e+18,4.39109993,1.223474383,10.0966568
1514,1.55965419676e+18,5.138113976,1.264177084,11.75349522
1515,1.55965419681e+18,4.623344421,0.14844504,10.58030033
1516,1.55965419686e+18,4.465322495,0.08619388938,9.27063179
1517,1.55965419692e+18,5.571477413,1.022355318,8.083071709
1518,1.55965419697e+18,4.630527496,1.467690468,6.648900986
1519,1.55965419702e+18,4.757423878,2.027950764,6.471724987
1520,1.55965419707e+18,5.248250484,2.138087511,6.569890022
1521,1.55965419712e+18,5.236279011,2.171607256,6.732700825
1522,1.55965419718e+18,5.351204395,2.288926601,6.519610405
1523,1.55965419723e+18,5.236279011,2.284138203,6.522004604
1524,1.55965419728e+18,5.358386993,2.33441782,6.907482624
1525,1.55965419733e+18,5.868367672,2.511594296,7.029590607
1526,1.55965419738e+18,6.289760113,2.645673752,6.720729351
1527,1.55965419744e+18,5.990475655,2.947352171,6.682421207
1528,1.55965419749e+18,6.790163517,3.158048391,6.888328552
1529,1.55965419754e+18,6.258634567,2.229069948,7.008042336
1530,1.55965419759e+18,6.474119186,2.233858347,7.110996246
1531,1.55965419764e+18,6.296942711,2.178790092,7.051139355
1532,1.5596541977e+18,5.767807961,2.075836182,7.331269264
1533,1.55965419775e+18,5.868367672,2.221887112,7.637736797
1534,1.5596541978e+18,6.043149471,2.403851986,7.427040577
1535,1.55965419785e+18,5.715134144,2.432583094,7.345634937
1536,1.5596541979e+18,5.418243885,2.195549965,7.110996246
1537,1.55965419796e+18,6.052726746,2.418217659,7.213950157
1538,1.55965419801e+18,6.028783798,2.008796453,7.57309103
1539,1.55965419806e+18,5.868367672,1.786128998,7.115784645
1540,1.55965419811e+18,6.136526108,1.905842781,7.604216576
1541,1.55965419816e+18,6.435810566,1.913025618,7.491685867
1542,1.55965419822e+18,6.344828129,2.011190891,7.316903591
1543,1.55965419827e+18,6.095823765,1.857957244,7.585062504
1544,1.55965419832e+18,6.067092419,2.051893473,7.276201248
1545,1.55965419837e+18,5.849213123,2.011190891,7.312115192
1546,1.55965419842e+18,6.105400562,2.150058746,7.036773682
1547,1.55965419848e+18,6.057515144,1.867534399,7.417463303
1548,1.55965419853e+18,6.114977837,1.731060743,7.486897469
1549,1.55965419858e+18,5.724710941,1.673598051,7.640130997
1550,1.55965419863e+18,5.70316267,1.889082789,7.575485706
1551,1.55965419868e+18,5.990475655,2.004008055,7.690410614
1552,1.55965419874e+18,6.352011204,1.999219418,7.757450581
1553,1.55965419879e+18,5.549929142,1.762186289,7.707170486
1554,1.55965419884e+18,5.686402798,1.831620216,7.405491829
1555,1.55965419889e+18,5.652883053,2.262589693,7.0846591
1556,1.55965419894e+18,5.219519138,1.613741279,6.469330311
1557,1.559654199e+18,4.345608711,-0.3256213665,4.664047241
1558,1.55965419905e+18,2.643279314,-1.534730196,3.13889432
1559,1.5596541991e+18,1.455719113,-1.120520592,3.256213665
1560,1.55965419915e+18,-0.4788549542,-0.2130904645,5.954561234
1561,1.5596541992e+18,0.06703969836,-3.378321648,8.942616463
1562,1.55965419926e+18,-0.2729473412,-4.273780346,9.440625191
1563,1.55965419931e+18,0.3830839694,-8.71516037,13.07034588
1564,1.55965419936e+18,0.3232271075,-8.947404861,11.97137451
1565,1.55965419941e+18,-1.043903828,-8.485309601,11.04478931
1566,1.55965419946e+18,0.3064671755,-7.252258301,9.687235832
1567,1.55965419952e+18,0.07661679387,-7.01522541,8.676852226
1568,1.55965419957e+18,0.2753416002,-6.215537548,7.137333393
1569,1.55965419962e+18,1.211503029,-5.17163372,5.130930901
1570,1.55965419967e+18,1.585009933,-6.043149471,3.873936653
1571,1.55965419972e+18,0.09337671846,-10.48692322,3.289733648
1572,1.55965419978e+18,-4.2426548,-15.93629265,3.988861799
1573,1.55965419983e+18,-2.406246185,-12.74472523,1.297696948
1574,1.55965419988e+18,0.1987248063,-10.98253822,3.083826065
1575,1.55965419993e+18,-0.2657645047,-9.833286285,2.525959969
1576,1.55965419998e+18,-0.5794144869,-9.01923275,2.288926601
1577,1.55965420004e+18,-0.8715160489,-8.202785492,1.585009933
1578,1.55965420009e+18,-1.211503029,-8.468549728,1.601769805
1579,1.55965420014e+18,-1.252205729,-9.134158134,2.123721838
1580,1.55965420019e+18,-0.7278595567,-9.943423271,2.561874151
1581,1.55965420024e+18,-0.07422251999,-9.787795067,2.329629421
1582,1.5596542003e+18,0.4573064744,-9.684841156,2.552296877
1583,1.55965420035e+18,0.648848474,-9.512454033,2.892283916
1584,1.5596542004e+18,0.4213923812,-9.146129608,2.923409462
1585,1.55965420045e+18,0.2250618339,-8.985713005,2.971295118
1586,1.5596542005e+18,0.2897072434,-9.043175697,3.007209063
1587,1.55965420056e+18,-0.102953814,-9.220352173,3.13889432
1588,1.55965420061e+18,-1.606558442,-8.949799538,1.807677507
1589,1.55965420066e+18,-2.861158371,-9.797372818,3.672817469
1590,1.55965420071e+18,-0.8116591573,-9.761458397,5.502043724
1591,1.55965420076e+18,-0.1077423692,-9.256266594,6.007235527
1592,1.55965420082e+18,-2.533142805,-9.057541847,6.268211365
1593,1.55965420087e+18,-3.579440832,-8.401510239,5.06867981
1594,1.55965420092e+18,-4.39109993,-7.563514233,5.734288216
1595,1.55965420097e+18,-4.826858044,-6.411868095,5.815693378
1596,1.55965420102e+18,-5.8516078,-5.458946705,5.834847927
1597,1.55965420107e+18,-5.952167034,-4.893897533,5.51640892
1598,1.55965420113e+18,-5.774991035,-4.173221111,4.898686409
1599,1.55965420118e+18,-6.488484859,-4.065478802,4.386311531
1600,1.55965420123e+18,-7.307326794,-4.259414673,4.343214512
1601,1.55965420128e+18,-7.723930359,-4.379128456,4.599401951
1602,1.55965420133e+18,-8.10461998,-4.103786945,4.486870766
1603,1.55965420139e+18,-9.189227104,-3.464515686,3.806896925
1604,1.55965420144e+18,-7.429434776,-3.390293121,3.512401104
1605,1.55965420149e+18,-6.251451492,-3.181991339,2.382303476
1606,1.55965420154e+18,-8.226728439,-3.873936653,1.03911531
1607,1.55965420159e+18,-8.458972931,-4.678412914,0.4166038036
1608,1.55965420165e+18,-10.45579815,-6.433416367,-1.345582485
1609,1.5596542017e+18,-11.25548553,-5.80851078,2.784541607
1610,1.55965420175e+18,-12.73993587,1.355159521,5.942590237
1611,1.5596542018e+18,-8.107014656,1.556278586,3.251425266
1612,1.55965420185e+18,-7.383943558,2.264983892,2.743839025
1613,1.55965420191e+18,-7.424646378,-0.3854782581,3.536343813
1614,1.55965420196e+18,-4.11097002,1.12530911,2.212309837
1615,1.55965420201e+18,-9.960183144,1.54909575,5.949772835
1616,1.55965420206e+18,-15.20603943,-1.910631299,13.52286434
1617,1.55965420211e+18,-22.19253349,-0.4405465722,15.02167988
1618,1.55965420217e+18,-19.06321526,-2.243435383,9.320911407
1619,1.55965420222e+18,-6.488484859,-2.815667152,5.559505939
1620,1.55965420227e+18,-2.968900681,-0.6608198285,-0.01675992459
1621,1.55965420232e+18,-0.22266756,-0.1221080124,-0.03591412306
1622,1.55965420237e+18,4.307300568,1.431776285,-0.984046936
1623,1.55965420243e+18,1.101366401,2.542719841,-1.927391171
1624,1.55965420248e+18,1.048692346,3.696760416,1.144463301
1625,1.55965420253e+18,2.619336605,5.894704342,4.21631813
1626,1.55965420258e+18,6.421444893,8.88515377,3.375927448
1627,1.55965420263e+18,4.340820312,11.51406765,5.504437923
1628,1.55965420269e+18,12.01925945,16.92991638,5.219519138
1629,1.55965420274e+18,19.67615128,36.17749405,1.470084786
1630,1.55965420279e+18,14.55479622,25.18777084,5.27937603
1631,1.55965420284e+18,-5.413455486,0.3974496126,43.26454544
1632,1.55965420289e+18,-9.998491287,-34.2022171,20.10472488
1633,1.55965420295e+18,-4.85558939,-8.904308319,-6.907482624
1634,1.559654203e+18,4.383917332,11.67927265,-7.410280704
1635,1.55965420305e+18,0.5650488734,8.43742466,-0.7901107073
1636,1.5596542031e+18,-4.271386147,1.204320192,3.83802247
1637,1.55965420315e+18,1.0606637,8.303344727,3.320859194
1638,1.55965420321e+18,4.49644804,6.567495823,4.359974384
1639,1.55965420326e+18,2.849187136,8.322499275,3.093403101
1640,1.55965420331e+18,5.020794392,8.865999222,0.7805336118
1641,1.55965420336e+18,4.467716694,9.56273365,-0.7613793612
1642,1.55965420341e+18,5.626545906,10.55635738,-1.331216812
1643,1.55965420347e+18,6.08624649,9.90750885,-2.379909277
1644,1.55965420352e+18,6.186806202,9.385557175,-2.964112282
1645,1.55965420357e+18,7.874769688,9.261054993,-3.153259993
1646,1.55965420362e+18,7.04395628,8.64812088,-1.898659945
1647,1.55965420367e+18,6.967339516,7.939415455,1.118126392
1648,1.55965420373e+18,7.218738556,7.843644142,1.048692346
1649,1.55965420378e+18,8.109408379,6.991282463,2.748627424
1650,1.55965420383e+18,7.609005451,6.634535313,2.238646984
1651,1.55965420388e+18,6.988888264,6.519610405,1.939362645
1652,1.55965420393e+18,6.043149471,6.227508545,2.300898075
1653,1.55965420399e+18,5.470917702,6.320885658,1.757397652
1654,1.55965420404e+18,4.846012115,5.712739468,2.085413456
1655,1.55965420409e+18,4.951360226,5.090228081,1.316851139
1656,1.55965420414e+18,4.237866402,4.731087208,1.685569525
1657,1.55965420419e+18,2.303292274,4.877137661,1.666415215
1658,1.55965420425e+18,-0.4788549542,4.903474808,1.805283189
1659,1.5596542043e+18,-4.000833035,4.716721535,1.92978549
1660,1.55965420435e+18,-5.648094177,2.827638626,6.572284222
1661,1.5596542044e+18,-6.806923389,0.4764606953,6.569890022
1662,1.55965420445e+18,-3.162837029,-2.980872154,11.41829681
1663,1.55965420451e+18,5.080651283,-6.61777544,13.25231075
1664,1.55965420456e+18,1.374313712,-8.961771011,11.90433407
1665,1.55965420461e+18,-1.714300752,-9.344854355,9.443019867
1666,1.55965420466e+18,-3.617749214,-9.541185379,8.89951992
1667,1.55965420471e+18,-1.721483588,-8.956981659,8.241093636
1668,1.55965420477e+18,-1.46290195,-8.602629662,7.61379385
1669,1.55965420482e+18,-2.470891714,-8.681640625,7.108602047
1670,1.55965420487e+18,-4.036747456,-8.909096718,5.98089838
1671,1.55965420492e+18,-3.799714088,-8.763046265,4.841223717
1672,1.55965420497e+18,-3.670423269,-9.155706406,5.403878212
1673,1.55965420503e+18,-3.569863796,-8.74149704,4.446168423
1674,1.55965420508e+18,-4.398283005,-8.545166969,4.767001152
1675,1.55965420513e+18,-3.782954216,-8.351230621,5.09262228
1676,1.55965420518e+18,-2.964112282,-8.312922478,5.674431324
1677,1.55965420523e+18,-3.050306082,-8.207573891,5.650488377
1678,1.55965420529e+18,-3.205934048,-7.82688427,5.008822918
1679,1.55965420534e+18,-3.076643229,-7.570696831,4.829252243
1680,1.55965420539e+18,-2.887495518,-7.106207848,4.673624516
1681,1.55965420544e+18,-3.445361376,-6.917059898,4.235472202
1682,1.55965420549e+18,-3.787742853,-6.363982677,4.371945858
1683,1.55965420555e+18,-4.199557781,-6.059909344,4.963331699
1684,1.5596542056e+18,-4.558699131,-5.992869854,5.243461609
1685,1.55965420565e+18,-4.889109135,-5.693585396,5.863578796
1686,1.5596542057e+18,-5.755836487,-5.612180233,6.071880817
1687,1.55965420575e+18,-6.014418125,-5.437397957,6.62016964
1688,1.55965420581e+18,-6.737489223,-4.958543301,6.220325947
1689,1.55965420586e+18,-6.878751755,-4.963331699,6.402290821
1690,1.55965420591e+18,-6.481301785,-4.49644804,6.117372036
1691,1.55965420596e+18,-6.352011204,-4.364762783,5.880339146
1692,1.55965420601e+18,-6.751854897,-4.213923454,5.51640892
1693,1.55965420607e+18,-6.720729351,-3.593806505,5.169239521
1694,1.55965420612e+18,-7.079870701,-2.992843628,5.229096413
1695,1.55965420617e+18,-7.29535532,-2.45892024,5.224307537
1696,1.55965420622e+18,-7.78618145,-2.039922237,5.482889175
1697,1.55965420627e+18,-7.556331158,-2.37512064,6.08864069
1698,1.55965420633e+18,-7.367183685,-2.054287672,4.956148624
1699,1.55965420638e+18,-7.503657341,-3.004814863,5.1333251
1700,1.55965420643e+18,-7.22831583,-3.991255999,1.982459545
1701,1.55965420648e+18,-7.860404015,-4.77418375,1.218685865
1702,1.55965420653e+18,-8.88515377,-7.934626579,0.7350423932
1703,1.55965420659e+18,-10.49171257,-13.89397717,-1.438959122
1704,1.55965420664e+18,-18.73041153,-2.310475111,8.492492676
1705,1.55965420669e+18,-14.43508244,-0.2849186957,8.813325882
1706,1.55965420674e+18,-16.23078918,2.796513081,9.823709488
1707,1.55965420679e+18,-14.13101006,1.556278586,8.039975166
1708,1.55965420685e+18,-0.2585816681,1.371919513,5.552323341
1709,1.5596542069e+18,-3.873936653,-0.09816526622,4.300117493
1710,1.55965420695e+18,0.3950553536,1.592192769,1.242628574
1711,1.559654207e+18,2.336812258,3.363956213,-0.6775797606
1712,1.55965420705e+18,0.945738554,3.43578434,-0.6584255695
1713,1.55965420711e+18,2.624125242,5.734288216,2.760598898
1714,1.55965420716e+18,4.599401951,9.0335989,4.326454639
1715,1.55965420721e+18,6.402290821,12.32572651,5.961744308
1716,1.55965420726e+18,12.94344997,21.06004143,5.185999393
1717,1.55965420731e+18,23.14066696,41.65080643,1.455719113
1718,1.55965420737e+18,13.94186211,22.8533535,10.92028713
1719,1.55965420742e+18,-9.071907043,-3.9864676,-11.21957207
1720,1.55965420747e+18,-29.56450462,-16.78865433,8.95219326
1721,1.55965420752e+18,15.36884975,-1.472478986,-5.739076614
1722,1.55965420757e+18,7.695199013,18.44309807,-8.660092354
1723,1.55965420763e+18,-4.659258842,8.887548447,-4.944177628
1724,1.55965420768e+18,0.6249057055,7.431828976,1.630501151
1725,1.55965420773e+18,3.438178539,10.85564232,2.094990492
1726,1.55965420778e+18,1.177983165,8.298556328,4.898686409
1727,1.55965420783e+18,1.968093872,6.991282463,4.297723293
1728,1.55965420789e+18,0.6416656375,7.944203854,3.756617069
1729,1.55965420794e+18,0.5243461728,8.454184532,4.204346657
1730,1.55965420799e+18,-0.2681587934,9.450202942,4.261809349
1731,1.55965420804e+18,0.3759011328,9.28499794,4.532361984
1732,1.55965420809e+18,-0.09816526622,7.937020779,4.2426548
1733,1.55965420815e+18,-0.5698373914,6.246663094,5.394300938
1734,1.5596542082e+18,-0.9577099085,7.376760483,4.953754425
1735,1.55965420825e+18,-0.4429408312,6.845231533,5.104593754
1736,1.5596542083e+18,-1.0175668,6.387925148,5.183605194
1737,1.55965420835e+18,-0.634482801,6.639324188,5.272192955
1738,1.55965420841e+18,-0.7158881426,6.280182838,5.17402792
1739,1.55965420846e+18,-2.365543604,6.016812801,4.230683804
1740,1.55965420851e+18,-2.442160368,6.232297421,5.324867249
1741,1.55965420856e+18,-1.862745762,5.794145107,5.408666611
1742,1.55965420861e+18,-1.913025618,5.288952827,3.847599506
1743,1.55965420867e+18,-2.621730804,4.881926537,3.828445435
1744,1.55965420872e+18,-3.071854591,5.921041489,4.127729893
1745,1.55965420877e+18,-4.120546818,6.754249096,5.753442287
1746,1.55965420882e+18,-5.806116581,6.462147713,6.249057293
1747,1.55965420887e+18,-10.38397026,3.246636629,6.584255695
1748,1.55965420893e+18,-11.93306541,1.209108829,7.580274105
1749,1.55965420898e+18,-12.2179842,-0.5722316504,5.796539307
1750,1.55965420903e+18,-11.26985168,-1.431776285,4.755029678
1751,1.55965420908e+18,-10.06313705,-2.633702278,4.130124092
1752,1.55965420913e+18,-8.844450951,-2.406246185,3.170019865
1753,1.55965420919e+18,-6.069486618,-3.553103924,3.909850836
1754,1.55965420924e+18,-5.083045483,-6.06230402,5.880339146
1755,1.55965420929e+18,-1.721483588,-5.636122704,7.328875065
1756,1.55965420934e+18,-4.319271564,-8.487704277,8.573898315
1757,1.55965420939e+18,-3.857176781,-7.649707794,6.119766235
1758,1.55965420945e+18,-7.2546525,-8.221940041,5.389512539
1759,1.5596542095e+18,-6.967339516,-7.008042336,4.716721535
1760,1.55965420955e+18,-6.517216206,-7.194795609,5.784567833
1761,1.5596542096e+18,-6.105400562,-7.115784645,6.646506786
1762,1.55965420965e+18,-6.854808807,-6.833260536,6.387925148
1763,1.55965420971e+18,-6.543552876,-6.59383297,6.34003973
1764,1.55965420976e+18,-5.949772835,-6.107795238,5.751048088
1765,1.55965420981e+18,-6.320885658,-5.806116581,5.044736862
1766,1.55965420986e+18,-6.136526108,-5.147690773,4.477293968
1767,1.55965420991e+18,-7.036773682,-4.477293968,4.738269806
1768,1.55965420997e+18,-6.76622057,-3.687183142,4.982485771
1769,1.55965421002e+18,-7.886741161,-3.189173937,4.676018715
1770,1.55965421007e+18,-7.594639778,-2.466103077,4.92023468
1771,1.55965421012e+18,-8.3153162,-2.308080912,3.471698523
1772,1.55965421017e+18,-6.668055534,-2.351177931,4.608979225
1773,1.55965421023e+18,-7.439012051,-3.641691923,2.861158371
1774,1.55965421028e+18,-4.987274647,-4.0726614,4.89629221
1775,1.55965421033e+18,-8.997684479,-5.595420361,0.22266756
1776,1.55965421038e+18,-11.67208958,-8.676852226,0.1819648892
1777,1.55965421043e+18,-0.2059076279,-13.58511543,11.57153034
1778,1.55965421049e+18,-16.35529137,2.35357213,7.886741161
1779,1.55965421054e+18,-18.44309807,3.739857197,6.08864069
1780,1.55965421059e+18,-12.84049606,1.54670155,6.44538784
1781,1.55965421064e+18,-9.158101082,1.980065227,2.068653345
1782,1.55965421069e+18,-6.100612164,1.309668303,4.400677204
1783,1.55965421075e+18,-0.5770202279,0.7302538157,0.984046936
1784,1.5596542108e+18,1.321639657,2.291321039,-1.256994247
1785,1.55965421085e+18,0.06464541703,2.616942406,-1.063058019
1786,1.5596542109e+18,3.083826065,4.824463844,0.5435003638
1787,1.55965421095e+18,2.992843628,5.944984436,2.063864946
1788,1.55965421101e+18,2.360754967,8.789382935,4.905869007
1789,1.55965421106e+18,8.387145042,11.68884945,6.905088425
1790,1.55965421111e+18,12.34966946,18.54126358,5.315289974
1791,1.55965421116e+18,18.50535011,35.19344711,2.688770533
1792,1.55965421121e+18,19.95388603,26.62433624,5.111776829
1793,1.55965421127e+18,-1.431776285,4.503631115,28.1638546
1794,1.55965421132e+18,-15.72080803,-58.28622437,15.96263027
1795,1.55965421137e+18,-5.789356709,-18.44070435,-1.755003452
1796,1.55965421142e+18,12.46459484,2.710319042,-4.060689926
1797,1.55965421147e+18,8.068706512,12.35685253,-5.236279011
1798,1.55965421153e+18,0.5123748183,12.43346882,-4.984879971
1799,1.55965421158e+18,-0.4668835998,8.609811783,-1.63289547
1800,1.55965421163e+18,0.7254652381,10.37678719,1.278542757
1801,1.55965421168e+18,0.4213923812,8.959376335,0.9577099085
1802,1.55965421173e+18,0.2178790122,9.184437752,1.156434774
1803,1.55965421179e+18,1.403045058,9.596253395,-0.5435003638
1804,1.55965421184e+18,2.796513081,10.18524456,-0.7901107073
1805,1.55965421189e+18,2.104567528,10.49410629,-0.241821751
1806,1.55965421194e+18,3.258608103,10.11341667,-0.02154847234
1807,1.55965421199e+18,3.040729046,9.86680603,0.6799740195
1808,1.55965421205e+18,2.389486313,9.900326729,0.4573064744
1809,1.5596542121e+18,2.786935806,9.900326729,1.340793848
1810,1.55965421215e+18,3.22508812,9.845257759,1.194743156
1811,1.5596542122e+18,2.281744003,9.349642754,1.448536277
1812,1.55965421225e+18,1.965699673,9.256266594,1.54909575
1813,1.55965421231e+18,1.695146561,8.95219326,0.8906702399
1814,1.55965421236e+18,1.618529797,8.111803055,0.9601042271
1815,1.55965421241e+18,1.297696948,7.446194649,0.2394274771
1816,1.55965421246e+18,2.69355917,7.046350956,0.9194015265
1817,1.55965421251e+18,2.454131603,6.565101624,1.221080184
1818,1.55965421257e+18,2.880312681,7.637736797,1.005595446
1819,1.55965421262e+18,3.301704884,6.993676662,-0.2370332032
1820,1.55965421267e+18,4.087027073,8.937828064,-0.5291347504
1821,1.55965421272e+18,3.823656797,13.69764614,3.445361376
1822,1.55965421277e+18,1.687963724,16.2810688,3.074248791
1823,1.55965421283e+18,-0.3184385598,13.14456844,4.527573586
1824,1.55965421288e+18,-2.494834423,6.670449734,4.9609375
1825,1.55965421293e+18,-7.242681503,-2.856369734,-0.0574625954
1826,1.55965421298e+18,-10.33847904,-5.06867981,0.8044763207
1827,1.55965421303e+18,-7.118178844,-6.917059898,-0.277735889
1828,1.55965421309e+18,-2.58821106,-5.511620522,0.5554717779
1829,1.55965421314e+18,-2.279349566,-5.09262228,0.5099805593
1830,1.55965421319e+18,2.822849989,-16.37444496,-2.772570133
1831,1.55965421324e+18,-18.4359169,-17.8828392,8.705583572
1832,1.55965421329e+18,-14.20523262,-7.905895233,3.490852594
1833,1.55965421334e+18,-15.25871372,-2.600182533,5.200365067
1834,1.5596542134e+18,-11.1453495,-6.754249096,7.486897469
1835,1.55965421345e+18,-12.35924625,-0.928978622,2.365543604
1836,1.5596542135e+18,-14.41592884,-6.689603806,3.430995703
1837,1.55965421355e+18,-16.94907188,-6.44538784,9.502876282
1838,1.5596542136e+18,-19.8054409,-4.127729893,9.289786339
1839,1.55965421366e+18,-15.47419834,-4.862771988,7.625765324
1840,1.55965421371e+18,-13.75271416,-5.073468208,7.491685867
1841,1.55965421376e+18,-7.553936958,-5.612180233,4.958543301
1842,1.55965421381e+18,-9.344854355,-4.364762783,3.0096035
1843,1.55965421386e+18,-4.843617916,-2.892283916,1.501210332
1844,1.55965421392e+18,0.4740664065,-1.877111435,1.278542757
1845,1.55965421397e+18,0.7230709791,0.8236305118,-1.745426297
1846,1.55965421402e+18,0.9744698405,3.64648056,0.4525179267
1847,1.55965421407e+18,-3.181991339,5.542746067,-0.964892745
1848,1.55965421412e+18,4.671230316,8.126168251,-0.3423812985
1849,1.55965421418e+18,13.07274055,11.69363785,1.347976685
1850,1.55965421423e+18,13.23315716,16.88442612,10.66170597
1851,1.55965421428e+18,4.276175022,11.39674854,10.74071693
1852,1.55965421433e+18,-3.943370581,5.571477413,7.297749519
1853,1.55965421438e+18,1.687963724,2.751021862,1.467690468
1854,1.55965421444e+18,2.887495518,0.6991282701,2.463708878
1855,1.55965421449e+18,2.250618219,1.881899953,0.8523618579
1856,1.55965421454e+18,3.423812866,6.38074255,1.860351562
1857,1.55965421459e+18,9.912297249,13.76947403,5.296135902
1858,1.55965421464e+18,14.87323475,27.6203537,4.079844475
1859,1.5596542147e+18,22.68575287,41.54066849,0.1747820675
1860,1.55965421475e+18,17.56439972,16.84132957,15.27307892
1861,1.5596542148e+18,31.43443489,-7.984906673,-20.01134872
1862,1.55965421485e+18,-24.84778404,-13.89637089,-8.296162605
1863,1.5596542149e+18,0.7685621977,-6.636929989,-2.317657948
1864,1.55965421496e+18,12.88598728,7.118178844,-0.7015225291
1865,1.55965421501e+18,-1.644866824,4.257020473,-0.7781392932
1866,1.55965421506e+18,0.627300024,5.312895775,0.1723877788
1867,1.55965421511e+18,1.9944309,10.13735962,0.1125309169
1868,1.55965421516e+18,3.356773376,12.15094471,-0.1149251908
1869,1.55965421522e+18,4.755029678,12.75430202,-1.877111435
1870,1.55965421527e+18,3.198751211,11.49730778,-1.82204318
1871,1.55965421532e+18,3.845205307,11.65054131,-1.834014535
1872,1.55965421537e+18,3.720703125,11.45421028,-1.48445034
1873,1.55965421542e+18,3.359167576,10.84367085,-0.967287004
1874,1.55965421548e+18,3.021574736,9.902720451,0.3016786277
1875,1.55965421553e+18,2.913832426,9.194015503,0.4022381604
1876,1.55965421558e+18,3.026363373,9.014444351,1.199531674
1877,1.55965421563e+18,2.490045786,9.004867554,1.520364523
1878,1.55965421568e+18,2.391880512,8.710371971,2.032739401
1879,1.55965421574e+18,2.238646984,8.719948769,2.284138203
1880,1.55965421579e+18,2.1213274,8.490098,2.051893473
1881,1.55965421584e+18,1.699935079,8.636149406,2.420611858
1882,1.55965421589e+18,1.601769805,8.255459785,1.666415215
1883,1.55965421594e+18,0.6057515144,6.332856655,0.02154847234
1884,1.559654216e+18,0.3830839694,5.724710941,-0.3064671755
1885,1.55965421605e+18,0.4477293789,5.566689014,0.9217957854
1886,1.5596542161e+18,0.6416656375,6.12934351,2.312869549
1887,1.55965421615e+18,-0.08619388938,5.21473074,4.628133297
1888,1.5596542162e+18,-0.9936240315,5.406272411,5.310501575
1889,1.55965421626e+18,-7.070293427,3.062277555,8.59305191
1890,1.55965421631e+18,-11.99052811,2.772570133,7.817307472
1891,1.55965421636e+18,-12.67050266,1.620923996,10.10383987
1892,1.55965421641e+18,-10.62818623,1.491633177,7.67843914
1893,1.55965421646e+18,-9.344854355,-0.08858817071,7.879558563
1894,1.55965421652e+18,-8.042368889,0.3926610649,5.712739468
1895,1.55965421657e+18,-7.36239481,0.0837996155,5.657671452
1896,1.55965421662e+18,-7.108602047,0.4333637357,6.330462456
1897,1.55965421667e+18,-6.428627968,-0.6799740195,8.391933441
1898,1.55965421672e+18,-5.712739468,-1.333611012,7.158881664
1899,1.55965421678e+18,-7.541965485,-3.723097324,8.67445755
1900,1.55965421683e+18,-7.180429935,-5.583448887,6.797346115
1901,1.55965421688e+18,-7.922655106,-6.399896622,6.782980442
1902,1.55965421693e+18,-8.415876389,-5.98329258,5.937801361
1903,1.55965421698e+18,-8.238699913,-5.509226322,5.650488377
1904,1.55965421704e+18,-7.745479107,-3.756617069,5.071074009
1905,1.55965421709e+18,-7.482108593,-2.741444588,5.45176363
1906,1.55965421714e+18,-6.421444893,-2.049499273,5.032765865
1907,1.55965421719e+18,-6.191594601,-2.628913641,5.549929142
1908,1.55965421724e+18,-6.280182838,-2.707924843,4.75024128
1909,1.5596542173e+18,-5.078257084,-3.691971779,5.078257084
1910,1.55965421735e+18,-6.742278099,-4.917840481,2.279349566
1911,1.5596542174e+18,-5.904281616,-8.265036583,3.624932051
1912,1.55965421745e+18,-11.06633854,-9.981731415,0.3902668059
1913,1.5596542175e+18,-13.74074268,-12.2610817,5.504437923
1914,1.55965421756e+18,-14.27945518,1.024749637,7.740690231
1915,1.55965421761e+18,-15.03365135,2.930592299,6.253845692
1916,1.55965421766e+18,-15.25871372,3.0119977,6.043149471
1917,1.55965421771e+18,-10.73114014,1.551490068,5.901887417
1918,1.55965421776e+18,-7.788576126,-0.1364736706,5.755836487
1919,1.55965421782e+18,-5.054314137,0.8212362528,1.704723716
1920,1.55965421787e+18,-0.05985686928,1.424593568,1.067846537
1921,1.55965421792e+18,-0.277735889,2.073441982,0.5171633363
1922,1.55965421797e+18,0.4261809289,3.122134447,-0.5243461728
1923,1.55965421802e+18,3.239453793,4.443774223,1.453324795
1924,1.55965421808e+18,4.395888329,6.689603806,1.996825218
1925,1.55965421813e+18,4.910657406,9.191620827,2.734261751
1926,1.55965421818e+18,9.086273193,13.23076248,3.557892323
1927,1.55965421823e+18,13.85327435,22.65462875,4.075055599
1928,1.55965421828e+18,20.39203835,36.0865097,1.862745762
1929,1.55965421834e+18,16.80302048,20.84695053,8.162082672
1930,1.55965421839e+18,-8.154899597,-3.026363373,-5.741470814
1931,1.55965421844e+18,-15.90516758,-24.242033,1.417410731
1932,1.55965421849e+18,-1.415016413,-11.62420464,-2.308080912
1933,1.55965421854e+18,7.304932594,2.066259146,-4.118152618
1934,1.5596542186e+18,2.966506481,5.348809719,-3.347196102
1935,1.55965421865e+18,1.472478986,7.12296772,-2.952140808
1936,1.5596542187e+18,3.22269392,11.74152374,-6.543552876
1937,1.55965421875e+18,3.816473961,12.28023529,-6.680026531
1938,1.5596542188e+18,4.836435318,9.780612946,-5.391906738
1939,1.55965421886e+18,9.483722687,9.933846474,-7.496474266
1940,1.55965421891e+18,10.22355366,8.600234985,-7.790970325
1941,1.55965421896e+18,9.289786339,7.750267506,-4.470110893
1942,1.55965421901e+18,7.939415455,7.525205612,-2.786935806
1943,1.55965421906e+18,6.179623127,7.046350956,-2.176395893
1944,1.55965421912e+18,4.901080608,6.890722752,-1.515576005
1945,1.55965421917e+18,4.618556023,7.381549358,-1.206714511
1946,1.55965421922e+18,5.497254848,7.623371124,-0.4956148863
1947,1.55965421927e+18,6.23469162,7.707170486,-0.3806896806
1948,1.55965421932e+18,6.759037971,7.479714394,-0.4046324492
1949,1.55965421938e+18,7.031985283,7.211555958,-0.2921015322
1950,1.55965421943e+18,6.356799603,7.178035736,-0.6751855016
1951,1.55965421948e+18,6.900300026,7.206767082,0.1197137386
1952,1.55965421953e+18,5.968926907,7.060716629,0.3088614643
1953,1.55965421958e+18,5.894704342,7.01761961,0.9098244309
1954,1.55965421964e+18,4.975303173,7.659285069,1.690358043
1955,1.55965421969e+18,4.252232075,7.881952763,2.645673752
1956,1.55965421974e+18,3.948159218,7.798152924,3.64887476
1957,1.55965421979e+18,3.280156374,8.008849144,4.807703972
1958,1.55965421984e+18,2.837215662,7.989695072,4.587430477
1959,1.5596542199e+18,2.130904675,7.12296772,4.494053841
1960,1.55965421995e+18,0.5147690773,5.961744308,3.615355015
1961,1.55965422e+18,-1.134886265,4.752635479,4.549122334
1962,1.55965422005e+18,-2.150058746,4.333637238,6.0216012
1963,1.5596542201e+18,-4.573064804,4.034353256,7.364789486
1964,1.55965422016e+18,-6.217931747,3.840416908,8.533195496
1965,1.55965422021e+18,-6.668055534,3.778165579,8.324893951
1966,1.55965422026e+18,-6.431022167,3.33043623,8.142929077
1967,1.55965422031e+18,-6.184412003,3.407052994,7.510839939
1968,1.55965422036e+18,-6.452570438,3.519583941,7.33605814
1969,1.55965422042e+18,-6.48609066,2.492439985,6.270605564
1970,1.55965422047e+18,-8.928250313,-0.05027977005,7.872375488
1971,1.55965422052e+18,-7.060716629,-1.177983165,7.19000721
1972,1.55965422057e+18,-6.500456333,-2.791724443,9.00726223
1973,1.55965422062e+18,-5.731894016,-3.411841631,7.850827217
1974,1.55965422068e+18,-6.586649895,-4.594613552,7.731113434
1975,1.55965422073e+18,-5.8516078,-4.201952457,7.350423813
1976,1.55965422078e+18,-5.612180233,-4.60179615,7.465348721
1977,1.55965422083e+18,-5.729499817,-4.077449799,7.345634937
1978,1.55965422088e+18,-6.601015568,-4.048718929,6.747066498
1979,1.55965422094e+18,-5.856396198,-3.32804203,6.792557716
1980,1.55965422099e+18,-5.822876453,-2.293715239,6.957762718
1981,1.55965422104e+18,-5.185999393,-1.618529797,7.850827217
1982,1.55965422109e+18,-6.612987041,-1.355159521,6.251451492
1983,1.55965422114e+18,-6.428627968,-2.097384691,7.422251701
1984,1.5596542212e+18,-8.346442223,-3.13889432,4.743058205
1985,1.55965422125e+18,-7.302538395,-4.812492371,5.071074009
1986,1.5596542213e+18,-5.482889175,-6.500456333,5.1333251
1987,1.55965422135e+18,-10.61860847,-9.507665634,2.470891714
1988,1.5596542214e+18,-13.68567467,-11.7032156,4.180403709
1989,1.55965422146e+18,-8.75586319,-4.647287369,8.269824982
1990,1.55965422151e+18,-13.51328659,2.861158371,5.535563469
1991,1.55965422156e+18,-12.72078228,3.119740009,9.560338974
1992,1.55965422161e+18,-11.93067169,3.883513689,6.311308384
1993,1.55965422166e+18,-9.340065956,1.927391171,-0.08858817071
1994,1.55965422172e+18,-1.685569525,-0.7901107073,5.310501575
1995,1.55965422177e+18,-2.894678354,1.707117915,-0.462095052
1996,1.55965422182e+18,0.002394274808,2.657644987,-1.156434774
1997,1.55965422187e+18,1.529941559,5.200365067,-1.027143836
1998,1.55965422192e+18,4.477293968,8.846845627,0.2729473412
1999,1.55965422198e+18,7.33366394,13.30498505,2.916226625
2000,1.55965422203e+18,9.720755577,19.16856384,3.708731651
2001,1.55965422208e+18,19.00814819,35.7560997,5.796539307
2002,1.55965422213e+18,19.38404846,28.71453857,1.118126392
2003,1.55965422218e+18,7.075081825,3.100585938,28.07766151
2004,1.55965422224e+18,-8.569109917,-69.81465912,34.9013443
2005,1.55965422229e+18,-1.472478986,-18.65140152,-6.476513386
2006,1.55965422234e+18,10.02004051,0.6225114465,-6.012023926
