,Time (s),Acceleration x (m/s^2),Acceleration y (m/s^2),Acceleration z (m/s^2)
0,1.55965320005e+18,-1.740637779,4.783761024,7.807730198
1,1.5596532001e+18,-0.2585816681,-2.123721838,-2.889889717
2,1.55965320016e+18,4.834040642,7.776604652,1.778946161
3,1.55965320021e+18,5.614574432,0.08858817071,-10.34326744
4,1.55965320026e+18,2.063864946,-2.150058746,-3.658451796
5,1.55965320031e+18,2.025556564,-6.507638931,10.69761944
6,1.55965320036e+18,3.198751211,-17.83016396,5.700768471
7,1.55965320042e+18,-6.80452919,-28.79594231,7.594639778
8,1.55965320047e+18,-17.15976715,-6.601015568,5.478100777
9,1.55965320052e+18,-7.570696831,-14.19565487,12.59867382
10,1.55965320057e+18,-6.651295185,-9.823709488,14.30579185
11,1.55965320062e+18,-6.548341751,-4.108575344,8.265036583
12,1.55965320068e+18,-4.963331699,-0.3806896806,5.473312378
13,1.55965320073e+18,-3.77337718,4.053507328,4.771789551
14,1.55965320078e+18,-0.986441195,2.308080912,1.953728199
15,1.55965320083e+18,5.229096413,-1.814860344,-9.205986977
16,1.55965320088e+18,8.801354408,2.597788095,-21.64424515
17,1.55965320094e+18,4.869955063,5.06867981,-0.8882759809
18,1.55965320099e+18,-1.446141958,-13.08231735,16.21163559
19,1.55965320104e+18,-5.073468208,-25.81986046,27.19177818
20,1.55965320109e+18,-3.0096035,-24.03851891,-3.237059593
21,1.55965320114e+18,-1.601769805,-13.92510223,11.45181656
22,1.5596532012e+18,-10.32171917,-1.216291547,10.40073013
23,1.55965320125e+18,-3.62732625,-2.86355257,14.76549244
24,1.5596532013e+18,-7.491685867,-4.024775982,6.330462456
25,1.55965320135e+18,-5.401484013,-3.380716085,15.73517418
26,1.5596532014e+18,-4.139701366,-0.5530774593,10.18524456
27,1.55965320146e+18,0.4597007632,1.537124395,8.672063828
28,1.55965320151e+18,-2.746233225,1.142069101,7.376760483
29,1.55965320156e+18,-2.408640385,0.04788549617,-1.280937076
30,1.55965320161e+18,-5.047131062,-8.217150688,-5.806116581
31,1.55965320166e+18,-4.838829517,-5.413455486,-2.492439985
32,1.55965320172e+18,11.05436707,-0.634482801,5.355992794
33,1.55965320177e+18,-1.077423692,-8.794171333,12.33530426
34,1.55965320182e+18,-6.730306625,-19.24996948,3.742251635
35,1.55965320187e+18,-12.30178356,-25.18058777,18.84773064
36,1.55965320192e+18,12.44544029,-8.097437859,18.25634575
37,1.55965320198e+18,1.228263021,-1.142069101,19.91078949
38,1.55965320203e+18,-6.835654736,0.2394274771,14.95224571
39,1.55965320208e+18,-10.95141315,0.8068706393,10.38397026
40,1.55965320213e+18,-6.656084061,-3.378321648,10.10862827
41,1.55965320218e+18,-10.49171257,-6.019207001,8.612206459
42,1.55965320224e+18,-4.592218876,0.7518022656,7.000859737
43,1.55965320229e+18,-1.862745762,-0.1005595401,8.085466385
44,1.55965320234e+18,-1.996825218,0.1292908341,2.109356165
45,1.55965320239e+18,-3.644086361,-2.980872154,4.39109993
46,1.55965320244e+18,-7.077476501,-3.660846233,0.009577099234
47,1.5596532025e+18,-1.956122518,-0.2537931204,-1.802888989
48,1.55965320255e+18,-1.970488191,-3.41423583,-4.958543301
49,1.5596532026e+18,-3.550709486,-2.794118643,-0.670396924
50,1.55965320265e+18,-1.154040456,-7.450983047,9.33767128
51,1.5596532027e+18,-9.613013268,-8.772623062,11.68645573
52,1.55965320276e+18,5.49246645,-16.26909637,15.00013161
53,1.55965320281e+18,-7.405491829,-14.79183006,22.88926697
54,1.55965320286e+18,-6.713546753,0.4405465722,16.87005997
55,1.55965320291e+18,-10.71437931,-4.333637238,9.921875
56,1.55965320296e+18,-9.117398262,-7.125361919,12.10545349
57,1.55965320302e+18,-8.147717476,-7.127756119,12.49571991
58,1.55965320307e+18,-12.23474407,-2.312869549,9.735121727
59,1.55965320312e+18,1.03911531,2.394274712,-13.15175152
60,1.55965320317e+18,6.847625732,2.468497276,-8.305739403
61,1.55965320322e+18,0.1221080124,-3.603383541,13.20442581
62,1.55965320327e+18,-9.00726223,-19.82220078,17.21483612
63,1.55965320333e+18,-7.058321953,-27.9507637,6.596227169
64,1.55965320338e+18,-15.85249329,-13.2618885,9.028810501
65,1.55965320343e+18,-10.29298782,-9.96257782,8.976136208
66,1.55965320348e+18,-6.091034889,-7.697593689,10.17566776
67,1.55965320353e+18,-5.399089813,-4.527573586,9.103033066
68,1.55965320359e+18,-5.363175392,-6.610592842,8.332076073
69,1.55965320364e+18,-5.858790398,-5.818087578,7.371972084
70,1.55965320369e+18,-7.072687626,-1.455719113,2.442160368
71,1.55965320374e+18,-4.28335762,2.669616461,4.702355862
72,1.55965320379e+18,-1.850774407,4.252232075,9.754275322
73,1.55965320385e+18,-2.899466753,2.190761566,7.812518597
74,1.5596532039e+18,2.042316437,3.481275558,-2.921015263
75,1.55965320395e+18,2.245829821,2.195549965,-9.905115128
76,1.559653204e+18,2.609759569,2.983266354,-5.741470814
77,1.55965320405e+18,-0.7565908432,0.0287312977,2.600182533
78,1.55965320411e+18,-1.874717116,-10.65691757,19.87966347
79,1.55965320416e+18,1.156434774,-24.46709442,8.58108139
80,1.55965320421e+18,-6.179623127,-22.52054977,7.814912796
81,1.55965320426e+18,-13.73116589,-13.91313076,5.779779434
82,1.55965320431e+18,-8.305739403,-7.846038342,4.640104771
83,1.55965320437e+18,-3.146077156,-12.70162773,8.686429024
84,1.55965320442e+18,-3.996044636,-3.883513689,9.323306084
85,1.55965320447e+18,-3.519583941,-4.094210148,10.19961071
86,1.55965320452e+18,-1.297696948,2.0375278,10.88676739
87,1.55965320457e+18,3.220299721,1.247417212,10.23073673
88,1.55965320463e+18,1.932179809,0.9888355136,4.094210148
89,1.55965320468e+18,-3.73267436,-4.065478802,5.073468208
90,1.55965320473e+18,-0.907430172,-0.8643332124,-0.5075862408
91,1.55965320478e+18,-3.174808502,5.820482254,-14.09270191
92,1.55965320483e+18,-7.501263142,2.573845387,-6.409473896
93,1.55965320489e+18,-4.685595989,-4.953754425,9.32570076
94,1.55965320494e+18,-5.789356709,-16.85808945,18.31141281
95,1.55965320499e+18,4.570670605,-17.48778343,-1.448536277
96,1.55965320504e+18,-10.54678059,-21.55805016,13.07992363
97,1.55965320509e+18,-6.969734192,-8.916279793,9.90750885
98,1.55965320515e+18,-4.098998547,-11.04478931,3.792531252
99,1.5596532052e+18,-3.440572977,-8.997684479,12.33769798
100,1.55965320525e+18,-4.49644804,-9.435836792,8.008849144
101,1.5596532053e+18,-6.584255695,-2.60736537,9.107821465
102,1.55965320535e+18,-5.219519138,-0.3399870098,6.481301785
103,1.55965320541e+18,-4.118152618,1.836408734,8.363202095
104,1.55965320546e+18,-8.935433388,0.6775797606,5.502043724
105,1.55965320551e+18,-1.575432777,-1.915419817,-2.083019018
106,1.55965320556e+18,5.102199554,2.250618219,-10.63297462
107,1.55965320561e+18,4.752635479,10.9992981,-7.465348721
108,1.55965320567e+18,-0.4189980924,5.370358467,0.4788549542
109,1.55965320572e+18,-3.634509087,-7.388731956,8.042368889
110,1.55965320577e+18,-5.449369431,-19.45348358,17.57876587
111,1.55965320582e+18,2.968900681,-20.99539566,-1.103760719
112,1.55965320587e+18,-13.02485466,-14.80140686,6.284971237
113,1.55965320593e+18,-10.92747021,-7.352818012,3.929004908
114,1.55965320598e+18,-3.64648056,-11.06873226,11.83968925
115,1.55965320603e+18,-9.052753448,-9.021627426,10.74550533
116,1.55965320608e+18,-7.185218811,-4.501236439,9.043175697
117,1.55965320613e+18,-2.528354168,0.3112557232,10.28341007
118,1.55965320619e+18,-1.450930476,4.180403709,10.63776302
119,1.55965320624e+18,-1.106154919,0.3543526828,7.283383846
120,1.55965320629e+18,-3.519583941,0.3543526828,3.428601503
121,1.55965320634e+18,-3.572257996,5.037554264,2.581028223
122,1.55965320639e+18,-6.615381241,0.4573064744,-2.528354168
123,1.55965320645e+18,-1.721483588,1.091789365,0.6991282701
124,1.5596532065e+18,-3.373533249,2.564268351,-16.6306324
125,1.55965320655e+18,-4.850800991,-7.594639778,0.2609759569
126,1.5596532066e+18,-8.281796455,-16.19248009,18.26113319
127,1.55965320665e+18,1.058269501,-8.669669151,0.7637736797
128,1.55965320671e+18,-8.514040947,-21.83339119,12.17728138
129,1.55965320676e+18,-13.45821857,-9.222746849,13.81496525
130,1.55965320681e+18,-9.431048393,-9.830892563,11.05915546
131,1.55965320686e+18,-10.50847244,-5.217124939,11.22914886
132,1.55965320691e+18,-6.081458092,-3.56268096,6.605803967
133,1.55965320697e+18,-3.565075159,-3.96731329,8.945011139
134,1.55965320702e+18,-3.785348415,2.044710636,7.089447498
135,1.55965320707e+18,-3.644086361,3.299310684,11.39914227
136,1.55965320712e+18,-11.10464668,1.596981287,2.734261751
137,1.55965320717e+18,-5.114171028,1.146857619,0.481249243
138,1.55965320723e+18,-4.664047241,1.170800328,10.06074238
139,1.55965320728e+18,-0.7805336118,3.22269392,-10.34326744
140,1.55965320733e+18,-2.207521439,-2.051893473,-12.45980644
141,1.55965320738e+18,2.420611858,1.115732074,-7.223526955
142,1.55965320743e+18,-2.619336605,-7.240286827,15.34251308
143,1.55965320749e+18,-4.206740856,-32.85902786,8.940221786
144,1.55965320754e+18,-7.319298267,-31.81512451,10.38875866
145,1.55965320759e+18,-8.312922478,-15.80460835,10.81733322
146,1.55965320764e+18,-4.517996788,-6.083852291,15.97220707
147,1.55965320769e+18,-4.144489765,-1.630501151,10.9945097
148,1.55965320775e+18,-5.018400192,0.3806896806,10.65212822
149,1.5596532078e+18,-8.166871071,0.8906702399,5.729499817
150,1.55965320785e+18,-10.41749001,-1.268965602,7.352818012
151,1.5596532079e+18,-15.2323761,-0.167599231,4.807703972
152,1.55965320795e+18,-3.007209063,1.951334,10.53959751
153,1.55965320801e+18,-1.625712633,2.547508478,-3.77337718
154,1.55965320806e+18,5.81090498,-0.5506832004,-8.277008057
155,1.55965320811e+18,7.29535532,-1.450930476,-2.399063349
156,1.55965320816e+18,-0.462095052,-4.336031914,-0.4142095447
157,1.55965320821e+18,5.456552505,-5.901887417,3.703943014
158,1.55965320827e+18,3.488458395,-21.10313797,-0.0837996155
159,1.55965320832e+18,-13.06316376,-30.35461617,15.75911713
160,1.55965320837e+18,-14.76070404,-10.72156239,16.43430138
161,1.55965320842e+18,-4.2426548,-7.182824612,17.41116714
162,1.55965320847e+18,-5.018400192,-1.508393168,13.12302017
163,1.55965320853e+18,-5.06867981,0.59378016,10.49889469
164,1.55965320858e+18,-0.3519583941,-0.6967339516,10.09905148
165,1.55965320863e+18,2.087807655,1.067846537,9.232323647
166,1.55965320868e+18,6.500456333,3.366350412,9.993702888
167,1.55965320873e+18,5.02558279,-0.3256213665,7.316903591
168,1.55965320879e+18,3.919427872,-3.462121487,4.549122334
169,1.55965320884e+18,-1.233051538,-4.161249638,0.02154847234
170,1.55965320889e+18,-4.975303173,0.9960182905,-6.72551775
171,1.55965320894e+18,-2.581028223,-1.50599885,-4.474899769
172,1.55965320899e+18,3.696760416,-12.21080112,16.01051521
173,1.55965320905e+18,-2.547508478,-15.00492001,-0.03112557158
174,1.5596532091e+18,7.292961121,-34.90373993,6.270605564
175,1.55965320915e+18,-5.631334305,-20.882864,9.56273365
176,1.5596532092e+18,-3.41423583,-11.86363125,12.96739197
177,1.55965320925e+18,-3.75422287,-4.161249638,15.00252628
178,1.5596532093e+18,-8.875576973,-2.82045579,10.48213482
179,1.55965320936e+18,-7.472531796,-0.6536370516,5.502043724
180,1.55965320941e+18,-3.057488918,-0.950527072,8.303344727
181,1.55965320946e+18,2.564268351,3.277762175,11.18126297
182,1.55965320951e+18,6.816500187,-0.1292908341,14.97140026
183,1.55965320956e+18,5.399089813,-4.66883564,11.3680172
184,1.55965320962e+18,-2.751021862,1.601769805,11.78940868
185,1.55965320967e+18,2.851581335,0.3304099143,0.04309694469
186,1.55965320972e+18,-1.680780888,-0.7541965842,-13.99693012
187,1.55965320977e+18,0.8044763207,-1.450930476,-10.93465328
188,1.55965320982e+18,-0.5818088055,-5.679219723,13.37681293
189,1.55965320988e+18,-3.196356773,-29.56929398,16.26670265
190,1.55965320993e+18,-8.631361008,-23.74162865,7.790970325
191,1.55965320998e+18,-14.17650127,-11.67687798,9.900326729
192,1.55965321003e+18,-1.146857619,-2.770175934,11.17886925
193,1.55965321008e+18,-1.661626697,-3.462121487,10.57790565
194,1.55965321014e+18,-0.5722316504,-2.260195494,9.246688843
195,1.55965321019e+18,-3.96731329,-7.027196407,14.16692448
196,1.55965321024e+18,-4.683201313,-4.268991947,13.64736652
197,1.55965321029e+18,-7.103813171,9.119792938,15.03125763
198,1.55965321034e+18,7.371972084,6.955368519,-5.607391834
199,1.5596532104e+18,5.904281616,7.743084908,-7.637736797
200,1.55965321045e+18,3.634509087,0.5578660369,-1.043903828
201,1.5596532105e+18,-1.872322917,-11.63378143,12.96499825
202,1.55965321055e+18,3.102980137,-27.76401138,10.771842
203,1.5596532106e+18,-1.0175668,-32.2508812,1.249811411
204,1.55965321066e+18,-8.030397415,-13.67849159,2.449343204
205,1.55965321071e+18,-12.22037888,-6.045543671,7.862798691
206,1.55965321076e+18,-2.710319042,-5.444581032,9.69681263
207,1.55965321081e+18,-2.111750364,-2.044710636,7.570696831
208,1.55965321086e+18,-3.251425266,-2.444554567,6.138920784
209,1.55965321092e+18,-0.2394274771,-1.12291491,7.134938717
210,1.55965321097e+18,-2.46131444,0.8619389534,11.14774323
211,1.55965321102e+18,-6.045543671,1.54909575,5.322473049
212,1.55965321107e+18,-5.399089813,-3.500429869,11.43745041
213,1.55965321112e+18,1.798100352,6.387925148,-13.72398281
214,1.55965321118e+18,16.46782303,4.221106529,-17.78946114
215,1.55965321123e+18,4.843617916,-4.120546818,0.06464541703
216,1.55965321128e+18,8.154899597,-33.08887863,8.123774529
217,1.55965321133e+18,-10.56832886,-33.62280273,3.083826065
218,1.55965321138e+18,-6.838048935,-15.88122463,6.318490982
219,1.55965321144e+18,-7.86758709,-12.23953247,8.097437859
220,1.55965321149e+18,-7.137333393,-5.006428719,8.528407097
221,1.55965321154e+18,-8.59305191,-1.0175668,7.498868465
222,1.55965321159e+18,-6.06230402,2.063864946,7.29535532
223,1.55965321164e+18,-2.700742006,1.862745762,7.872375488
224,1.5596532117e+18,2.90425539,1.898659945,10.92028713
225,1.55965321175e+18,-1.977671027,-0.8978530765,16.05361176
226,1.5596532118e+18,-1.520364523,-0.3016786277,12.08390522
227,1.55965321185e+18,-6.488484859,4.925023079,-8.121379852
228,1.5596532119e+18,-3.486064196,-2.499622822,-15.78784847
229,1.55965321196e+18,3.359167576,-4.213923454,0.4860377908
230,1.55965321201e+18,-5.355992794,-17.83495331,17.53087997
231,1.55965321206e+18,8.770228386,-14.509305,4.568276405
232,1.55965321211e+18,-3.007209063,-23.14545441,5.449369431
233,1.55965321216e+18,-7.154093266,-9.998491287,9.71117878
234,1.55965321222e+18,-8.521224022,-5.035160065,17.26990509
235,1.55965321227e+18,-10.41509533,-3.419024467,12.36403465
236,1.55965321232e+18,-4.872349262,-0.1173194647,13.4510355
237,1.55965321237e+18,-2.123721838,1.362342358,7.609005451
238,1.55965321242e+18,-1.872322917,2.324840784,7.659285069
239,1.55965321248e+18,-5.542746067,7.417463303,5.427821159
240,1.55965321253e+18,-4.125335693,3.591412306,7.958569527
241,1.55965321258e+18,3.153259993,2.655250788,-2.202732801
242,1.55965321263e+18,0.9936240315,-10.17566776,-2.300898075
243,1.55965321268e+18,5.049525738,1.702329397,-2.557085514
244,1.55965321274e+18,2.315263748,-13.51568127,-16.57795906
245,1.55965321279e+18,-3.035940409,-34.08968353,9.481328011
246,1.55965321284e+18,-5.482889175,-23.61712646,9.996097565
247,1.55965321289e+18,-0.05027977005,-15.28026199,12.63219357
248,1.55965321294e+18,-7.790970325,-9.447808266,11.56674194
249,1.559653213e+18,-14.07833576,-2.43976593,11.98334503
250,1.55965321305e+18,-8.657697678,1.934574008,7.482108593
251,1.5596532131e+18,-0.14844504,4.438985348,10.71198559
252,1.55965321315e+18,0.1580221355,1.838803053,11.12380123
253,1.5596532132e+18,-3.871542454,0.3208328187,13.87961102
254,1.55965321326e+18,-0.1963305324,0.4333637357,12.70402241
255,1.55965321331e+18,-3.301704884,1.338399649,6.677632332
256,1.55965321336e+18,2.106961727,-2.468497276,-6.991282463
257,1.55965321341e+18,-1.692752242,-27.36177254,16.4558506
258,1.55965321346e+18,3.342407703,4.793338299,-11.7032156
259,1.55965321352e+18,7.793364525,-16.33613777,19.81741333
260,1.55965321357e+18,-6.476513386,-54.43623352,2.767781734
261,1.55965321362e+18,-11.7175808,-23.64106941,4.685595989
262,1.55965321367e+18,0.004788549617,-12.49811459,9.249083519
263,1.55965321372e+18,-0.3926610649,-2.54511404,13.20681953
264,1.55965321378e+18,-8.490098,0.2537931204,10.84367085
265,1.55965321383e+18,-8.827691078,0.7685621977,5.324867249
266,1.55965321388e+18,-5.45176363,-1.403045058,1.283331275
267,1.55965321393e+18,-0.689551115,-2.494834423,-2.159635782
268,1.55965321398e+18,-4.089421272,0.7182824612,2.490045786
269,1.55965321404e+18,6.826077461,14.1693182,-2.286532402
270,1.55965321409e+18,5.600208759,13.86763954,-5.183605194
271,1.55965321414e+18,4.666441441,-4.735875607,7.963357925
272,1.55965321419e+18,-7.709564686,-51.50085068,8.341653824
273,1.55965321424e+18,-10.82212257,-20.37527847,-3.320859194
274,1.5596532143e+18,-6.691998005,-10.37199879,4.012804508
275,1.55965321435e+18,-0.7302538157,-4.889109135,5.248250484
276,1.5596532144e+18,-2.099778891,-9.632167816,7.637736797
277,1.55965321445e+18,-9.438231468,-10.70240879,8.657697678
278,1.5596532145e+18,-8.267431259,-4.415042877,9.979337692
279,1.55965321456e+18,-5.571477413,-0.3064671755,8.080677032
280,1.55965321461e+18,-4.048718929,2.940169573,5.806116581
281,1.55965321466e+18,-1.848380208,2.985660791,3.409447432
282,1.55965321471e+18,1.58979845,1.924996972,4.146883965
283,1.55965321476e+18,2.18357873,1.556278586,4.599401951
284,1.55965321482e+18,4.405465603,2.808484316,-6.732700825
285,1.55965321487e+18,-1.630501151,-0.3567469418,-0.943344295
286,1.55965321492e+18,-3.620143414,-9.17725563,2.264983892
287,1.55965321497e+18,3.639297724,-42.25655746,5.827664852
288,1.55965321502e+18,-7.905895233,-17.48060036,4.958543301
289,1.55965321508e+18,-1.551490068,-11.24112034,7.656890869
290,1.55965321513e+18,-8.523618698,-8.372778893,3.227482557
291,1.55965321518e+18,-6.344828129,-12.13179016,10.41030693
292,1.55965321523e+18,-6.622564316,-11.13577175,11.74631214
293,1.55965321528e+18,-6.689603806,-2.988054991,9.232323647
294,1.55965321534e+18,-3.861965179,-1.563461423,7.944203854
295,1.55965321539e+18,-1.829225898,0.29689008,5.162056446
296,1.55965321544e+18,0.3112557232,4.980091572,4.683201313
297,1.55965321549e+18,2.748627424,1.872322917,0.1245022863
298,1.55965321554e+18,0.4860377908,-0.3591412306,-3.687183142
299,1.55965321559e+18,-1.256994247,0.8667274714,-1.175588965
300,1.55965321565e+18,-3.723097324,3.830839634,8.485309601
301,1.5596532157e+18,2.092596292,-7.817307472,7.999272346
302,1.55965321575e+18,-3.213116884,-32.85902786,12.98654652
303,1.5596532158e+18,-4.910657406,-22.13746452,-4.374340057
304,1.55965321585e+18,-0.4980091453,-13.29780197,7.087053299
305,1.55965321591e+18,0.184359163,-6.241874218,8.387145042
306,1.55965321596e+18,-0.689551115,-11.18605232,13.8293314
307,1.55965321601e+18,-4.154066563,-11.92827702,17.22920227
308,1.55965321606e+18,-3.038334846,-4.867560863,14.31536865
309,1.55965321611e+18,-0.2442160249,1.395862222,9.560338974
310,1.55965321617e+18,0.4166038036,2.348783493,4.759818554
311,1.55965321622e+18,-1.065452337,1.264177084,1.144463301
312,1.55965321627e+18,-0.9984126091,-1.97288239,-2.154847383
313,1.55965321632e+18,1.247417212,-1.637683988,-4.197163582
314,1.55965321637e+18,2.592999697,1.426987767,-17.34652138
315,1.55965321643e+18,-1.496421814,0.8020820618,-2.595393896
316,1.55965321648e+18,-4.192375183,-26.028162,18.79984665
317,1.55965321653e+18,-1.685569525,-28.73129845,13.64257812
318,1.55965321658e+18,-3.445361376,-19.97543526,2.408640385
319,1.55965321663e+18,1.031932473,-11.80377483,12.70881081
320,1.55965321669e+18,3.742251635,-7.110996246,14.03763294
321,1.55965321674e+18,0.6751855016,-5.243461609,10.64255142
322,1.55965321679e+18,-0.8523618579,-1.982459545,12.87640953
323,1.55965321684e+18,2.58821106,-4.21871233,8.863605499
324,1.55965321689e+18,1.429382086,-1.204320192,7.800547123
325,1.55965321695e+18,-2.899466753,-7.910684109,7.40309763
326,1.559653217e+18,4.719115734,-1.369525194,3.392687321
327,1.55965321705e+18,1.551490068,-1.079817891,-15.68489456
328,1.5596532171e+18,-1.036720991,5.487678051,-17.23398972
329,1.55965321715e+18,-4.024775982,14.10227871,-7.120573044
330,1.55965321721e+18,3.620143414,-7.61379385,11.23633194
331,1.55965321726e+18,-13.97298813,-47.55508804,7.520417213
332,1.55965321731e+18,-11.44702816,-28.26680756,14.61225891
333,1.55965321736e+18,-3.680000305,-12.27305222,9.52203083
334,1.55965321741e+18,-3.43578434,-5.054314137,11.73673534
335,1.55965321747e+18,-7.688016415,-2.197944164,13.1158371
336,1.55965321752e+18,-2.236252785,-2.025556564,13.39117908
337,1.55965321757e+18,2.609759569,-2.195549965,10.30256462
338,1.55965321762e+18,6.052726746,-3.675211906,9.443019867
339,1.55965321767e+18,4.331243038,-1.934574008,8.490098
340,1.55965321773e+18,-2.569056988,-5.001639843,2.77975297
341,1.55965321778e+18,-3.598595142,-3.442967176,1.541913033
342,1.55965321783e+18,-6.16765213,5.889915943,-0.4932205975
343,1.55965321788e+18,-6.955368519,3.823656797,9.921875
344,1.55965321793e+18,-6.136526108,5.360781193,5.825270653
345,1.55965321799e+18,-8.839662552,0.646454215,4.470110893
346,1.55965321804e+18,0.943344295,-0.8954587579,-17.79185677
347,1.55965321809e+18,3.797319889,-16.97540855,-4.132518291
348,1.55965321814e+18,3.026363373,-31.09923553,9.35203743
349,1.55965321819e+18,-1.683175206,-35.21978378,15.96502399
350,1.55965321825e+18,-4.807703972,-6.545947552,15.47419834
351,1.5596532183e+18,1.517970204,-6.045543671,19.23799896
352,1.55965321835e+18,3.052700281,-17.79664421,18.80702782
353,1.5596532184e+18,2.602576733,-12.99133492,14.06875896
354,1.55965321845e+18,7.860404015,-6.996070862,10.96577835
355,1.55965321851e+18,6.895511627,-7.357606411,8.346442223
356,1.55965321856e+18,2.14048171,-6.100612164,3.205934048
357,1.55965321861e+18,-5.011217117,-5.607391834,-2.935380936
358,1.55965321866e+18,-3.981678963,1.752609134,-8.609811783
359,1.55965321871e+18,4.673624516,12.47896004,1.776551962
360,1.55965321877e+18,-1.953728199,9.320911407,0.7422251701
361,1.55965321882e+18,3.471698523,1.951334,7.501263142
362,1.55965321887e+18,1.072635174,-1.755003452,-0.1771763414
363,1.55965321892e+18,-2.681587696,-22.07281876,4.103786945
364,1.55965321897e+18,-14.08551884,-20.58358002,9.833286285
365,1.55965321903e+18,-3.620143414,-14.74873257,14.26269531
366,1.55965321908e+18,-0.1364736706,-6.751854897,9.500482559
367,1.55965321913e+18,0.9984126091,-8.892336845,7.261835575
368,1.55965321918e+18,1.826831698,-11.29618835,6.557918549
369,1.55965321923e+18,-1.501210332,-15.11266232,12.08390522
370,1.55965321929e+18,-3.306493521,-7.218738556,15.33054161
371,1.55965321934e+18,3.193962574,-1.644866824,13.40554428
372,1.55965321939e+18,5.303318501,-2.197944164,5.545140266
373,1.55965321944e+18,0.4118152559,-7.180429935,-3.476486921
374,1.55965321949e+18,-1.747820616,-6.399896622,-4.173221111
375,1.55965321955e+18,-2.786935806,1.652049661,1.652049661
376,1.5596532196e+18,6.241874218,-1.417410731,-4.024775982
377,1.55965321965e+18,-7.110996246,0.6656084061,3.617749214
378,1.5596532197e+18,-3.057488918,-18.33775139,-3.292127848
379,1.55965321975e+18,6.198777676,-28.8821373,-2.241041183
380,1.55965321981e+18,-4.115758419,-14.3345232,5.140508175
381,1.55965321986e+18,5.21473074,-9.682447433,11.05436707
382,1.55965321991e+18,-0.3256213665,-16.98737907,18.12226677
383,1.55965321996e+18,-10.74550533,-21.98901939,20.17894745
384,1.55965322001e+18,-9.749486923,-8.499675751,18.11268806
385,1.55965322007e+18,2.205127001,1.115732074,8.628966331
386,1.55965322012e+18,4.144489765,6.462147713,6.091034889
387,1.55965322017e+18,0.5291347504,5.700768471,3.342407703
388,1.55965322022e+18,-3.696760416,8.67445755,3.45493865
389,1.55965322027e+18,-10.15172482,-2.765387297,5.784567833
390,1.55965322033e+18,2.58581686,-15.61785412,2.097384691
391,1.55965322038e+18,-5.336838722,-4.173221111,-8.305739403
392,1.55965322043e+18,1.288119793,-10.61382008,-11.12380123
393,1.55965322048e+18,0.986441195,-17.81340408,-4.731087208
394,1.55965322053e+18,1.565855742,-17.475811,6.833260536
395,1.55965322059e+18,2.157241583,-19.92754936,3.313676357
396,1.55965322064e+18,2.961717844,-29.72252655,18.92913628
397,1.55965322069e+18,-7.003253937,-21.59875298,17.23638344
398,1.55965322074e+18,-7.702382088,-13.21639729,16.63302803
399,1.55965322079e+18,-10.35284424,-8.454184532,11.13816643
400,1.55965322085e+18,-4.70714426,-0.7637736797,10.85564232
401,1.5596532209e+18,2.636096478,-1.9944309,12.52923965
402,1.55965322095e+18,0.1699935049,-7.740690231,-0.464489311
403,1.559653221e+18,-5.834847927,-11.44463348,9.031204224
404,1.55965322105e+18,-5.679219723,-3.37113905,-1.371919513
405,1.55965322111e+18,-5.1333251,8.854028702,-3.581835032
406,1.55965322116e+18,12.67529106,4.170826912,-3.885908127
407,1.55965322121e+18,2.423006058,0.3519583941,-0.8188419938
408,1.55965322126e+18,-4.091815472,3.191568375,-13.66173172
409,1.55965322131e+18,9.756669998,-7.173247337,6.476513386
410,1.55965322137e+18,0.1508393139,-60.69726181,12.51726913
411,1.55965322142e+18,-15.13421154,-30.28278732,1.960911036
412,1.55965322147e+18,-7.606611252,-10.9945097,11.87560272
413,1.55965322152e+18,-4.661653042,-2.528354168,12.91471863
414,1.55965322157e+18,-4.343214512,1.901054144,10.13975334
415,1.55965322163e+18,-1.690358043,2.552296877,6.095823765
416,1.55965322168e+18,4.857983589,-4.810098171,3.074248791
417,1.55965322173e+18,8.044763565,-8.387145042,3.450150013
418,1.55965322178e+18,-13.0583744,-19.16617012,0.335198462
419,1.55965322183e+18,-2.959323645,11.37519932,0.2801301479
420,1.55965322189e+18,0.4668835998,19.21644974,-10.39115238
421,1.55965322194e+18,1.623318315,9.194015503,4.142095566
422,1.55965322199e+18,1.419804931,-29.2029705,4.276175022
423,1.55965322204e+18,-16.75034714,-27.43838882,1.450930476
424,1.55965322209e+18,12.81176472,-28.03456306,2.731867552
425,1.55965322215e+18,7.348029613,-11.57153034,7.843644142
426,1.5596532222e+18,-2.423006058,-11.32731438,5.391906738
427,1.55965322225e+18,-4.989668846,-5.23867321,8.284191132
428,1.5596532223e+18,-3.351984739,0.7733507752,7.707170486
429,1.55965322235e+18,-10.40791225,2.150058746,8.947404861
430,1.55965322241e+18,-6.9098773,1.755003452,3.292127848
431,1.55965322246e+18,-2.066259146,-12.75669575,14.07115269
432,1.55965322251e+18,1.106154919,5.169239521,-1.161223292
433,1.55965322256e+18,0.8499675393,9.330489159,-11.48294163
434,1.55965322261e+18,-1.752609134,0.7015225291,2.274561167
435,1.55965322267e+18,-3.814079762,-11.60026169,16.12065315
436,1.55965322272e+18,2.272166729,-23.60515594,6.390319347
437,1.55965322277e+18,-0.5363175869,-29.34183693,0.3519583941
438,1.55965322282e+18,-9.22992897,-12.0479908,3.114951611
439,1.55965322287e+18,-8.420664787,-7.474925995,3.715914488
440,1.55965322293e+18,-2.537931204,-11.72955227,12.14615631
441,1.55965322298e+18,-10.31932449,-11.35125732,9.385557175
442,1.55965322303e+18,-8.545166969,-6.964945316,7.920260906
443,1.55965322308e+18,-8.6888237,-4.386311531,4.860377789
444,1.55965322313e+18,-2.631308079,-1.182771802,4.316877365
445,1.55965322319e+18,-2.849187136,2.37512064,2.145270348
446,1.55965322324e+18,-0.007182824425,3.181991339,3.88111949
447,1.55965322329e+18,1.661626697,4.182797909,1.592192769
448,1.55965322334e+18,-0.3184385598,3.972101927,4.462928295
449,1.55965322339e+18,5.446975231,0.4333637357,-13.75989723
450,1.55965322345e+18,9.502876282,0.04070267081,-14.06157589
451,1.5596532235e+18,2.241041183,-19.09913063,17.8828392
452,1.55965322355e+18,-13.0918951,-46.52794266,11.73673534
453,1.5596532236e+18,-7.869981289,-16.14938354,8.537983894
454,1.55965322365e+18,-0.22266756,-8.995290756,6.771008968
455,1.5596532237e+18,-4.908263206,-9.749486923,6.474119186
456,1.55965322376e+18,-5.145296574,-8.427846909,9.991309166
457,1.55965322381e+18,-6.196382999,-4.079844475,11.22196579
458,1.55965322386e+18,-4.762212753,-1.503604531,10.80536175
459,1.55965322391e+18,-4.585036278,1.12530911,11.55955887
460,1.55965322396e+18,-4.400677204,2.930592299,11.93546009
461,1.55965322402e+18,0.4405465722,3.22508812,7.984906673
462,1.55965322407e+18,3.069460392,-0.5458946824,0.4668835998
463,1.55965322412e+18,0.5530774593,6.507638931,6.44778204
464,1.55965322417e+18,-1.142069101,2.219492674,3.976890564
465,1.55965322422e+18,-8.05194664,-1.019961119,-10.32411289
466,1.55965322428e+18,1.92978549,-6.974522591,-6.929031372
467,1.55965322433e+18,5.81090498,-15.0719595,3.696760416
468,1.55965322438e+18,-13.49892139,-39.28286743,8.753468513
469,1.55965322443e+18,-11.24590874,-13.26428223,10.86521912
470,1.55965322448e+18,-1.798100352,-12.81894779,9.095849991
471,1.55965322454e+18,-6.797346115,-11.05915546,11.62659836
472,1.55965322459e+18,-8.166871071,-9.335277557,14.01608467
473,1.55965322464e+18,-4.74784708,-4.357580185,12.86204433
474,1.55965322469e+18,-2.030344963,-0.6608198285,8.195602417
475,1.55965322474e+18,0.5650488734,3.893090725,9.601041794
476,1.5596532248e+18,-0.01197137404,1.692752242,6.890722752
477,1.55965322485e+18,-1.087000728,-0.7805336118,4.211529255
478,1.5596532249e+18,0.3088614643,2.686376333,-1.699935079
479,1.55965322495e+18,-3.136499882,4.573064804,14.21720409
480,1.559653225e+18,-3.490852594,2.628913641,6.08864069
481,1.55965322506e+18,0.5099805593,-0.8475732803,1.996825218
482,1.55965322511e+18,3.950553417,-2.916226625,-11.76786041
483,1.55965322516e+18,3.622537851,-18.48380089,-7.173247337
484,1.55965322521e+18,4.874743462,-32.16229248,11.58350182
485,1.55965322526e+18,-6.794951916,-13.37920761,1.374313712
486,1.55965322532e+18,-4.0702672,-14.03045082,9.699207306
487,1.55965322537e+18,0.3735068738,-11.55237579,18.17733383
488,1.55965322542e+18,-4.077449799,-10.03440571,18.14381409
489,1.55965322547e+18,-7.767027378,-6.368771076,14.37043762
490,1.55965322552e+18,-2.233858347,-0.8308133483,10.67128277
491,1.55965322558e+18,0.44533512,2.001613855,5.430215359
492,1.55965322563e+18,-0.07422251999,1.132491946,3.847599506
493,1.55965322568e+18,-2.583422422,-1.434170604,-0.9313728809
494,1.55965322573e+18,-2.286532402,-1.223474383,5.844424725
495,1.55965322578e+18,4.395888329,0.07422251999,1.671203852
496,1.55965322584e+18,7.419857502,-2.983266354,2.564268351
497,1.55965322589e+18,3.160442829,0.5865973234,-18.06001472
498,1.55965322594e+18,-3.347196102,-13.17569447,7.522811413
499,1.55965322599e+18,2.868341208,-30.51024437,12.26826382
500,1.55965322604e+18,-5.245856285,-17.90917587,1.980065227
501,1.5596532261e+18,-11.37759399,-17.92832947,2.535537004
502,1.55965322615e+18,-1.424593568,-12.09348202,13.88439941
503,1.5596532262e+18,-5.130930901,-11.08309841,16.12304688
504,1.55965322625e+18,-10.8149395,-6.323279858,10.49650097
505,1.5596532263e+18,-5.729499817,-1.494027495,9.256266594
506,1.55965322636e+18,-4.884320736,-1.383890867,4.161249638
507,1.55965322641e+18,1.515576005,-0.5842030644,3.014391899
508,1.55965322646e+18,0.3375927508,1.544307232,2.456526041
509,1.55965322651e+18,-3.284945011,6.095823765,7.99687767
510,1.55965322656e+18,-3.921822071,5.334444046,5.758230686
511,1.55965322662e+18,1.812466025,3.189173937,12.12700176
512,1.55965322667e+18,-0.03591412306,3.462121487,-7.977723598
513,1.55965322672e+18,0.5315290093,-1.075029373,-10.36242104
514,1.55965322677e+18,2.272166729,-5.408666611,2.260195494
515,1.55965322682e+18,-8.880365372,-21.78311157,10.4222784
516,1.55965322688e+18,1.587404251,-20.66259193,3.050306082
517,1.55965322693e+18,-9.433443069,-20.49259758,9.715967178
518,1.55965322698e+18,-6.943397045,-14.91633224,8.485309601
519,1.55965322703e+18,-8.17165947,-9.811738014,11.46378803
520,1.55965322708e+18,-9.423865318,-5.051919937,7.393520832
521,1.55965322714e+18,-4.731087208,-2.75820446,10.68804264
522,1.55965322719e+18,-5.985687256,1.170800328,4.762212753
523,1.55965322724e+18,-4.407859802,0.9409499764,5.332049847
524,1.55965322729e+18,-6.9122715,-0.5482889414,0.08858817071
525,1.55965322734e+18,-6.687209606,8.58108139,6.249057293
526,1.5596532274e+18,-5.403878212,5.430215359,2.013585091
527,1.55965322745e+18,1.927391171,4.687990189,9.138946533
528,1.5596532275e+18,3.114951611,3.948159218,6.40707922
529,1.55965322755e+18,1.635289669,3.653663397,-6.684815407
530,1.5596532276e+18,-4.17800951,-6.366376877,-0.3591412306
531,1.55965322766e+18,-4.185192585,-13.45582485,9.850046158
532,1.55965322771e+18,4.417437077,-17.30102921,-1.881899953
533,1.55965322776e+18,-15.89559078,-20.26274681,8.3153162
534,1.55965322781e+18,-14.38001442,-8.025609016,11.8301115
535,1.55965322786e+18,-10.72874546,-4.762212753,11.23154354
536,1.55965322792e+18,-12.00249958,-2.971295118,12.84767818
537,1.55965322797e+18,-7.965752125,1.175588965,11.98573971
538,1.55965322802e+18,-4.580247879,1.834014535,9.3783741
539,1.55965322807e+18,-3.306493521,1.826831698,6.80452919
540,1.55965322812e+18,-5.353598595,3.840416908,7.537177086
541,1.55965322818e+18,-13.17808819,-0.6009629965,4.805309772
542,1.55965322823e+18,-8.897125244,-4.098998547,5.150084972
543,1.55965322828e+18,-10.40312386,-2.813272953,7.242681503
544,1.55965322833e+18,-6.562707424,-1.254600048,2.094990492
545,1.55965322838e+18,1.043903828,1.446141958,4.28575182
546,1.55965322844e+18,-4.872349262,5.303318501,6.565101624
547,1.55965322849e+18,1.254600048,6.337645531,5.353598595
548,1.55965322854e+18,8.837267876,8.772623062,-6.241874218
549,1.55965322859e+18,5.760625362,-2.648067951,6.51242733
550,1.55965322864e+18,-2.310475111,-12.17009926,12.35206413
551,1.5596532287e+18,-4.010410309,-38.17192459,10.66170597
552,1.55965322875e+18,-17.31300163,-7.795758724,7.582668304
553,1.5596532288e+18,1.283331275,-4.506025314,11.80856323
554,1.55965322885e+18,4.917840481,1.005595446,12.06235695
555,1.5596532289e+18,-3.560286522,-0.8236305118,10.83169937
556,1.55965322896e+18,-11.37759399,-7.23071003,9.000079155
557,1.55965322901e+18,-12.97696972,-4.254626274,10.19003391
558,1.55965322906e+18,-8.066311836,-4.233078003,9.320911407
559,1.55965322911e+18,-0.9720755816,0.4573064744,15.67771149
560,1.55965322916e+18,7.352818012,5.933012962,9.148524284
561,1.55965322922e+18,3.035940409,2.58821106,0.9122186899
562,1.55965322927e+18,-7.510839939,-2.193155766,-9.802161217
563,1.55965322932e+18,-2.200338602,-4.383917332,-16.69527817
564,1.55965322937e+18,6.289760113,-21.50777054,8.846845627
565,1.55965322942e+18,0.4357580245,-22.10155106,0.2490045726
566,1.55965322948e+18,-5.080651283,-16.22360611,7.01761961
567,1.55965322953e+18,4.015198708,-12.60346222,14.1645298
568,1.55965322958e+18,-1.608952641,-4.508419514,14.97618866
569,1.55965322963e+18,-13.22836876,-1.786128998,16.77429008
570,1.55965322968e+18,-10.82691097,-3.960130453,14.52367115
571,1.55965322974e+18,-5.142902374,-1.16601181,10.52762604
572,1.55965322979e+18,-2.399063349,-1.300091267,10.06313705
573,1.55965322984e+18,-5.095016956,-1.120520592,9.21795845
574,1.55965322989e+18,-5.34402132,1.163617611,3.711125851
575,1.55965322994e+18,-4.453351021,-1.788523316,2.255406857
576,1.55965323e+18,-11.90194035,-8.609811783,4.903474808
577,1.55965323005e+18,-0.7805336118,5.078257084,-8.619389534
578,1.5596532301e+18,4.984879971,4.405465603,-11.49730778
579,1.55965323015e+18,-4.544333458,-7.309720993,13.67130947
580,1.5596532302e+18,2.636096478,-32.90451813,12.63937664
581,1.55965323026e+18,-20.66737938,-24.09837532,9.014444351
582,1.55965323031e+18,0.9577099085,-14.18128967,8.990502357
583,1.55965323036e+18,1.565855742,-2.212309837,11.7032156
584,1.55965323041e+18,-4.551516533,1.561067224,6.320885658
585,1.55965323046e+18,-5.375146866,-0.5315290093,6.687209606
586,1.55965323052e+18,-0.3208328187,-3.390293121,5.219519138
587,1.55965323057e+18,-3.447755814,-4.618556023,10.98253822
588,1.55965323062e+18,-4.589824677,-1.625712633,7.008042336
589,1.55965323067e+18,-2.327235222,12.28741837,8.528407097
590,1.55965323072e+18,0.1556278616,8.825297356,-6.227508545
591,1.55965323078e+18,0.007182824425,-0.8643332124,3.081431627
592,1.55965323083e+18,-7.182824612,-20.1454277,17.27469254
593,1.55965323088e+18,0.2537931204,-14.5045166,-2.341600657
594,1.55965323093e+18,-0.03591412306,-17.81579971,1.139674783
595,1.55965323098e+18,-5.559505939,-10.49171257,5.528380394
596,1.55965323104e+18,-7.702382088,-13.78862858,15.20125103
597,1.55965323109e+18,-7.070293427,-7.592245579,11.11661816
598,1.55965323114e+18,-5.674431324,-0.7134938836,8.15968895
599,1.55965323119e+18,-0.8715160489,2.315263748,3.593806505
600,1.55965323124e+18,1.113337755,0.4237866402,3.24424243
601,1.55965323129e+18,0.7613793612,-6.627352715,1.321639657
602,1.55965323135e+18,-3.893090725,-7.54914856,-8.032792091
603,1.5596532314e+18,-4.640104771,7.565908432,1.707117915
604,1.55965323145e+18,4.860377789,6.816500187,-1.161223292
605,1.5596532315e+18,-2.437371731,-14.59789371,17.41116714
606,1.55965323155e+18,7.733507633,-29.23409462,4.412648678
607,1.55965323161e+18,-11.72476387,-22.78391838,-1.204320192
608,1.55965323166e+18,-8.109408379,-4.532361984,2.288926601
609,1.55965323171e+18,-2.497228622,-11.17647457,8.28897953
610,1.55965323176e+18,-5.59781456,-5.305713177,12.45262337
611,1.55965323181e+18,-7.14930439,-6.457359314,9.332882881
612,1.55965323187e+18,-2.810878515,-2.616942406,8.454184532
613,1.55965323192e+18,1.0606637,-0.4477293789,7.091842175
614,1.55965323197e+18,-2.135693073,1.331216812,4.369551659
615,1.55965323202e+18,-5.38472414,-0.6799740195,8.722343445
616,1.55965323207e+18,-8.420664787,4.436591148,2.415823221
617,1.55965323213e+18,1.551490068,6.1939888,-9.474145889
618,1.55965323218e+18,-1.35755384,-2.394274712,-4.027170181
619,1.55965323223e+18,-3.220299721,-7.134938717,8.518829346
620,1.55965323228e+18,-1.177983165,-16.83654022,7.946598053
621,1.55965323233e+18,5.308107376,-27.29233932,11.09746361
622,1.55965323239e+18,-10.70480251,-8.209968567,7.846038342
623,1.55965323244e+18,-5.145296574,-7.163670063,3.0096035
624,1.55965323249e+18,-4.245049,-10.69283104,12.59388542
625,1.55965323254e+18,-3.399870157,-9.921875,14.74873257
626,1.55965323259e+18,-4.462928295,-3.778165579,13.67609787
627,1.55965323265e+18,-5.02797699,-2.423006058,11.1597147
628,1.5596532327e+18,-3.66802907,-0.3016786277,8.001666069
629,1.55965323275e+18,-13.21639729,-8.281796455,7.582668304
630,1.5596532328e+18,-2.185972929,-1.652049661,-15.11745071
631,1.55965323285e+18,10.69522572,5.128536701,-17.62425613
632,1.55965323291e+18,3.275367975,6.043149471,-2.648067951
633,1.55965323296e+18,-4.632921696,-6.993676662,9.584281921
634,1.55965323301e+18,-1.71908927,-28.61637306,18.42873383
635,1.55965323306e+18,2.023162127,-25.1446743,6.371165276
636,1.55965323311e+18,-5.011217117,-13.57314396,7.494080067
637,1.55965323317e+18,-4.357580185,-4.477293968,6.332856655
638,1.55965323322e+18,-6.174834728,-6.122160912,4.558699131
639,1.55965323327e+18,-5.358386993,-10.04158878,15.48138046
640,1.55965323332e+18,-4.407859802,-9.488511086,11.31294823
641,1.55965323337e+18,-3.727885962,-2.889889717,9.112609863
642,1.55965323343e+18,-2.784541607,-0.5051919818,5.336838722
643,1.55965323348e+18,-0.4597007632,1.098972082,4.300117493
644,1.55965323353e+18,0.5818088055,-5.21473074,-1.965699673
645,1.55965323358e+18,-3.33043623,-7.968146324,1.393467903
646,1.55965323363e+18,2.887495518,7.733507633,-1.601769805
647,1.55965323369e+18,-0.3854782581,6.517216206,-2.739050388
648,1.55965323374e+18,1.561067224,-4.103786945,5.078257084
649,1.55965323379e+18,0.3902668059,-23.55008698,17.49017715
650,1.55965323384e+18,-7.302538395,-23.75360107,12.34248638
651,1.55965323389e+18,-4.582642078,-13.89637089,5.765413761
652,1.55965323395e+18,-1.829225898,-6.328068256,6.787769318
653,1.559653234e+18,-0.4309694767,-8.736708641,8.516435623
654,1.55965323405e+18,-4.690384388,-6.902694225,13.8197546
655,1.5596532341e+18,-4.446168423,-4.273780346,12.32572651
656,1.55965323415e+18,-2.676799297,-1.118126392,9.976943016
657,1.55965323421e+18,-0.4094209969,-0.8308133483,4.637710094
658,1.55965323426e+18,-2.944957972,-0.3232271075,-3.028757572
659,1.55965323431e+18,-14.92590904,-13.9993248,9.598648071
660,1.55965323436e+18,3.34959054,12.05996227,-3.897879362
661,1.55965323441e+18,3.974496126,6.100612164,-4.472505569
662,1.55965323447e+18,1.015172482,-14.04960442,15.81418514
663,1.55965323452e+18,-0.1436564922,-42.19190979,15.28744507
664,1.55965323457e+18,-2.358360767,-19.42235756,-0.2873129845
665,1.55965323462e+18,-4.544333458,-10.14693642,6.584255695
666,1.55965323467e+18,0.591385901,-6.134131908,6.502850533
667,1.55965323473e+18,-0.0837996155,-5.782173634,4.936994553
668,1.55965323478e+18,-4.42940855,-11.71997547,3.931399345
669,1.55965323483e+18,-3.378321648,-6.457359314,12.09827042
670,1.55965323488e+18,-2.013585091,-5.399089813,16.02967072
671,1.55965323493e+18,-7.470137596,-1.836408734,8.28897953
672,1.55965323499e+18,-2.60736537,1.652049661,0.2274561077
673,1.55965323504e+18,-3.028757572,2.030344963,-7.599428177
674,1.55965323509e+18,-6.361588001,0.0,-4.980091572
675,1.55965323514e+18,2.324840784,7.046350956,-3.727885962
676,1.55965323519e+18,-0.6584255695,-0.2322446555,1.680780888
677,1.55965323525e+18,-5.813299179,-22.08479118,11.43266201
678,1.5596532353e+18,7.489291668,-31.51583862,6.131737709
679,1.55965323535e+18,-4.635315895,-19.73121834,3.553103924
680,1.5596532354e+18,-5.844424725,-10.99690437,6.313702583
681,1.55965323545e+18,-2.312869549,-7.027196407,11.12858963
682,1.55965323551e+18,0.9553156495,-7.029590607,10.78381348
683,1.55965323556e+18,-4.89629221,-7.958569527,10.6018486
684,1.55965323561e+18,-5.502043724,-0.5219519138,12.44304657
685,1.55965323566e+18,-2.772570133,-0.4429408312,9.579493523
686,1.55965323571e+18,-4.359974384,0.4788549542,5.657671452
687,1.55965323577e+18,-2.219492674,-3.119740009,0.5291347504
688,1.55965323582e+18,-0.6440598965,-0.2825244367,-6.991282463
689,1.55965323587e+18,2.703136206,5.758230686,-6.548341751
690,1.55965323592e+18,4.970514297,4.771789551,-4.927417755
691,1.55965323597e+18,-3.471698523,-10.57311726,12.9458437
692,1.55965323603e+18,-5.303318501,-29.81111526,4.398283005
693,1.55965323608e+18,-7.470137596,-28.27399063,10.16130257
694,1.55965323613e+18,-4.608979225,-10.90592194,9.852440834
695,1.55965323618e+18,-2.88510108,-6.883540154,13.96341038
696,1.55965323623e+18,0.335198462,-3.620143414,15.02407455
697,1.55965323629e+18,-4.415042877,0.02633702382,13.0918951
698,1.55965323634e+18,-7.168458939,-7.046350956,12.038414
699,1.55965323639e+18,-6.316096783,-8.420664787,4.819674969
700,1.55965323644e+18,-8.6888237,-7.106207848,7.01522541
701,1.55965323649e+18,-7.465348721,-6.555524349,-2.695953369
702,1.55965323655e+18,-3.081431627,3.818868399,0.5578660369
703,1.5596532366e+18,0.8499675393,3.64648056,-3.893090725
704,1.55965323665e+18,3.091008663,6.510033131,1.984853864
705,1.5596532367e+18,1.668809533,4.441379547,2.676799297
706,1.55965323675e+18,-1.235445857,-0.8092648983,5.32007885
707,1.55965323681e+18,-3.131711483,-9.368797302,5.293741703
708,1.55965323686e+18,-1.532335877,-22.48224068,3.52197814
709,1.55965323691e+18,-1.896265626,-23.64346313,12.96020985
710,1.55965323696e+18,-10.05834866,-9.957788467,7.089447498
711,1.55965323701e+18,-0.4477293789,-4.326454639,10.75747681
712,1.55965323707e+18,-4.927417755,-5.06867981,8.066311836
713,1.55965323712e+18,-9.035993576,-16.12065315,15.53405476
714,1.55965323717e+18,-9.277814865,-10.77663136,12.10066509
715,1.55965323722e+18,-7.494080067,-1.371919513,4.898686409
716,1.55965323727e+18,-2.396669149,-0.6392713785,4.405465603
717,1.55965323733e+18,0.462095052,-1.393467903,2.909043789
718,1.55965323738e+18,4.592218876,-7.470137596,-1.733454943
719,1.55965323743e+18,-1.520364523,-6.629746914,-4.424619675
720,1.55965323748e+18,-1.558672905,10.31453609,4.146883965
721,1.55965323753e+18,4.448562622,7.86758709,2.152452946
722,1.55965323759e+18,1.424593568,-1.515576005,0.7877163887
723,1.55965323764e+18,-6.012023926,-13.59469223,10.61621475
724,1.55965323769e+18,1.551490068,-27.83105087,2.157241583
725,1.55965323774e+18,-13.46779537,-18.18930626,2.403851986
726,1.55965323779e+18,-8.030397415,-6.043149471,4.60419035
727,1.55965323785e+18,-5.06628561,-13.76708031,9.076695442
728,1.5596532379e+18,-8.533195496,-7.211555958,11.25309181
729,1.55965323795e+18,-4.549122334,-2.423006058,5.38472414
730,1.559653238e+18,0.9361614585,-0.7996878028,7.407886028
731,1.55965323805e+18,-0.4429408312,0.59378016,4.11336422
732,1.55965323811e+18,-0.3711125851,0.1340793967,2.466103077
733,1.55965323816e+18,2.897072554,5.305713177,9.785401344
734,1.55965323821e+18,4.953754425,3.876330853,3.373533249
735,1.55965323826e+18,1.103760719,-3.900273561,10.70719719
736,1.55965323831e+18,8.693612099,3.177202702,5.535563469
737,1.55965323836e+18,4.041535854,-1.18756032,-1.905842781
738,1.55965323842e+18,1.946545362,-7.702382088,2.858764172
739,1.55965323847e+18,2.178790092,-13.48694992,-7.089447498
740,1.55965323852e+18,-23.01616287,-25.60676956,-0.1005595401
741,1.55965323857e+18,-5.106987953,-15.62503719,3.94576478
742,1.55965323862e+18,4.103786945,-15.54842091,14.67690468
743,1.55965323868e+18,0.627300024,-16.28825188,21.21566963
744,1.55965323873e+18,-11.38717079,-3.186779737,12.32093811
745,1.55965323878e+18,-4.039141655,0.7350423932,10.18045616
746,1.55965323883e+18,0.7158881426,4.077449799,8.995290756
747,1.55965323888e+18,-1.0175668,4.678412914,5.19797039
748,1.55965323894e+18,-2.442160368,3.529160976,2.1213274
749,1.55965323899e+18,-8.719948769,-5.044736862,3.641691923
750,1.55965323904e+18,-0.9385557175,-8.96655941,-7.455771923
751,1.55965323909e+18,1.312062621,-8.46376133,-1.407833576
752,1.55965323914e+18,11.41829681,-0.2921015322,4.573064804
753,1.5596532392e+18,-0.4070267081,-10.57551193,8.882759094
754,1.55965323925e+18,-2.540325642,-22.87490082,0.7134938836
755,1.5596532393e+18,-7.644919395,-14.19326115,8.897125244
756,1.55965323935e+18,8.827691078,-17.76073074,15.14139366
757,1.5596532394e+18,-2.48046875,-14.80380154,12.95542145
758,1.55965323946e+18,-12.30896664,-6.684815407,12.85007286
759,1.55965323951e+18,-14.00650787,-0.6392713785,14.03763294
760,1.55965323956e+18,-4.288146019,-0.2154847383,11.59307861
761,1.55965323961e+18,-2.513988495,3.584229469,9.967366219
762,1.55965323966e+18,1.022355318,1.735849261,6.431022167
763,1.55965323972e+18,-3.572257996,-2.894678354,1.869928598
764,1.55965323977e+18,-17.21483612,-0.1340793967,9.993702888
765,1.55965323982e+18,-0.7829278708,4.295329094,7.283383846
766,1.55965323987e+18,-3.41423583,4.649681568,-3.37113905
767,1.55965323992e+18,-2.078230619,-4.008016109,-11.75588894
768,1.55965323998e+18,-2.073441982,-4.127729893,-6.203566074
769,1.55965324003e+18,0.3064671755,-4.721509933,1.668809533
770,1.55965324008e+18,-0.7398309112,-12.56036568,5.329655647
771,1.55965324013e+18,-8.492492676,-27.07924843,16.31698227
772,1.55965324018e+18,-11.708004,-23.15263748,15.46701527
773,1.55965324024e+18,-8.38235569,-11.27464008,13.9945364
774,1.55965324029e+18,-4.656864643,-4.412648678,13.07513428
775,1.55965324034e+18,-2.255406857,-0.2537931204,10.40312386
776,1.55965324039e+18,-0.3591412306,0.2035133541,6.028783798
777,1.55965324044e+18,-1.388679385,-3.64887476,2.662433624
778,1.5596532405e+18,-1.359948039,-2.097384691,7.539571285
779,1.55965324055e+18,-7.364789486,-1.429382086,13.8389082
780,1.5596532406e+18,-7.168458939,1.199531674,14.83013821
781,1.55965324065e+18,-9.150918007,-0.6225114465,5.138113976
782,1.5596532407e+18,-5.858790398,-3.316070557,1.33600533
783,1.55965324076e+18,3.452544212,-0.09577099234,-6.052726746
784,1.55965324081e+18,8.597841263,1.807677507,-4.060689926
785,1.55965324086e+18,3.059883118,-1.63289547,0.3495641351
786,1.55965324091e+18,-7.697593689,-46.97088242,2.980872154
787,1.55965324096e+18,-15.15815353,-28.97311974,14.77267551
788,1.55965324102e+18,-6.256239891,-11.12380123,12.29460144
789,1.55965324107e+18,-4.465322495,-1.146857619,10.40073013
790,1.55965324112e+18,-4.450956821,0.1412622184,5.832453251
791,1.55965324117e+18,-3.682394743,-0.945738554,3.720703125
792,1.55965324122e+18,0.3112557232,-5.353598595,-0.4716721475
793,1.55965324128e+18,-1.711906433,-0.2753416002,4.580247879
794,1.55965324133e+18,-4.21631813,-3.883513689,4.175615311
795,1.55965324138e+18,-19.20926666,-2.233858347,9.263449669
796,1.55965324143e+18,-3.565075159,5.073468208,3.723097324
797,1.55965324148e+18,-1.407833576,-0.2370332032,7.570696831
798,1.55965324154e+18,-3.955342054,-8.949799538,4.573064804
799,1.55965324159e+18,4.395888329,-19.1637764,-2.190761566
800,1.55965324164e+18,-5.631334305,-26.17181778,-1.206714511
801,1.55965324169e+18,-8.684034348,-22.57801056,6.12694931
802,1.55965324174e+18,-4.120546818,-17.0185051,6.907482624
803,1.5596532418e+18,-2.952140808,-5.602602959,4.616161823
804,1.55965324185e+18,-0.7541965842,-1.309668303,3.129317284
805,1.5596532419e+18,4.161249638,2.195549965,6.091034889
806,1.55965324195e+18,8.10461998,0.9385557175,5.528380394
807,1.559653242e+18,0.986441195,0.3423812985,2.767781734
808,1.55965324206e+18,-6.711152077,5.372752666,2.58821106
809,1.55965324211e+18,-0.7374366522,10.46537495,9.464568138
810,1.55965324216e+18,-6.043149471,16.14938354,0.5842030644
811,1.55965324221e+18,-4.055901527,-17.93790627,8.605023384
812,1.55965324226e+18,-8.030397415,-42.30444336,10.70240879
813,1.55965324232e+18,-2.492439985,-14.27945518,4.470110893
814,1.55965324237e+18,-0.7901107073,-13.6545496,3.502824068
815,1.55965324242e+18,-2.99044919,-14.31536865,-0.4046324492
816,1.55965324247e+18,-7.778998852,-5.98329258,5.854001999
817,1.55965324252e+18,-6.780586243,-1.843591571,4.606584549
818,1.55965324258e+18,-4.280963421,3.797319889,2.126116037
819,1.55965324263e+18,-1.012778282,2.995237827,3.770982742
820,1.55965324268e+18,2.212309837,4.321666241,4.618556023
821,1.55965324273e+18,6.773403645,3.41423583,2.001613855
822,1.55965324278e+18,-0.964892745,16.00572777,1.470084786
823,1.55965324284e+18,2.102173328,0.6871568561,1.702329397
824,1.55965324289e+18,-7.240286827,-53.49767685,-6.27539444
825,1.55965324294e+18,-8.317710876,-27.92682076,0.7709565163
826,1.55965324299e+18,3.763799906,-12.47896004,2.253012657
827,1.55965324304e+18,-2.099778891,-4.862771988,2.54511404
828,1.5596532431e+18,-3.615355015,-3.100585938,4.201952457
829,1.55965324315e+18,-3.787742853,-2.197944164,4.520390987
830,1.5596532432e+18,-5.379935265,-3.586623669,6.241874218
831,1.55965324325e+18,-1.247417212,-4.884320736,7.211555958
832,1.5596532433e+18,0.1723877788,-1.620923996,6.356799603
833,1.55965324336e+18,3.162837029,1.515576005,7.357606411
834,1.55965324341e+18,-1.879505754,-4.194769382,5.655277252
835,1.55965324346e+18,-1.910631299,6.610592842,3.778165579
836,1.55965324351e+18,-0.4477293789,-8.403904915,-3.857176781
837,1.55965324356e+18,0.3591412306,-30.26363373,8.183630943
838,1.55965324362e+18,-7.963357925,-19.77192116,-0.5722316504
839,1.55965324367e+18,-4.884320736,-17.78227806,5.923435688
840,1.55965324372e+18,-8.339259148,-12.07432747,6.720729351
841,1.55965324377e+18,-6.304125786,-6.545947552,9.833286285
842,1.55965324382e+18,-7.12296772,-2.923409462,7.680833817
843,1.55965324388e+18,-2.765387297,0.1915419847,5.652883053
844,1.55965324393e+18,1.659232497,2.341600657,5.552323341
845,1.55965324398e+18,5.420638084,3.134105682,3.052700281
846,1.55965324403e+18,0.2705530524,-2.468497276,3.792531252
847,1.55965324408e+18,-2.988054991,0.29689008,8.791776657
848,1.55965324414e+18,0.5578660369,0.7709565163,-4.659258842
849,1.55965324419e+18,-0.1101366431,-12.73275375,8.214756966
850,1.55965324424e+18,2.815667152,-20.91877937,2.166818619
851,1.55965324429e+18,-7.412674904,-10.60903168,-0.03830839694
852,1.55965324434e+18,-10.95620155,-7.264229774,5.602602959
853,1.5596532444e+18,3.866753817,-12.81655312,18.24437332
854,1.55965324445e+18,-8.628966331,-13.01048946,10.21876526
855,1.5596532445e+18,-11.78701496,-3.799714088,7.273807049
856,1.55965324455e+18,-5.504437923,-2.320052385,5.348809719
857,1.5596532446e+18,-2.35357213,0.4501236677,2.329629421
858,1.55965324466e+18,-2.14287591,-3.124528646,-3.359167576
859,1.55965324471e+18,-7.424646378,-10.83648777,-6.459753513
860,1.55965324476e+18,-10.41030693,1.862745762,-6.442993641
861,1.55965324481e+18,5.224307537,3.651269197,-8.001666069
862,1.55965324486e+18,14.90675449,7.611399651,-2.152452946
863,1.55965324492e+18,14.8971777,-32.7273407,22.3002758
864,1.55965324497e+18,0.7925049663,-32.55735016,6.979310989
865,1.55965324502e+18,1.302485466,-19.87966347,-1.75979197
866,1.55965324507e+18,-0.3208328187,-13.48216152,2.482862949
867,1.55965324512e+18,-0.2154847383,-5.341627121,10.01046276
868,1.55965324518e+18,-5.226701736,-3.675211906,17.27708626
869,1.55965324523e+18,-11.60983849,-0.8930644989,7.948992252
870,1.55965324528e+18,-7.324086666,1.970488191,-1.67599237
871,1.55965324533e+18,-4.580247879,-1.709512234,-7.793364525
872,1.55965324538e+18,-18.15818024,-25.48945045,26.68658638
873,1.55965324544e+18,-3.304099321,18.2036705,-3.665634632
874,1.55965324549e+18,-0.7422251701,-16.12065315,13.62102985
875,1.55965324554e+18,-12.01686573,-34.99711609,12.54599953
876,1.55965324559e+18,-1.659232497,-15.28983879,8.250671387
877,1.55965324564e+18,-0.3830839694,-3.035940409,9.960183144
878,1.5596532457e+18,-3.718308687,2.868341208,9.541185379
879,1.55965324575e+18,-8.516435623,-3.205934048,7.120573044
880,1.5596532458e+18,-11.11661816,-7.269018173,8.102226257
881,1.55965324585e+18,-5.789356709,-5.332049847,6.071880817
882,1.5596532459e+18,-2.423006058,-1.149251938,9.344854355
883,1.55965324596e+18,-2.961717844,1.987248063,7.33605814
884,1.55965324601e+18,-3.75422287,-2.444554567,-2.894678354
885,1.55965324606e+18,-8.822902679,-8.696005821,-5.181210518
886,1.55965324611e+18,0.2753416002,9.500482559,-8.703188896
887,1.55965324616e+18,7.582668304,-12.61782837,12.56754875
888,1.55965324622e+18,5.863578796,-27.60838318,9.517242432
889,1.55965324627e+18,-7.72153616,-28.35300255,5.303318501
890,1.55965324632e+18,-8.308133125,-12.63937664,6.622564316
891,1.55965324637e+18,-2.971295118,-7.944203854,12.28023529
892,1.55965324642e+18,-5.482889175,-4.273780346,6.969734192
893,1.55965324648e+18,-6.72312355,-0.6225114465,5.779779434
894,1.55965324653e+18,-1.587404251,2.628913641,7.620976925
895,1.55965324658e+18,-0.7230709791,2.0375278,5.540351868
896,1.55965324663e+18,-4.029564381,2.109356165,5.600208759
897,1.55965324668e+18,-10.80057335,-5.34402132,-2.35596633
898,1.55965324674e+18,-13.21639729,-8.801354408,-5.27937603
899,1.55965324679e+18,-6.603409767,4.881926537,-9.529213905
900,1.55965324684e+18,-1.405439258,3.871542454,0.3399870098
901,1.55965324689e+18,0.4381522834,-5.298530102,5.475706577
902,1.55965324694e+18,-6.318490982,-13.67849159,3.797319889
903,1.559653247e+18,13.8197546,-30.42404938,2.427794695
904,1.55965324705e+18,-11.18605232,-20.72963142,7.71914196
905,1.5596532471e+18,-6.196382999,-13.92270756,7.743084908
906,1.55965324715e+18,-3.603383541,-7.269018173,7.484503269
907,1.5596532472e+18,-8.978530884,-2.880312681,6.045543671
908,1.55965324726e+18,-6.902694225,0.3543526828,3.272973776
909,1.55965324731e+18,-7.486897469,2.310475111,6.134131908
910,1.55965324736e+18,-5.353598595,1.786128998,5.176422119
911,1.55965324741e+18,-9.253871918,1.934574008,11.63617516
912,1.55965324746e+18,-11.41829681,6.93860817,6.155680656
913,1.55965324752e+18,-3.483669758,-1.769369125,1.948939681
914,1.55965324757e+18,-4.45574522,-6.818894863,-4.685595989
915,1.55965324762e+18,-4.92023468,1.031932473,-6.955368519
916,1.55965324767e+18,5.928224564,1.769369125,-12.52923965
917,1.55965324772e+18,12.11263657,-5.655277252,14.72000122
918,1.55965324778e+18,10.00806904,-15.14857674,8.758256912
919,1.55965324783e+18,-23.29389954,-38.13361359,9.24429512
920,1.55965324788e+18,-9.462174416,-22.94672966,4.008016109
921,1.55965324793e+18,-4.096604347,-8.870788574,10.76226521
922,1.55965324798e+18,-7.04156208,-2.181184292,9.469356537
923,1.55965324804e+18,-10.49650097,2.348783493,7.395915031
924,1.55965324809e+18,-11.11901188,1.142069101,4.956148624
925,1.55965324814e+18,-6.079063892,-1.280937076,5.305713177
926,1.55965324819e+18,-3.715914488,-5.06867981,4.259414673
927,1.55965324824e+18,-3.553103924,0.3519583941,10.56354046
928,1.5596532483e+18,-1.108549237,1.347976685,9.057541847
929,1.55965324835e+18,0.5195576549,-2.707924843,9.838075638
930,1.5596532484e+18,0.9098244309,1.510787368,5.226701736
931,1.55965324845e+18,3.632114887,5.147690773,-8.413481712
932,1.5596532485e+18,1.130097747,-3.263396502,-0.9888355136
933,1.55965324855e+18,-6.921848297,-17.32736588,12.03601933
934,1.55965324861e+18,-4.415042877,-27.51261139,-0.9313728809
935,1.55965324866e+18,-12.45980644,-17.63383484,7.628159523
936,1.55965324871e+18,-8.810931206,-5.535563469,12.038414
937,1.55965324876e+18,-3.466909885,-3.641691923,8.612206459
938,1.55965324881e+18,-3.052700281,-1.903448462,7.623371124
939,1.55965324887e+18,-3.603383541,-1.369525194,7.381549358
940,1.55965324892e+18,-3.768588543,-3.445361376,8.614601135
941,1.55965324897e+18,-3.727885962,-2.631308079,9.134158134
942,1.55965324902e+18,-6.675238132,-0.08858817071,9.490905762
943,1.55965324907e+18,-5.885127544,1.391073704,13.30737972
944,1.55965324913e+18,1.051086664,-8.087860107,3.672817469
945,1.55965324918e+18,5.566689014,4.687990189,-4.161249638
946,1.55965324923e+18,6.996070862,2.971295118,-8.308133125
947,1.55965324928e+18,2.427794695,-1.391073704,-3.275367975
948,1.55965324933e+18,0.5842030644,-12.95302677,8.679245949
949,1.55965324939e+18,-17.72481728,-32.15750504,4.134912491
950,1.55965324944e+18,-15.76390553,-24.56525993,7.757450581
951,1.55965324949e+18,-6.306519985,-12.28023529,9.402317047
952,1.55965324954e+18,-9.165284157,-4.357580185,6.258634567
953,1.55965324959e+18,-4.862771988,-0.8739103079,5.834847927
954,1.55965324965e+18,-2.621730804,2.736656189,3.261002302
955,1.5596532497e+18,-0.2681587934,0.2298503816,5.604997158
956,1.55965324975e+18,-0.6632141471,-5.906675816,-0.2801301479
957,1.5596532498e+18,-1.151646137,-1.40065074,7.314509392
958,1.55965324985e+18,0.4788549542,12.69205093,0.1556278616
959,1.55965324991e+18,10.89395046,10.96577835,4.822069645
960,1.55965324996e+18,3.311282158,-5.506832123,10.58269501
961,1.55965325001e+18,-3.727885962,-30.54137039,1.54670155
962,1.55965325006e+18,-5.276981831,-20.43753052,-7.769421577
963,1.55965325011e+18,-0.7757450342,-12.66331959,2.695953369
964,1.55965325017e+18,6.261028767,-17.55003357,6.06230402
965,1.55965325022e+18,3.146077156,-11.01126957,15.48138046
966,1.55965325027e+18,-2.825244188,-5.739076614,8.470944405
967,1.55965325032e+18,-2.662433624,-1.005595446,9.941028595
968,1.55965325037e+18,-6.816500187,1.616135478,3.533949614
969,1.55965325043e+18,-6.505244732,2.123721838,3.811685562
970,1.55965325048e+18,-8.341653824,1.338399649,-0.7350423932
971,1.55965325053e+18,-6.268211365,0.8212362528,1.618529797
972,1.55965325058e+18,0.5171633363,-3.217905283,-7.278595448
973,1.55965325063e+18,-0.22266756,-14.74155045,-0.6392713785
974,1.55965325069e+18,0.8954587579,-7.992089272,5.341627121
975,1.55965325074e+18,-5.470917702,-33.68744659,3.172414064
976,1.55965325079e+18,-8.729525566,-16.05600739,8.121379852
977,1.55965325084e+18,-0.9888355136,-9.687235832,8.020820618
978,1.55965325089e+18,-4.989668846,-4.948966026,5.681613922
979,1.55965325095e+18,-5.123748302,-5.815693378,6.284971237
980,1.559653251e+18,-8.411087036,-7.589851379,8.001666069
981,1.55965325105e+18,-9.785401344,-9.596253395,10.39594078
982,1.5596532511e+18,-5.648094177,-5.736682415,8.15968895
983,1.55965325115e+18,-2.853975534,-3.54113245,4.161249638
984,1.55965325121e+18,1.510787368,-0.2921015322,4.659258842
985,1.55965325126e+18,-6.261028767,4.60179615,4.652075768
986,1.55965325131e+18,7.324086666,7.99687767,-13.54441261
987,1.55965325136e+18,4.424619675,8.736708641,3.258608103
988,1.55965325141e+18,-7.233104229,-18.47661781,19.48700333
989,1.55965325147e+18,-9.897932053,-34.93246841,-0.9936240315
990,1.55965325152e+18,-10.53720379,-13.75271416,6.464541912
991,1.55965325157e+18,-1.963305354,-8.300951004,8.068706512
992,1.55965325162e+18,2.185972929,-2.018373728,6.612987041
993,1.55965325167e+18,-2.746233225,-1.755003452,8.775016785
994,1.55965325173e+18,-5.877944469,-1.520364523,10.76226521
995,1.55965325178e+18,-6.057515144,-4.494053841,12.25868702
996,1.55965325183e+18,-6.732700825,-4.149278164,9.799766541
997,1.55965325188e+18,-6.608198643,-5.585843086,6.878751755
998,1.55965325193e+18,-6.004841328,-3.64648056,4.56109333
999,1.55965325199e+18,-1.58979845,0.1604164094,1.316851139
1000,1.55965325204e+18,-1.319245458,-2.861158371,-3.833234072
1001,1.55965325209e+18,-1.376708031,3.737462997,-5.784567833
1002,1.55965325214e+18,1.192348838,4.359974384,-1.266571403
1003,1.55965325219e+18,4.467716694,-8.27461338,-10.66649437
1004,1.55965325225e+18,-33.45999146,-32.25806427,-0.4142095447
1005,1.5596532523e+18,-10.61382008,-16.38162804,11.40153694
1006,1.55965325235e+18,2.260195494,-13.23555088,18.25634575
1007,1.5596532524e+18,-5.758230686,-6.950579643,12.70881081
1008,1.55965325245e+18,-6.62016964,-4.731087208,11.98573971
1009,1.55965325251e+18,-4.187586784,2.205127001,12.88359261
1010,1.55965325256e+18,-5.868367672,2.054287672,6.761432171
1011,1.55965325261e+18,-7.846038342,-1.280937076,7.04156208
1012,1.55965325266e+18,-11.25788021,-6.419050694,3.380716085
1013,1.55965325271e+18,-7.987300873,-4.333637238,4.474899769
1014,1.55965325276e+18,-5.612180233,-3.83802247,-1.192348838
1015,1.55965325282e+18,-3.495641232,-7.862798691,-4.158855438
1016,1.55965325287e+18,-3.028757572,-6.87156868,-1.352765322
1017,1.55965325292e+18,-0.01197137404,-0.2178790122,-5.70316267
1018,1.55965325297e+18,-0.967287004,-16.81020355,-13.56835556
1019,1.55965325302e+18,-8.58108139,-25.16861725,8.03758049
1020,1.55965325308e+18,-0.4022381604,-16.90357971,19.86529732
1021,1.55965325313e+18,-2.463708878,-12.53163433,17.28905869
1022,1.55965325318e+18,-12.63458824,-5.87555027,11.59547329
1023,1.55965325323e+18,-9.668081284,-1.003201127,12.07672215
1024,1.55965325328e+18,-8.561926842,-2.616942406,10.252285
1025,1.55965325334e+18,-10.65212822,-1.417410731,2.784541607
1026,1.55965325339e+18,-9.852440834,-1.774157643,0.6632141471
1027,1.55965325344e+18,-6.962551117,-1.525153041,-0.7087053657
1028,1.55965325349e+18,-3.268185139,-2.494834423,-2.128510237
1029,1.55965325354e+18,-7.008042336,-4.213923454,-4.659258842
1030,1.5596532536e+18,6.663266659,5.162056446,-1.087000728
1031,1.55965325365e+18,1.58979845,2.487651587,-1.750214934
1032,1.5596532537e+18,-4.956148624,-6.694392204,7.65210247
1033,1.55965325375e+18,-5.080651283,-18.51492691,2.083019018
1034,1.5596532538e+18,-6.589044094,-26.79672432,12.65613651
1035,1.55965325386e+18,-9.3783741,-17.20046997,5.090228081
1036,1.55965325391e+18,-6.265817165,-11.13337803,7.355212212
1037,1.55965325396e+18,-7.249864101,-5.887521744,7.297749519
1038,1.55965325401e+18,-8.681640625,-3.596200705,5.95695591
1039,1.55965325406e+18,-8.506858826,-2.37272644,6.790163517
1040,1.55965325412e+18,-7.649707794,-6.328068256,1.482056141
1041,1.55965325417e+18,-9.883566856,-6.198777676,-0.7972934842
1042,1.55965325422e+18,-0.2753416002,-2.497228622,10.73832226
1043,1.55965325427e+18,-0.4788549542,-2.083019018,10.96338463
1044,1.55965325432e+18,-6.289760113,1.096577883,5.439792156
1045,1.55965325438e+18,-2.298503876,1.558672905,3.938581944
1046,1.55965325443e+18,-2.360754967,4.309694767,3.419024467
1047,1.55965325448e+18,3.955342054,2.58821106,2.475680113
1048,1.55965325453e+18,6.522004604,-3.811685562,0.3878725171
1049,1.55965325458e+18,0.7087053657,-2.341600657,3.931399345
1050,1.55965325464e+18,-5.511620522,-3.102980137,-1.027143836
1051,1.55965325469e+18,-5.736682415,-27.92921638,9.557945251
1052,1.55965325474e+18,-17.727211,-20.77272797,13.98735332
1053,1.55965325479e+18,-7.484503269,-8.971347809,11.542799
1054,1.55965325484e+18,-3.038334846,-5.528380394,9.713572502
1055,1.5596532549e+18,-6.155680656,-3.981678963,8.485309601
1056,1.55965325495e+18,-5.779779434,-5.442186832,8.707977295
1057,1.559653255e+18,-7.218738556,-8.767834663,8.411087036
1058,1.55965325505e+18,-8.868393898,-10.99690437,5.588237286
1059,1.5596532551e+18,-6.883540154,-5.300924301,2.123721838
1060,1.55965325516e+18,-2.415823221,-0.6392713785,2.18357873
1061,1.55965325521e+18,4.644893169,3.086220264,2.681587696
1062,1.55965325526e+18,6.538764477,-1.501210332,8.626572609
1063,1.55965325531e+18,2.411034822,0.2011190802,-4.810098171
1064,1.55965325536e+18,8.133351326,5.571477413,-5.38711834
1065,1.55965325542e+18,4.039141655,-2.298503876,0.7948992252
1066,1.55965325547e+18,-3.797319889,-18.21564293,18.76153755
1067,1.55965325552e+18,-7.999272346,-37.87742615,5.944984436
1068,1.55965325557e+18,-15.96263027,-11.04000092,3.960130453
1069,1.55965325562e+18,-5.394300938,-10.73592854,3.687183142
1070,1.55965325568e+18,1.053480864,-8.286584854,2.16203022
1071,1.55965325573e+18,-1.731060743,-8.734314919,0.6560313106
1072,1.55965325578e+18,-9.718361855,-8.406298637,5.281770229
1073,1.55965325583e+18,-9.024022102,-5.880339146,6.706363678
1074,1.55965325588e+18,-2.592999697,-0.8092648983,7.594639778
1075,1.55965325594e+18,3.395081758,-1.92978549,4.163643837
1076,1.55965325599e+18,12.51008606,1.661626697,-1.620923996
1077,1.55965325604e+18,5.044736862,10.11102295,-1.618529797
1078,1.55965325609e+18,0.4213923812,5.073468208,-1.649655342
1079,1.55965325614e+18,-0.2729473412,-10.01764584,13.91552544
1080,1.5596532562e+18,-0.8739103079,-27.52937126,12.36882401
1081,1.55965325625e+18,-5.887521744,-25.68338585,0.4118152559
1082,1.5596532563e+18,-3.770982742,-11.94264317,4.608979225
1083,1.55965325635e+18,-8.296162605,-8.801354408,9.227535248
1084,1.5596532564e+18,-4.477293968,-6.845231533,8.466156006
1085,1.55965325646e+18,-5.784567833,-3.993650436,6.86917448
1086,1.55965325651e+18,-4.592218876,-2.080624819,7.273807049
1087,1.55965325656e+18,-2.449343204,-0.5770202279,7.417463303
1088,1.55965325661e+18,-2.128510237,-1.403045058,10.63536835
1089,1.55965325666e+18,-0.5698373914,-3.069460392,1.319245458
1090,1.55965325672e+18,-0.2513988614,-6.749460697,2.667222023
1091,1.55965325677e+18,4.300117493,4.956148624,-6.48609066
1092,1.55965325682e+18,3.110162973,-1.352765322,-3.598595142
1093,1.55965325687e+18,-0.7685621977,-6.150891781,7.680833817
1094,1.55965325692e+18,-2.341600657,-10.56593513,8.174054146
1095,1.55965325698e+18,-7.304932594,-20.98821259,8.638543129
1096,1.55965325703e+18,-14.62901878,-13.35047626,8.612206459
1097,1.55965325708e+18,-9.543579102,-12.69683933,12.99372959
1098,1.55965325713e+18,-6.584255695,-6.615381241,8.085466385
1099,1.55965325718e+18,-5.226701736,-5.059102535,6.012023926
1100,1.55965325724e+18,-1.015172482,-2.897072554,3.763799906
1101,1.55965325729e+18,-0.632088542,-3.383110285,4.307300568
1102,1.55965325734e+18,6.239480019,-1.019961119,3.284945011
1103,1.55965325739e+18,7.223526955,-0.8858816624,3.191568375
1104,1.55965325744e+18,0.3782954216,9.723150253,-1.752609134
1105,1.5596532575e+18,1.845985889,-0.2130904645,-2.047105074
1106,1.55965325755e+18,0.05027977005,-10.24510193,13.09428883
1107,1.5596532576e+18,-4.400677204,-28.42243576,15.31617641
1108,1.55965325765e+18,-2.664827824,-18.93871307,-0.5578660369
1109,1.5596532577e+18,-3.272973776,-6.627352715,1.010383964
1110,1.55965325776e+18,-4.778972626,-3.725491524,5.008822918
1111,1.55965325781e+18,1.644866824,-7.213950157,12.9458437
1112,1.55965325786e+18,-6.019207001,-7.656890869,13.00809479
1113,1.55965325791e+18,-2.712713242,-12.56994247,9.71117878
1114,1.55965325796e+18,-5.820482254,-7.630553722,6.969734192
1115,1.55965325802e+18,-2.67440486,1.903448462,5.978504181
1116,1.55965325807e+18,7.802941799,3.466909885,5.755836487
1117,1.55965325812e+18,5.822876453,-0.8068706393,2.77735877
1118,1.55965325817e+18,-6.043149471,2.978477955,-1.419804931
1119,1.55965325822e+18,-0.8978530765,3.495641232,-5.286558628
1120,1.55965325828e+18,-0.4381522834,-7.307326794,7.151699066
1121,1.55965325833e+18,-5.17163372,-59.88560104,-0.8834874034
1122,1.55965325838e+18,-8.516435623,-19.71445847,4.743058205
1123,1.55965325843e+18,-1.913025618,-6.885934353,6.170046329
1124,1.55965325848e+18,-0.5698373914,-1.944151163,7.391126156
1125,1.55965325854e+18,-1.046298146,-1.369525194,8.79656601
1126,1.55965325859e+18,-4.077449799,0.01915419847,9.416683197
1127,1.55965325864e+18,-7.249864101,-2.928198099,6.80452919
1128,1.55965325869e+18,-8.451789856,-4.74784708,3.890696526
1129,1.55965325874e+18,-9.799766541,-6.502850533,0.4429408312
1130,1.5596532588e+18,-9.859623909,0.3423812985,0.2633702159
1131,1.55965325885e+18,12.29938984,10.02243423,2.899466753
1132,1.5596532589e+18,-2.660039425,0.4046324492,-1.913025618
1133,1.55965325895e+18,3.519583941,-28.09920883,6.308914185
1134,1.559653259e+18,-4.060689926,-24.00260544,-0.3519583941
1135,1.55965325906e+18,3.459727049,-21.48143387,3.888302326
1136,1.55965325911e+18,-0.9361614585,-13.38160229,5.497254848
1137,1.55965325916e+18,-2.894678354,-6.596227169,7.57309103
1138,1.55965325921e+18,-6.158074856,-2.473285913,4.343214512
1139,1.55965325926e+18,-6.009629726,3.498035431,2.255406857
1140,1.55965325932e+18,-0.5818088055,6.866780281,7.429434776
1141,1.55965325937e+18,0.9337671995,5.425426483,7.714353561
1142,1.55965325942e+18,-3.742251635,4.676018715,1.668809533
1143,1.55965325947e+18,-5.530774593,9.184437752,0.8403904438
1144,1.55965325952e+18,-6.687209606,-1.733454943,1.61134696
1145,1.55965325958e+18,-1.843591571,-54.12736893,3.021574736
1146,1.55965325963e+18,-7.886741161,-30.50784874,-4.618556023
1147,1.55965325968e+18,2.90664959,-13.32892799,2.059076309
1148,1.55965325973e+18,4.321666241,-10.9753561,5.502043724
1149,1.55965325978e+18,-1.721483588,-7.225921154,2.688770533
1150,1.55965325984e+18,-4.549122334,-6.416656494,3.909850836
1151,1.55965325989e+18,-6.002447128,-6.612987041,3.969707727
1152,1.55965325994e+18,-4.364762783,-1.326428294,5.791750908
1153,1.55965325999e+18,-6.217931747,-1.44135344,5.889915943
1154,1.55965326004e+18,0.6727912426,0.1245022863,7.934626579
1155,1.5596532601e+18,4.759818554,13.37681293,-1.9944309
1156,1.55965326015e+18,2.080624819,6.153286457,-0.9984126091
1157,1.5596532602e+18,9.347249031,-9.021627426,8.731920242
1158,1.55965326025e+18,-4.570670605,-42.97723389,-2.801301479
1159,1.5596532603e+18,-13.69525146,-22.8150444,-0.02394274808
1160,1.55965326036e+18,-0.4597007632,-14.27227211,5.607391834
1161,1.55965326041e+18,-6.526793003,-8.324893951,4.197163582
1162,1.55965326046e+18,-8.432636261,-3.639297724,5.389512539
1163,1.55965326051e+18,-4.580247879,-1.39825654,5.099805355
1164,1.55965326056e+18,-3.062277555,0.6656084061,5.691191196
1165,1.55965326062e+18,-3.399870157,0.4142095447,6.888328552
1166,1.55965326067e+18,-4.666441441,1.766974807,16.25951958
1167,1.55965326072e+18,0.1867534369,-5.075862408,16.70964432
1168,1.55965326077e+18,-2.444554567,-3.318464994,12.51966286
1169,1.55965326082e+18,3.701548815,-4.539545059,-14.91393757
1170,1.55965326088e+18,9.873989105,9.785401344,-11.06394386
1171,1.55965326093e+18,12.47656631,-26.53335381,8.447001457
1172,1.55965326098e+18,-20.7368145,-23.62191582,9.689630508
1173,1.55965326103e+18,-1.735849261,-15.65616322,8.411087036
1174,1.55965326108e+18,-3.0119977,-11.4997015,7.594639778
1175,1.55965326114e+18,-0.7374366522,3.079037428,10.49171257
1176,1.55965326119e+18,-4.328848839,2.0375278,6.960156918
1177,1.55965326124e+18,-7.860404015,0.3375927508,-0.627300024
1178,1.55965326129e+18,-12.08869362,4.695172787,-4.237866402
1179,1.55965326134e+18,-10.18524456,7.19000721,3.617749214
1180,1.5596532614e+18,0.8786988258,21.29228592,7.625765324
1181,1.55965326145e+18,6.83086586,6.873962879,13.659338
1182,1.5596532615e+18,-7.175641537,-33.83349609,10.06313705
1183,1.55965326155e+18,-11.3153429,-25.16143417,-11.22675419
1184,1.5596532616e+18,24.95792007,-18.28747177,-36.88380432
1185,1.55965326166e+18,-2.739050388,-14.3441,6.064698219
1186,1.55965326171e+18,4.489265442,-18.31859589,8.595446587
1187,1.55965326176e+18,2.576239586,-2.626519442,14.77028084
1188,1.55965326181e+18,2.315263748,-0.5578660369,23.34896851
1189,1.55965326186e+18,2.176395893,1.898659945,24.91721725
1190,1.55965326192e+18,-1.582615614,-2.264983892,15.37603283
1191,1.55965326197e+18,-2.279349566,-5.98089838,15.99854469
1192,1.55965326202e+18,-1.853168726,-4.398283005,12.58191395
1193,1.55965326207e+18,-1.635289669,-0.0837996155,5.607391834
1194,1.55965326212e+18,-0.9601042271,2.042316437,2.329629421
1195,1.55965326218e+18,-0.8044763207,-2.147664547,-7.644919395
1196,1.55965326223e+18,3.809291124,-9.605830193,-10.36002731
1197,1.55965326228e+18,1.16601181,-17.75594139,2.535537004
1198,1.55965326233e+18,13.52765274,-16.95864868,4.70714426
1199,1.55965326238e+18,-21.53650284,-25.14946175,-11.80616951
1200,1.55965326244e+18,-11.13098335,-6.498061657,9.261054993
1201,1.55965326249e+18,7.977723598,-12.88119888,20.53569412
1202,1.55965326254e+18,-8.71516037,-0.03591412306,16.42951393
1203,1.55965326259e+18,-19.76713371,3.22508812,12.21080112
1204,1.55965326264e+18,-6.691998005,1.110943556,14.10706711
1205,1.5596532627e+18,-5.056708336,3.931399345,8.133351326
1206,1.55965326275e+18,-12.31375504,1.204320192,5.260221958
1207,1.5596532628e+18,-8.07828331,13.45821857,6.198777676
1208,1.55965326285e+18,-5.569083214,3.383110285,7.673650742
1209,1.5596532629e+18,2.58821106,-5.535563469,3.356773376
1210,1.55965326296e+18,1.845985889,-17.35370445,6.241874218
1211,1.55965326301e+18,2.624125242,-5.542746067,-9.320911407
1212,1.55965326306e+18,-0.59378016,-2.305686712,-15.30181026
1213,1.55965326311e+18,3.136499882,-3.344801903,-2.130904675
1214,1.55965326316e+18,0.4956148863,-15.22998238,24.54610443
1215,1.55965326322e+18,6.184412003,-12.90993023,8.990502357
1216,1.55965326327e+18,-16.65218163,-21.48622131,18.81181717
1217,1.55965326332e+18,-7.515628815,-8.367990494,15.11745071
1218,1.55965326337e+18,-1.71908927,-4.199557781,11.38956547
1219,1.55965326342e+18,-7.204372883,-0.4429408312,9.567522049
1220,1.55965326348e+18,-7.034379482,-0.7996878028,8.073494911
1221,1.55965326353e+18,-9.926663399,-0.8810931444,17.73439407
1222,1.55965326358e+18,-14.18128967,4.367157459,8.327287674
1223,1.55965326363e+18,-4.898686409,1.905842781,11.70082092
1224,1.55965326368e+18,5.02558279,-1.745426297,11.1645031
1225,1.55965326374e+18,1.482056141,-2.202732801,7.498868465
1226,1.55965326379e+18,0.1819648892,-8.933039665,-9.239506721
1227,1.55965326384e+18,-4.436591148,-5.710345268,-14.99294853
1228,1.55965326389e+18,1.666415215,0.9313728809,-1.256994247
1229,1.55965326394e+18,3.335224867,0.6392713785,8.15968895
1230,1.559653264e+18,3.445361376,-6.668055534,12.60346222
1231,1.55965326405e+18,6.632141113,-19.56840706,19.72164154
1232,1.5596532641e+18,-13.82214832,-29.53098488,6.023995399
1233,1.55965326415e+18,-12.3831892,-6.251451492,5.303318501
1234,1.5596532642e+18,-9.332882881,1.328822494,17.30102921
1235,1.55965326426e+18,-0.3998439014,2.044710636,15.51490116
1236,1.55965326431e+18,-5.861184597,-0.2753416002,9.155706406
1237,1.55965326436e+18,-11.30097675,-1.881899953,13.10386562
1238,1.55965326441e+18,-10.55635738,-3.64648056,12.54599953
1239,1.55965326446e+18,-5.312895775,-3.416630268,13.54680729
1240,1.55965326452e+18,-8.770228386,-6.40707922,7.941809654
1241,1.55965326457e+18,-0.009577099234,-2.729473352,9.330489159
1242,1.55965326462e+18,3.232270956,-3.586623669,-9.076695442
1243,1.55965326467e+18,-1.831620216,-8.698400497,-11.73194695
1244,1.55965326472e+18,-0.3375927508,-4.091815472,-5.755836487
1245,1.55965326478e+18,-3.155654192,-9.397528648,11.20999432
1246,1.55965326483e+18,-2.138087511,-16.99216843,21.39284515
1247,1.55965326488e+18,2.911438227,-18.22761345,12.08151054
1248,1.55965326493e+18,-10.86521912,-10.22115898,11.84208298
1249,1.55965326498e+18,-13.52765274,-2.856369734,11.00887585
1250,1.55965326504e+18,-9.790189743,0.0837996155,6.838048935
1251,1.55965326509e+18,-1.640078187,-2.253012657,13.87003422
1252,1.55965326514e+18,3.505218267,-1.711906433,10.65931129
1253,1.55965326519e+18,-1.606558442,-4.094210148,14.38959122
1254,1.55965326524e+18,-5.98329258,-3.067065954,11.58829021
1255,1.5596532653e+18,-3.675211906,-3.102980137,15.67531681
1256,1.55965326535e+18,-11.542799,-1.9944309,10.98253822
1257,1.5596532654e+18,1.156434774,4.321666241,2.360754967
1258,1.55965326545e+18,4.082238674,1.065452337,-16.89639664
1259,1.5596532655e+18,0.2298503816,0.7661679387,-5.765413761
1260,1.55965326555e+18,2.308080912,1.31445682,-1.527547359
1261,1.55965326561e+18,1.541913033,-3.536343813,10.87719059
1262,1.55965326566e+18,-3.215511084,-33.42168045,26.32744598
1263,1.55965326571e+18,-8.559532166,-22.25478363,-5.06628561
1264,1.55965326576e+18,-14.90914917,-15.25631905,5.760625362
1265,1.55965326581e+18,-10.1062336,-2.880312681,8.109408379
1266,1.55965326587e+18,-1.568249941,-2.741444588,7.563514233
1267,1.55965326592e+18,-2.58821106,0.1628106833,7.858009815
1268,1.55965326597e+18,-2.760598898,0.06703969836,5.715134144
1269,1.55965326602e+18,-0.5794144869,-5.102199554,7.745479107
1270,1.55965326607e+18,-14.3776207,-2.573845387,6.124555111
1271,1.55965326613e+18,-15.28744507,11.51646137,22.01296234
1272,1.55965326618e+18,1.606558442,1.522758722,5.968926907
1273,1.55965326623e+18,6.383136749,2.729473352,-3.0119977
1274,1.55965326628e+18,2.389486313,-1.82443738,2.087807655
1275,1.55965326633e+18,0.04070267081,0.7230709791,8.114197731
1276,1.55965326639e+18,1.699935079,-6.996070862,-4.822069645
1277,1.55965326644e+18,-13.67609787,-30.19898796,10.58030033
1278,1.55965326649e+18,-15.36645603,-17.59073639,13.04161453
1279,1.55965326654e+18,-7.491685867,-10.07271385,9.895537376
1280,1.55965326659e+18,-4.019987583,-3.155654192,8.74149704
1281,1.55965326665e+18,-4.17800951,0.9385557175,5.995264053
1282,1.5596532667e+18,-2.05668211,0.962498486,5.379935265
1283,1.55965326675e+18,-1.254600048,-1.096577883,6.921848297
1284,1.5596532668e+18,-2.109356165,7.168458939,9.668081284
1285,1.55965326685e+18,-1.740637779,3.603383541,8.980924606
1286,1.55965326691e+18,-2.650462151,-4.13730669,5.351204395
1287,1.55965326696e+18,3.962524891,-10.42467213,-4.367157459
1288,1.55965326701e+18,0.2250618339,-10.25946712,12.95302677
1289,1.55965326706e+18,-6.466936111,-8.600234985,4.501236439
1290,1.55965326711e+18,3.988861799,-17.71284485,4.252232075
1291,1.55965326717e+18,-2.22667551,-21.74480438,9.191620827
1292,1.55965326722e+18,-4.843617916,-8.372778893,5.506832123
1293,1.55965326727e+18,-1.596981287,-14.7271843,14.21480942
1294,1.55965326732e+18,-6.51242733,-17.66017151,13.21879101
1295,1.55965326737e+18,-4.266597748,-10.2714386,12.4262867
1296,1.55965326743e+18,-0.3806896806,-5.588237286,12.91232395
1297,1.55965326748e+18,5.626545906,-3.251425266,8.672063828
1298,1.55965326753e+18,8.061523438,-7.070293427,2.727078915
1299,1.55965326758e+18,5.559505939,-8.686429024,3.790137053
1300,1.55965326763e+18,-6.835654736,-2.490045786,0.651242733
1301,1.55965326769e+18,-9.201197624,8.595446587,-1.740637779
1302,1.55965326774e+18,0.4501236677,4.891503334,-6.814105988
1303,1.55965326779e+18,7.795758724,-2.923409462,-14.60986519
1304,1.55965326784e+18,4.082238674,-1.747820616,4.644893169
1305,1.55965326789e+18,-3.179596901,-11.63138676,6.62016964
1306,1.55965326795e+18,-1.211503029,-21.68734169,8.779806137
1307,1.559653268e+18,-5.897099018,-16.82217407,6.091034889
1308,1.55965326805e+18,-6.134131908,-18.1055069,7.319298267
1309,1.5596532681e+18,-8.111803055,-14.96421719,9.308940887
1310,1.55965326815e+18,-6.241874218,-9.656110764,8.897125244
1311,1.55965326821e+18,-4.929811954,-3.313676357,7.755055904
1312,1.55965326826e+18,-2.327235222,2.090201855,8.540378571
1313,1.55965326831e+18,-0.2633702159,1.48445034,6.574678421
1314,1.55965326836e+18,-0.2442160249,3.11734581,3.720703125
1315,1.55965326841e+18,6.873962879,-2.363149166,5.628940105
1316,1.55965326847e+18,7.307326794,2.406246185,7.939415455
1317,1.55965326852e+18,-1.587404251,-10.17806244,10.88676739
1318,1.55965326857e+18,0.1364736706,5.839636326,-2.284138203
1319,1.55965326862e+18,3.969707727,1.019961119,-6.232297421
1320,1.55965326867e+18,2.67440486,-17.05920792,12.89795876
1321,1.55965326873e+18,-0.950527072,-32.03300095,7.968146324
1322,1.55965326878e+18,-8.818114281,-14.00171947,1.223474383
1323,1.55965326883e+18,-5.379935265,-18.08635139,3.45493865
1324,1.55965326888e+18,2.128510237,-10.90592194,14.65775013
1325,1.55965326893e+18,-3.146077156,-7.307326794,6.773403645
1326,1.55965326899e+18,-6.507638931,-4.041535854,10.12299347
1327,1.55965326904e+18,-4.723904133,-0.5530774593,8.11898613
1328,1.55965326909e+18,-4.213923454,0.3902668059,4.036747456
1329,1.55965326914e+18,-2.765387297,0.7470137477,9.088666916
1330,1.55965326919e+18,-1.283331275,-2.030344963,9.222746849
1331,1.55965326925e+18,6.586649895,6.62016964,-6.325674057
1332,1.5596532693e+18,-1.115732074,4.053507328,-11.02084732
1333,1.55965326935e+18,-2.004008055,-3.208328247,3.799714088
1334,1.5596532694e+18,-9.682447433,-27.36895561,15.05519962
1335,1.55965326945e+18,5.897099018,-19.8054409,2.90425539
1336,1.55965326951e+18,-0.8379961848,-16.58992958,4.482082367
1337,1.55965326956e+18,-4.249837875,-9.71117878,6.469330311
1338,1.55965326961e+18,-0.8140534163,-5.221913338,8.123774529
1339,1.55965326966e+18,-5.693585396,-9.165284157,8.312922478
1340,1.55965326971e+18,-7.197190285,-8.245882034,12.24192715
1341,1.55965326977e+18,-1.063058019,-6.352011204,9.502876282
1342,1.55965326982e+18,-0.7565908432,-2.633702278,7.723930359
1343,1.55965326987e+18,-0.5458946824,-2.815667152,5.006428719
1344,1.55965326992e+18,0.984046936,-1.556278586,0.2705530524
1345,1.55965326997e+18,5.80851078,-0.004788549617,-1.051086664
1346,1.55965327003e+18,7.944203854,12.18446445,-12.89795876
1347,1.55965327008e+18,4.460534096,-0.8356019258,4.273780346
1348,1.55965327013e+18,-9.273026466,-22.59955978,20.83498001
1349,1.55965327018e+18,-0.316044271,-27.89090729,-4.850800991
1350,1.55965327023e+18,-17.64580536,-17.56918907,3.069460392
1351,1.55965327029e+18,-7.431828976,-9.313729286,7.292961121
1352,1.55965327034e+18,-0.2657645047,-4.802915096,8.399115562
1353,1.55965327039e+18,-3.96491909,-6.328068256,8.693612099
1354,1.55965327044e+18,-5.964138508,-7.443800449,8.365595818
1355,1.55965327049e+18,-4.427014351,-9.876383781,7.237892628
1356,1.55965327055e+18,-0.8260248303,-0.5674431324,17.07357407
1357,1.5596532706e+18,1.415016413,-2.813272953,1.54670155
1358,1.55965327065e+18,2.48046875,8.6888237,9.416683197
1359,1.5596532707e+18,-1.920208454,3.399870157,3.96491909
1360,1.55965327075e+18,0.5482889414,2.449343204,-7.558725357
1361,1.55965327081e+18,1.096577883,-0.9720755816,-8.734314919
1362,1.55965327086e+18,1.920208454,-2.703136206,5.834847927
1363,1.55965327091e+18,-12.93866062,-27.89330101,16.51331329
1364,1.55965327096e+18,-9.031204224,-27.53416061,0.6608198285
1365,1.55965327101e+18,-8.080677032,-10.25467873,10.24031353
1366,1.55965327107e+18,-5.794145107,-9.397528648,9.593858719
1367,1.55965327112e+18,-4.108575344,-5.782173634,10.79817963
1368,1.55965327117e+18,-2.774964571,-2.954535007,8.059128761
1369,1.55965327122e+18,-4.103786945,-6.93860817,8.597841263
1370,1.55965327127e+18,-3.464515686,-2.875524044,8.020820618
1371,1.55965327133e+18,-0.4022381604,-2.549902678,4.872349262
1372,1.55965327138e+18,-1.771763325,7.376760483,7.520417213
1373,1.55965327143e+18,8.312922478,4.573064804,-7.199584484
1374,1.55965327148e+18,5.154873848,7.206767082,-8.526012421
1375,1.55965327153e+18,1.309668303,-0.5698373914,1.501210332
1376,1.55965327159e+18,1.29290843,-11.66730118,17.73199844
1377,1.55965327164e+18,-2.169213057,-21.93873978,-0.03830839694
1378,1.55965327169e+18,-14.75112724,-26.57884407,3.507612705
1379,1.55965327174e+18,-8.049551964,-16.95385933,4.386311531
1380,1.55965327179e+18,-5.090228081,-11.42308521,4.767001152
1381,1.55965327185e+18,-6.708757877,-7.707170486,5.470917702
1382,1.5596532719e+18,-0.5602602959,-1.460507631,10.4366436
1383,1.55965327195e+18,0.06464541703,-2.308080912,10.87000751
1384,1.559653272e+18,0.1819648892,-2.238646984,4.898686409
1385,1.55965327205e+18,-0.5674431324,0.4549122155,4.201952457
1386,1.55965327211e+18,-3.658451796,3.179596901,3.792531252
1387,1.55965327216e+18,1.084606528,7.431828976,-8.226728439
1388,1.55965327221e+18,1.139674783,3.955342054,0.4261809289
1389,1.55965327226e+18,-0.1245022863,-9.277814865,12.73275375
1390,1.55965327231e+18,-7.960963726,-24.83341789,3.275367975
1391,1.55965327237e+18,-5.935407162,-20.54048347,9.318517685
1392,1.55965327242e+18,-7.611399651,-5.109382629,2.315263748
1393,1.55965327247e+18,-3.842811108,-8.480521202,6.778192043
1394,1.55965327252e+18,-7.836461544,-8.856422424,9.012050629
1395,1.55965327257e+18,-13.62102985,-11.81335163,8.130957603
1396,1.55965327263e+18,-9.534002304,-5.765413761,7.158881664
1397,1.55965327268e+18,-2.909043789,-2.683982134,5.106987953
1398,1.55965327273e+18,-0.629694283,-1.956122518,1.946545362
1399,1.55965327278e+18,1.88668859,-6.440599442,1.711906433
1400,1.55965327283e+18,3.091008663,9.636956215,-4.829252243
1401,1.55965327289e+18,-0.4357580245,-2.667222023,6.316096783
1402,1.55965327294e+18,-0.06464541703,-28.13272858,9.32570076
1403,1.55965327299e+18,2.310475111,-28.11357498,4.75024128
1404,1.55965327304e+18,-5.305713177,-15.55081463,1.857957244
1405,1.55965327309e+18,-5.652883053,-6.246663094,5.95695591
1406,1.55965327315e+18,-5.17163372,-0.8834874034,7.14930439
1407,1.5596532732e+18,-4.757423878,0.09577099234,5.181210518
1408,1.55965327325e+18,-3.150865555,-0.3184385598,6.55073595
1409,1.5596532733e+18,-5.569083214,3.730280161,10.80296803
1410,1.55965327335e+18,-12.72796535,-2.571451187,9.179649353
1411,1.55965327341e+18,-8.10461998,-0.3304099143,8.059128761
1412,1.55965327346e+18,-6.634535313,-2.260195494,3.996044636
1413,1.55965327351e+18,-2.918621063,-1.240234375,-1.290514112
1414,1.55965327356e+18,-0.4668835998,2.470891714,-2.90425539
1415,1.55965327361e+18,3.936187744,2.530748367,-1.992036581
1416,1.55965327367e+18,-5.581054688,-9.347249031,3.749434233
1417,1.55965327372e+18,2.868341208,-34.72416687,4.498842239
1418,1.55965327377e+18,-7.23071003,-20.44950104,2.640885115
1419,1.55965327382e+18,-10.13975334,-14.48536301,6.924242973
1420,1.55965327387e+18,-7.910684109,-7.623371124,9.73751545
1421,1.55965327393e+18,-7.893924236,-3.272973776,13.30977345
1422,1.55965327398e+18,-9.39274025,1.460507631,9.926663399
1423,1.55965327403e+18,-7.134938717,2.008796453,7.807730198
1424,1.55965327408e+18,-2.157241583,-0.9601042271,5.348809719
1425,1.55965327413e+18,-0.6823683381,-6.323279858,5.887521744
1426,1.55965327419e+18,-14.26748371,-10.31214142,8.552350044
1427,1.55965327424e+18,-11.47815323,4.048718929,-2.513988495
1428,1.55965327429e+18,-9.797372818,6.454965115,-8.933039665
1429,1.55965327434e+18,-0.9146129489,6.787769318,0.02633702382
1430,1.55965327439e+18,-2.032739401,2.971295118,2.734261751
1431,1.55965327445e+18,-0.3687183261,-4.213923454,4.692778587
1432,1.5596532745e+18,-5.037554264,-14.73197269,10.51565456
1433,1.55965327455e+18,0.9816526771,-23.49741364,-0.2825244367
1434,1.5596532746e+18,-13.1014719,-17.25793266,1.513181686
1435,1.55965327465e+18,-10.53480911,-13.9849596,8.729525566
1436,1.5596532747e+18,-7.278595448,-10.00567436,12.0001049
1437,1.55965327476e+18,-9.287391663,-3.715914488,6.433416367
1438,1.55965327481e+18,-8.487704277,-0.3232271075,5.854001999
1439,1.55965327486e+18,-5.645699978,1.692752242,5.138113976
1440,1.55965327491e+18,-1.905842781,-0.2561874092,5.918647289
1441,1.55965327496e+18,0.4333637357,2.944957972,6.083852291
1442,1.55965327502e+18,-4.486870766,5.607391834,9.047964096
1443,1.55965327507e+18,-3.88111949,3.100585938,3.287339211
1444,1.55965327512e+18,-3.179596901,-3.119740009,-1.544307232
1445,1.55965327517e+18,-4.781366825,-0.8236305118,-9.447808266
1446,1.55965327522e+18,-4.127729893,-2.652856588,-10.76226521
1447,1.55965327528e+18,-4.711932659,-30.71854591,12.59149075
1448,1.55965327533e+18,2.135693073,-25.79352188,13.64497185
1449,1.55965327538e+18,-13.1158371,-26.18857765,1.723877907
1450,1.55965327543e+18,-3.682394743,-14.76549244,5.600208759
1451,1.55965327548e+18,0.335198462,-11.13337803,11.90433407
1452,1.55965327554e+18,-17.37285805,-7.664073467,9.134158134
1453,1.55965327559e+18,-4.992063046,0.2298503816,10.49889469
1454,1.55965327564e+18,3.701548815,-5.576265812,7.889135361
1455,1.55965327569e+18,2.818061352,-4.913052082,-3.701548815
1456,1.55965327574e+18,8.605023384,14.92351532,-3.076643229
1457,1.5596532758e+18,13.24991703,17.97382164,-0.4046324492
1458,1.55965327585e+18,6.268211365,15.80221367,3.483669758
1459,1.5596532759e+18,-4.532361984,-18.30183601,14.3345232
1460,1.55965327595e+18,-13.18287754,-37.3961792,1.683175206
1461,1.559653276e+18,-7.529994488,-23.47347069,-1.644866824
1462,1.55965327606e+18,-2.288926601,-13.89876556,6.033572674
1463,1.55965327611e+18,-0.8116591573,-8.090254784,0.3854782581
1464,1.55965327616e+18,-6.694392204,-7.704776287,2.9258039
1465,1.55965327621e+18,-7.836461544,-1.61134696,5.162056446
1466,1.55965327626e+18,-2.533142805,-3.553103924,6.095823765
1467,1.55965327632e+18,-7.166064739,-13.02724934,20.50457001
1468,1.55965327637e+18,1.446141958,12.40473747,3.991255999
1469,1.55965327642e+18,2.083019018,14.62183666,-5.128536701
1470,1.55965327647e+18,10.15172482,6.601015568,6.270605564
1471,1.55965327652e+18,1.805283189,-7.213950157,9.471751213
1472,1.55965327658e+18,-3.361561775,-24.98425674,3.699154615
1473,1.55965327663e+18,-13.24991703,-32.60044479,-4.573064804
1474,1.55965327668e+18,-6.225114346,-15.68968296,1.740637779
1475,1.55965327673e+18,2.049499273,-11.71039772,9.265843391
1476,1.55965327678e+18,-5.415849686,-7.223526955,4.587430477
1477,1.55965327684e+18,-7.40309763,-4.628133297,5.66245985
1478,1.55965327689e+18,-3.543526649,-4.2426548,6.284971237
1479,1.55965327694e+18,-0.2466102988,-1.649655342,6.476513386
1480,1.55965327699e+18,-3.0957973,-0.3495641351,9.323306084
1481,1.55965327704e+18,-2.348783493,2.195549965,3.186779737
1482,1.5596532771e+18,-0.5818088055,1.359948039,-13.0918951
1483,1.55965327715e+18,-0.4932205975,-7.048745155,1.644866824
1484,1.5596532772e+18,-11.99771118,-21.19651413,4.74784708
1485,1.55965327725e+18,-7.209161282,-19.21166039,1.374313712
1486,1.5596532773e+18,-5.470917702,-6.220325947,5.700768471
1487,1.55965327736e+18,-0.7422251701,-11.20760059,14.20044422
1488,1.55965327741e+18,-4.520390987,-9.703995705,12.3784008
1489,1.55965327746e+18,-8.961771011,-12.11503029,11.06394386
1490,1.55965327751e+18,-5.66485405,-7.151699066,11.4901247
1491,1.55965327756e+18,-3.143682718,-2.004008055,8.707977295
1492,1.55965327762e+18,-1.862745762,-0.8547561169,7.233104229
1493,1.55965327767e+18,-2.37272644,-1.50599885,2.846792698
1494,1.55965327772e+18,-4.261809349,1.182771802,-3.179596901
1495,1.55965327777e+18,-5.913858891,-6.835654736,6.663266659
1496,1.55965327782e+18,-2.521171331,5.719922543,-6.019207001
1497,1.55965327788e+18,-1.331216812,-2.923409462,-0.945738554
1498,1.55965327793e+18,9.955394745,-12.80218697,3.933793545
1499,1.55965327798e+18,-8.485309601,-23.12390518,11.80616951
1500,1.55965327803e+18,-8.193208694,-7.113390446,1.896265626
1501,1.55965327808e+18,-2.909043789,-2.968900681,7.010436535
1502,1.55965327814e+18,-6.86917448,-12.50769138,12.66571331
1503,1.55965327819e+18,-12.77824497,-12.37600613,14.3824091
1504,1.55965327824e+18,-11.57631874,-7.075081825,9.172467232
1505,1.55965327829e+18,-5.118959427,-4.522785187,8.643332481
1506,1.55965327834e+18,-3.076643229,-4.355185986,4.664047241
1507,1.5596532784e+18,-2.669616461,-6.0216012,-1.522758722
1508,1.55965327845e+18,-1.206714511,-3.246636629,-2.547508478
1509,1.5596532785e+18,0.22266756,1.537124395,6.80452919
1510,1.55965327855e+18,7.161275864,9.067118645,-1.391073704
1511,1.5596532786e+18,1.704723716,2.806090117,-3.299310684
1512,1.55965327866e+18,2.274561167,-10.88437366,11.18844604
1513,1.55965327871e+18,-6.12934351,-27.06488228,5.8516078
1514,1.55965327876e+18,-14.21959782,-16.4462738,5.98329258
1515,1.55965327881e+18,1.180377483,-4.225894928,7.0846591
1516,1.55965327886e+18,1.769369125,-5.593026161,8.894730568
1517,1.55965327892e+18,-7.455771923,-7.166064739,8.870788574
1518,1.55965327897e+18,-6.663266659,-9.584281921,12.28262997
1519,1.55965327902e+18,-4.130124092,-9.945817947,9.914691925
1520,1.55965327907e+18,-6.452570438,-3.337619066,5.995264053
1521,1.55965327912e+18,-4.223500729,-2.434977531,5.09262228
1522,1.55965327918e+18,5.097411156,2.9258039,-1.585009933
1523,1.55965327923e+18,2.049499273,9.366402626,-15.58912373
1524,1.55965327928e+18,1.596981287,4.419831276,1.127703428
1525,1.55965327933e+18,3.833234072,-19.82699013,22.32421875
1526,1.55965327938e+18,-9.519637108,-28.63792038,0.2513988614
1527,1.55965327944e+18,-4.326454639,-17.67453575,4.245049
1528,1.55965327949e+18,-2.619336605,-4.316877365,7.04156208
1529,1.55965327954e+18,-1.324033976,0.5602602959,6.840443134
1530,1.55965327959e+18,-6.926637173,-0.0574625954,4.544333458
1531,1.55965327964e+18,-1.067846537,-2.0351336,6.859597206
1532,1.5596532797e+18,0.1508393139,-3.337619066,9.031204224
1533,1.55965327975e+18,-7.960963726,-4.022381783,6.265817165
1534,1.5596532798e+18,-5.813299179,-1.805283189,12.72796535
1535,1.55965327985e+18,-4.213923454,-5.140508175,16.10389328
1536,1.5596532799e+18,-2.423006058,-5.815693378,7.039167881
1537,1.55965327996e+18,4.740664005,8.815719604,-16.72401047
1538,1.55965328001e+18,4.012804508,2.940169573,-1.575432777
1539,1.55965328006e+18,-2.320052385,-20.11190796,16.98259163
1540,1.55965328011e+18,-9.490905762,-27.4455719,-0.2537931204
1541,1.55965328016e+18,-4.60419035,-20.60752296,5.672037125
1542,1.55965328022e+18,3.605777979,-7.664073467,12.53642273
1543,1.55965328027e+18,-4.558699131,-3.462121487,8.916279793
1544,1.55965328032e+18,-8.763046265,0.8763045669,5.219519138
1545,1.55965328037e+18,-3.840416908,1.709512234,6.205960274
1546,1.55965328042e+18,1.685569525,-2.978477955,8.152505875
1547,1.55965328048e+18,-1.970488191,-2.37512064,2.174001455
1548,1.55965328053e+18,-9.27063179,3.430995703,11.97137451
1549,1.55965328058e+18,3.900273561,11.36322784,-10.77423668
1550,1.55965328063e+18,1.381496549,3.466909885,1.86514008
1551,1.55965328068e+18,-3.471698523,-9.275420189,12.51247978
1552,1.55965328074e+18,0.634482801,-16.30501175,7.36000061
1553,1.55965328079e+18,0.9217957854,-19.75037384,0.1939362586
1554,1.55965328084e+18,-6.715940952,-12.11981869,2.154847383
1555,1.55965328089e+18,-8.444606781,-9.64413929,8.494887352
1556,1.55965328094e+18,-6.814105988,-15.83573341,16.30501175
1557,1.559653281e+18,-6.988888264,-6.323279858,12.42868042
1558,1.55965328105e+18,-2.60736537,-5.272192955,8.535589218
1559,1.5596532811e+18,0.332804203,-3.665634632,4.929811954
1560,1.55965328115e+18,-0.241821751,-3.100585938,3.555498123
1561,1.5596532812e+18,-2.310475111,-2.415823221,5.262616158
1562,1.55965328126e+18,-4.738269806,-1.367130876,8.3153162
1563,1.55965328131e+18,-6.320885658,0.22266756,0.7039167881
1564,1.55965328136e+18,-0.06703969836,0.8044763207,-9.727938652
1565,1.55965328141e+18,4.118152618,4.910657406,-10.64255142
1566,1.55965328146e+18,4.881926537,-7.563514233,6.933819771
1567,1.55965328152e+18,5.715134144,-32.7273407,15.76629925
1568,1.55965328157e+18,-16.2810688,-19.40799141,9.443019867
1569,1.55965328162e+18,-0.3447755575,-13.63060665,6.270605564
1570,1.55965328167e+18,-3.589017868,-14.01129627,4.597007751
1571,1.55965328172e+18,-5.231490612,-10.78860188,7.767027378
1572,1.55965328178e+18,-5.284164429,-5.650488377,8.183630943
1573,1.55965328183e+18,-8.277008057,-3.826051235,3.277762175
1574,1.55965328188e+18,-6.861991405,6.720729351,6.292154312
1575,1.55965328193e+18,4.000833035,7.783787251,13.00091267
1576,1.55965328198e+18,7.800547123,-1.319245458,7.206767082
1577,1.55965328203e+18,0.924190104,-3.730280161,1.374313712
1578,1.55965328209e+18,8.020820618,4.187586784,-3.153259993
1579,1.55965328214e+18,-3.22508812,1.989642382,2.075836182
1580,1.55965328219e+18,-2.434977531,-4.687990189,5.145296574
1581,1.55965328224e+18,5.791750908,-33.35464096,8.241093636
1582,1.55965328229e+18,-15.31617641,-23.43037415,6.80452919
1583,1.55965328235e+18,-5.355992794,-8.526012421,3.943370581
1584,1.5596532824e+18,1.798100352,-6.93860817,4.364762783
1585,1.55965328245e+18,-1.714300752,-9.344854355,3.241847992
1586,1.5596532825e+18,-9.390345573,-5.87555027,9.998491287
1587,1.55965328255e+18,-2.901860952,-3.790137053,8.399115562
1588,1.55965328261e+18,-0.4980091453,-4.091815472,8.576292038
1589,1.55965328266e+18,-4.189980984,-1.067846537,4.891503334
1590,1.55965328271e+18,-8.001666069,-5.880339146,10.03919411
1591,1.55965328276e+18,4.695172787,9.828497887,-5.329655647
1592,1.55965328281e+18,6.584255695,12.85725594,-4.999245644
1593,1.55965328287e+18,2.525959969,-12.26826382,11.74631214
1594,1.55965328292e+18,-4.297723293,-32.37538528,15.75911713
1595,1.55965328297e+18,3.129317284,-22.13267708,-5.035160065
1596,1.55965328302e+18,-12.74951363,-17.59073639,2.430188894
1597,1.55965328307e+18,-4.022381783,-7.817307472,5.925830364
1598,1.55965328313e+18,-3.481275558,-5.207547665,8.729525566
1599,1.55965328318e+18,-4.407859802,-8.035185814,10.50847244
1600,1.55965328323e+18,-6.263422966,-4.889109135,7.151699066
1601,1.55965328328e+18,-3.536343813,-4.623344421,7.812518597
1602,1.55965328333e+18,-1.410227895,-3.023969173,3.593806505
1603,1.55965328339e+18,-5.312895775,-3.397475958,9.964971542
1604,1.55965328344e+18,-3.45733285,0.6009629965,-2.008796453
1605,1.55965328349e+18,4.371945858,5.518803596,-11.18605232
1606,1.55965328354e+18,2.662433624,3.660846233,-2.45892024
1607,1.55965328359e+18,-1.783734679,-2.303292274,12.50529766
1608,1.55965328365e+18,1.872322917,-17.31778908,4.965725899
1609,1.5596532837e+18,-12.84528446,-25.56606674,1.819648862
1610,1.55965328375e+18,-11.21717739,-15.70644283,5.178816319
1611,1.5596532838e+18,-3.804502726,-12.18206978,9.062330246
1612,1.55965328385e+18,-6.110189438,-6.684815407,7.776604652
1613,1.55965328391e+18,-7.328875065,-1.022355318,8.05194664
1614,1.55965328396e+18,-1.355159521,-2.614548206,8.597841263
1615,1.55965328401e+18,-1.9944309,-2.298503876,7.166064739
1616,1.55965328406e+18,-6.761432171,-4.958543301,3.342407703
1617,1.55965328411e+18,-2.643279314,-2.949746609,8.142929077
1618,1.55965328417e+18,-2.549902678,5.858790398,4.43180275
1619,1.55965328422e+18,6.155680656,7.36000061,-5.370358467
1620,1.55965328427e+18,1.065452337,3.306493521,-0.3591412306
1621,1.55965328432e+18,-2.655250788,-10.55875206,18.53647614
1622,1.55965328437e+18,1.917814136,-19.57798576,4.132518291
1623,1.55965328443e+18,-13.44385338,-20.49259758,-3.988861799
1624,1.55965328448e+18,-6.962551117,-9.136552811,5.38472414
1625,1.55965328453e+18,-3.021574736,-13.71440601,11.77025509
1626,1.55965328458e+18,-10.07032013,-5.51640892,4.862771988
1627,1.55965328463e+18,-4.417437077,-3.730280161,7.862798691
1628,1.55965328469e+18,-1.194743156,-2.540325642,7.893924236
1629,1.55965328474e+18,-3.445361376,-2.166818619,6.028783798
1630,1.55965328479e+18,-3.399870157,-11.43745041,-19.76234436
1631,1.55965328484e+18,1.726272106,4.35039711,-4.661653042
1632,1.55965328489e+18,9.684841156,6.826077461,-5.825270653
1633,1.55965328495e+18,2.942563772,-1.726272106,3.778165579
1634,1.559653285e+18,2.9258039,-33.93884659,7.106207848
1635,1.55965328505e+18,-30.6108036,-22.60434914,3.816473961
1636,1.5596532851e+18,1.175588965,-8.729525566,5.880339146
1637,1.55965328515e+18,2.475680113,-4.819674969,3.514795303
1638,1.55965328521e+18,1.015172482,-1.173194647,2.978477955
1639,1.55965328526e+18,-10.52044392,0.5482889414,5.751048088
1640,1.55965328531e+18,-7.034379482,-1.534730196,5.236279011
1641,1.55965328536e+18,-5.822876453,-0.2059076279,10.04158878
1642,1.55965328541e+18,-4.012804508,-0.02633702382,10.02961731
1643,1.55965328547e+18,-3.359167576,1.118126392,12.33530426
1644,1.55965328552e+18,-2.492439985,-1.300091267,1.182771802
1645,1.55965328557e+18,-2.360754967,3.311282158,-9.596253395
1646,1.55965328562e+18,4.043930054,0.8284190893,-3.715914488
1647,1.55965328567e+18,-1.259388566,-33.29239273,34.95880508
1648,1.55965328573e+18,-7.910684109,-21.4167881,-13.49652672
1649,1.55965328578e+18,-5.583448887,-9.943423271,7.223526955
1650,1.55965328583e+18,4.273780346,-5.806116581,8.559532166
1651,1.55965328588e+18,0.08619388938,-4.477293968,6.72551775
1652,1.55965328593e+18,-13.66173172,-4.735875607,6.270605564
1653,1.55965328599e+18,-8.142929077,-3.047911882,12.2131958
1654,1.55965328604e+18,-3.069460392,-2.382303476,13.07992363
1655,1.55965328609e+18,-7.223526955,-5.846818924,7.417463303
1656,1.55965328614e+18,-1.778946161,0.8978530765,3.833234072
1657,1.55965328619e+18,-1.867534399,5.391906738,-17.50693703
1658,1.55965328625e+18,-1.826831698,-0.2897072434,-4.28575182
1659,1.5596532863e+18,1.029538155,-4.201952457,8.861210823
1660,1.55965328635e+18,1.345582485,-16.12304688,-5.954561234
1661,1.5596532864e+18,-13.43906403,-28.04414177,15.74953938
1662,1.55965328645e+18,0.1149251908,-10.32890129,17.1837101
1663,1.55965328651e+18,5.889915943,-3.249030828,16.08473778
1664,1.55965328656e+18,-2.281744003,-0.1771763414,10.36481571
1665,1.55965328661e+18,-7.568302631,2.894678354,10.87240219
1666,1.55965328666e+18,-7.247469902,3.763799906,5.885127544
1667,1.55965328671e+18,-7.36000061,4.850800991,5.686402798
1668,1.55965328677e+18,-7.609005451,-0.167599231,2.901860952
1669,1.55965328682e+18,-9.01923275,-15.17970276,0.9194015265
1670,1.55965328687e+18,-5.348809719,-4.221106529,2.377514839
1671,1.55965328692e+18,-6.648900986,0.3040728867,2.645673752
1672,1.55965328697e+18,-3.502824068,-3.586623669,5.030371189
1673,1.55965328703e+18,2.128510237,-5.051919937,-2.178790092
1674,1.55965328708e+18,-3.430995703,-8.133351326,3.062277555
1675,1.55965328713e+18,5.351204395,-9.502876282,-0.5243461728
1676,1.55965328718e+18,-1.893871427,-17.93551254,12.52445126
1677,1.55965328723e+18,-8.664880753,-11.33928585,16.50134277
1678,1.55965328729e+18,-10.69043732,-9.972154617,17.93551254
1679,1.55965328734e+18,-11.03760719,-2.43976593,10.30735302
1680,1.55965328739e+18,-7.213950157,0.9098244309,9.981731415
1681,1.55965328744e+18,-2.190761566,1.048692346,6.732700825
1682,1.55965328749e+18,-2.14048171,0.8212362528,4.010410309
1683,1.55965328755e+18,-4.28575182,-1.620923996,7.204372883
1684,1.5596532876e+18,-7.285778046,-6.105400562,3.624932051
1685,1.55965328765e+18,-4.999245644,-1.249811411,5.942590237
1686,1.5596532877e+18,-2.894678354,2.954535007,2.35596633
1687,1.55965328775e+18,-0.5267404318,4.108575344,4.565882206
1688,1.55965328781e+18,2.382303476,2.595393896,0.241821751
1689,1.55965328786e+18,2.207521439,-0.5865973234,-6.562707424
1690,1.55965328791e+18,0.8763045669,-5.626545906,8.083071709
1691,1.55965328796e+18,-1.355159521,-54.97254944,-1.367130876
1692,1.55965328801e+18,-9.938634872,-28.01540947,7.836461544
1693,1.55965328807e+18,-4.75024128,-14.62423038,10.32411289
1694,1.55965328812e+18,-5.267404556,-5.063891411,8.092648506
1695,1.55965328817e+18,-4.965725899,2.842004299,7.788576126
1696,1.55965328822e+18,-4.702355862,4.075055599,5.748653889
1697,1.55965328827e+18,-3.040729046,3.071854591,5.427821159
1698,1.55965328833e+18,-3.488458395,4.134912491,9.344854355
1699,1.55965328838e+18,-8.846845627,4.089421272,13.05358601
1700,1.55965328843e+18,-6.440599442,-0.9577099085,7.93223238
1701,1.55965328848e+18,-8.571503639,-7.319298267,6.229903221
1702,1.55965328853e+18,-4.45574522,-0.7781392932,3.629720688
1703,1.55965328859e+18,8.63375473,6.337645531,-13.4366703
1704,1.55965328864e+18,3.177202702,0.984046936,-1.680780888
1705,1.55965328869e+18,-5.332049847,-9.924268723,16.09431458
1706,1.55965328874e+18,-1.046298146,-34.0274353,13.16372299
1707,1.55965328879e+18,-10.11820507,-28.00822639,5.262616158
1708,1.55965328885e+18,-13.51807594,-7.01522541,4.860377789
1709,1.5596532889e+18,-4.465322495,-2.918621063,8.097437859
1710,1.55965328895e+18,-4.087027073,1.312062621,8.906702042
1711,1.559653289e+18,-1.12530911,1.453324795,4.944177628
1712,1.55965328905e+18,1.71669507,-4.352791786,7.695199013
1713,1.55965328911e+18,0.6967339516,-6.373559475,7.50605154
1714,1.55965328916e+18,-3.193962574,0.8978530765,25.33621597
1715,1.55965328921e+18,4.424619675,13.32892799,-3.929004908
1716,1.55965328926e+18,3.744645834,12.9458437,-5.27937603
1717,1.55965328931e+18,4.85319519,1.568249941,3.105374336
1718,1.55965328936e+18,-6.397502422,-26.06886482,6.368771076
1719,1.55965328942e+18,-8.612206459,-28.92523384,-6.366376877
1720,1.55965328947e+18,-2.851581335,-10.12059975,3.45733285
1721,1.55965328952e+18,-1.204320192,-11.44702816,6.747066498
1722,1.55965328957e+18,-2.145270348,-7.767027378,7.637736797
1723,1.55965328962e+18,-13.42948723,-6.72312355,6.636929989
1724,1.55965328968e+18,-6.634535313,-1.872322917,6.636929989
1725,1.55965328973e+18,-4.458139896,-1.036720991,5.827664852
1726,1.55965328978e+18,-0.6847625971,2.516382933,6.466936111
1727,1.55965328983e+18,0.8092648983,3.620143414,6.359193802
1728,1.55965328988e+18,2.976083517,1.848380208,2.949746609
1729,1.55965328994e+18,2.499622822,0.2322446555,-2.449343204
1730,1.55965328999e+18,3.402264595,5.348809719,-9.031204224
1731,1.55965329004e+18,5.121353626,-0.5746259689,-5.755836487
1732,1.55965329009e+18,-4.022381783,-26.35617638,14.13340378
1733,1.55965329014e+18,-5.039948463,-25.89168739,9.684841156
1734,1.5596532902e+18,-9.538790703,-18.52689934,0.3854782581
1735,1.55965329025e+18,0.7230709791,-11.43505669,5.528380394
1736,1.5596532903e+18,3.131711483,-15.32575321,4.812492371
1737,1.55965329035e+18,-4.767001152,-10.14933109,3.854782343
1738,1.5596532904e+18,-10.49889469,-6.51242733,4.992063046
1739,1.55965329046e+18,-4.965725899,0.05506832153,7.65449667
1740,1.55965329051e+18,-0.907430172,1.46290195,8.552350044
1741,1.55965329056e+18,-3.622537851,5.06867981,5.073468208
1742,1.55965329061e+18,-7.637736797,-3.766194344,10.86761379
1743,1.55965329066e+18,6.87156868,14.178895,0.5578660369
1744,1.55965329072e+18,2.071047783,11.3153429,-3.533949614
1745,1.55965329077e+18,1.168406129,-10.17087936,10.83169937
1746,1.55965329082e+18,-10.41270161,-27.82865524,17.34412766
1747,1.55965329087e+18,3.282550812,-21.84296989,0.2490045726
1748,1.55965329092e+18,-5.394300938,-16.8341465,5.976109982
1749,1.55965329098e+18,-4.307300568,-6.689603806,5.34402132
1750,1.55965329103e+18,-2.636096478,-3.313676357,8.157294273
1751,1.55965329108e+18,-3.277762175,-3.179596901,9.047964096
1752,1.55965329113e+18,-11.86123753,-5.403878212,10.18524456
1753,1.55965329118e+18,-10.64733982,-0.8403904438,9.519637108
1754,1.55965329124e+18,-10.02243423,1.113337755,9.86680603
1755,1.55965329129e+18,-11.16929245,-4.309694767,5.372752666
1756,1.55965329134e+18,3.56268096,-8.221940041,14.53803635
1757,1.55965329139e+18,-3.804502726,3.062277555,1.982459545
1758,1.55965329144e+18,1.903448462,-3.718308687,-8.839662552
1759,1.5596532915e+18,3.265790939,-5.391906738,-14.93069744
1760,1.55965329155e+18,1.793311834,-12.74472523,-0.6584255695
1761,1.5596532916e+18,-6.411868095,-19.00096512,-6.644112587
1762,1.55965329165e+18,-3.076643229,-32.66030121,21.22764015
1763,1.5596532917e+18,-7.405491829,-16.53964996,19.36489487
1764,1.55965329176e+18,-0.3016786277,-10.58269501,19.11828423
1765,1.55965329181e+18,3.747040033,-11.73673534,8.875576973
1766,1.55965329186e+18,5.944984436,-8.265036583,4.956148624
1767,1.55965329191e+18,6.390319347,-9.028810501,7.22831583
1768,1.55965329196e+18,5.695979595,-2.104567528,4.903474808
1769,1.55965329202e+18,-1.623318315,-6.265817165,8.547560692
1770,1.55965329207e+18,-1.996825218,-0.4597007632,5.138113976
1771,1.55965329212e+18,-0.06225114316,0.7972934842,4.058295727
1772,1.55965329217e+18,0.102953814,5.98089838,0.8523618579
1773,1.55965329222e+18,-1.333611012,1.321639657,-3.251425266
1774,1.55965329228e+18,5.054314137,3.936187744,-2.341600657
1775,1.55965329233e+18,8.542772293,-1.934574008,-5.013611317
1776,1.55965329238e+18,-1.343188167,-7.429434776,4.625739098
1777,1.55965329243e+18,-4.458139896,-21.8046608,5.842030525
1778,1.55965329248e+18,-2.921015263,-28.66186333,8.631361008
1779,1.55965329254e+18,-2.612153769,-18.0193119,4.529967785
1780,1.55965329259e+18,-4.740664005,-9.057541847,4.570670605
1781,1.55965329264e+18,-3.45493865,-8.367990494,5.1333251
1782,1.55965329269e+18,-6.799740314,-12.64177132,4.154066563
1783,1.55965329274e+18,-7.975329399,-8.286584854,8.854028702
1784,1.5596532928e+18,-1.561067224,-6.596227169,5.097411156
1785,1.55965329285e+18,1.826831698,-0.2561874092,6.718335152
1786,1.5596532929e+18,6.706363678,1.098972082,6.531581879
1787,1.55965329295e+18,1.977671027,1.558672905,2.937775135
1788,1.559653293e+18,-1.541913033,4.788549423,-0.8020820618
1789,1.55965329306e+18,-1.932179809,12.25389862,-0.5099805593
1790,1.55965329311e+18,1.668809533,6.598621368,-2.45892024
1791,1.55965329316e+18,-7.113390446,-18.50774384,16.35289764
1792,1.55965329321e+18,4.146883965,-30.14631462,9.263449669
1793,1.55965329326e+18,-12.35445786,-19.91318321,-1.175588965
1794,1.55965329332e+18,-9.067118645,-7.735901833,6.249057293
1795,1.55965329337e+18,0.7230709791,-5.961744308,6.505244732
1796,1.55965329342e+18,-1.680780888,-2.209915638,7.331269264
1797,1.55965329347e+18,-5.150084972,-5.676825523,7.443800449
1798,1.55965329352e+18,-7.834067345,-4.714327335,8.248276711
1799,1.55965329358e+18,-4.089421272,-3.507612705,9.040781975
1800,1.55965329363e+18,-3.77337718,-1.934574008,7.398309231
1801,1.55965329368e+18,-5.224307537,-0.5363175869,6.047938347
1802,1.55965329373e+18,-3.885908127,0.3519583941,6.842837334
1803,1.55965329378e+18,0.3304099143,6.184412003,-5.468523502
1804,1.55965329384e+18,0.5411061049,4.872349262,-9.404711723
1805,1.55965329389e+18,-2.444554567,-4.403071404,7.326480865
1806,1.55965329394e+18,-5.542746067,-21.90522003,13.80299473
1807,1.55965329399e+18,-3.232270956,-25.45832443,-0.6871568561
1808,1.55965329404e+18,-11.41350842,-18.00734138,3.900273561
1809,1.5596532941e+18,-8.856422424,-10.6497345,10.60424328
1810,1.55965329415e+18,-6.083852291,-5.911464691,10.35523891
1811,1.5596532942e+18,-10.07750225,-4.276175022,8.933039665
1812,1.55965329425e+18,-4.130124092,-4.419831276,9.751881599
1813,1.5596532943e+18,-1.127703428,-6.12934351,4.532361984
1814,1.55965329436e+18,-1.747820616,-2.75820446,4.92023468
1815,1.55965329441e+18,-4.551516533,-2.403851986,7.36239481
1816,1.55965329446e+18,-6.986494064,0.8619389534,10.02722263
1817,1.55965329451e+18,-4.587430477,0.1436564922,-7.309720993
1818,1.55965329456e+18,-0.6775797606,3.208328247,-9.543579102
1819,1.55965329462e+18,0.634482801,5.674431324,-1.565855742
1820,1.55965329467e+18,-4.036747456,-2.190761566,7.345634937
1821,1.55965329472e+18,-4.084632874,-11.5380106,18.31380844
1822,1.55965329477e+18,-5.394300938,-27.90766716,2.75820446
1823,1.55965329482e+18,-15.53166103,-17.35130882,4.292934895
1824,1.55965329488e+18,-9.98891449,-9.615407944,5.913858891
1825,1.55965329493e+18,-4.872349262,-7.491685867,10.43903828
1826,1.55965329498e+18,-6.112583637,-4.565882206,8.791776657
1827,1.55965329503e+18,-4.175615311,-3.069460392,8.006455421
1828,1.55965329508e+18,-2.324840784,-3.280156374,8.693612099
1829,1.55965329514e+18,-3.787742853,-2.315263748,7.683228016
1830,1.55965329519e+18,-4.690384388,1.177983165,7.879558563
1831,1.55965329524e+18,-6.179623127,-0.1556278616,5.19797039
1832,1.55965329529e+18,-13.32653332,-8.164477348,4.704750061
1833,1.55965329534e+18,-0.05267404765,5.078257084,-1.070240855
1834,1.5596532954e+18,0.1915419847,-1.182771802,-4.482082367
1835,1.55965329545e+18,-8.162082672,-8.753468513,12.21559048
1836,1.5596532955e+18,-0.3495641351,-0.09337671846,-8.39672184
1837,1.55965329555e+18,-19.11828423,-40.09213257,-2.231464148
1838,1.5596532956e+18,-3.972101927,-9.012050629,3.900273561
1839,1.55965329566e+18,7.553936958,-15.35927296,15.09111404
1840,1.55965329571e+18,-0.924190104,-11.64335823,12.2610817
1841,1.55965329576e+18,-11.06154919,-6.660872459,11.18605232
1842,1.55965329581e+18,-8.025609016,-0.1221080124,13.19005966
1843,1.55965329586e+18,-5.188393593,-3.735068798,10.30495834
1844,1.55965329592e+18,-2.645673752,-7.348029613,-0.2561874092
1845,1.55965329597e+18,-10.89395046,-7.805335999,-4.288146019
1846,1.55965329602e+18,-6.012023926,-0.8308133483,-1.407833576
1847,1.55965329607e+18,-3.73267436,2.727078915,-7.46774292
1848,1.55965329612e+18,-4.831646442,1.999219418,-3.217905283
1849,1.55965329618e+18,-0.2106961906,2.652856588,1.180377483
1850,1.55965329623e+18,-4.00562191,-5.023188591,13.97298813
1851,1.55965329628e+18,-7.386337757,-6.610592842,3.574652195
1852,1.55965329633e+18,-5.128536701,-32.78240967,6.256239891
1853,1.55965329638e+18,-11.44223976,-16.19248009,5.267404556
1854,1.55965329644e+18,-7.046350956,-12.96260357,6.715940952
1855,1.55965329649e+18,-8.561926842,-8.068706512,5.865973473
1856,1.55965329654e+18,-10.1062336,-5.676825523,4.989668846
1857,1.55965329659e+18,-4.022381783,-5.233884811,8.226728439
1858,1.55965329664e+18,-3.0096035,-4.913052082,5.21473074
1859,1.5596532967e+18,-2.755810261,-2.569056988,3.229876757
1860,1.55965329675e+18,-2.48046875,5.772596359,5.583448887
1861,1.5596532968e+18,-2.707924843,6.229903221,6.991282463
1862,1.55965329685e+18,-6.998465061,-0.4597007632,9.196409225
1863,1.5596532969e+18,1.570644259,-2.667222023,-5.011217117
1864,1.55965329696e+18,-3.186779737,1.218685865,-10.57551193
1865,1.55965329701e+18,-2.660039425,-0.7613793612,-2.602576733
1866,1.55965329706e+18,-1.750214934,-10.48931789,11.38477707
1867,1.55965329711e+18,-10.32171917,-43.54706955,6.926637173
1868,1.55965329716e+18,-15.67771149,-17.44947433,4.348002911
1869,1.55965329722e+18,-8.664880753,-11.8827858,8.444606781
1870,1.55965329727e+18,-13.75271416,-9.665687561,6.330462456
1871,1.55965329732e+18,-11.3680172,-5.138113976,6.481301785
1872,1.55965329737e+18,-4.0726614,-2.212309837,7.240286827
1873,1.55965329742e+18,2.870735407,-1.333611012,7.680833817
1874,1.55965329748e+18,0.1149251908,-0.2274561077,6.253845692
1875,1.55965329753e+18,-9.766246796,3.402264595,8.367990494
1876,1.55965329758e+18,-8.595446587,2.944957972,2.705530643
1877,1.55965329763e+18,-6.526793003,-1.565855742,2.698347807
1878,1.55965329768e+18,4.781366825,-11.75828362,10.24031353
1879,1.55965329774e+18,0.7134938836,-0.6416656375,-1.628106833
1880,1.55965329779e+18,7.204372883,-0.2442160249,-3.866753817
1881,1.55965329784e+18,2.006402254,-14.01368999,2.126116037
1882,1.55965329789e+18,-14.07115269,-27.69697189,8.99289608
1883,1.55965329794e+18,-12.40473747,-10.32171917,13.47976685
1884,1.559653298e+18,-7.494080067,-11.77504349,16.07995033
1885,1.55965329805e+18,-7.199584484,-6.59143877,10.19003391
1886,1.5596532981e+18,-2.497228622,-3.715914488,7.771816254
1887,1.55965329815e+18,-1.194743156,-2.255406857,5.614574432
1888,1.5596532982e+18,-1.54670155,-0.4189980924,3.634509087
1889,1.55965329826e+18,-0.4381522834,0.8475732803,3.804502726
1890,1.55965329831e+18,-1.254600048,-2.645673752,-3.373533249
1891,1.55965329836e+18,7.427040577,0.7589851022,-7.020013809
1892,1.55965329841e+18,-7.848433018,-15.5627861,3.847599506
1893,1.55965329846e+18,6.153286457,-7.345634937,9.943423271
1894,1.55965329852e+18,5.06628561,-26.23406982,14.24832916
1895,1.55965329857e+18,-0.3615354896,-24.54610443,-5.552323341
1896,1.55965329862e+18,-14.38001442,-7.024802208,0.5865973234
1897,1.55965329867e+18,-8.473338127,-8.138139725,8.775016785
1898,1.55965329872e+18,-1.805283189,-3.584229469,5.990475655
1899,1.55965329877e+18,-5.727105141,-4.802915096,11.25309181
1900,1.55965329883e+18,-9.282603264,-5.463735104,10.48213482
1901,1.55965329888e+18,-11.80377483,-5.02558279,4.295329094
1902,1.55965329893e+18,-12.67289639,-5.818087578,5.351204395
1903,1.55965329898e+18,-13.99214172,-0.4405465722,-6.972128391
1904,1.55965329903e+18,-5.650488377,-0.4118152559,-11.83729458
1905,1.55965329909e+18,5.66485405,0.3040728867,-5.142902374
1906,1.55965329914e+18,3.708731651,4.932206154,-2.688770533
1907,1.55965329919e+18,-3.337619066,-3.533949614,9.091061592
1908,1.55965329924e+18,-7.903501034,-36.67071152,4.422225475
1909,1.55965329929e+18,-10.50847244,-27.95555305,9.510059357
1910,1.55965329935e+18,-10.14454269,-11.94743156,6.44778204
1911,1.5596532994e+18,-1.683175206,-5.624151707,7.640130997
1912,1.55965329945e+18,-2.753416061,0.924190104,4.551516533
1913,1.5596532995e+18,-6.215537548,3.605777979,3.902667999
1914,1.55965329955e+18,-4.898686409,1.194743156,6.244268894
1915,1.55965329961e+18,-0.7637736797,2.815667152,7.393520832
1916,1.55965329966e+18,-8.05194664,6.368771076,7.154093266
1917,1.55965329971e+18,-15.06956577,1.644866824,8.231516838
1918,1.55965329976e+18,-15.53884315,-2.272166729,3.512401104
1919,1.55965329981e+18,-11.23393726,-3.66802907,2.367937803
1920,1.55965329987e+18,6.416656494,3.715914488,5.731894016
1921,1.55965329992e+18,-0.7470137477,-0.2849186957,-0.04549122229
1922,1.55965329997e+18,-5.595420361,-7.01761961,5.604997158
1923,1.55965330002e+18,-4.091815472,-14.6697216,1.984853864
1924,1.55965330007e+18,-3.885908127,-26.30829239,6.148497581
1925,1.55965330013e+18,-9.158101082,-14.59071064,7.278595448
1926,1.55965330018e+18,-8.602629662,-8.78219986,14.57873917
1927,1.55965330023e+18,-7.407886028,-3.785348415,11.53561592
1928,1.55965330028e+18,-7.034379482,-1.905842781,9.162889481
1929,1.55965330033e+18,-6.007235527,1.599375606,7.515628815
1930,1.55965330039e+18,-6.277788639,0.07901106775,5.870761871
1931,1.55965330044e+18,-4.122941017,-1.762186289,5.159662247
1932,1.55965330049e+18,-7.247469902,1.120520592,5.430215359
1933,1.55965330054e+18,-7.458166122,3.560286522,3.835628271
1934,1.55965330059e+18,-1.472478986,4.331243038,2.032739401
1935,1.55965330065e+18,6.926637173,2.77735877,-4.889109135
1936,1.5596533007e+18,0.8356019258,-3.584229469,8.123774529
1937,1.55965330075e+18,1.563461423,-11.86602592,8.10461998
1938,1.5596533008e+18,-4.917840481,-30.77840233,6.648900986
1939,1.55965330085e+18,-9.440625191,-20.42316437,-9.919480324
1940,1.55965330091e+18,-4.848406315,-20.92596245,0.5315290093
1941,1.55965330096e+18,0.2322446555,-12.81176472,11.09028053
1942,1.55965330101e+18,-10.35284424,-10.38397026,18.18930626
1943,1.55965330106e+18,-12.203619,-2.810878515,11.80856323
1944,1.55965330111e+18,0.4237866402,2.475680113,10.42946148
1945,1.55965330117e+18,-0.5961744189,3.13889432,8.229122162
1946,1.55965330122e+18,-1.982459545,0.06943397224,4.498842239
1947,1.55965330127e+18,-4.860377789,-2.88510108,1.704723716
1948,1.55965330132e+18,-6.768614769,-1.170800328,0.2394274771
1949,1.55965330137e+18,-0.986441195,5.889915943,3.708731651
1950,1.55965330143e+18,0.2537931204,4.400677204,-0.9122186899
1951,1.55965330148e+18,3.885908127,-1.326428294,1.259388566
1952,1.55965330153e+18,-0.4692778587,-13.75989723,5.652883053
1953,1.55965330158e+18,2.315263748,-18.81181717,5.985687256
1954,1.55965330163e+18,-10.17806244,-18.26592255,1.563461423
1955,1.55965330169e+18,-6.950579643,-14.23875237,0.6991282701
1956,1.55965330174e+18,-9.929058075,-5.849213123,10.51804924
1957,1.55965330179e+18,-10.16609097,-16.93709946,15.24913597
1958,1.55965330184e+18,-4.793338299,-3.545921087,5.849213123
1959,1.55965330189e+18,-3.306493521,-3.347196102,7.091842175
1960,1.55965330195e+18,0.943344295,0.5219519138,4.92023468
1961,1.559653302e+18,2.614548206,-1.156434774,4.158855438
1962,1.55965330205e+18,-1.359948039,-1.213897347,1.077423692
1963,1.5596533021e+18,-4.142095566,-0.2178790122,2.631308079
1964,1.55965330215e+18,3.146077156,5.672037125,-4.575459003
1965,1.55965330221e+18,-2.988054991,7.450983047,9.478934288
1966,1.55965330226e+18,-1.0175668,-13.78862858,9.62977314
1967,1.55965330231e+18,-1.853168726,-26.55969048,-3.311282158
1968,1.55965330236e+18,-21.54847336,-14.36804295,-0.06225114316
1969,1.55965330241e+18,-4.699961662,-8.454184532,4.987274647
1970,1.55965330247e+18,4.405465603,-9.883566856,5.485283375
1971,1.55965330252e+18,-4.098998547,-10.07750225,12.92190075
1972,1.55965330257e+18,-11.77264881,-8.763046265,10.71916866
1973,1.55965330262e+18,-3.332830429,-3.847599506,11.35365105
1974,1.55965330267e+18,0.6632141471,-2.384697676,6.902694225
1975,1.55965330273e+18,-3.191568375,-3.670423269,-3.155654192
1976,1.55965330278e+18,-8.300951004,-3.179596901,1.680780888
1977,1.55965330283e+18,-3.081431627,5.763019562,-4.254626274
1978,1.55965330288e+18,5.001639843,6.749460697,-3.670423269
1979,1.55965330293e+18,4.182797909,7.36000061,2.257801056
1980,1.55965330299e+18,-1.089395046,-5.863578796,11.95221996
1981,1.55965330304e+18,-2.849187136,-15.37842751,14.51888275
1982,1.55965330309e+18,4.029564381,-21.23961258,3.24424243
1983,1.55965330314e+18,-11.00169277,-18.71844101,4.213923454
1984,1.55965330319e+18,-6.23469162,-8.348835945,5.569083214
1985,1.55965330325e+18,-4.122941017,-2.897072554,6.476513386
1986,1.5596533033e+18,-6.148497581,-4.386311531,4.508419514
1987,1.55965330335e+18,-3.261002302,-8.102226257,12.68726254
1988,1.5596533034e+18,-6.821289062,-6.974522591,11.16689777
1989,1.55965330345e+18,-3.426207304,-3.462121487,9.220352173
1990,1.55965330351e+18,-6.737489223,-2.921015263,5.209941864
1991,1.55965330356e+18,-4.975303173,0.6991282701,1.733454943
1992,1.55965330361e+18,-3.234665155,1.450930476,0.5865973234
1993,1.55965330366e+18,-0.1364736706,0.3902668059,4.398283005
1994,1.55965330371e+18,0.967287004,0.6560313106,7.278595448
1995,1.55965330376e+18,2.825244188,3.050306082,-3.146077156
1996,1.55965330382e+18,2.909043789,-3.974496126,-0.1987248063
1997,1.55965330387e+18,-0.5698373914,-20.47583771,7.2546525
1998,1.55965330392e+18,-9.888355255,-28.23328781,13.0918951
1999,1.55965330397e+18,-7.697593689,-12.03123093,4.999245644
