,Time (s),Acceleration x (m/s^2),Acceleration y (m/s^2),Acceleration z (m/s^2)
0,1.55965381705e+18,-4.783761024,-4.38870573,4.972908974
1,1.5596538171e+18,-5.98329258,-4.970514297,5.463735104
2,1.55965381716e+18,-5.542746067,-4.70953846,4.786155224
3,1.55965381721e+18,-3.325647593,-4.587430477,5.487678051
4,1.55965381726e+18,-0.9170072675,-3.560286522,5.118959427
5,1.55965381731e+18,0.1963305324,-3.574652195,6.929031372
6,1.55965381736e+18,-1.235445857,-3.974496126,6.838048935
7,1.55965381742e+18,-11.3728056,-7.348029613,4.053507328
8,1.55965381747e+18,-7.113390446,-4.060689926,5.24106741
9,1.55965381752e+18,-7.594639778,-8.272219658,4.465322495
10,1.55965381757e+18,-4.649681568,-9.198803902,3.806896925
11,1.55965381762e+18,-5.473312378,-9.201197624,2.564268351
12,1.55965381768e+18,-7.649707794,-6.756643295,1.436564922
13,1.55965381773e+18,-10.01525116,-7.790970325,0.950527072
14,1.55965381778e+18,-8.803748131,-9.747093201,2.892283916
15,1.55965381783e+18,-7.225921154,-10.22834206,3.672817469
16,1.55965381788e+18,-6.220325947,-9.984126091,3.093403101
17,1.55965381794e+18,-5.243461609,-9.775823593,3.747040033
18,1.55965381799e+18,-3.263396502,-10.04398251,4.929811954
19,1.55965381804e+18,-1.041509509,-9.148524284,7.304932594
20,1.55965381809e+18,-4.829252243,-6.385530949,3.897879362
21,1.55965381814e+18,-4.953754425,-6.984099388,3.196356773
22,1.5596538182e+18,-5.456552505,-8.250671387,4.132518291
23,1.55965381825e+18,-5.461340904,-6.952973843,4.422225475
24,1.5596538183e+18,-5.952167034,-4.781366825,3.086220264
25,1.55965381835e+18,-6.258634567,-3.835628271,3.459727049
26,1.5596538184e+18,-4.527573586,-1.944151163,4.122941017
27,1.55965381846e+18,-4.427014351,-2.075836182,5.561900616
28,1.55965381851e+18,1.750214934,-3.074248791,7.209161282
29,1.55965381856e+18,-4.692778587,-2.286532402,4.012804508
30,1.55965381861e+18,-7.348029613,-2.205127001,5.458946705
31,1.55965381866e+18,-15.47419834,-3.926610708,-1.194743156
32,1.55965381872e+18,-12.9458437,-5.470917702,-1.834014535
33,1.55965381877e+18,-8.430241585,-8.418270111,1.199531674
34,1.55965381882e+18,-16.00093842,-7.656890869,0.1005595401
35,1.55965381887e+18,-11.8301115,-8.272219658,3.340013266
36,1.55965381892e+18,-16.29782867,-10.11820507,5.150084972
37,1.55965381898e+18,-14.8971777,-9.974549294,5.456552505
38,1.55965381903e+18,-9.804554939,-5.27937603,3.220299721
39,1.55965381908e+18,-2.22667551,-2.399063349,3.380716085
40,1.55965381913e+18,-2.018373728,1.000806928,1.563461423
41,1.55965381918e+18,2.253012657,1.963305354,0.5842030644
42,1.55965381924e+18,5.284164429,4.067873001,-1.692752242
43,1.55965381929e+18,6.632141113,5.755836487,-2.868341208
44,1.55965381934e+18,7.039167881,4.163643837,-3.387898922
45,1.55965381939e+18,3.028757572,0.6967339516,11.03281784
46,1.55965381944e+18,-18.34493446,6.684815407,-12.14615631
47,1.5596538195e+18,10.31692982,-57.26865768,27.4072628
48,1.55965381955e+18,-16.05840111,-14.02087307,4.479688168
49,1.5596538196e+18,-3.079037428,-9.974549294,6.356799603
50,1.55965381965e+18,-4.221106529,-4.019987583,7.388731956
51,1.5596538197e+18,-1.613741279,-5.202759266,10.61621475
52,1.55965381976e+18,-3.091008663,-4.149278164,9.821314812
53,1.55965381981e+18,-4.197163582,-4.407859802,7.010436535
54,1.55965381986e+18,-1.951334,-8.497281075,5.652883053
55,1.55965381991e+18,-1.743032098,-8.789382935,6.40468502
56,1.55965381996e+18,-3.718308687,-8.964164734,5.763019562
57,1.55965382001e+18,-5.288952827,-8.351230621,5.933012962
58,1.55965382007e+18,-5.267404556,-7.364789486,6.134131908
59,1.55965382012e+18,-4.905869007,-7.012830734,6.282577038
60,1.55965382017e+18,-5.116565228,-6.352011204,6.12934351
61,1.55965382022e+18,-5.935407162,-6.332856655,6.428627968
62,1.55965382027e+18,-5.53316927,-5.442186832,6.749460697
63,1.55965382033e+18,-6.627352715,-5.552323341,6.900300026
64,1.55965382038e+18,-6.222720146,-3.866753817,7.46774292
65,1.55965382043e+18,-5.904281616,-2.382303476,7.642525196
66,1.55965382048e+18,-7.968146324,-2.327235222,8.973741531
67,1.55965382053e+18,-8.279402733,-0.7996878028,10.61382008
68,1.55965382059e+18,-6.395108223,1.192348838,9.847652435
69,1.55965382064e+18,-5.566689014,3.0119977,7.714353561
70,1.55965382069e+18,-2.260195494,5.255433083,5.815693378
71,1.55965382074e+18,-1.041509509,4.484476566,4.063084126
72,1.55965382079e+18,-2.437371731,2.241041183,2.940169573
73,1.55965382085e+18,-5.200365067,-1.582615614,2.482862949
74,1.5596538209e+18,-5.942590237,-4.582642078,3.445361376
75,1.55965382095e+18,-8.497281075,-7.518023014,1.63289547
76,1.559653821e+18,-3.150865555,6.172440529,13.45343018
77,1.55965382105e+18,-2.882706881,3.270579338,5.312895775
78,1.55965382111e+18,-12.81655312,5.909070015,10.04398251
79,1.55965382116e+18,-10.57072353,3.917033672,12.15333939
80,1.55965382121e+18,-4.38870573,4.000833035,16.75513458
81,1.55965382126e+18,-1.819648862,4.472505569,14.08073044
82,1.55965382131e+18,2.083019018,8.564320564,9.545973778
83,1.55965382137e+18,12.96260357,15.02407455,1.108549237
84,1.55965382142e+18,19.34813499,21.98423195,1.204320192
85,1.55965382147e+18,13.17569447,11.24351406,9.957788467
86,1.55965382152e+18,-7.14930439,-3.972101927,2.233858347
87,1.55965382157e+18,-8.238699913,-36.5414238,18.98659897
88,1.55965382163e+18,-18.07438087,-2.964112282,2.88510108
89,1.55965382168e+18,2.786935806,-0.3543526828,1.54909575
90,1.55965382173e+18,3.239453793,4.345608711,3.0096035
91,1.55965382178e+18,2.202732801,8.676852226,3.474092722
92,1.55965382183e+18,1.058269501,9.445414543,3.208328247
93,1.55965382189e+18,0.2513988614,8.672063828,2.102173328
94,1.55965382194e+18,0.009577099234,7.814912796,2.578634024
95,1.55965382199e+18,-0.8212362528,6.627352715,2.710319042
96,1.55965382204e+18,-2.576239586,3.057488918,4.383917332
97,1.55965382209e+18,-5.17402792,0.627300024,4.453351021
98,1.55965382215e+18,-6.251451492,-3.261002302,7.259441376
99,1.5596538222e+18,-4.597007751,-4.963331699,8.372778893
100,1.55965382225e+18,-4.630527496,-10.22355366,11.66730118
101,1.5596538223e+18,-5.889915943,-11.28182316,15.08393097
102,1.55965382235e+18,-8.652909279,-9.529213905,13.36484241
103,1.55965382241e+18,-5.525986195,-7.020013809,13.30977345
104,1.55965382246e+18,-5.45176363,-6.057515144,10.14454269
105,1.55965382251e+18,-5.523591995,-4.32406044,9.098244667
106,1.55965382256e+18,-6.502850533,-4.403071404,9.299363136
107,1.55965382261e+18,-5.676825523,-3.85957098,8.588263512
108,1.55965382267e+18,-5.631334305,-3.172414064,7.970541
109,1.55965382272e+18,-4.917840481,-2.528354168,7.642525196
110,1.55965382277e+18,-3.399870157,-0.8379961848,7.158881664
111,1.55965382282e+18,-4.383917332,1.31445682,7.393520832
112,1.55965382287e+18,-6.265817165,3.612960577,8.842057228
113,1.55965382293e+18,-7.297749519,5.832453251,9.519637108
114,1.55965382298e+18,-8.162082672,7.003253937,9.050358772
115,1.55965382303e+18,-5.329655647,6.215537548,6.143709183
116,1.55965382308e+18,-5.609786034,3.272973776,7.36239481
117,1.55965382313e+18,-3.603383541,0.5770202279,3.64887476
118,1.55965382319e+18,-4.098998547,-5.011217117,5.779779434
119,1.55965382324e+18,-15.02407455,-2.935380936,-30.70657349
120,1.55965382329e+18,9.239506721,2.602576733,12.02644253
121,1.55965382334e+18,11.35604572,3.905062199,2.332023621
122,1.55965382339e+18,6.670449734,1.216291547,5.588237286
123,1.55965382345e+18,2.961717844,1.805283189,7.922655106
124,1.5596538235e+18,-1.027143836,5.487678051,9.399923325
125,1.55965382355e+18,-15.07674885,8.487704277,7.659285069
126,1.5596538236e+18,-9.811738014,0.09577099234,19.36728859
127,1.55965382365e+18,-5.432609558,8.698400497,17.08315086
128,1.55965382371e+18,4.221106529,8.739103317,11.02084732
129,1.55965382376e+18,14.57873917,14.59549904,3.718308687
130,1.55965382381e+18,21.27073669,25.35297585,3.677606106
131,1.55965382386e+18,15.48616982,7.745479107,20.03529167
132,1.55965382391e+18,-12.69683933,2.154847383,-25.92520714
133,1.55965382397e+18,-8.971347809,-20.5141468,2.60736537
134,1.55965382402e+18,-13.97298813,-3.672817469,0.1819648892
135,1.55965382407e+18,5.042342663,-0.9792584181,-0.3567469418
136,1.55965382412e+18,4.010410309,3.486064196,0.22266756
137,1.55965382417e+18,5.456552505,9.919480324,0.1915419847
138,1.55965382423e+18,1.936968327,10.4797411,-1.101366401
139,1.55965382428e+18,2.707924843,8.05194664,-1.043903828
140,1.55965382433e+18,1.786128998,4.491659641,3.478881359
141,1.55965382438e+18,1.041509509,0.483643502,6.684815407
142,1.55965382443e+18,-4.0702672,-4.331243038,9.706390381
143,1.55965382449e+18,-2.48046875,-10.06553173,13.70722294
144,1.55965382454e+18,-2.58581686,-12.17009926,14.79901218
145,1.55965382459e+18,-4.575459003,-10.41749001,11.02563572
146,1.55965382464e+18,-6.282577038,-9.445414543,9.368797302
147,1.55965382469e+18,-8.253065109,-7.89152956,7.474925995
148,1.55965382475e+18,-6.411868095,-6.878751755,7.671256542
149,1.5596538248e+18,-6.560312748,-6.002447128,7.142121792
150,1.55965382485e+18,-6.732700825,-6.031178474,7.065505028
151,1.5596538249e+18,-6.227508545,-5.794145107,6.93621397
152,1.55965382495e+18,-6.747066498,-6.179623127,7.285778046
153,1.55965382501e+18,-6.239480019,-5.17163372,7.937020779
154,1.55965382506e+18,-7.762238979,-5.054314137,8.590658188
155,1.55965382511e+18,-6.186806202,-3.450150013,8.794171333
156,1.55965382516e+18,-6.61777544,-2.106961727,9.510059357
157,1.55965382521e+18,-3.691971779,-0.6656084061,11.58829021
158,1.55965382527e+18,-1.517970204,-0.5961744189,11.20999432
159,1.55965382532e+18,4.719115734,0.6584255695,13.34568787
160,1.55965382537e+18,3.421418667,3.553103924,8.109408379
161,1.55965382542e+18,2.18357873,5.782173634,6.761432171
162,1.55965382547e+18,-9.220352173,3.998438835,2.171607256
163,1.55965382552e+18,-16.68809509,-5.327261448,0.7757450342
164,1.55965382558e+18,-12.28741837,-10.38157558,9.811738014
165,1.55965382563e+18,-4.266597748,-0.8786988258,3.416630268
166,1.55965382568e+18,-32.23412323,-21.29228592,-43.46566391
167,1.55965382573e+18,8.231516838,14.08551884,-4.685595989
168,1.55965382578e+18,-0.02633702382,-0.9696813226,-1.623318315
169,1.55965382584e+18,-5.298530102,3.344801903,1.386285067
170,1.55965382589e+18,-5.944984436,2.58821106,5.102199554
171,1.55965382594e+18,-9.287391663,3.256213665,4.108575344
172,1.55965382599e+18,-12.07672215,-0.8236305118,4.637710094
173,1.55965382604e+18,-21.1151104,-3.272973776,4.132518291
174,1.5596538261e+18,-20.67456245,-8.353624344,9.739910126
175,1.55965382615e+18,-19.32419205,-7.860404015,10.69043732
176,1.5596538262e+18,-17.25314522,-8.039975166,9.450202942
177,1.55965382625e+18,-14.91393757,-7.410280704,7.343240738
178,1.5596538263e+18,-10.20200539,-4.474899769,6.756643295
179,1.55965382636e+18,-5.837242126,-1.628106833,2.99044919
180,1.55965382641e+18,-1.956122518,0.5578660369,1.853168726
181,1.55965382646e+18,0.8068706393,3.706337452,1.960911036
182,1.55965382651e+18,13.22597408,17.13343048,0.1436564922
183,1.55965382656e+18,16.98259163,26.4160347,-1.661626697
184,1.55965382662e+18,12.75430202,4.846012115,21.43354797
185,1.55965382667e+18,7.44140625,-77.85224152,-17.85889626
186,1.55965382672e+18,-29.39451218,-12.40952587,4.32406044
187,1.55965382677e+18,3.778165579,-5.887521744,-0.9194015265
188,1.55965382682e+18,4.300117493,3.37113905,-1.429382086
189,1.55965382688e+18,3.091008663,9.287391663,-1.110943556
190,1.55965382693e+18,3.474092722,11.88518047,-0.5435003638
191,1.55965382698e+18,4.048718929,11.95461369,-1.810071707
192,1.55965382703e+18,4.800520897,11.88996887,-1.733454943
193,1.55965382708e+18,5.193181992,7.683228016,1.132491946
194,1.55965382714e+18,3.323253393,6.040755272,5.820482254
195,1.55965382719e+18,3.615355015,2.413429022,8.3153162
196,1.55965382724e+18,0.2346389294,-2.071047783,9.821314812
197,1.55965382729e+18,-2.46131444,-5.640911579,9.201197624
198,1.55965382734e+18,-2.535537004,-7.834067345,9.646533012
199,1.5596538274e+18,-4.118152618,-9.524425507,11.56195259
200,1.55965382745e+18,-5.365570068,-9.739910126,9.641744614
201,1.5596538275e+18,-7.57309103,-10.36721039,8.140534401
202,1.55965382755e+18,-6.83086586,-7.86758709,5.925830364
203,1.5596538276e+18,-4.656864643,-5.777385235,5.569083214
204,1.55965382766e+18,-5.748653889,-5.691191196,6.026389599
205,1.55965382771e+18,-8.35601902,-7.472531796,6.203566074
206,1.55965382776e+18,-9.395133972,-8.6888237,5.856396198
207,1.55965382781e+18,-7.245075703,-7.343240738,5.636122704
208,1.55965382786e+18,-6.653689861,-5.777385235,5.257827282
209,1.55965382792e+18,-8.042368889,-4.802915096,5.427821159
210,1.55965382797e+18,-8.348835945,-5.095016956,8.102226257
211,1.55965382802e+18,-6.423839092,-3.713520288,8.60741806
212,1.55965382807e+18,-8.178842545,-2.413429022,8.080677032
213,1.55965382812e+18,-6.883540154,0.634482801,7.151699066
214,1.55965382818e+18,-6.423839092,1.838803053,6.237085819
215,1.55965382823e+18,-6.06230402,3.181991339,6.076669693
216,1.55965382828e+18,-7.201978683,4.400677204,4.992063046
217,1.55965382833e+18,-8.147717476,4.829252243,7.01522541
218,1.55965382838e+18,-6.917059898,8.353624344,5.77020216
219,1.55965382844e+18,-6.390319347,11.28900528,5.74386549
220,1.55965382849e+18,-6.900300026,11.33210278,7.762238979
221,1.55965382854e+18,-8.547560692,4.314483166,7.340846539
222,1.55965382859e+18,-6.500456333,-3.33043623,-0.09337671846
223,1.55965382864e+18,-12.39994907,-50.03316116,18.23719215
224,1.5596538287e+18,11.82053471,-4.166038036,-3.725491524
225,1.55965382875e+18,4.783761024,-1.687963724,0.4980091453
226,1.5596538288e+18,2.700742006,-2.839609861,5.38472414
227,1.55965382885e+18,-1.371919513,-2.633702278,2.185972929
228,1.5596538289e+18,-4.362368584,-6.352011204,5.358386993
229,1.55965382896e+18,-10.75268841,-5.628940105,4.613767624
230,1.55965382901e+18,-15.75432777,-7.000859737,5.772596359
231,1.55965382906e+18,-23.97626877,-15.45025539,11.07831001
232,1.55965382911e+18,-22.8725071,-7.577879906,9.859623909
233,1.55965382916e+18,-23.59557915,-6.16765213,11.17168617
234,1.55965382922e+18,-16.60668945,0.8020820618,6.759037971
235,1.55965382927e+18,-4.671230316,3.430995703,3.593806505
236,1.55965382932e+18,-0.5698373914,4.089421272,0.5123748183
237,1.55965382937e+18,2.90664959,6.289760113,0.6967339516
238,1.55965382942e+18,17.12145996,22.19492722,-0.59378016
239,1.55965382948e+18,21.01694489,22.49900055,0.4022381604
240,1.55965382953e+18,8.447001457,0.2681587934,26.26280022
241,1.55965382958e+18,27.07206535,-32.37538528,-7.139727592
242,1.55965382963e+18,-31.41767311,-8.643332481,8.770228386
243,1.55965382968e+18,5.997658253,-4.067873001,-1.879505754
244,1.55965382974e+18,4.49644804,3.770982742,1.9944309
245,1.55965382979e+18,5.885127544,8.58108139,-0.3974496126
246,1.55965382984e+18,2.303292274,9.771035194,-0.3687183261
247,1.55965382989e+18,0.9337671995,9.368797302,2.207521439
248,1.55965382994e+18,0.7302538157,6.567495823,4.482082367
249,1.55965383e+18,-3.261002302,3.998438835,6.325674057
250,1.55965383005e+18,-5.458946705,-1.829225898,10.73592854
251,1.5596538301e+18,-4.865166187,-3.0119977,11.44463348
252,1.55965383015e+18,-5.674431324,-4.702355862,12.02165413
253,1.5596538302e+18,-7.889135361,-4.927417755,10.92028713
254,1.55965383026e+18,-9.680052757,-4.522785187,9.900326729
255,1.55965383031e+18,-8.420664787,-3.727885962,8.38235569
256,1.55965383036e+18,-7.23071003,-3.445361376,7.869981289
257,1.55965383041e+18,-7.913078308,-3.603383541,7.079870701
258,1.55965383046e+18,-8.830085754,-3.316070557,6.076669693
259,1.55965383052e+18,-8.684034348,-3.749434233,5.854001999
260,1.55965383057e+18,-8.454184532,-4.319271564,5.691191196
261,1.55965383062e+18,-7.838855743,-4.716721535,5.751048088
262,1.55965383067e+18,-6.438204765,-4.300117493,5.734288216
263,1.55965383072e+18,-6.395108223,-3.557892323,6.974522591
264,1.55965383078e+18,-8.882759094,-3.035940409,9.35203743
265,1.55965383083e+18,-8.243488312,-3.876330853,11.65772438
266,1.55965383088e+18,-6.48609066,-0.943344295,11.60026169
267,1.55965383093e+18,-4.687990189,0.6440598965,10.61382008
268,1.55965383098e+18,-3.864359617,1.661626697,8.923461914
269,1.55965383104e+18,-3.165231228,3.361561775,8.442213058
270,1.55965383109e+18,-1.97288239,5.523591995,5.652883053
271,1.55965383114e+18,-1.956122518,3.395081758,6.878751755
272,1.55965383119e+18,-2.001613855,4.379128456,2.830032825
273,1.55965383124e+18,-1.216291547,2.032739401,1.733454943
274,1.5596538313e+18,-2.200338602,-5.695979595,4.259414673
275,1.55965383135e+18,-2.842004299,-8.425453186,3.074248791
276,1.5596538314e+18,-0.316044271,13.6114521,15.19167328
277,1.55965383145e+18,9.69681263,10.9945097,-3.914639235
278,1.5596538315e+18,5.456552505,1.127703428,9.687235832
279,1.55965383156e+18,-1.788523316,-3.002420664,8.480521202
280,1.55965383161e+18,-16.90118599,-14.81816673,1.905842781
281,1.55965383166e+18,-20.61949539,-14.72478962,6.924242973
282,1.55965383171e+18,-13.62581825,-12.28502369,15.80700207
283,1.55965383176e+18,-18.19648933,-7.86758709,12.01447105
284,1.55965383182e+18,-15.03843975,-8.645726204,8.609811783
285,1.55965383187e+18,-12.09108734,-5.267404556,5.700768471
286,1.55965383192e+18,-3.263396502,-0.9217957854,3.351984739
287,1.55965383197e+18,1.048692346,2.695953369,1.738243461
288,1.55965383202e+18,3.672817469,4.999245644,-0.3759011328
289,1.55965383208e+18,4.630527496,7.910684109,-0.2178790122
290,1.55965383213e+18,2.827638626,6.316096783,1.539518714
291,1.55965383218e+18,2.576239586,-1.063058019,13.66652107
292,1.55965383223e+18,-18.08635139,3.079037428,-19.49897385
293,1.55965383228e+18,11.33928585,-24.90524673,15.05041122
294,1.55965383234e+18,-9.756669998,-9.411893845,2.853975534
295,1.55965383239e+18,-0.14844504,-5.930618763,11.02324104
296,1.55965383244e+18,-3.067065954,-2.90664959,7.790970325
297,1.55965383249e+18,-4.364762783,-5.140508175,9.675264359
298,1.55965383254e+18,-5.504437923,-5.236279011,11.10943508
299,1.5596538326e+18,-5.502043724,-6.265817165,11.35365105
300,1.55965383265e+18,-5.880339146,-6.026389599,9.701601982
301,1.5596538327e+18,-6.352011204,-5.300924301,8.413481712
302,1.55965383275e+18,-5.418243885,-4.348002911,7.496474266
303,1.5596538328e+18,-6.402290821,-4.968120098,6.775797844
304,1.55965383286e+18,-7.738296032,-6.134131908,6.107795238
305,1.55965383291e+18,-5.954561234,-5.717528343,5.535563469
306,1.55965383296e+18,-5.70316267,-6.419050694,5.906675816
307,1.55965383301e+18,-4.898686409,-6.045543671,5.506832123
308,1.55965383306e+18,-4.977697372,-6.232297421,5.645699978
309,1.55965383312e+18,-4.498842239,-5.865973473,5.360781193
310,1.55965383317e+18,-4.209135056,-5.865973473,5.468523502
311,1.55965383322e+18,-4.211529255,-5.87555027,5.830059052
312,1.55965383327e+18,-4.017592907,-5.367964268,5.547534943
313,1.55965383332e+18,-4.790944099,-5.686402798,5.777385235
314,1.55965383338e+18,-5.032765865,-5.456552505,5.569083214
315,1.55965383343e+18,-5.379935265,-5.763019562,5.719922543
316,1.55965383348e+18,-5.245856285,-5.798933506,6.002447128
317,1.55965383353e+18,-5.209941864,-5.643305779,5.837242126
318,1.55965383358e+18,-5.631334305,-5.566689014,5.741470814
319,1.55965383364e+18,-6.320885658,-5.24106741,5.38711834
320,1.55965383369e+18,-7.319298267,-5.183605194,5.32007885
321,1.55965383374e+18,-6.198777676,-4.649681568,5.748653889
322,1.55965383379e+18,-6.80452919,-4.932206154,5.858790398
323,1.55965383384e+18,-6.850020409,-4.898686409,6.076669693
324,1.55965383389e+18,-8.142929077,-4.999245644,6.000052452
325,1.55965383395e+18,-5.700768471,-2.152452946,3.426207304
326,1.559653834e+18,-7.704776287,-4.66883564,11.59068394
327,1.55965383405e+18,-5.569083214,-7.802941799,2.899466753
328,1.5596538341e+18,-4.288146019,-7.417463303,-0.4237866402
329,1.55965383415e+18,-3.830839634,-5.66245985,1.965699673
330,1.55965383421e+18,-5.166844845,-3.780560017,2.365543604
331,1.55965383426e+18,-9.790189743,-3.651269197,4.336031914
332,1.55965383431e+18,-9.488511086,-4.348002911,6.373559475
333,1.55965383436e+18,-8.961771011,-3.004814863,5.193181992
334,1.55965383441e+18,-8.293767929,-5.154873848,6.12934351
335,1.55965383447e+18,-14.59549904,-9.634561539,7.829278469
336,1.55965383452e+18,-11.34167957,-7.012830734,3.323253393
337,1.55965383457e+18,-10.37199879,-11.18844604,7.127756119
338,1.55965383462e+18,-9.349642754,-1.553884387,0.9385557175
339,1.55965383467e+18,15.34251308,-5.937801361,8.763046265
340,1.55965383473e+18,-12.46938324,8.655303001,5.425426483
341,1.55965383478e+18,-1.750214934,4.992063046,4.580247879
342,1.55965383483e+18,-2.444554567,2.849187136,5.741470814
343,1.55965383488e+18,-10.45100975,-2.406246185,8.449396133
344,1.55965383493e+18,-25.39846802,-7.304932594,5.389512539
345,1.55965383499e+18,-14.19326115,-6.993676662,12.78782177
346,1.55965383504e+18,-10.85085297,-1.118126392,10.41509533
347,1.55965383509e+18,-3.632114887,0.3878725171,5.506832123
348,1.55965383514e+18,2.530748367,3.466909885,1.221080184
349,1.55965383519e+18,13.05119228,8.514040947,-0.5746259689
350,1.55965383525e+18,19.8054409,27.22769356,-4.21631813
351,1.5596538353e+18,7.563514233,8.449396133,13.85087967
352,1.55965383535e+18,-12.74711895,-7.99687767,-18.85251999
353,1.5596538354e+18,-0.5267404318,-26.09998894,1.826831698
354,1.55965383545e+18,-20.24359322,1.185166001,2.473285913
355,1.55965383551e+18,1.771763325,0.9984126091,-3.074248791
356,1.55965383556e+18,2.616942406,6.253845692,1.795706153
357,1.55965383561e+18,1.613741279,8.15968895,1.786128998
358,1.55965383566e+18,-0.1292908341,6.038361073,2.564268351
359,1.55965383571e+18,-0.928978622,4.271386147,2.832427025
360,1.55965383577e+18,-0.5985686779,0.3687183261,4.158855438
361,1.55965383582e+18,0.184359163,-1.853168726,7.846038342
362,1.55965383587e+18,-1.953728199,-5.190787792,9.124581337
363,1.55965383592e+18,-4.355185986,-9.917086601,11.96179676
364,1.55965383597e+18,-0.03112557158,-10.73353386,11.97376823
365,1.55965383603e+18,-2.166818619,-12.96499825,13.61863518
366,1.55965383608e+18,-2.011190891,-11.01605797,9.593858719
367,1.55965383613e+18,-2.918621063,-9.749486923,7.058321953
368,1.55965383618e+18,-2.664827824,-10.02722263,6.854808807
369,1.55965383623e+18,-3.000026226,-10.09905148,5.973715782
370,1.55965383629e+18,-2.039922237,-9.955394745,4.936994553
371,1.55965383634e+18,-1.896265626,-10.28101635,5.286558628
372,1.55965383639e+18,-1.352765322,-10.02961731,4.795732498
373,1.55965383644e+18,-0.5482889414,-10.35284424,4.726298332
374,1.55965383649e+18,-0.8140534163,-10.94423008,4.063084126
375,1.55965383655e+18,-0.9696813226,-10.82691097,3.342407703
376,1.5596538366e+18,-1.845985889,-10.2618618,2.705530643
377,1.55965383665e+18,-2.614548206,-9.921875,2.490045786
378,1.5596538367e+18,-3.423812866,-8.415876389,5.269798756
379,1.55965383675e+18,-6.97691679,-6.225114346,7.637736797
380,1.55965383681e+18,-11.8684206,-7.642525196,7.558725357
381,1.55965383686e+18,-7.374366283,-4.17800951,10.24989033
382,1.55965383691e+18,-7.450983047,-2.434977531,6.814105988
383,1.55965383696e+18,-2.614548206,0.8092648983,7.108602047
384,1.55965383701e+18,0.3759011328,3.567469358,2.786935806
385,1.55965383707e+18,0.9002473354,-0.6823683381,4.225894928
386,1.55965383712e+18,-2.16203022,-2.734261751,1.640078187
387,1.55965383717e+18,-5.518803596,-10.88437366,0.167599231
388,1.55965383722e+18,-6.981705189,-10.25946712,-3.438178539
389,1.55965383727e+18,17.79664421,-3.909850836,6.818894863
390,1.55965383733e+18,-18.01691818,5.458946705,4.331243038
391,1.55965383738e+18,-1.65444386,-8.236305237,6.131737709
392,1.55965383743e+18,-13.52286434,-11.55955887,3.423812866
393,1.55965383748e+18,-19.19011307,-12.53163433,7.496474266
394,1.55965383753e+18,-16.67372894,-9.304151535,8.99289608
395,1.55965383759e+18,-16.88681984,-9.433443069,8.339259148
396,1.55965383764e+18,-12.73275375,-9.912297249,8.391933441
397,1.55965383769e+18,-12.43346882,-7.877163887,6.016812801
398,1.55965383774e+18,-7.987300873,-4.903474808,3.510006905
399,1.55965383779e+18,-3.280156374,-0.8834874034,0.5363175869
400,1.55965383785e+18,-1.714300752,0.08858817071,2.411034822
401,1.5596538379e+18,1.599375606,2.542719841,1.132491946
402,1.55965383795e+18,12.79261017,13.86285114,0.8523618579
403,1.559653838e+18,26.00421906,26.55729675,3.438178539
404,1.55965383805e+18,10.00327969,7.33366394,18.49577332
405,1.55965383811e+18,11.78701496,-16.42951393,-15.5579977
406,1.55965383816e+18,-26.76080894,-10.4797411,14.72957897
407,1.55965383821e+18,2.853975534,-4.582642078,-5.839636326
408,1.55965383826e+18,3.589017868,3.450150013,1.094183564
409,1.55965383831e+18,2.834821463,7.589851379,-3.438178539
410,1.55965383837e+18,3.22269392,9.009655952,-0.2130904645
411,1.55965383842e+18,1.790917516,8.578686714,1.273754239
412,1.55965383847e+18,2.097384691,4.115758419,1.520364523
413,1.55965383852e+18,-0.7494080067,-2.104567528,4.999245644
414,1.55965383857e+18,-4.424619675,-7.498868465,12.7183876
415,1.55965383863e+18,-21.02412796,-16.43669701,16.43190765
416,1.55965383868e+18,-23.32023621,-8.933039665,21.56044388
417,1.55965383873e+18,-12.60825157,-2.087807655,20.21246719
418,1.55965383878e+18,-11.99292278,-3.387898922,12.68965626
419,1.55965383883e+18,-7.264229774,-3.311282158,4.041535854
420,1.55965383889e+18,-2.782147408,-1.826831698,2.887495518
421,1.55965383894e+18,1.510787368,4.189980984,2.50201726
422,1.55965383899e+18,6.182017326,9.668081284,2.844398499
423,1.55965383904e+18,12.64895344,9.478934288,3.466909885
424,1.55965383909e+18,6.885934353,4.525179386,4.036747456
425,1.55965383915e+18,10.92747021,-0.2873129845,2.147664547
426,1.5596538392e+18,1.206714511,-1.472478986,-7.130150318
427,1.55965383925e+18,-3.419024467,-0.06703969836,-1.757397652
428,1.5596538393e+18,-1.376708031,0.8763045669,-0.5865973234
429,1.55965383935e+18,-0.7877163887,1.704723716,1.16601181
430,1.55965383941e+18,0.8212362528,3.37113905,3.581835032
431,1.55965383946e+18,2.229069948,5.758230686,4.917840481
432,1.55965383951e+18,1.910631299,6.969734192,7.82688427
433,1.55965383956e+18,-2.075836182,6.574678421,12.68726254
434,1.55965383961e+18,-6.960156918,5.080651283,15.32335854
435,1.55965383967e+18,-7.324086666,7.580274105,15.75432777
436,1.55965383972e+18,-8.087860107,7.087053299,15.0623827
437,1.55965383977e+18,-12.38079548,3.11734581,12.68965626
438,1.55965383982e+18,-7.412674904,5.260221958,10.16848469
439,1.55965383987e+18,-7.118178844,0.6751855016,7.012830734
440,1.55965383993e+18,-3.873936653,-0.8978530765,0.5123748183
441,1.55965383998e+18,2.705530643,-5.976109982,-6.356799603
442,1.55965384003e+18,-10.55635738,21.67776489,7.173247337
443,1.55965384008e+18,0.3375927508,10.46537495,3.811685562
444,1.55965384013e+18,-5.777385235,5.540351868,12.53881741
445,1.55965384019e+18,-8.008849144,5.509226322,5.712739468
446,1.55965384024e+18,-7.376760483,2.911438227,2.887495518
447,1.55965384029e+18,-13.59708691,-0.5004034638,-1.101366401
448,1.55965384034e+18,-13.23794556,-9.512454033,7.568302631
449,1.55965384039e+18,-19.60671616,-11.55955887,7.965752125
450,1.55965384045e+18,-16.21881676,-10.4797411,6.347222328
451,1.5596538405e+18,-7.881952763,-10.13017654,11.90194035
452,1.55965384055e+18,-10.13257122,-3.876330853,7.616188049
453,1.5596538406e+18,-1.747820616,0.07661679387,5.921041489
454,1.55965384065e+18,8.571503639,6.689603806,4.197163582
455,1.55965384071e+18,21.9698658,25.81507111,4.000833035
456,1.55965384076e+18,11.85166073,15.57954597,3.126922846
457,1.55965384081e+18,-4.585036278,-15.28265572,47.55747986
458,1.55965384086e+18,0.8140534163,-57.49132538,17.04244804
459,1.55965384091e+18,-15.90756226,-6.105400562,2.853975534
460,1.55965384097e+18,0.4070267081,-5.70555687,-1.685569525
461,1.55965384102e+18,5.755836487,2.497228622,-1.491633177
462,1.55965384107e+18,3.770982742,8.609811783,1.022355318
463,1.55965384112e+18,4.656864643,11.73912907,3.359167576
464,1.55965384117e+18,5.791750908,7.237892628,2.681587696
465,1.55965384123e+18,3.131711483,5.193181992,4.958543301
466,1.55965384128e+18,-1.35755384,-1.44135344,9.897932053
467,1.55965384133e+18,-6.529187202,-5.930618763,10.31692982
468,1.55965384138e+18,1.213897347,-9.811738014,14.86605263
469,1.55965384143e+18,-3.325647593,-11.37519932,15.49574661
470,1.55965384149e+18,-5.59781456,-6.933819771,9.27063179
471,1.55965384154e+18,-5.435003757,-6.050332546,8.660092354
472,1.55965384159e+18,-3.833234072,-4.082238674,7.180429935
473,1.55965384164e+18,-4.66883564,-4.400677204,7.027196407
474,1.55965384169e+18,-5.236279011,-5.480494976,7.477320194
475,1.55965384175e+18,-5.765413761,-6.627352715,7.707170486
476,1.5596538418e+18,-4.695172787,-6.701575279,7.364789486
477,1.55965384185e+18,-4.829252243,-6.919454098,7.158881664
478,1.5596538419e+18,-4.77418375,-6.732700825,6.890722752
479,1.55965384195e+18,-5.561900616,-6.787769318,7.048745155
480,1.55965384201e+18,-5.791750908,-5.626545906,6.883540154
481,1.55965384206e+18,-6.000052452,-4.802915096,7.012830734
482,1.55965384211e+18,-4.630527496,-3.354378939,7.106207848
483,1.55965384216e+18,-4.381523132,-2.930592299,7.628159523
484,1.55965384221e+18,-4.838829517,-2.592999697,7.54914856
485,1.55965384227e+18,-5.485283375,-1.290514112,7.252258301
486,1.55965384232e+18,-5.619362831,-0.102953814,8.083071709
487,1.55965384237e+18,-7.422251701,0.8523618579,9.476539612
488,1.55965384242e+18,-7.529994488,2.360754967,10.43424988
489,1.55965384247e+18,-7.927443981,3.023969173,9.905115128
490,1.55965384252e+18,-2.734261751,4.264203548,8.569109917
491,1.55965384258e+18,-1.151646137,4.383917332,5.456552505
492,1.55965384263e+18,-1.029538155,1.644866824,4.297723293
493,1.55965384268e+18,-0.8451790214,-1.709512234,3.663240433
494,1.55965384273e+18,-2.858764172,-6.38074255,3.189173937
495,1.55965384278e+18,-47.45931625,-74.24645996,69.60635376
496,1.55965384284e+18,0.59378016,23.41840172,-9.407105446
497,1.55965384289e+18,7.975329399,-3.952947617,10.75747681
498,1.55965384294e+18,-6.768614769,6.687209606,5.765413761
499,1.55965384299e+18,-12.84288979,-6.215537548,5.185999393
500,1.55965384304e+18,-19.20208359,-12.06235695,6.186806202
501,1.5596538431e+18,-20.98821259,-10.72874546,10.31692982
502,1.55965384315e+18,-15.74714565,-7.707170486,10.14933109
503,1.5596538432e+18,-10.35284424,-5.849213123,10.09426212
504,1.55965384325e+18,-4.508419514,-1.259388566,8.976136208
505,1.5596538433e+18,0.3615354896,2.48046875,5.267404556
506,1.55965384336e+18,7.9729352,9.110215187,2.954535007
507,1.55965384341e+18,13.3241396,22.21887016,5.521197796
508,1.55965384346e+18,11.02324104,13.72398281,7.726325035
509,1.55965384351e+18,-14.37283134,-6.043149471,24.96510315
510,1.55965384356e+18,-13.4414587,-43.15680313,18.18930626
511,1.55965384362e+18,-15.35927296,-5.904281616,2.059076309
512,1.55965384367e+18,9.251478195,-0.8954587579,-2.286532402
513,1.55965384372e+18,3.998438835,5.250644684,1.419804931
514,1.55965384377e+18,3.696760416,9.847652435,1.472478986
515,1.55965384382e+18,5.391906738,11.08549213,3.830839634
516,1.55965384388e+18,4.817280769,8.123774529,6.905088425
517,1.55965384393e+18,0.668002665,5.365570068,7.673650742
518,1.55965384398e+18,-2.1213274,3.246636629,8.406298637
519,1.55965384403e+18,-3.56268096,2.236252785,8.696005821
520,1.55965384408e+18,-6.292154312,0.1221080124,8.968953133
521,1.55965384414e+18,-7.848433018,0.2466102988,8.260248184
522,1.55965384419e+18,-6.158074856,0.06703969836,8.260248184
523,1.55965384424e+18,-5.34402132,-0.6392713785,8.116591454
524,1.55965384429e+18,-3.160442829,-1.031932473,6.337645531
525,1.55965384434e+18,-5.439792156,-2.99044919,7.314509392
526,1.5596538444e+18,-3.493247032,-3.397475958,7.194795609
527,1.55965384445e+18,-4.398283005,-6.59143877,9.981731415
528,1.5596538445e+18,-0.5435003638,-6.866780281,10.43424988
529,1.55965384455e+18,-0.8164477348,-8.432636261,10.45340347
530,1.5596538446e+18,-1.034326673,-6.495667458,8.150111198
531,1.55965384466e+18,-1.786128998,-6.138920784,8.116591454
532,1.55965384471e+18,-2.590605259,-5.401484013,7.908289909
533,1.55965384476e+18,-3.883513689,-5.842030525,8.087860107
534,1.55965384481e+18,-4.055901527,-6.691998005,8.425453186
535,1.55965384486e+18,-4.21631813,-5.830059052,8.518829346
536,1.55965384492e+18,-6.095823765,-5.652883053,9.41907692
537,1.55965384497e+18,-7.039167881,-4.795732498,11.27224541
538,1.55965384502e+18,-8.188420296,-4.618556023,12.203619
539,1.55965384507e+18,-6.488484859,-4.43180275,14.48296833
540,1.55965384512e+18,-3.569863796,-2.581028223,14.32255173
541,1.55965384518e+18,-0.5698373914,-2.892283916,14.60986519
542,1.55965384523e+18,8.016032219,2.322446585,8.549955368
543,1.55965384528e+18,7.33605814,4.187586784,4.257020473
544,1.55965384533e+18,0.5123748183,-5.681613922,-0.6919454336
545,1.55965384538e+18,-3.11734581,-5.255433083,-3.395081758
546,1.55965384544e+18,-8.631361008,-6.031178474,-0.0837996155
547,1.55965384549e+18,-5.372752666,-7.453377247,2.085413456
548,1.55965384554e+18,-11.07831001,-6.004841328,4.968120098
549,1.55965384559e+18,-2.947352171,5.008822918,-18.41197395
550,1.55965384564e+18,-18.43112755,-7.829278469,-20.27711296
551,1.5596538457e+18,-8.906702042,-2.296109438,-14.09749031
552,1.55965384575e+18,18.47901344,-14.50212288,22.08479118
553,1.5596538458e+18,-9.833286285,-3.383110285,8.372778893
554,1.55965384585e+18,-15.5627861,-2.217098475,-1.321639657
555,1.5596538459e+18,-14.36085987,-9.28499794,1.175588965
556,1.55965384596e+18,-15.27307892,-7.237892628,-0.1580221355
557,1.55965384601e+18,-13.07513428,-6.59143877,0.2322446555
558,1.55965384606e+18,-10.0487709,-7.659285069,2.387091875
559,1.55965384611e+18,-9.845257759,-7.503657341,3.000026226
560,1.55965384616e+18,-10.1014452,-9.778218269,1.551490068
561,1.55965384622e+18,-12.08390522,-8.3153162,0.03830839694
562,1.55965384627e+18,-14.06636429,-9.476539612,-2.135693073
563,1.55965384632e+18,-10.44382668,-9.361614227,2.966506481
564,1.55965384637e+18,-7.29535532,-5.66485405,3.177202702
565,1.55965384642e+18,-6.170046329,-1.841197371,3.380716085
566,1.55965384648e+18,0.03351984918,2.154847383,2.322446585
567,1.55965384653e+18,4.264203548,5.62175703,0.1771763414
568,1.55965384658e+18,10.75029373,12.51247978,-0.9912297726
569,1.55965384663e+18,8.978530884,8.830085754,-9.354432106
570,1.55965384668e+18,-0.9170072675,-5.470917702,17.77509689
571,1.55965384674e+18,4.108575344,-17.75354767,-23.83979416
572,1.55965384679e+18,-11.19802284,-25.34818649,1.465296149
573,1.55965384684e+18,-9.902720451,-6.759037971,4.819674969
574,1.55965384689e+18,3.0096035,-5.38472414,6.993676662
575,1.55965384694e+18,1.285725594,0.05267404765,8.904308319
576,1.559653847e+18,-2.892283916,-5.176422119,10.06313705
577,1.55965384705e+18,-7.640130997,-4.869955063,11.43026829
578,1.5596538471e+18,-9.064723969,-7.407886028,10.61142635
579,1.55965384715e+18,-7.029590607,-5.315289974,8.949799538
580,1.5596538472e+18,-5.549929142,-4.941783428,7.790970325
581,1.55965384726e+18,-6.668055534,-4.910657406,6.057515144
582,1.55965384731e+18,-5.80851078,-5.470917702,5.87555027
583,1.55965384736e+18,-5.293741703,-5.822876453,5.121353626
584,1.55965384741e+18,-4.326454639,-5.830059052,5.02558279
585,1.55965384746e+18,-4.170826912,-5.973715782,4.860377789
586,1.55965384752e+18,-4.434196949,-6.138920784,4.580247879
587,1.55965384757e+18,-4.304905891,-6.627352715,5.123748302
588,1.55965384762e+18,-3.766194344,-6.045543671,5.004034519
589,1.55965384767e+18,-3.543526649,-5.98089838,5.32007885
590,1.55965384772e+18,-3.699154615,-5.873156071,5.34641552
591,1.55965384778e+18,-4.278569221,-6.44778204,5.717528343
592,1.55965384783e+18,-3.64887476,-6.256239891,5.571477413
593,1.55965384788e+18,-2.513988495,-6.110189438,5.310501575
594,1.55965384793e+18,-2.466103077,-7.276201248,6.48609066
595,1.55965384798e+18,-1.97288239,-8.018425941,7.527599812
596,1.55965384804e+18,-2.171607256,-8.406298637,7.424646378
597,1.55965384809e+18,-2.051893473,-7.728719234,6.205960274
598,1.55965384814e+18,-2.782147408,-7.36239481,6.184412003
599,1.55965384819e+18,-3.620143414,-7.118178844,6.136526108
600,1.55965384824e+18,-3.73267436,-6.950579643,5.901887417
601,1.5596538483e+18,-3.110162973,-7.22831583,5.918647289
602,1.55965384835e+18,-3.150865555,-7.568302631,6.23469162
603,1.5596538484e+18,-3.122134447,-7.40070343,5.909070015
604,1.55965384845e+18,-3.366350412,-7.805335999,5.842030525
605,1.5596538485e+18,-4.422225475,-8.293767929,6.426233768
606,1.55965384855e+18,-5.882733345,-8.248276711,8.470944405
607,1.55965384861e+18,-7.391126156,-6.873962879,9.627379417
608,1.55965384866e+18,-7.874769688,-6.514821529,10.8149395
609,1.55965384871e+18,-6.988888264,-3.459727049,10.40791225
610,1.55965384876e+18,-8.609811783,-0.7134938836,7.558725357
611,1.55965384881e+18,-6.730306625,1.948939681,4.082238674
612,1.55965384887e+18,-3.351984739,2.521171331,3.486064196
613,1.55965384892e+18,-4.539545059,-2.432583094,4.42940855
614,1.55965384897e+18,-5.640911579,-4.048718929,3.268185139
615,1.55965384902e+18,-2.561874151,-4.096604347,3.016786337
616,1.55965384907e+18,-1.862745762,-4.659258842,3.383110285
617,1.55965384913e+18,0.2585816681,-2.549902678,4.017592907
618,1.55965384918e+18,1.467690468,0.6536370516,4.587430477
619,1.55965384923e+18,0.6608198285,1.975276709,5.38472414
620,1.55965384928e+18,-1.977671027,-4.082238674,8.066311836
621,1.55965384933e+18,-6.462147713,-9.035993576,7.984906673
622,1.55965384939e+18,-11.93546009,-13.1110487,7.031985283
623,1.55965384944e+18,-10.14693642,-9.39274025,7.271412373
624,1.55965384949e+18,-12.64655972,-9.557945251,4.139701366
625,1.55965384954e+18,-10.90592194,-10.61621475,6.359193802
626,1.55965384959e+18,-9.17725563,-9.615407944,1.939362645
627,1.55965384965e+18,-9.766246796,-13.63300037,-1.412622094
628,1.5596538497e+18,-13.1062603,-19.83656693,3.292127848
629,1.55965384975e+18,-7.417463303,-14.18368435,9.402317047
630,1.5596538498e+18,-4.474899769,-4.834040642,8.38235569
631,1.55965384985e+18,0.7637736797,0.02633702382,-2.624125242
632,1.55965384991e+18,-2.525959969,-3.261002302,1.733454943
633,1.55965384996e+18,-11.95940304,-0.2753416002,3.553103924
634,1.55965385001e+18,-8.107014656,2.77975297,4.726298332
635,1.55965385006e+18,3.656057596,0.6584255695,7.831672668
636,1.55965385011e+18,-2.008796453,4.867560863,6.057515144
637,1.55965385017e+18,4.611373425,7.33366394,3.198751211
638,1.55965385022e+18,7.154093266,10.252285,0.6991282701
639,1.55965385027e+18,7.89152956,12.02165413,-1.939362645
640,1.55965385032e+18,5.06867981,3.876330853,7.273807049
641,1.55965385037e+18,-15.20603943,-7.565908432,11.32252598
642,1.55965385043e+18,21.11032104,-45.55586624,28.00822639
643,1.55965385048e+18,-16.44866753,-12.79739857,1.46290195
644,1.55965385053e+18,1.532335877,-5.928224564,5.327261448
645,1.55965385058e+18,-0.6177229285,-2.432583094,7.307326794
646,1.55965385063e+18,-0.9122186899,-2.77735877,9.198803902
647,1.55965385069e+18,-7.348029613,-5.38472414,10.0918684
648,1.55965385074e+18,-6.375953674,-3.96491909,9.605830193
649,1.55965385079e+18,-7.529994488,-6.103006363,9.318517685
650,1.55965385084e+18,-5.944984436,-4.00562191,7.079870701
651,1.55965385089e+18,-6.246663094,-4.948966026,7.103813171
652,1.55965385095e+18,-5.91625309,-5.17402792,6.028783798
653,1.559653851e+18,-4.968120098,-5.001639843,5.202759266
654,1.55965385105e+18,-5.200365067,-5.724710941,5.38711834
655,1.5596538511e+18,-5.229096413,-6.174834728,5.502043724
656,1.55965385115e+18,-4.230683804,-5.736682415,5.257827282
657,1.55965385121e+18,-3.505218267,-5.559505939,5.154873848
658,1.55965385126e+18,-4.395888329,-6.272999763,5.514014721
659,1.55965385131e+18,-4.319271564,-6.433416367,5.818087578
660,1.55965385136e+18,-4.240260601,-6.261028767,5.616968632
661,1.55965385141e+18,-4.058295727,-5.763019562,5.456552505
662,1.55965385147e+18,-3.861965179,-5.537957668,5.444581032
663,1.55965385152e+18,-3.524372578,-5.351204395,4.958543301
664,1.55965385157e+18,-2.753416061,-5.91625309,5.255433083
665,1.55965385162e+18,-2.988054991,-7.896318436,6.881145954
666,1.55965385167e+18,-1.934574008,-8.300951004,7.125361919
667,1.55965385173e+18,-0.6823683381,-8.365595818,7.376760483
668,1.55965385178e+18,-0.967287004,-8.291373253,6.931425571
669,1.55965385183e+18,-1.769369125,-8.178842545,6.304125786
670,1.55965385188e+18,-2.411034822,-7.910684109,6.342433929
671,1.55965385193e+18,-2.657644987,-7.501263142,6.505244732
672,1.55965385199e+18,-2.437371731,-7.453377247,6.62016964
673,1.55965385204e+18,-2.250618219,-7.561120033,6.502850533
674,1.55965385209e+18,-2.063864946,-7.711959362,6.672843933
675,1.55965385214e+18,-2.688770533,-7.886741161,6.847625732
676,1.55965385219e+18,-3.940976381,-7.54914856,7.079870701
677,1.55965385225e+18,-5.396695614,-7.450983047,7.280989647
678,1.5596538523e+18,-3.756617069,-5.806116581,7.661679268
679,1.55965385235e+18,-3.612960577,-4.520390987,5.964138508
680,1.5596538524e+18,-2.219492674,-4.489265442,6.064698219
681,1.55965385245e+18,-2.782147408,-6.644112587,5.001639843
682,1.55965385251e+18,-2.657644987,-5.377541065,1.970488191
683,1.55965385256e+18,-3.232270956,-4.371945858,1.46290195
684,1.55965385261e+18,-6.72312355,-4.187586784,3.43578434
685,1.55965385266e+18,-9.912297249,-5.504437923,4.817280769
686,1.55965385271e+18,-11.02802944,-5.894704342,8.997684479
687,1.55965385277e+18,-12.79261017,-6.677632332,9.055147171
688,1.55965385282e+18,-10.75508213,-5.650488377,12.19643593
689,1.55965385287e+18,-2.849187136,-2.298503876,12.98654652
690,1.55965385292e+18,0.4692778587,-0.7733507752,8.073494911
691,1.55965385297e+18,-6.531581879,-6.093429565,4.28335762
692,1.55965385303e+18,-12.23474407,-8.470944405,-0.5746259689
693,1.55965385308e+18,-14.20762634,-4.462928295,-2.746233225
694,1.55965385313e+18,10.66409969,-6.064698219,6.838048935
695,1.55965385318e+18,-10.87000751,8.516435623,0.5027977228
696,1.55965385323e+18,0.9194015265,3.940976381,1.146857619
697,1.55965385329e+18,-5.470917702,-0.07661679387,1.134886265
698,1.55965385334e+18,-8.296162605,-3.148471355,2.928198099
699,1.55965385339e+18,-17.54045677,-8.384750366,0.9026415944
700,1.55965385344e+18,-17.16934395,-11.19562912,7.19000721
701,1.55965385349e+18,-14.76788712,-8.066311836,10.19242764
702,1.55965385355e+18,-16.9897747,-6.282577038,7.182824612
703,1.5596538536e+18,-13.39117908,-5.700768471,7.915472507
704,1.55965385365e+18,-10.08708,-3.148471355,5.272192955
705,1.5596538537e+18,-4.992063046,0.2897072434,1.723877907
706,1.55965385375e+18,0.007182824425,4.142095566,1.254600048
707,1.55965385381e+18,4.637710094,6.033572674,0.0287312977
708,1.55965385386e+18,6.296942711,8.303344727,-1.903448462
709,1.55965385391e+18,10.66409969,10.62579155,-8.107014656
710,1.55965385396e+18,6.933819771,1.429382086,5.854001999
711,1.55965385401e+18,-33.45280838,-7.36239481,-24.85257339
712,1.55965385407e+18,12.09348202,-35.95721817,18.37366486
713,1.55965385412e+18,-5.911464691,-10.61621475,5.923435688
714,1.55965385417e+18,1.901054144,-4.759818554,8.121379852
715,1.55965385422e+18,0.8667274714,-0.5818088055,9.454991341
716,1.55965385427e+18,-0.8595446348,-4.695172787,13.23315716
717,1.55965385433e+18,-4.38870573,-5.559505939,12.78542709
718,1.55965385438e+18,-4.625739098,-6.371165276,11.91630554
719,1.55965385443e+18,-3.261002302,-4.975303173,9.366402626
720,1.55965385448e+18,-2.418217659,-3.840416908,8.334470749
721,1.55965385453e+18,-5.250644684,-5.588237286,7.23071003
722,1.55965385459e+18,-5.530774593,-6.067092419,6.258634567
723,1.55965385464e+18,-4.204346657,-6.598621368,6.519610405
724,1.55965385469e+18,-3.395081758,-6.648900986,6.663266659
725,1.55965385474e+18,-3.356773376,-6.215537548,5.909070015
726,1.55965385479e+18,-3.234665155,-5.777385235,5.437397957
727,1.55965385485e+18,-3.835628271,-6.359193802,5.636122704
728,1.5596538549e+18,-3.153259993,-5.98089838,5.391906738
729,1.55965385495e+18,-3.442967176,-6.483695984,6.055120945
730,1.559653855e+18,-3.03115201,-5.753442287,5.674431324
731,1.55965385505e+18,-3.651269197,-6.057515144,6.354405403
732,1.55965385511e+18,-3.567469358,-6.371165276,6.359193802
733,1.55965385516e+18,-3.756617069,-6.284971237,6.244268894
734,1.55965385521e+18,-3.459727049,-6.162863255,6.263422966
735,1.55965385526e+18,-3.344801903,-6.632141113,6.680026531
736,1.55965385531e+18,-3.232270956,-7.024802208,7.355212212
737,1.55965385537e+18,-2.573845387,-7.204372883,7.587456703
738,1.55965385542e+18,-2.67440486,-7.106207848,7.23071003
739,1.55965385547e+18,-2.770175934,-6.720729351,6.677632332
740,1.55965385552e+18,-3.356773376,-7.027196407,6.476513386
741,1.55965385557e+18,-3.220299721,-6.792557716,6.047938347
742,1.55965385563e+18,-3.184385538,-6.93621397,6.189200401
743,1.55965385568e+18,-2.652856588,-6.981705189,6.349617004
744,1.55965385573e+18,-2.712713242,-6.826077461,6.411868095
745,1.55965385578e+18,-4.582642078,-7.343240738,6.584255695
746,1.55965385583e+18,-7.008042336,-6.624958515,6.689603806
747,1.55965385588e+18,-6.529187202,-6.665660858,9.718361855
748,1.55965385594e+18,-6.86917448,-6.359193802,11.64814663
749,1.55965385599e+18,-6.907482624,-5.200365067,11.78701496
750,1.55965385604e+18,-5.753442287,-2.923409462,9.67047596
751,1.55965385609e+18,-6.708757877,-0.8140534163,6.9122715
752,1.55965385614e+18,-3.344801903,2.116539001,4.118152618
753,1.5596538562e+18,-2.209915638,3.656057596,3.493247032
754,1.55965385625e+18,-2.638490915,1.625712633,2.719896078
755,1.5596538563e+18,-1.61134696,0.5626545548,1.063058019
756,1.55965385635e+18,-2.384697676,-4.424619675,0.2897072434
757,1.5596538564e+18,-5.530774593,-11.24112034,-1.288119793
758,1.55965385646e+18,-8.147717476,-21.64903259,6.124555111
759,1.55965385651e+18,-18.63703537,0.5458946824,4.249837875
760,1.55965385656e+18,-8.430241585,-5.24106741,6.095823765
761,1.55965385661e+18,-19.93473244,-12.20601273,6.847625732
762,1.55965385666e+18,-21.23961258,-8.181237221,9.474145889
763,1.55965385672e+18,-16.89160919,-5.765413761,8.684034348
764,1.55965385677e+18,-13.89637089,-6.225114346,10.35044956
765,1.55965385682e+18,-13.43906403,-6.251451492,6.220325947
766,1.55965385687e+18,-9.435836792,-1.426987767,5.044736862
767,1.55965385692e+18,-1.321639657,1.108549237,3.495641232
768,1.55965385698e+18,0.241821751,4.340820312,1.855562925
769,1.55965385703e+18,4.474899769,6.363982677,-0.9026415944
770,1.55965385708e+18,8.389538765,9.538790703,-4.517996788
771,1.55965385713e+18,8.394327164,7.290566921,-6.488484859
772,1.55965385718e+18,1.601769805,-4.544333458,14.97140026
773,1.55965385724e+18,-17.92832947,-16.17572021,-17.73199844
774,1.55965385729e+18,-2.339206457,-27.35698318,12.34727478
775,1.55965385734e+18,-9.28499794,-9.593858719,3.093403101
776,1.55965385739e+18,-5.631334305,-5.897099018,8.923461914
777,1.55965385744e+18,-2.37512064,-2.511594296,7.223526955
778,1.5596538575e+18,-2.992843628,-5.370358467,11.51885605
779,1.55965385755e+18,-5.861184597,-6.138920784,10.15890789
780,1.5596538576e+18,-7.61379385,-8.054340363,8.801354408
781,1.55965385765e+18,-7.544359684,-6.639324188,7.862798691
782,1.5596538577e+18,-5.104593754,-5.552323341,6.684815407
783,1.55965385776e+18,-6.0216012,-7.240286827,6.677632332
784,1.55965385781e+18,-5.229096413,-6.431022167,4.783761024
785,1.55965385786e+18,-5.401484013,-6.895511627,4.503631115
786,1.55965385791e+18,-4.687990189,-6.694392204,4.225894928
787,1.55965385796e+18,-4.831646442,-7.060716629,4.280963421
788,1.55965385802e+18,-4.846012115,-7.005648136,3.854782343
789,1.55965385807e+18,-4.546727657,-6.833260536,3.759011507
790,1.55965385812e+18,-4.60419035,-7.024802208,4.082238674
791,1.55965385817e+18,-4.273780346,-6.727912426,4.194769382
792,1.55965385822e+18,-4.211529255,-6.711152077,4.570670605
793,1.55965385828e+18,-4.379128456,-6.792557716,4.697566986
794,1.55965385833e+18,-4.585036278,-6.873962879,5.085439682
795,1.55965385838e+18,-4.841223717,-6.87156868,5.150084972
796,1.55965385843e+18,-4.673624516,-6.644112587,5.109382629
797,1.55965385848e+18,-5.083045483,-6.988888264,5.21473074
798,1.55965385854e+18,-5.097411156,-6.996070862,4.85558939
799,1.55965385859e+18,-5.097411156,-6.960156918,5.032765865
800,1.55965385864e+18,-4.903474808,-6.86917448,5.011217117
801,1.55965385869e+18,-5.281770229,-6.917059898,4.819674969
802,1.55965385874e+18,-5.164450645,-6.747066498,4.577853203
803,1.5596538588e+18,-4.929811954,-6.914665699,4.606584549
804,1.55965385885e+18,-4.85558939,-6.979310989,4.498842239
805,1.5596538589e+18,-4.963331699,-7.115784645,4.35039711
806,1.55965385895e+18,-4.874743462,-7.33605814,4.745452881
807,1.559653859e+18,-4.934600353,-7.474925995,4.795732498
808,1.55965385906e+18,-6.263422966,-7.460560322,5.042342663
809,1.55965385911e+18,-8.413481712,-7.762238979,5.944984436
810,1.55965385916e+18,-9.749486923,-6.919454098,10.4222784
811,1.55965385921e+18,-9.031204224,-5.657671452,12.86922741
812,1.55965385926e+18,-6.12694931,-2.573845387,10.9418354
813,1.55965385932e+18,-5.944984436,-1.750214934,8.181237221
814,1.55965385937e+18,-2.808484316,-0.2633702159,6.660872459
815,1.55965385942e+18,-5.631334305,-1.467690468,5.525986195
816,1.55965385947e+18,-5.739076614,-1.702329397,4.776578426
817,1.55965385952e+18,-6.86917448,-4.371945858,3.021574736
818,1.55965385958e+18,-5.296135902,-5.904281616,2.533142805
819,1.55965385963e+18,-5.317684174,-1.953728199,-1.771763325
820,1.55965385968e+18,7.324086666,13.22357941,9.383162498
821,1.55965385973e+18,-2.827638626,13.0583744,4.024775982
822,1.55965385978e+18,0.7446194887,3.689577579,11.07352066
823,1.55965385984e+18,-6.984099388,2.147664547,10.36002731
824,1.55965385989e+18,-16.08952713,-3.445361376,14.59789371
825,1.55965385994e+18,-16.59950638,-0.08858817071,12.69444466
826,1.55965385999e+18,-4.39109993,-0.1053480953,11.26266861
827,1.55965386004e+18,-3.715914488,2.14048171,6.828471661
828,1.55965386009e+18,-1.266571403,3.30888772,4.319271564
829,1.55965386015e+18,0.6656084061,6.009629726,5.379935265
830,1.5596538602e+18,8.219545364,11.6649065,7.046350956
831,1.55965386025e+18,21.96268272,28.62594986,0.2106961906
832,1.5596538603e+18,16.43909073,20.58597565,3.797319889
833,1.55965386035e+18,-3.316070557,-7.101418972,27.9699192
834,1.55965386041e+18,15.71841431,-53.9789238,17.50933075
835,1.55965386046e+18,-19.90600014,-7.817307472,2.808484316
836,1.55965386051e+18,5.506832123,-4.268991947,-0.8739103079
837,1.55965386056e+18,4.968120098,4.393494129,1.867534399
838,1.55965386061e+18,2.442160368,8.600234985,1.503604531
839,1.55965386067e+18,2.025556564,9.000079155,0.9146129489
840,1.55965386072e+18,2.214704275,6.287365437,1.436564922
841,1.55965386077e+18,1.738243461,3.876330853,4.558699131
842,1.55965386082e+18,2.413429022,-1.743032098,6.055120945
843,1.55965386087e+18,-3.268185139,-9.196409225,5.202759266
844,1.55965386093e+18,-2.772570133,-14.48536301,11.46857643
845,1.55965386098e+18,-0.007182824425,-15.20603943,12.03123093
846,1.55965386103e+18,-1.503604531,-14.53085423,8.451789856
847,1.55965386108e+18,-3.184385538,-13.01288319,6.833260536
848,1.55965386113e+18,-4.893897533,-11.89715195,5.650488377
849,1.55965386119e+18,-3.062277555,-10.67128277,5.004034519
850,1.55965386124e+18,-1.024749637,-10.34805584,5.106987953
851,1.55965386129e+18,-1.046298146,-10.19003391,4.187586784
852,1.55965386134e+18,-1.683175206,-10.00088596,3.284945011
853,1.55965386139e+18,-1.642472506,-10.42467213,3.126922846
854,1.55965386145e+18,-1.944151163,-11.56195259,3.397475958
855,1.5596538615e+18,-1.884294271,-12.31614971,3.165231228
856,1.55965386155e+18,-1.968093872,-11.92588329,3.885908127
857,1.5596538616e+18,-2.099778891,-10.61142635,3.474092722
858,1.55965386165e+18,-3.433390141,-9.119792938,3.531555414
859,1.55965386171e+18,-3.071854591,-8.028003693,4.211529255
860,1.55965386176e+18,-2.667222023,-6.091034889,3.785348415
861,1.55965386181e+18,-3.893090725,-5.537957668,4.522785187
862,1.55965386186e+18,-3.902667999,-4.917840481,5.798933506
863,1.55965386191e+18,-4.664047241,-3.845205307,6.72551775
864,1.55965386197e+18,-7.063110828,-3.229876757,6.967339516
865,1.55965386202e+18,-7.563514233,-2.274561167,7.747873306
866,1.55965386207e+18,-7.415069103,-1.592192769,9.083878517
867,1.55965386212e+18,-7.008042336,-0.05985686928,8.200390816
868,1.55965386217e+18,-5.935407162,1.738243461,7.264229774
869,1.55965386223e+18,-5.020794392,3.210722446,6.866780281
870,1.55965386228e+18,-3.914639235,3.775771379,5.308107376
871,1.55965386233e+18,-6.091034889,2.865947008,4.64249897
872,1.55965386238e+18,-4.295329094,2.351177931,2.753416061
873,1.55965386243e+18,-3.280156374,0.7518022656,4.098998547
874,1.55965386249e+18,-4.273780346,-1.561067224,4.21631813
875,1.55965386254e+18,-3.184385538,-5.389512539,3.301704884
876,1.55965386259e+18,-7.623371124,-5.518803596,-5.911464691
877,1.55965386264e+18,0.7877163887,-5.724710941,4.357580185
878,1.55965386269e+18,-4.769395351,-7.999272346,7.846038342
879,1.55965386275e+18,-14.76549244,-9.905115128,5.679219723
880,1.5596538628e+18,-9.232323647,-8.485309601,7.587456703
881,1.55965386285e+18,-14.47099686,-10.20679379,3.689577579
882,1.5596538629e+18,-11.61702156,-8.70079422,8.547560692
883,1.55965386295e+18,-13.46540165,-7.134938717,5.260221958
884,1.55965386301e+18,-11.52603912,-5.650488377,5.98329258
885,1.55965386306e+18,-2.880312681,-3.991255999,7.398309231
886,1.55965386311e+18,-8.803748131,-2.525959969,5.77020216
887,1.55965386316e+18,-4.012804508,0.1891477108,4.357580185
888,1.55965386321e+18,0.335198462,3.62732625,3.996044636
889,1.55965386327e+18,5.250644684,7.223526955,5.717528343
890,1.55965386332e+18,14.8876009,18.0193119,1.673598051
891,1.55965386337e+18,16.53246689,26.23167419,0.2490045726
892,1.55965386342e+18,13.72877216,6.756643295,20.42555809
893,1.55965386347e+18,-9.883566856,-21.378479,-19.60432243
894,1.55965386353e+18,-28.76242256,-16.14938354,4.185192585
895,1.55965386358e+18,-0.6847625971,-7.798152924,0.3208328187
896,1.55965386363e+18,6.428627968,2.442160368,4.673624516
897,1.55965386368e+18,2.909043789,4.556304932,3.493247032
898,1.55965386373e+18,3.155654192,10.09426212,4.38870573
899,1.55965386379e+18,2.882706881,8.334470749,4.980091572
900,1.55965386384e+18,3.634509087,7.130150318,5.904281616
901,1.55965386389e+18,2.169213057,3.380716085,5.650488377
902,1.55965386394e+18,-1.345582485,-0.6967339516,6.538764477
903,1.55965386399e+18,-5.650488377,-5.751048088,7.103813171
904,1.55965386405e+18,-3.988861799,-8.391933441,7.448588848
905,1.5596538641e+18,0.2011190802,-11.06154919,11.52843285
906,1.55965386415e+18,-1.563461423,-10.68325424,7.44140625
907,1.5596538642e+18,-1.970488191,-11.89715195,6.584255695
908,1.55965386425e+18,-3.220299721,-12.10784817,5.020794392
909,1.55965386431e+18,-3.948159218,-12.26347542,4.53475666
910,1.55965386436e+18,-2.308080912,-11.3728056,4.721509933
911,1.55965386441e+18,-0.5554717779,-10.4366436,4.134912491
912,1.55965386446e+18,-0.4118152559,-9.938634872,4.03195858
913,1.55965386451e+18,-0.5770202279,-9.69681263,3.924216509
914,1.55965386457e+18,-0.6727912426,-9.601041794,3.416630268
915,1.55965386462e+18,-0.5267404318,-9.766246796,2.90664959
916,1.55965386467e+18,-0.5099805593,-10.06553173,2.569056988
917,1.55965386472e+18,-0.7877163887,-10.32890129,2.48046875
918,1.55965386477e+18,-1.75979197,-10.98732662,3.083826065
919,1.55965386483e+18,-2.739050388,-11.16929245,3.155654192
920,1.55965386488e+18,-3.150865555,-10.5922718,3.759011507
921,1.55965386493e+18,-3.756617069,-9.452596664,4.458139896
922,1.55965386498e+18,-3.720703125,-7.54675436,4.336031914
923,1.55965386503e+18,-4.453351021,-6.586649895,4.795732498
924,1.55965386509e+18,-4.11336422,-5.288952827,5.049525738
925,1.55965386514e+18,-5.593026161,-4.934600353,5.324867249
926,1.55965386519e+18,-5.269798756,-4.762212753,6.352011204
927,1.55965386524e+18,-5.166844845,-4.563488007,7.965752125
928,1.55965386529e+18,-6.177228928,-4.721509933,9.045570374
929,1.55965386535e+18,-6.246663094,-2.150058746,11.8301115
930,1.5596538654e+18,-6.93621397,-1.211503029,9.960183144
931,1.55965386545e+18,-5.071074009,1.721483588,7.946598053
932,1.5596538655e+18,-4.0702672,2.296109438,4.592218876
933,1.55965386555e+18,-3.249030828,1.177983165,2.82045579
934,1.55965386561e+18,-2.631308079,-0.4166038036,1.18756032
935,1.55965386566e+18,-2.102173328,-3.002420664,-0.313650012
936,1.55965386571e+18,-4.494053841,-6.86917448,0.7757450342
937,1.55965386576e+18,0.7494080067,-53.23670197,71.08841705
938,1.55965386581e+18,-26.42082214,9.308940887,-0.07422251999
939,1.55965386587e+18,-13.05358601,-8.18602562,3.804502726
940,1.55965386592e+18,-19.07279396,-4.300117493,-0.3878725171
941,1.55965386597e+18,-14.05439281,-5.375146866,-0.943344295
942,1.55965386602e+18,-14.40395737,-4.479688168,3.007209063
943,1.55965386607e+18,-12.76866722,-3.940976381,4.156461239
944,1.55965386613e+18,-15.23955917,-4.738269806,3.378321648
945,1.55965386618e+18,-12.37600613,-6.035966873,6.229903221
946,1.55965386623e+18,-9.428654671,-6.507638931,5.547534943
947,1.55965386628e+18,-11.3344965,-6.40468502,4.39109993
948,1.55965386633e+18,-9.438231468,-5.971321583,4.319271564
949,1.55965386639e+18,-7.039167881,-4.058295727,5.083045483
950,1.55965386644e+18,-8.05194664,-2.090201855,3.237059593
951,1.55965386649e+18,-6.881145954,-1.410227895,5.102199554
952,1.55965386654e+18,-0.3232271075,-1.987248063,5.564294815
953,1.55965386659e+18,-2.027950764,2.078230619,8.391933441
954,1.55965386665e+18,3.790137053,4.175615311,8.312922478
955,1.5596538667e+18,7.101418972,8.696005821,6.680026531
956,1.55965386675e+18,17.71284485,17.1837101,1.640078187
957,1.5596538668e+18,16.79823112,15.30181026,4.831646442
958,1.55965386685e+18,4.506025314,0.7206767201,24.27794647
959,1.55965386691e+18,-8.839662552,-2.523565531,-10.43424988
960,1.55965386696e+18,-6.318490982,-18.79026794,0.8044763207
961,1.55965386701e+18,-14.52606487,-0.668002665,1.40065074
962,1.55965386706e+18,2.664827824,-0.4549122155,0.646454215
963,1.55965386711e+18,6.031178474,4.015198708,3.490852594
964,1.55965386717e+18,6.057515144,9.062330246,5.042342663
965,1.55965386722e+18,6.103006363,7.096630573,7.664073467
966,1.55965386727e+18,2.346389294,4.371945858,8.913885117
967,1.55965386732e+18,-1.625712633,1.266571403,9.148524284
968,1.55965386737e+18,-4.704750061,-0.4333637357,9.598648071
969,1.55965386743e+18,-5.736682415,-1.61134696,10.21158218
970,1.55965386748e+18,-6.672843933,-2.679193497,9.579493523
971,1.55965386753e+18,-6.691998005,-2.899466753,9.210775375
972,1.55965386758e+18,-5.142902374,-1.917814136,8.576292038
973,1.55965386763e+18,-6.431022167,-2.834821463,8.590658188
974,1.55965386769e+18,-7.257047176,-3.75422287,9.299363136
975,1.55965386774e+18,-5.499649048,-4.268991947,9.754275322
976,1.55965386779e+18,-3.976890564,-4.225894928,9.174860954
977,1.55965386784e+18,-3.718308687,-4.589824677,8.707977295
978,1.55965386789e+18,-3.960130453,-5.205153465,8.526012421
979,1.55965386795e+18,-3.87872529,-4.757423878,7.604216576
980,1.559653868e+18,-3.464515686,-4.565882206,7.213950157
981,1.55965386805e+18,-3.555498123,-4.652075768,7.355212212
982,1.5596538681e+18,-4.00562191,-4.984879971,7.383943558
983,1.55965386815e+18,-4.060689926,-4.913052082,7.199584484
984,1.55965386821e+18,-3.608172178,-4.623344421,7.103813171
985,1.55965386826e+18,-3.979284763,-4.884320736,7.36000061
986,1.55965386831e+18,-4.046324253,-4.778972626,7.424646378
987,1.55965386836e+18,-4.364762783,-5.095016956,7.731113434
988,1.55965386841e+18,-3.931399345,-4.726298332,7.642525196
989,1.55965386847e+18,-4.805309772,-5.020794392,7.563514233
990,1.55965386852e+18,-6.095823765,-4.589824677,6.76382637
991,1.55965386857e+18,-6.680026531,-3.419024467,6.30173111
992,1.55965386862e+18,-5.842030525,-3.969707727,8.552350044
993,1.55965386867e+18,-4.558699131,-3.87872529,6.660872459
994,1.55965386873e+18,-4.92023468,-4.441379547,5.039948463
995,1.55965386878e+18,-5.540351868,-4.359974384,4.527573586
996,1.55965386883e+18,-5.463735104,-3.88111949,4.240260601
997,1.55965386888e+18,-6.696786404,-2.209915638,3.553103924
998,1.55965386893e+18,2.561874151,-1.316851139,10.43903828
999,1.55965386899e+18,-4.182797909,-8.990502357,11.56195259
1000,1.55965386904e+18,-20.47344398,-12.43825722,15.72320271
1001,1.55965386909e+18,-14.43987179,-5.075862408,7.0846591
1002,1.55965386914e+18,-8.825297356,-4.470110893,7.36000061
1003,1.55965386919e+18,-9.811738014,-5.21473074,0.632088542
1004,1.55965386925e+18,-11.01605797,-3.763799906,-3.478881359
1005,1.5596538693e+18,-3.957736254,0.7853221297,-6.253845692
1006,1.55965386935e+18,5.27937603,2.042316437,-1.345582485
1007,1.5596538694e+18,0.3423812985,-5.739076614,9.251478195
1008,1.55965386945e+18,-10.08947372,4.051113129,2.401457548
1009,1.55965386951e+18,-9.713572502,-4.134912491,3.407052994
1010,1.55965386956e+18,-14.44705391,-2.535537004,3.577046633
1011,1.55965386961e+18,-8.257853508,1.101366401,2.147664547
1012,1.55965386966e+18,-13.4893446,-3.45493865,3.574652195
1013,1.55965386971e+18,-17.09991074,-4.915446281,8.277008057
1014,1.55965386977e+18,-15.79503059,-6.454965115,10.88437366
1015,1.55965386982e+18,-17.9019928,-6.411868095,9.979337692
1016,1.55965386987e+18,-9.364008904,-2.837215662,5.973715782
1017,1.55965386992e+18,-4.714327335,-1.383890867,5.341627121
1018,1.55965386997e+18,-1.39825654,1.132491946,3.114951611
1019,1.55965387003e+18,1.745426297,3.189173937,2.236252785
1020,1.55965387008e+18,3.847599506,5.442186832,-0.9792584181
1021,1.55965387013e+18,5.700768471,5.997658253,-4.510813713
1022,1.55965387018e+18,5.784567833,3.124528646,-3.407052994
1023,1.55965387023e+18,-1.067846537,-1.735849261,6.308914185
1024,1.55965387028e+18,-11.25309181,-5.432609558,9.35203743
1025,1.55965387034e+18,16.60190201,-72.64948273,31.16148758
1026,1.55965387039e+18,-4.467716694,-12.66810799,7.666468143
1027,1.55965387044e+18,-0.007182824425,-4.417437077,7.884346962
1028,1.55965387049e+18,0.1723877788,-1.958516836,6.986494064
1029,1.55965387054e+18,-0.5219519138,-2.875524044,9.577098846
1030,1.5596538706e+18,-3.56268096,-4.549122334,10.95141315
1031,1.55965387065e+18,-5.832453251,-7.649707794,11.29618835
1032,1.5596538707e+18,-5.700768471,-6.589044094,10.75747681
1033,1.55965387075e+18,-4.259414673,-4.467716694,8.502069473
1034,1.5596538708e+18,-5.09262228,-3.799714088,6.500456333
1035,1.55965387086e+18,-7.649707794,-5.803721905,6.162863255
1036,1.55965387091e+18,-6.431022167,-5.899493217,5.506832123
1037,1.55965387096e+18,-4.321666241,-6.019207001,5.358386993
1038,1.55965387101e+18,-4.012804508,-6.569890022,6.136526108
1039,1.55965387106e+18,-4.134912491,-6.952973843,6.110189438
1040,1.55965387112e+18,-3.703943014,-6.148497581,5.365570068
1041,1.55965387117e+18,-3.165231228,-6.114977837,5.985687256
1042,1.55965387122e+18,-2.564268351,-5.135719299,5.947378635
1043,1.55965387127e+18,-3.711125851,-5.95695591,7.391126156
1044,1.55965387132e+18,-3.830839634,-5.978504181,8.748680115
1045,1.55965387138e+18,-3.038334846,-6.29933691,4.637710094
1046,1.55965387143e+18,-7.453377247,-5.751048088,1.731060743
1047,1.55965387148e+18,-10.20679379,-5.691191196,3.445361376
1048,1.55965387153e+18,-9.694418907,-4.721509933,-0.4692778587
1049,1.55965387158e+18,-13.61384678,-3.284945011,-3.804502726
1050,1.55965387164e+18,-9.648927689,-2.423006058,-3.196356773
1051,1.55965387169e+18,-5.310501575,-0.5363175869,-2.025556564
1052,1.55965387174e+18,-2.940169573,-0.7996878028,-0.1795706153
1053,1.55965387179e+18,-3.840416908,-3.711125851,3.948159218
1054,1.55965387184e+18,-6.392713547,-6.785374641,8.863605499
1055,1.5596538719e+18,-8.05194664,-6.328068256,9.328094482
1056,1.55965387195e+18,-8.719948769,-4.913052082,6.838048935
1057,1.559653872e+18,-10.24510193,-4.819674969,6.363982677
1058,1.55965387205e+18,-8.79656601,-5.511620522,7.453377247
1059,1.5596538721e+18,-6.840443134,-5.98329258,7.948992252
1060,1.55965387216e+18,-6.490879059,-5.145296574,9.184437752
1061,1.55965387221e+18,-7.989695072,-4.28575182,8.775016785
1062,1.55965387226e+18,-9.761458397,-1.316851139,6.261028767
1063,1.55965387231e+18,-5.947378635,1.570644259,5.219519138
1064,1.55965387236e+18,-3.074248791,3.464515686,3.988861799
1065,1.55965387242e+18,-4.065478802,2.049499273,3.895485163
1066,1.55965387247e+18,-3.471698523,-0.481249243,2.018373728
1067,1.55965387252e+18,-1.640078187,-1.58979845,-0.4692778587
1068,1.55965387257e+18,0.0287312977,-4.652075768,-2.765387297
1069,1.55965387262e+18,-1.623318315,-11.62659836,-6.256239891
1070,1.55965387268e+18,32.34665298,-9.342460632,-8.516435623
1071,1.55965387273e+18,-12.66331959,-12.65853119,1.764580488
1072,1.55965387278e+18,-3.268185139,-15.78784847,4.510813713
1073,1.55965387283e+18,-4.620950222,-14.82056141,2.128510237
1074,1.55965387288e+18,-6.929031372,-16.70724869,0.9385557175
1075,1.55965387294e+18,-11.43984509,-15.65855694,2.837215662
1076,1.55965387299e+18,-10.15651417,-12.91471863,3.979284763
1077,1.55965387304e+18,-11.10704041,-11.05436707,5.004034519
1078,1.55965387309e+18,-10.28819847,-10.02243423,3.943370581
1079,1.55965387314e+18,-9.692024231,-10.75029373,2.669616461
1080,1.5596538732e+18,-11.19084072,-11.94982529,2.482862949
1081,1.55965387325e+18,-12.48853779,-10.80775642,2.86355257
1082,1.5596538733e+18,-7.321692467,-7.541965485,2.786935806
1083,1.55965387335e+18,-6.967339516,-4.664047241,4.11097002
1084,1.5596538734e+18,-5.842030525,-1.426987767,-0.7158881426
1085,1.55965387346e+18,-1.436564922,1.855562925,-1.149251938
1086,1.55965387351e+18,1.575432777,3.634509087,-1.347976685
1087,1.55965387356e+18,1.685569525,4.077449799,2.37272644
1088,1.55965387361e+18,6.522004604,7.649707794,-0.6632141471
1089,1.55965387366e+18,9.045570374,10.00088596,-4.491659641
1090,1.55965387372e+18,7.443800449,5.877944469,-1.33600533
1091,1.55965387377e+18,-0.4094209969,-1.108549237,9.816526413
1092,1.55965387382e+18,-11.30815983,-8.60741806,6.881145954
1093,1.55965387387e+18,19.20926666,-50.89509964,-8.449396133
1094,1.55965387392e+18,-4.132518291,-10.74071693,8.856422424
1095,1.55965387398e+18,-8.722343445,-5.090228081,10.37918091
1096,1.55965387403e+18,-4.012804508,-5.162056446,6.596227169
1097,1.55965387408e+18,-3.524372578,-6.033572674,9.239506721
1098,1.55965387413e+18,-4.331243038,-8.976136208,12.17967606
1099,1.55965387418e+18,-7.869981289,-8.056735039,9.905115128
1100,1.55965387424e+18,-7.860404015,-8.447001457,8.28897953
1101,1.55965387429e+18,-7.055927753,-6.196382999,7.173247337
1102,1.55965387434e+18,-6.158074856,-5.700768471,6.08624649
1103,1.55965387439e+18,-6.12694931,-6.158074856,5.073468208
1104,1.55965387444e+18,-6.186806202,-6.771008968,4.252232075
1105,1.5596538745e+18,-5.415849686,-6.744672298,4.163643837
1106,1.55965387455e+18,-4.568276405,-6.883540154,4.343214512
1107,1.5596538746e+18,-4.221106529,-7.034379482,3.955342054
1108,1.55965387465e+18,-4.403071404,-7.518023014,3.802108288
1109,1.5596538747e+18,-4.422225475,-7.917866707,4.043930054
1110,1.55965387476e+18,-3.378321648,-7.539571285,4.197163582
1111,1.55965387481e+18,-2.214704275,-7.194795609,4.620950222
1112,1.55965387486e+18,-2.403851986,-7.211555958,4.874743462
1113,1.55965387491e+18,-3.24424243,-7.50844574,4.585036278
1114,1.55965387496e+18,-3.524372578,-7.767027378,4.680807114
1115,1.55965387502e+18,-3.428601503,-7.86519289,4.948966026
1116,1.55965387507e+18,-3.672817469,-7.858009815,5.446975231
1117,1.55965387512e+18,-4.087027073,-7.752661705,5.391906738
1118,1.55965387517e+18,-4.582642078,-7.817307472,4.824463844
1119,1.55965387522e+18,-4.271386147,-7.462954521,4.21871233
1120,1.55965387528e+18,-4.247443676,-7.328875065,4.381523132
1121,1.55965387533e+18,-4.857983589,-7.005648136,4.788549423
1122,1.55965387538e+18,-5.547534943,-7.266623974,4.656864643
1123,1.55965387543e+18,-5.157268047,-7.774210453,4.134912491
1124,1.55965387548e+18,-4.024775982,-7.913078308,4.230683804
1125,1.55965387554e+18,-4.757423878,-8.114197731,4.85558939
1126,1.55965387559e+18,-4.946571827,-8.142929077,4.582642078
1127,1.55965387564e+18,-5.073468208,-8.46376133,4.149278164
1128,1.55965387569e+18,-5.111776829,-7.915472507,4.223500729
1129,1.55965387574e+18,-4.570670605,-7.455771923,4.158855438
1130,1.5596538758e+18,-4.494053841,-6.964945316,3.476486921
1131,1.55965387585e+18,-4.862771988,-6.852414608,3.172414064
1132,1.5596538759e+18,-7.340846539,-6.505244732,3.316070557
1133,1.55965387595e+18,-11.12140656,-5.55711174,4.393494129
1134,1.559653876e+18,-11.53561592,-5.150084972,7.793364525
1135,1.55965387606e+18,-8.937828064,-4.786155224,7.769421577
1136,1.55965387611e+18,-8.238699913,-1.534730196,5.947378635
1137,1.55965387616e+18,-3.998438835,1.75979197,0.8164477348
1138,1.55965387621e+18,-1.807677507,-0.1987248063,1.46290195
1139,1.55965387626e+18,-6.031178474,-3.41423583,-2.24822402
1140,1.55965387632e+18,-14.05678749,-10.78620815,-1.247417212
1141,1.55965387637e+18,-9.550762177,-18.00015831,2.636096478
1142,1.55965387642e+18,-6.924242973,0.7901107073,6.634535313
1143,1.55965387647e+18,2.492439985,0.316044271,10.72874546
1144,1.55965387652e+18,-3.174808502,1.019961119,8.377567291
1145,1.55965387658e+18,-4.728692532,-1.192348838,7.575485706
1146,1.55965387663e+18,-8.751074791,-2.710319042,2.253012657
1147,1.55965387668e+18,-11.06394386,-2.504411459,4.221106529
1148,1.55965387673e+18,-9.21795845,-3.730280161,3.785348415
1149,1.55965387678e+18,-13.17090607,-2.516382933,3.694365978
1150,1.55965387683e+18,-11.80616951,-0.2944957912,3.902667999
1151,1.55965387689e+18,-10.86761379,0.7374366522,6.375953674
1152,1.55965387694e+18,-7.977723598,1.539518714,5.736682415
1153,1.55965387699e+18,-6.402290821,2.145270348,4.424619675
1154,1.55965387704e+18,-3.471698523,2.765387297,5.791750908
1155,1.55965387709e+18,1.31445682,5.267404556,7.448588848
1156,1.55965387715e+18,4.965725899,8.518829346,7.127756119
1157,1.5596538772e+18,14.45184231,13.97777653,5.487678051
1158,1.55965387725e+18,16.6593647,24.77116776,-1.268965602
1159,1.5596538773e+18,8.109408379,9.265843391,3.83802247
1160,1.55965387735e+18,3.110162973,-12.59149075,34.22376251
1161,1.55965387741e+18,5.075862408,-24.01696968,-5.909070015
1162,1.55965387746e+18,-9.308940887,-3.962524891,4.539545059
1163,1.55965387751e+18,-3.797319889,-0.3567469418,2.152452946
1164,1.55965387756e+18,4.790944099,1.616135478,-0.01675992459
1165,1.55965387761e+18,5.473312378,5.971321583,1.762186289
1166,1.55965387766e+18,6.395108223,9.98891449,1.199531674
1167,1.55965387772e+18,6.378347874,8.657697678,0.4237866402
1168,1.55965387777e+18,4.465322495,4.051113129,1.582615614
1169,1.55965387782e+18,1.197137356,-2.968900681,6.043149471
1170,1.55965387787e+18,-6.442993641,-10.18763924,5.688796997
1171,1.55965387792e+18,-0.7039167881,-14.8876009,7.010436535
1172,1.55965387798e+18,4.230683804,-18.30901909,9.510059357
1173,1.55965387803e+18,-0.3088614643,-19.39841461,5.803721905
1174,1.55965387808e+18,-4.984879971,-17.2220192,5.736682415
1175,1.55965387813e+18,-4.637710094,-12.2179842,2.279349566
1176,1.55965387818e+18,0.5482889414,-10.23313046,6.035966873
1177,1.55965387824e+18,5.193181992,-9.502876282,10.03440571
1178,1.55965387829e+18,1.649655342,-10.31214142,6.177228928
1179,1.55965387834e+18,-2.14048171,-10.67367744,1.857957244
1180,1.55965387839e+18,-4.405465603,-10.63536835,-0.9960182905
1181,1.55965387844e+18,-6.237085819,-9.105426788,1.537124395
1182,1.5596538785e+18,-6.268211365,-7.166064739,0.4477293789
1183,1.55965387855e+18,-4.585036278,-6.761432171,-0.8427847624
1184,1.5596538786e+18,-3.114951611,-7.65210247,-0.8212362528
1185,1.55965387865e+18,-1.23065722,-9.24429512,2.983266354
1186,1.5596538787e+18,-2.387091875,-6.421444893,3.581835032
1187,1.55965387876e+18,-4.963331699,-5.913858891,4.010410309
1188,1.55965387881e+18,-6.751854897,-5.23867321,3.634509087
1189,1.55965387886e+18,-8.767834663,-5.276981831,3.493247032
1190,1.55965387891e+18,-10.40312386,-5.564294815,3.792531252
1191,1.55965387896e+18,-10.55156898,-6.100612164,5.590631485
1192,1.55965387902e+18,-10.88676739,-6.59383297,5.224307537
1193,1.55965387907e+18,-9.90750885,-6.055120945,6.929031372
1194,1.55965387912e+18,-13.88200569,-6.205960274,6.289760113
1195,1.55965387917e+18,-12.06475067,-3.756617069,8.241093636
1196,1.55965387922e+18,-13.18287754,-3.198751211,5.846818924
1197,1.55965387928e+18,-6.203566074,0.2561874092,5.856396198
1198,1.55965387933e+18,-3.184385538,2.446948767,2.533142805
1199,1.55965387938e+18,-0.8164477348,0.1412622184,2.746233225
1200,1.55965387943e+18,2.940169573,-4.460534096,3.131711483
1201,1.55965387948e+18,-5.013611317,-10.56354046,-1.170800328
1202,1.55965387954e+18,-8.310527802,-8.10461998,-0.5961744189
1203,1.55965387959e+18,7.443800449,19.27630615,4.35039711
1204,1.55965387964e+18,0.8930644989,2.748627424,2.35596633
1205,1.55965387969e+18,-6.742278099,3.691971779,7.565908432
1206,1.55965387974e+18,-9.263449669,-4.678412914,7.606611252
1207,1.5596538798e+18,-12.28741837,-7.477320194,7.580274105
1208,1.55965387985e+18,-17.80143356,-9.143735886,2.9258039
1209,1.5596538799e+18,-14.17171288,-10.63776302,6.186806202
1210,1.55965387995e+18,-16.60668945,-7.563514233,4.015198708
1211,1.55965388e+18,-7.522811413,-7.879558563,7.901106834
1212,1.55965388006e+18,-7.649707794,-6.893116951,6.732700825
1213,1.55965388011e+18,-10.90831566,-5.724710941,8.38235569
1214,1.55965388016e+18,-7.589851379,-2.43976593,6.498061657
1215,1.55965388021e+18,-2.944957972,0.8523618579,4.359974384
1216,1.55965388026e+18,1.596981287,2.734261751,3.378321648
1217,1.55965388032e+18,3.445361376,6.069486618,1.810071707
1218,1.55965388037e+18,12.41431522,17.14300728,0.184359163
1219,1.55965388042e+18,16.9897747,22.79589081,1.407833576
1220,1.55965388047e+18,12.10545349,6.000052452,16.6593647
1221,1.55965388052e+18,-22.27393913,-17.52130318,-12.8931694
1222,1.55965388058e+18,-5.166844845,-26.08801842,7.61379385
1223,1.55965388063e+18,-14.02566147,-0.9313728809,-0.2561874092
1224,1.55965388068e+18,-0.3184385598,-3.359167576,1.798100352
1225,1.55965388073e+18,5.083045483,1.522758722,-1.130097747
1226,1.55965388078e+18,3.988861799,8.250671387,-0.591385901
1227,1.55965388084e+18,4.915446281,8.748680115,0.3759011328
1228,1.55965388089e+18,3.799714088,2.360754967,1.968093872
1229,1.55965388094e+18,1.699935079,-4.245049,8.272219658
1230,1.55965388099e+18,-3.409447432,-9.215563774,3.567469358
1231,1.55965388104e+18,-3.20353961,-22.63547325,10.14693642
1232,1.5596538811e+18,-1.920208454,-19.34334564,10.36242104
1233,1.55965388115e+18,-2.576239586,-18.36169434,7.36239481
1234,1.5596538812e+18,-3.390293121,-14.14537525,5.880339146
1235,1.55965388125e+18,-3.114951611,-11.61462688,3.378321648
1236,1.5596538813e+18,-1.671203852,-9.469356537,2.564268351
1237,1.55965388136e+18,-0.06464541703,-9.624984741,2.298503876
1238,1.55965388141e+18,0.5865973234,-9.265843391,3.778165579
1239,1.55965388146e+18,-0.3998439014,-9.399923325,4.17800951
1240,1.55965388151e+18,-0.7877163887,-9.862017632,2.58821106
1241,1.55965388156e+18,-1.197137356,-11.1549263,1.412622094
1242,1.55965388162e+18,-1.534730196,-10.70719719,1.118126392
1243,1.55965388167e+18,-1.395862222,-10.3097477,1.963305354
1244,1.55965388172e+18,-1.316851139,-10.04398251,2.705530643
1245,1.55965388177e+18,-1.853168726,-9.828497887,2.609759569
1246,1.55965388182e+18,-3.126922846,-9.572310448,2.612153769
1247,1.55965388188e+18,-4.106181145,-9.213169098,3.620143414
1248,1.55965388193e+18,-4.982485771,-8.367990494,4.448562622
1249,1.55965388198e+18,-6.268211365,-7.388731956,5.090228081
1250,1.55965388203e+18,-6.850020409,-5.949772835,6.483695984
1251,1.55965388208e+18,-8.054340363,-4.606584549,6.555524349
1252,1.55965388214e+18,-7.405491829,-3.849993944,9.428654671
1253,1.55965388219e+18,-6.998465061,-1.977671027,7.769421577
1254,1.55965388224e+18,-7.501263142,-1.29290843,7.565908432
1255,1.55965388229e+18,-6.974522591,-0.7685621977,6.59143877
1256,1.55965388234e+18,-8.882759094,-2.051893473,4.154066563
1257,1.5596538824e+18,-6.531581879,-0.2250618339,3.792531252
1258,1.55965388245e+18,-4.553910732,-1.16601181,1.541913033
1259,1.5596538825e+18,-4.903474808,-4.331243038,0.07422251999
1260,1.55965388255e+18,-3.205934048,-3.555498123,1.683175206
1261,1.5596538826e+18,1.580221415,6.08864069,22.63307953
1262,1.55965388266e+18,1.12530911,3.021574736,5.355992794
1263,1.55965388271e+18,-2.830032825,5.011217117,8.64812088
1264,1.55965388276e+18,-6.914665699,1.424593568,15.35687828
1265,1.55965388281e+18,-18.7375946,-4.383917332,13.77426338
1266,1.55965388286e+18,-14.45184231,-5.183605194,15.52926636
1267,1.55965388292e+18,-10.82691097,-1.764580488,12.34009266
1268,1.55965388297e+18,-5.231490612,0.8308133483,8.791776657
1269,1.55965388302e+18,-1.867534399,2.770175934,6.30173111
1270,1.55965388307e+18,0.1915419847,4.075055599,3.22269392
1271,1.55965388312e+18,1.652049661,6.06230402,1.333611012
1272,1.55965388318e+18,2.612153769,7.134938717,0.9313728809
1273,1.55965388323e+18,5.418243885,7.465348721,-1.723877907
1274,1.55965388328e+18,6.363982677,6.69918108,-6.225114346
1275,1.55965388333e+18,6.198777676,1.479661822,-5.418243885
1276,1.55965388338e+18,-1.513181686,-13.49652672,34.46319199
1277,1.55965388344e+18,-10.44622135,-0.6847625971,-10.4270668
1278,1.55965388349e+18,4.654470444,-9.917086601,7.520417213
1279,1.55965388354e+18,-2.262589693,1.144463301,7.046350956
1280,1.55965388359e+18,-0.8308133483,-1.206714511,4.036747456
1281,1.55965388364e+18,-1.939362645,-0.9146129489,6.950579643
1282,1.5596538837e+18,-2.164424419,-5.059102535,10.45340347
1283,1.55965388375e+18,-4.415042877,-7.309720993,11.68406105
1284,1.5596538838e+18,-5.126142502,-7.57309103,10.24031353
1285,1.55965388385e+18,-4.000833035,-7.948992252,10.78381348
1286,1.5596538839e+18,-1.965699673,-6.979310989,10.6401577
1287,1.55965388396e+18,-1.810071707,-6.050332546,8.549955368
1288,1.55965388401e+18,-2.727078915,-5.74386549,6.775797844
1289,1.55965388406e+18,-3.081431627,-7.283383846,6.866780281
1290,1.55965388411e+18,-1.855562925,-7.747873306,6.751854897
1291,1.55965388416e+18,0.1316851079,-8.085466385,6.711152077
1292,1.55965388422e+18,-0.08858817071,-8.650514603,6.119766235
1293,1.55965388427e+18,-0.7805336118,-7.312115192,4.297723293
1294,1.55965388432e+18,-1.795706153,-7.71914196,4.486870766
1295,1.55965388437e+18,-2.272166729,-7.482108593,4.419831276
1296,1.55965388442e+18,-1.810071707,-7.223526955,4.570670605
1297,1.55965388448e+18,-1.513181686,-7.805335999,4.822069645
1298,1.55965388453e+18,-0.9098244309,-8.10461998,5.284164429
1299,1.55965388458e+18,-1.438959122,-8.250671387,5.485283375
1300,1.55965388463e+18,-1.774157643,-7.934626579,5.212336063
1301,1.55965388468e+18,-1.783734679,-7.951386452,5.418243885
1302,1.55965388474e+18,-1.525153041,-7.913078308,5.660065651
1303,1.55965388479e+18,-1.965699673,-8.545166969,6.201171875
1304,1.55965388484e+18,-1.256994247,-8.638543129,6.507638931
1305,1.55965388489e+18,0.648848474,-8.217150688,6.732700825
1306,1.55965388494e+18,-0.6249057055,-8.150111198,5.947378635
1307,1.55965388499e+18,-1.321639657,-8.075888634,5.166844845
1308,1.55965388505e+18,-1.331216812,-8.38235569,5.458946705
1309,1.5596538851e+18,-1.556278586,-8.056735039,5.245856285
1310,1.55965388515e+18,-2.688770533,-8.387145042,5.32007885
1311,1.5596538852e+18,-3.359167576,-8.372778893,5.075862408
1312,1.55965388525e+18,-3.581835032,-8.58108139,4.951360226
1313,1.55965388531e+18,-4.453351021,-8.327287674,4.778972626
1314,1.55965388536e+18,-4.625739098,-8.068706512,4.608979225
1315,1.55965388541e+18,-4.544333458,-7.450983047,4.266597748
1316,1.55965388546e+18,-4.077449799,-7.249864101,4.118152618
1317,1.55965388551e+18,-3.680000305,-7.412674904,4.273780346
1318,1.55965388557e+18,-4.245049,-7.218738556,4.115758419
1319,1.55965388562e+18,-6.093429565,-7.046350956,5.202759266
1320,1.55965388567e+18,-7.192401409,-6.045543671,5.741470814
1321,1.55965388572e+18,-8.054340363,-4.936994553,8.585869789
1322,1.55965388577e+18,-11.91151714,-5.418243885,8.123774529
1323,1.55965388583e+18,-9.239506721,-2.432583094,7.671256542
1324,1.55965388588e+18,-5.753442287,0.08858817071,5.51640892
1325,1.55965388593e+18,-3.340013266,-0.3974496126,4.245049
1326,1.55965388598e+18,-3.845205307,-1.300091267,2.420611858
1327,1.55965388603e+18,-4.094210148,-2.873129845,0.009577099234
1328,1.55965388609e+18,-13.2762537,-9.718361855,3.706337452
1329,1.55965388614e+18,-2.746233225,-0.4166038036,14.23396397
1330,1.55965388619e+18,-8.530800819,5.765413761,13.53722954
1331,1.55965388624e+18,-5.944984436,2.358360767,15.95305347
1332,1.55965388629e+18,-7.664073467,2.071047783,12.17249298
1333,1.55965388635e+18,-3.32804203,3.340013266,7.415069103
1334,1.5596538864e+18,-0.3878725171,4.570670605,3.919427872
1335,1.55965388645e+18,1.841197371,5.348809719,1.848380208
1336,1.5596538865e+18,3.411841631,6.34003973,-1.513181686
1337,1.55965388655e+18,6.272999763,7.460560322,-5.887521744
1338,1.55965388661e+18,8.336864471,6.665660858,-7.429434776
1339,1.55965388666e+18,3.407052994,-5.06628561,19.678545
1340,1.55965388671e+18,-36.69704819,2.767781734,-23.42797852
1341,1.55965388676e+18,11.24351406,-25.61155701,21.93873978
1342,1.55965388681e+18,-6.603409767,-8.303344727,4.996851444
1343,1.55965388687e+18,-0.6201171875,-4.273780346,5.885127544
1344,1.55965388692e+18,2.159635782,-1.869928598,7.960963726
1345,1.55965388697e+18,-0.5243461728,-5.157268047,9.256266594
1346,1.55965388702e+18,-4.139701366,-7.04156208,10.96577835
1347,1.55965388707e+18,-6.162863255,-8.96655941,11.24112034
1348,1.55965388713e+18,-5.142902374,-6.842837334,8.734314919
1349,1.55965388718e+18,-4.407859802,-5.473312378,7.103813171
1350,1.55965388723e+18,-4.786155224,-5.734288216,6.466936111
1351,1.55965388728e+18,-5.02558279,-6.311308384,5.686402798
1352,1.55965388733e+18,-4.980091572,-6.93621397,5.403878212
1353,1.55965388739e+18,-4.403071404,-6.670449734,5.044736862
1354,1.55965388744e+18,-3.960130453,-6.845231533,4.913052082
1355,1.55965388749e+18,-4.010410309,-6.945791245,4.762212753
1356,1.55965388754e+18,-3.390293121,-6.888328552,4.948966026
1357,1.55965388759e+18,-2.894678354,-7.034379482,5.432609558
1358,1.55965388765e+18,-2.43976593,-6.759037971,5.123748302
1359,1.5596538877e+18,-2.516382933,-7.0822649,5.375146866
1360,1.55965388775e+18,-2.35357213,-7.168458939,5.578660488
1361,1.5596538878e+18,-1.721483588,-7.020013809,5.466129303
1362,1.55965388785e+18,-1.54909575,-7.127756119,5.049525738
1363,1.55965388791e+18,-2.856369734,-8.3153162,5.391906738
1364,1.55965388796e+18,-2.181184292,-7.987300873,5.037554264
1365,1.55965388801e+18,-1.874717116,-8.526012421,5.353598595
1366,1.55965388806e+18,-1.834014535,-8.968953133,5.542746067
1367,1.55965388811e+18,-1.757397652,-8.767834663,5.288952827
1368,1.55965388817e+18,-1.503604531,-8.387145042,4.941783428
1369,1.55965388822e+18,-2.059076309,-8.710371971,5.061496735
1370,1.55965388827e+18,-2.094990492,-8.614601135,4.738269806
1371,1.55965388832e+18,-1.810071707,-8.549955368,4.565882206
1372,1.55965388837e+18,-1.491633177,-8.669669151,4.553910732
1373,1.55965388843e+18,-1.522758722,-8.858817101,4.486870766
1374,1.55965388848e+18,-1.644866824,-9.031204224,4.43180275
1375,1.55965388853e+18,-1.644866824,-9.00726223,4.424619675
1376,1.55965388858e+18,-1.259388566,-8.808537483,4.359974384
1377,1.55965388863e+18,-1.321639657,-8.590658188,4.565882206
1378,1.55965388869e+18,-2.633702278,-8.78219986,4.893897533
1379,1.55965388874e+18,-4.652075768,-9.318517685,4.996851444
1380,1.55965388879e+18,-5.966532707,-8.305739403,5.49246645
1381,1.55965388884e+18,-4.728692532,-8.028003693,7.510839939
1382,1.55965388889e+18,-6.052726746,-6.826077461,7.910684109
1383,1.55965388895e+18,-8.590658188,-6.294548512,9.292180061
1384,1.559653889e+18,-10.51086617,-4.683201313,9.577098846
1385,1.55965388905e+18,-8.863605499,-2.528354168,8.547560692
1386,1.5596538891e+18,-9.359220505,-1.247417212,7.379155159
1387,1.55965388915e+18,-7.168458939,1.285725594,4.494053841
1388,1.55965388921e+18,-3.639297724,0.8475732803,1.273754239
1389,1.55965388926e+18,0.4788549542,-2.755810261,-3.696760416
1390,1.55965388931e+18,-3.153259993,-8.887548447,-1.903448462
1391,1.55965388936e+18,8.528407097,-13.82214832,7.987300873
1392,1.55965388941e+18,-4.733481407,0.6727912426,2.540325642
1393,1.55965388947e+18,-0.1292908341,-3.124528646,13.50370979
1394,1.55965388952e+18,-5.351204395,-5.514014721,13.72877216
1395,1.55965388957e+18,-16.02967072,-10.8149395,9.079090118
1396,1.55965388962e+18,-14.83253288,-8.514040947,7.465348721
1397,1.55965388967e+18,-13.62102985,-7.649707794,8.255459785
1398,1.55965388973e+18,-11.83729458,-5.794145107,6.957762718
1399,1.55965388978e+18,-11.3249197,-7.182824612,7.371972084
1400,1.55965388983e+18,-6.76622057,-3.251425266,3.598595142
1401,1.55965388988e+18,-0.1316851079,2.911438227,3.404658794
1402,1.55965388993e+18,1.728666425,6.387925148,4.340820312
1403,1.55965388999e+18,4.520390987,7.846038342,5.257827282
1404,1.55965389004e+18,13.11823177,13.07752895,1.192348838
1405,1.55965389009e+18,13.989748,20.60512924,-2.583422422
1406,1.55965389014e+18,9.481328011,10.87958431,8.75586319
1407,1.55965389019e+18,1.601769805,-10.05834866,45.77135086
1408,1.55965389025e+18,1.798100352,-75.68302917,21.74480438
1409,1.5596538903e+18,-19.27630615,-0.1149251908,0.7901107073
1410,1.55965389035e+18,-3.852388144,-2.279349566,1.096577883
1411,1.5596538904e+18,4.613767624,2.396669149,0.3256213665
1412,1.55965389045e+18,3.24424243,5.487678051,0.4429408312
1413,1.55965389051e+18,3.102980137,7.740690231,1.537124395
1414,1.55965389056e+18,2.454131603,4.017592907,1.228263021
1415,1.55965389061e+18,-1.256994247,-3.055094719,5.74386549
1416,1.55965389066e+18,-5.904281616,-8.997684479,6.014418125
1417,1.55965389071e+18,-2.700742006,-14.92351532,5.59781456
1418,1.55965389077e+18,2.633702278,-20.3968277,9.375980377
1419,1.55965389082e+18,0.6392713785,-22.08000183,10.25467873
1420,1.55965389087e+18,-2.360754967,-15.22998238,7.340846539
1421,1.55965389092e+18,-2.506805658,-11.85884285,1.300091267
1422,1.55965389097e+18,-0.6632141471,-8.985713005,1.891477108
1423,1.55965389103e+18,0.689551115,-8.861210823,4.587430477
1424,1.55965389108e+18,-0.1316851079,-9.308940887,5.868367672
1425,1.55965389113e+18,-0.7110996246,-9.220352173,4.189980984
1426,1.55965389118e+18,-1.446141958,-9.775823593,2.478074312
1427,1.55965389123e+18,-2.097384691,-11.84447765,1.980065227
1428,1.55965389129e+18,-0.7470137477,-12.22516727,1.616135478
1429,1.55965389134e+18,-0.1436564922,-10.86282444,1.673598051
1430,1.55965389139e+18,-0.4764606953,-10.16848469,1.577827096
1431,1.55965389144e+18,-1.063058019,-9.763853073,1.879505754
1432,1.55965389149e+18,-1.089395046,-9.634561539,2.518777132
1433,1.55965389155e+18,-1.50599885,-9.043175697,2.45892024
1434,1.5596538916e+18,-2.490045786,-8.116591454,2.865947008
1435,1.55965389165e+18,-2.959323645,-7.134938717,3.37113905
1436,1.5596538917e+18,-4.151672363,-6.986494064,4.187586784
1437,1.55965389175e+18,-4.731087208,-6.612987041,4.43180275
1438,1.55965389181e+18,-5.660065651,-6.823683262,4.817280769
1439,1.55965389186e+18,-6.316096783,-6.907482624,4.968120098
1440,1.55965389191e+18,-6.155680656,-6.684815407,6.081458092
1441,1.55965389196e+18,-6.347222328,-6.589044094,6.478907585
1442,1.55965389201e+18,-5.104593754,-6.012023926,9.014444351
1443,1.55965389206e+18,-6.730306625,-4.917840481,10.19003391
1444,1.55965389212e+18,-5.154873848,-3.249030828,8.968953133
1445,1.55965389217e+18,-5.365570068,-0.9984126091,7.40309763
1446,1.55965389222e+18,-5.011217117,-4.292934895,2.86355257
1447,1.55965389227e+18,-7.529994488,-12.91232395,-2.853975534
1448,1.55965389232e+18,-6.665660858,-11.61941528,-1.92978549
1449,1.55965389238e+18,-0.6153286099,-1.278542757,-66.5799942
1450,1.55965389243e+18,-18.24676895,7.170853138,-9.131764412
1451,1.55965389248e+18,-10.70719719,-14.17650127,0.0574625954
1452,1.55965389253e+18,-17.06160164,-6.112583637,-1.204320192
1453,1.55965389258e+18,-7.889135361,-7.711959362,-0.7398309112
1454,1.55965389264e+18,-12.25389862,-5.183605194,-1.644866824
1455,1.55965389269e+18,-13.0583744,-5.897099018,0.3782954216
1456,1.55965389274e+18,-14.05199909,-5.856396198,0.07422251999
1457,1.55965389279e+18,-11.58829021,-7.039167881,2.561874151
1458,1.55965389284e+18,-11.52603912,-7.731113434,3.890696526
1459,1.5596538929e+18,-10.30016994,-7.714353561,4.42940855
1460,1.55965389295e+18,-10.22115898,-8.226728439,3.41423583
1461,1.559653893e+18,-9.026415825,-8.842057228,4.685595989
1462,1.55965389305e+18,-11.44702816,-9.52203083,4.338426113
1463,1.5596538931e+18,-11.37519932,-6.392713547,3.359167576
1464,1.55965389316e+18,-7.180429935,-3.0096035,5.035160065
1465,1.55965389321e+18,-2.628913641,0.2346389294,3.792531252
1466,1.55965389326e+18,2.339206457,2.463708878,4.149278164
1467,1.55965389331e+18,8.901913643,6.313702583,3.505218267
1468,1.55965389336e+18,15.09829712,18.1940937,-1.280937076
1469,1.55965389342e+18,12.38079548,19.84375,-3.208328247
1470,1.55965389347e+18,8.506858826,1.075029373,22.78870773
1471,1.55965389352e+18,-11.18126297,-11.54040432,-15.77827072
1472,1.55965389357e+18,-11.02324104,-18.77111435,-0.8092648983
1473,1.55965389362e+18,-9.3783741,-0.4357580245,2.554691315
1474,1.55965389368e+18,4.944177628,-2.150058746,1.233051538
1475,1.55965389373e+18,3.399870157,3.577046633,0.0574625954
1476,1.55965389378e+18,2.719896078,7.855615616,1.819648862
1477,1.55965389383e+18,4.379128456,6.272999763,2.739050388
1478,1.55965389388e+18,3.75422287,-0.4166038036,7.635342598
1479,1.55965389394e+18,0.945738554,-6.76382637,10.42946148
1480,1.55965389399e+18,1.436564922,-10.56832886,6.972128391
1481,1.55965389404e+18,-0.1747820675,-17.39440727,6.545947552
1482,1.55965389409e+18,-1.881899953,-18.14381409,4.608979225
1483,1.55965389414e+18,-4.257020473,-18.59633255,6.885934353
1484,1.55965389419e+18,-4.719115734,-12.95302677,4.319271564
1485,1.55965389425e+18,-1.312062621,-10.86282444,2.542719841
1486,1.5596538943e+18,0.1723877788,-10.41749001,3.402264595
1487,1.55965389435e+18,0.2178790122,-10.28819847,5.176422119
1488,1.5596538944e+18,0.01915419847,-8.959376335,4.731087208
1489,1.55965389445e+18,-0.313650012,-9.055147171,3.253819466
1490,1.55965389451e+18,-1.613741279,-10.1014452,3.605777979
1491,1.55965389456e+18,-2.0351336,-11.77504349,3.411841631
1492,1.55965389461e+18,-2.102173328,-12.98175812,3.421418667
1493,1.55965389466e+18,-1.948939681,-12.23235035,3.205934048
1494,1.55965389471e+18,-2.423006058,-11.46857643,3.179596901
1495,1.55965389477e+18,-3.510006905,-10.15890789,2.889889717
1496,1.55965389482e+18,-4.482082367,-9.320911407,3.311282158
1497,1.55965389487e+18,-5.130930901,-8.114197731,4.716721535
1498,1.55965389492e+18,-4.259414673,-6.031178474,6.026389599
1499,1.55965389497e+18,-6.311308384,-4.87953186,6.426233768
1500,1.55965389503e+18,-5.281770229,-1.92978549,7.86519289
1501,1.55965389508e+18,-4.292934895,0.4860377908,7.182824612
1502,1.55965389513e+18,-4.592218876,1.003201127,5.940196037
1503,1.55965389518e+18,-4.321666241,1.941756845,3.77337718
1504,1.55965389523e+18,-4.618556023,0.1987248063,3.605777979
1505,1.55965389529e+18,-3.311282158,-0.7925049663,-0.03830839694
1506,1.55965389534e+18,-3.691971779,-4.340820312,-2.418217659
1507,1.55965389539e+18,-5.569083214,-9.60343647,-2.346389294
1508,1.55965389544e+18,25.38410187,-10.85324764,6.974522591
1509,1.55965389549e+18,-17.83734703,-7.800547123,3.433390141
1510,1.55965389555e+18,-6.921848297,-7.623371124,0.7230709791
1511,1.5596538956e+18,-10.97056675,-9.433443069,0.5818088055
1512,1.55965389565e+18,-8.655303001,-11.28661156,1.283331275
1513,1.5596538957e+18,-8.217150688,-11.84447765,1.333611012
1514,1.55965389575e+18,-10.27383327,-9.912297249,1.206714511
1515,1.55965389581e+18,-9.871595383,-10.02961731,1.39825654
1516,1.55965389586e+18,-7.793364525,-11.81335163,2.825244188
1517,1.55965389591e+18,-11.40632534,-12.89077568,4.321666241
1518,1.55965389596e+18,-15.92911053,-16.00572777,6.984099388
1519,1.55965389601e+18,-17.21483612,-21.4072113,4.778972626
1520,1.55965389607e+18,-11.20760059,-21.66818619,-1.211503029
1521,1.55965389612e+18,2.221887112,-16.6210556,-5.106987953
1522,1.55965389617e+18,-12.90274715,-14.11425018,-6.296942711
1523,1.55965389622e+18,8.825297356,-7.676044941,-7.489291668
1524,1.55965389627e+18,2.600182533,-3.174808502,-2.250618219
1525,1.55965389633e+18,-1.39825654,-1.604164124,-0.004788549617
1526,1.55965389638e+18,-2.418217659,0.9098244309,1.391073704
1527,1.55965389643e+18,-4.549122334,0.5339232683,2.724684715
1528,1.55965389648e+18,-3.883513689,0.3112557232,3.624932051
1529,1.55965389653e+18,-3.854782343,-2.286532402,3.689577579
1530,1.55965389659e+18,-6.009629726,-5.147690773,3.802108288
1531,1.55965389664e+18,-7.199584484,-7.937020779,4.161249638
1532,1.55965389669e+18,-7.726325035,-9.754275322,3.936187744
1533,1.55965389674e+18,-4.726298332,-11.11422348,4.620950222
1534,1.55965389679e+18,-3.620143414,-16.13022995,10.40073013
1535,1.55965389685e+18,-2.406246185,-12.97457504,9.421471596
1536,1.5596538969e+18,-1.110943556,-10.74550533,8.068706512
1537,1.55965389695e+18,-2.942563772,-9.450202942,4.185192585
1538,1.559653897e+18,-4.098998547,-9.445414543,2.602576733
1539,1.55965389705e+18,-4.379128456,-9.914691925,1.810071707
1540,1.55965389711e+18,-3.296916485,-10.53002071,2.073441982
1541,1.55965389716e+18,-2.669616461,-11.74631214,2.741444588
1542,1.55965389721e+18,-3.897879362,-13.39117908,2.609759569
1543,1.55965389726e+18,-4.589824677,-12.87162113,4.465322495
1544,1.55965389731e+18,-2.822849989,-10.32650757,5.190787792
1545,1.55965389737e+18,-0.2059076279,-7.166064739,5.631334305
1546,1.55965389742e+18,0.14844504,-5.478100777,5.669642925
1547,1.55965389747e+18,-0.3423812985,-5.224307537,3.64887476
1548,1.55965389752e+18,-1.175588965,-5.81090498,1.252205729
1549,1.55965389757e+18,-2.628913641,-5.885127544,2.166818619
1550,1.55965389763e+18,-4.015198708,-5.487678051,4.577853203
1551,1.55965389768e+18,-7.134938717,-4.458139896,4.319271564
1552,1.55965389773e+18,-7.611399651,-3.94576478,4.010410309
1553,1.55965389778e+18,-8.743891716,-4.903474808,3.387898922
1554,1.55965389783e+18,-11.17168617,-6.160469055,3.213116884
1555,1.55965389789e+18,-13.30737972,-6.785374641,2.892283916
1556,1.55965389794e+18,-10.46537495,-3.840416908,6.787769318
1557,1.55965389799e+18,-12.15094471,-1.015172482,5.786962032
1558,1.55965389804e+18,-13.47258472,-0.3567469418,5.636122704
1559,1.55965389809e+18,-14.43747711,0.22266756,4.965725899
1560,1.55965389815e+18,-10.98732662,1.881899953,3.684788942
1561,1.5596538982e+18,-8.559532166,0.5506832004,3.052700281
1562,1.55965389825e+18,-4.551516533,-0.1292908341,0.7470137477
1563,1.5596538983e+18,-1.764580488,-12.5483942,-2.710319042
1564,1.55965389835e+18,-5.126142502,-11.77743816,-14.22917557
1565,1.55965389841e+18,10.41270161,-0.4980091453,0.7134938836
1566,1.55965389846e+18,2.58821106,-2.683982134,5.001639843
1567,1.55965389851e+18,-0.5435003638,-3.500429869,15.72320271
1568,1.55965389856e+18,-12.94823837,-13.81735992,10.35763264
1569,1.55965389861e+18,-22.81983376,-12.557971,0.8403904438
1570,1.55965389867e+18,-11.90672874,-12.64177132,9.663292885
1571,1.55965389872e+18,-17.3872242,-8.516435623,3.356773376
1572,1.55965389877e+18,-14.94985199,-6.031178474,2.703136206
1573,1.55965389882e+18,-13.42709351,-4.817280769,1.247417212
1574,1.55965389887e+18,-4.348002911,0.6416656375,1.88668859
1575,1.55965389893e+18,1.869928598,3.929004908,4.120546818
1576,1.55965389898e+18,3.210722446,7.367183685,6.079063892
1577,1.55965389903e+18,17.27229881,19.26672935,0.4381522834
1578,1.55965389908e+18,15.53884315,22.53252029,-6.280182838
1579,1.55965389913e+18,8.751074791,-1.750214934,21.30425644
1580,1.55965389919e+18,2.597788095,-16.05840111,-21.16539001
1581,1.55965389924e+18,-18.44788742,-12.44544029,2.26977253
1582,1.55965389929e+18,-3.004814863,-5.138113976,2.415823221
1583,1.55965389934e+18,1.668809533,0.1963305324,0.8475732803
1584,1.55965389939e+18,1.448536277,2.068653345,-0.5219519138
1585,1.55965389945e+18,1.189954638,6.471724987,1.606558442
1586,1.5596538995e+18,1.510787368,6.929031372,1.704723716
1587,1.55965389955e+18,0.9960182905,1.910631299,6.636929989
1588,1.5596538996e+18,-0.7374366522,-7.067899227,11.542799
1589,1.55965389965e+18,-1.750214934,-9.601041794,7.647313595
1590,1.55965389971e+18,5.525986195,-16.77907753,8.312922478
1591,1.55965389976e+18,2.212309837,-18.57957268,7.855615616
1592,1.55965389981e+18,-1.197137356,-16.58035278,8.619389534
1593,1.55965389986e+18,-4.091815472,-13.05358601,3.143682718
1594,1.55965389991e+18,-2.944957972,-10.49171257,1.599375606
1595,1.55965389997e+18,0.184359163,-9.81413269,4.197163582
1596,1.55965390002e+18,-0.3088614643,-9.60343647,5.300924301
1597,1.55965390007e+18,-1.307274103,-9.246688843,4.003227711
1598,1.55965390012e+18,-2.217098475,-9.574705124,2.968900681
1599,1.55965390017e+18,-2.827638626,-10.66888809,2.624125242
1600,1.55965390023e+18,-2.90664959,-11.78222656,2.870735407
1601,1.55965390028e+18,-2.717501879,-12.35685253,3.799714088
1602,1.55965390033e+18,-3.148471355,-11.37041092,4.03195858
1603,1.55965390038e+18,-4.946571827,-11.50688457,4.156461239
1604,1.55965390043e+18,-5.109382629,-10.93225861,6.237085819
1605,1.55965390049e+18,-6.677632332,-10.0822916,7.010436535
1606,1.55965390054e+18,-4.000833035,-6.792557716,7.472531796
1607,1.55965390059e+18,-0.09098244458,-0.7087053657,4.302511692
1608,1.55965390064e+18,9.0335989,3.493247032,7.034379482
1609,1.55965390069e+18,7.539571285,-3.555498123,2.56666255
1610,1.55965390075e+18,-3.196356773,-8.595446587,-5.138113976
1611,1.5596539008e+18,-5.748653889,-17.38004112,-2.387091875
1612,1.55965390085e+18,-5.408666611,-21.19172668,2.880312681
1613,1.5596539009e+18,-2.717501879,-21.22524643,-3.311282158
1614,1.55965390095e+18,-23.04489517,-7.977723598,-2.894678354
1615,1.55965390101e+18,-9.162889481,-0.002394274808,-3.148471355
1616,1.55965390106e+18,-8.059128761,-5.990475655,-1.762186289
1617,1.55965390111e+18,-18.00015831,-11.16929245,-3.689577579
1618,1.55965390116e+18,-12.47177792,-11.67208958,0.7901107073
1619,1.55965390121e+18,-12.20601273,-7.958569527,1.37910223
1620,1.55965390127e+18,-14.73197269,-8.616994858,0.03112557158
1621,1.55965390132e+18,-10.04158878,-8.650514603,2.339206457
1622,1.55965390137e+18,-10.35284424,-9.73751545,2.396669149
1623,1.55965390142e+18,-12.08629894,-10.05834866,4.024775982
1624,1.55965390147e+18,-9.22992897,-7.86758709,2.789330244
1625,1.55965390153e+18,-7.585062504,-2.676799297,2.827638626
1626,1.55965390158e+18,-2.880312681,-0.8068706393,1.470084786
1627,1.55965390163e+18,-1.369525194,0.3567469418,2.772570133
1628,1.55965390168e+18,2.755810261,3.890696526,5.080651283
1629,1.55965390173e+18,9.60343647,8.365595818,4.891503334
1630,1.55965390179e+18,18.00015831,22.58758926,-1.204320192
1631,1.55965390184e+18,15.04083443,21.10313797,-1.97288239
1632,1.55965390189e+18,2.99044919,-5.231490612,27.58922768
1633,1.55965390194e+18,4.352791786,-26.4160347,-11.28900528
1634,1.55965390199e+18,-19.10631371,-11.30576611,-1.975276709
1635,1.55965390205e+18,-4.055901527,-2.43976593,0.7565908432
1636,1.5596539021e+18,3.493247032,-0.2681587934,-0.4980091453
1637,1.55965390215e+18,2.549902678,3.033546209,-1.723877907
1638,1.5596539022e+18,3.239453793,7.266623974,0.1245022863
1639,1.55965390225e+18,5.444581032,2.645673752,1.189954638
1640,1.55965390231e+18,5.308107376,-8.784594536,7.582668304
1641,1.55965390236e+18,3.483669758,-15.03365135,6.548341751
1642,1.55965390241e+18,-3.641691923,-30.13194847,7.269018173
1643,1.55965390246e+18,-4.570670605,-27.54373741,8.89951992
1644,1.55965390251e+18,-6.538764477,-15.53884315,4.848406315
1645,1.55965390257e+18,-1.752609134,-12.10784817,3.299310684
1646,1.55965390262e+18,-1.58979845,-9.732727051,2.822849989
1647,1.55965390267e+18,-1.070240855,-8.332076073,4.101392746
1648,1.55965390272e+18,-1.529941559,-7.439012051,3.912245035
1649,1.55965390277e+18,-2.293715239,-8.150111198,3.727885962
1650,1.55965390283e+18,-3.045517445,-10.06553173,3.842811108
1651,1.55965390288e+18,-2.940169573,-11.80138016,2.983266354
1652,1.55965390293e+18,-1.494027495,-14.00650787,2.264983892
1653,1.55965390298e+18,0.2561874092,-13.64257812,1.769369125
1654,1.55965390303e+18,0.3878725171,-12.44065189,1.673598051
1655,1.55965390309e+18,-0.4142095447,-11.708004,2.264983892
1656,1.55965390314e+18,-0.7494080067,-10.96817303,2.985660791
1657,1.55965390319e+18,-1.551490068,-9.534002304,2.86355257
1658,1.55965390324e+18,-2.679193497,-7.951386452,4.580247879
1659,1.55965390329e+18,-4.958543301,-5.87555027,6.205960274
1660,1.55965390335e+18,-7.106207848,-4.084632874,7.391126156
1661,1.5596539034e+18,-8.212362289,-4.13730669,7.489291668
1662,1.55965390345e+18,-6.471724987,-1.913025618,7.630553722
1663,1.5596539035e+18,-7.977723598,-1.156434774,6.929031372
1664,1.55965390355e+18,-11.58829021,-0.3950553536,8.425453186
1665,1.55965390361e+18,-9.543579102,3.340013266,7.793364525
1666,1.55965390366e+18,-7.12296772,4.467716694,5.269798756
1667,1.55965390371e+18,0.3112557232,4.843617916,2.861158371
1668,1.55965390376e+18,-0.5865973234,-0.332804203,5.796539307
1669,1.55965390381e+18,-10.14693642,-5.152479172,4.067873001
1670,1.55965390387e+18,-14.52127647,-14.6697216,3.806896925
1671,1.55965390392e+18,13.71680069,6.196382999,-5.212336063
1672,1.55965390397e+18,7.513234138,8.956981659,-0.6249057055
1673,1.55965390402e+18,9.0335989,3.744645834,5.439792156
1674,1.55965390407e+18,6.385530949,3.246636629,8.114197731
1675,1.55965390413e+18,0.4884320498,2.492439985,11.99771118
1676,1.55965390418e+18,-6.409473896,0.2274561077,14.04481602
1677,1.55965390423e+18,-1.78134048,6.471724987,9.857229233
1678,1.55965390428e+18,10.95380688,9.634561539,2.774964571
1679,1.55965390433e+18,14.31058025,12.07672215,7.0822649
1680,1.55965390439e+18,22.1542244,17.75115395,0.184359163
1681,1.55965390444e+18,12.46698856,7.012830734,2.928198099
1682,1.55965390449e+18,1.252205729,-7.103813171,27.75682831
1683,1.55965390454e+18,13.12780857,-41.14561081,-5.209941864
1684,1.55965390459e+18,-17.99776459,0.2705530524,0.09337671846
1685,1.55965390465e+18,-0.9792584181,-0.648848474,-0.1867534369
1686,1.5596539047e+18,6.284971237,3.24424243,2.0351336
1687,1.55965390475e+18,4.041535854,4.721509933,1.867534399
1688,1.5596539048e+18,3.208328247,4.233078003,3.220299721
1689,1.55965390485e+18,0.4166038036,-3.129317284,4.798126698
1690,1.55965390491e+18,-5.303318501,-13.2666769,6.390319347
1691,1.55965390496e+18,-2.727078915,-17.65538216,12.38079548
1692,1.55965390501e+18,-3.823656797,-17.70566177,6.536370277
1693,1.55965390506e+18,-8.233911514,-18.85012627,2.796513081
1694,1.55965390511e+18,-11.18126297,-13.02964306,2.145270348
1695,1.55965390517e+18,-6.948185444,-10.62579155,0.2394274771
1696,1.55965390522e+18,-2.571451187,-10.24031353,1.326428294
1697,1.55965390527e+18,-1.0606637,-9.574705124,3.37113905
1698,1.55965390532e+18,0.4405465722,-8.616994858,4.958543301
1699,1.55965390537e+18,-0.1197137386,-8.480521202,3.632114887
1700,1.55965390543e+18,-1.532335877,-9.507665634,2.58581686
1701,1.55965390548e+18,-2.937775135,-11.48773098,2.796513081
1702,1.55965390553e+18,-2.059076309,-12.62501144,2.861158371
1703,1.55965390558e+18,-1.652049661,-13.41272736,3.749434233
1704,1.55965390563e+18,-1.745426297,-13.3241396,4.608979225
1705,1.55965390569e+18,-3.770982742,-11.89715195,5.442186832
1706,1.55965390574e+18,-5.70555687,-8.830085754,4.628133297
1707,1.55965390579e+18,-6.646506786,-7.556331158,4.87953186
1708,1.55965390584e+18,-6.282577038,-5.217124939,4.498842239
1709,1.55965390589e+18,-7.50844574,-4.56109333,4.649681568
1710,1.55965390595e+18,-6.557918549,-1.429382086,5.411061287
1711,1.559653906e+18,-5.892310143,-0.634482801,5.794145107
1712,1.55965390605e+18,-5.008822918,1.977671027,5.454157829
1713,1.5596539061e+18,-4.249837875,1.007989645,5.435003757
1714,1.55965390615e+18,-3.940976381,1.259388566,2.389486313
1715,1.55965390621e+18,-2.784541607,-2.308080912,2.803695917
1716,1.55965390626e+18,-0.9002473354,-6.261028767,1.23065722
1717,1.55965390631e+18,-4.170826912,-8.42305851,2.77975297
1718,1.55965390636e+18,-1.288119793,13.66173172,15.45743847
1719,1.55965390641e+18,-7.079870701,10.17087936,5.006428719
1720,1.55965390647e+18,-3.268185139,4.738269806,5.861184597
1721,1.55965390652e+18,-9.251478195,-5.607391834,6.952973843
1722,1.55965390657e+18,-13.32892799,-7.855615616,2.485257149
1723,1.55965390662e+18,-17.36088753,-14.09988403,1.644866824
1724,1.55965390667e+18,-12.5962801,-9.768641472,3.519583941
1725,1.55965390672e+18,-9.845257759,-4.654470444,2.518777132
1726,1.55965390678e+18,-9.706390381,-5.272192955,4.419831276
1727,1.55965390683e+18,-9.469356537,-6.323279858,3.232270956
1728,1.55965390688e+18,-14.75352097,-10.65691757,3.550709486
1729,1.55965390693e+18,-9.390345573,-10.67607117,4.948966026
1730,1.55965390698e+18,-11.4949131,-9.198803902,5.463735104
1731,1.55965390704e+18,-8.559532166,-7.436617374,4.412648678
1732,1.55965390709e+18,-5.964138508,-3.45493865,-0.09577099234
1733,1.55965390714e+18,-2.983266354,0.1652049571,-0.8691217303
1734,1.55965390719e+18,0.632088542,2.834821463,6.208354473
1735,1.55965390724e+18,3.847599506,7.027196407,10.31453609
1736,1.5596539073e+18,14.5476141,11.56913567,8.95219326
1737,1.55965390735e+18,15.81657982,18.95786858,0.5482889414
1738,1.5596539074e+18,10.49889469,11.68884945,3.320859194
1739,1.55965390745e+18,-5.178816319,-10.23313046,41.31800079
1740,1.5596539075e+18,17.12145996,-59.61504745,-2.46131444
1741,1.55965390756e+18,-18.96265602,-1.869928598,0.7972934842
1742,1.55965390761e+18,-4.632921696,-2.846792698,-0.6823683381
1743,1.55965390766e+18,5.305713177,2.126116037,-0.03351984918
1744,1.55965390771e+18,4.11336422,4.944177628,1.893871427
1745,1.55965390776e+18,5.609786034,6.536370277,4.743058205
1746,1.55965390782e+18,3.45493865,0.7948992252,6.035966873
1747,1.55965390787e+18,-0.184359163,-7.137333393,8.039975166
1748,1.55965390792e+18,-1.259388566,-12.49571991,8.96655941
1749,1.55965390797e+18,1.594586968,-14.30100346,9.816526413
1750,1.55965390802e+18,-0.6871568561,-15.13660526,5.988081455
1751,1.55965390808e+18,-2.60736537,-16.81978035,5.978504181
1752,1.55965390813e+18,-6.033572674,-14.7128191,4.520390987
1753,1.55965390818e+18,-4.290540695,-11.19323444,2.16203022
1754,1.55965390823e+18,-0.8643332124,-10.49889469,2.676799297
1755,1.55965390828e+18,0.1364736706,-9.534002304,3.883513689
1756,1.55965390834e+18,0.3495641351,-9.186832428,4.795732498
1757,1.55965390839e+18,-0.2585816681,-9.510059357,4.144489765
1758,1.55965390844e+18,-0.2561874092,-9.806949615,2.633702278
1759,1.55965390849e+18,-1.333611012,-11.00887585,2.384697676
1760,1.55965390854e+18,-1.630501151,-11.27464008,2.272166729
1761,1.5596539086e+18,-1.383890867,-11.02802944,2.104567528
1762,1.55965390865e+18,-1.106154919,-11.26985168,3.311282158
1763,1.5596539087e+18,-2.063864946,-11.44463348,3.340013266
1764,1.55965390875e+18,-4.743058205,-10.44382668,2.985660791
1765,1.5596539088e+18,-6.335251331,-8.640937805,3.816473961
1766,1.55965390886e+18,-6.1939888,-6.589044094,9.014444351
1767,1.55965390891e+18,-7.666468143,-5.140508175,9.727938652
1768,1.55965390896e+18,-6.019207001,-1.711906433,10.17087936
1769,1.55965390901e+18,-7.257047176,-0.5171633363,7.391126156
1770,1.55965390906e+18,-6.641718388,-0.03830839694,6.174834728
1771,1.55965390912e+18,-5.648094177,0.9768640995,4.637710094
1772,1.55965390917e+18,-4.003227711,1.513181686,3.220299721
1773,1.55965390922e+18,-0.5554717779,1.007989645,2.317657948
1774,1.55965390927e+18,1.879505754,0.6153286099,-0.1867534369
1775,1.55965390932e+18,1.987248063,-1.968093872,0.7757450342
1776,1.55965390938e+18,2.26737833,-7.436617374,0.481249243
1777,1.55965390943e+18,-7.934626579,-13.02964306,-7.099024773
1778,1.55965390948e+18,4.719115734,4.120546818,-4.292934895
1779,1.55965390953e+18,-15.46940994,-8.710371971,8.281796455
1780,1.55965390958e+18,-12.3736124,-10.13735962,3.181991339
1781,1.55965390964e+18,-8.111803055,-11.40871906,-0.5147690773
1782,1.55965390969e+18,-10.31214142,-11.27464008,-2.667222023
1783,1.55965390974e+18,-7.479714394,-14.8780241,-1.058269501
1784,1.55965390979e+18,-6.574678421,-12.89556408,-1.312062621
1785,1.55965390984e+18,-9.481328011,-13.3241396,-0.612934351
1786,1.5596539099e+18,-6.038361073,-11.90194035,2.224281311
1787,1.55965390995e+18,-7.733507633,-11.00408745,0.08858817071
1788,1.55965391e+18,-6.431022167,-10.46058655,-1.592192769
1789,1.55965391005e+18,-6.457359314,-11.71518707,1.324033976
1790,1.5596539101e+18,-7.541965485,-11.50209618,1.479661822
1791,1.55965391016e+18,-13.84130287,-14.24593544,-1.807677507
1792,1.55965391021e+18,-8.406298637,-12.00728798,1.434170604
1793,1.55965391026e+18,-9.893143654,-9.067118645,2.427794695
1794,1.55965391031e+18,-6.517216206,-7.846038342,3.907456398
1795,1.55965391036e+18,-6.421444893,-4.673624516,3.141288519
1796,1.55965391042e+18,-1.735849261,-1.812466025,2.214704275
1797,1.55965391047e+18,-2.655250788,0.5051919818,1.173194647
1798,1.55965391052e+18,0.3519583941,2.22667551,2.830032825
1799,1.55965391057e+18,3.22269392,5.566689014,4.49644804
1800,1.55965391062e+18,7.781393051,10.07750225,4.606584549
1801,1.55965391068e+18,17.88523293,21.80226707,-0.5961744189
1802,1.55965391073e+18,14.64577866,22.61392593,-3.9864676
1803,1.55965391078e+18,12.93866062,2.260195494,23.3681221
1804,1.55965391083e+18,0.08140534163,3.591412306,-18.06480408
1805,1.55965391088e+18,-1.106154919,-17.9403019,1.108549237
1806,1.55965391094e+18,-14.84210968,0.4884320498,4.280963421
1807,1.55965391099e+18,-2.600182533,-3.703943014,-0.1532335877
1808,1.55965391104e+18,2.916226625,2.554691315,-1.592192769
1809,1.55965391109e+18,4.529967785,4.769395351,-0.59378016
1810,1.55965391114e+18,4.386311531,3.478881359,1.154040456
1811,1.5596539112e+18,1.980065227,-7.577879906,9.81413269
1812,1.55965391125e+18,-2.478074312,-13.15414619,10.72395706
1813,1.5596539113e+18,-1.592192769,-18.06001472,1.965699673
1814,1.55965391135e+18,6.002447128,-24.44315147,5.315289974
1815,1.5596539114e+18,-1.857957244,-26.48307419,13.88679409
1816,1.55965391145e+18,-4.077449799,-13.1158371,3.0119977
1817,1.55965391151e+18,-1.879505754,-10.63057995,2.181184292
1818,1.55965391156e+18,-0.04070267081,-8.442213058,3.363956213
1819,1.55965391161e+18,-0.6177229285,-7.86519289,5.947378635
1820,1.55965391166e+18,-0.6919454336,-8.18602562,5.090228081
1821,1.55965391171e+18,-1.419804931,-9.56273365,3.857176781
1822,1.55965391177e+18,-2.33441782,-11.93306541,3.20353961
1823,1.55965391182e+18,-1.735849261,-13.45343018,2.001613855
1824,1.55965391187e+18,0.335198462,-13.81017685,1.508393168
1825,1.55965391192e+18,1.319245458,-12.52923965,1.496421814
1826,1.55965391197e+18,0.4716721475,-11.41111374,1.601769805
1827,1.55965391203e+18,-0.6009629965,-10.11820507,1.120520592
1828,1.55965391208e+18,-1.175588965,-8.667274475,1.094183564
1829,1.55965391213e+18,-1.170800328,-7.862798691,1.594586968
1830,1.55965391218e+18,-2.339206457,-8.176448822,3.170019865
1831,1.55965391223e+18,-2.43976593,-7.316903591,4.422225475
1832,1.55965391229e+18,-3.45493865,-6.481301785,4.671230316
1833,1.55965391234e+18,-6.150891781,-6.316096783,5.334444046
1834,1.55965391239e+18,-6.414262295,-5.061496735,4.934600353
1835,1.55965391244e+18,-7.065505028,-5.298530102,5.34641552
1836,1.55965391249e+18,-7.601822376,-4.889109135,5.49246645
1837,1.55965391255e+18,-9.093455315,-4.652075768,5.34402132
1838,1.5596539126e+18,-9.07430172,-4.625739098,6.150891781
1839,1.55965391265e+18,-9.510059357,-4.199557781,7.072687626
1840,1.5596539127e+18,-9.093455315,-2.858764172,8.511647224
1841,1.55965391275e+18,-7.431828976,-0.6009629965,7.367183685
1842,1.55965391281e+18,-4.843617916,2.50201726,6.900300026
1843,1.55965391286e+18,-2.236252785,3.184385538,6.08864069
1844,1.55965391291e+18,-2.126116037,2.537931204,4.927417755
1845,1.55965391296e+18,-1.331216812,0.5147690773,2.14048171
1846,1.55965391301e+18,2.047105074,-2.664827824,2.202732801
1847,1.55965391307e+18,0.14844504,-9.160495758,1.077423692
1848,1.55965391312e+18,-5.24106741,-11.50927925,-7.472531796
1849,1.55965391317e+18,-19.61389923,-14.01847935,-18.42394447
1850,1.55965391322e+18,-8.868393898,-14.47099686,5.461340904
1851,1.55965391327e+18,-5.674431324,-10.4222784,-1.575432777
1852,1.55965391333e+18,-5.106987953,-15.28026199,7.178035736
1853,1.55965391338e+18,-7.647313595,-16.24754906,-1.513181686
1854,1.55965391343e+18,-7.0846591,-14.18128967,-0.7805336118
1855,1.55965391348e+18,-7.113390446,-14.21480942,0.8906702399
1856,1.55965391353e+18,-0.9696813226,-14.06397057,1.307274103
1857,1.55965391359e+18,-6.205960274,-12.81415844,3.000026226
1858,1.55965391364e+18,-8.794171333,-9.648927689,2.097384691
1859,1.55965391369e+18,-3.395081758,-9.28499794,3.160442829
1860,1.55965391374e+18,-4.355185986,-8.243488312,0.8523618579
1861,1.55965391379e+18,-3.905062199,-8.346442223,-0.22266756
1862,1.55965391385e+18,-4.185192585,-9.028810501,-1.070240855
1863,1.5596539139e+18,-2.094990492,-8.949799538,-0.1867534369
1864,1.55965391395e+18,-3.007209063,-8.542772293,-0.7877163887
1865,1.559653914e+18,-3.790137053,-8.305739403,-0.3615354896
1866,1.55965391405e+18,-4.036747456,-7.582668304,-0.2202732861
1867,1.55965391411e+18,-3.723097324,-7.290566921,0.5578660369
1868,1.55965391416e+18,-4.635315895,-7.659285069,0.7110996246
1869,1.55965391421e+18,-5.339232922,-7.57309103,0.8068706393
1870,1.55965391426e+18,-5.839636326,-7.541965485,1.874717116
1871,1.55965391431e+18,-6.004841328,-6.993676662,1.714300752
1872,1.55965391437e+18,-6.502850533,-7.106207848,1.458113313
1873,1.55965391442e+18,-5.399089813,-7.417463303,1.838803053
1874,1.55965391447e+18,-5.394300938,-8.231516838,2.18357873
1875,1.55965391452e+18,-5.135719299,-8.487704277,1.834014535
1876,1.55965391457e+18,-5.791750908,-8.624177933,1.537124395
1877,1.55965391463e+18,-4.812492371,-8.59305191,1.551490068
1878,1.55965391468e+18,-5.688796997,-8.751074791,2.621730804
1879,1.55965391473e+18,-8.135746002,-8.140534401,2.336812258
1880,1.55965391478e+18,-7.369577885,-7.987300873,4.948966026
1881,1.55965391483e+18,-9.780612946,-9.198803902,5.882733345
1882,1.55965391489e+18,-10.92986488,-7.44140625,5.071074009
1883,1.55965391494e+18,-12.46938324,-7.951386452,4.989668846
1884,1.55965391499e+18,-11.45181656,-8.480521202,3.395081758
1885,1.55965391504e+18,-8.202785492,-6.964945316,2.116539001
1886,1.55965391509e+18,-5.911464691,-5.035160065,2.830032825
1887,1.55965391515e+18,-1.903448462,-1.692752242,2.844398499
1888,1.5596539152e+18,0.3639297783,1.084606528,3.040729046
1889,1.55965391525e+18,2.624125242,4.21631813,3.747040033
1890,1.5596539153e+18,10.01764584,11.17408085,4.565882206
1891,1.55965391535e+18,18.42394447,24.00020981,0.2106961906
1892,1.55965391541e+18,14.08073044,16.44866753,-2.473285913
1893,1.55965391546e+18,7.379155159,-3.538738251,28.75284576
1894,1.55965391551e+18,11.71518707,-17.49975395,-9.488511086
1895,1.55965391556e+18,-8.794171333,-10.84367085,-5.569083214
1896,1.55965391561e+18,-10.10862827,2.681587696,3.768588543
1897,1.55965391567e+18,-1.539518714,-1.027143836,0.9170072675
1898,1.55965391572e+18,2.425400496,3.335224867,0.6033572555
1899,1.55965391577e+18,3.026363373,7.61379385,2.011190891
1900,1.55965391582e+18,4.367157459,5.815693378,4.292934895
1901,1.55965391587e+18,3.019180536,-1.410227895,8.178842545
1902,1.55965391593e+18,-3.280156374,-9.0335989,7.982511997
1903,1.55965391598e+18,0.5435003638,-12.88598728,9.49569416
1904,1.55965391603e+18,3.742251635,-14.45663166,9.095849991
1905,1.55965391608e+18,0.167599231,-17.06639099,5.51640892
1906,1.55965391613e+18,-3.086220264,-17.18610382,5.183605194
1907,1.55965391619e+18,-4.994457245,-13.70004082,4.240260601
1908,1.55965391624e+18,-2.789330244,-11.78701496,3.023969173
1909,1.55965391629e+18,0.1652049571,-11.11182976,4.034353256
1910,1.55965391634e+18,1.687963724,-9.909903526,5.458946705
1911,1.55965391639e+18,1.070240855,-8.954587936,5.154873848
1912,1.55965391645e+18,0.1077423692,-8.772623062,3.720703125
1913,1.5596539165e+18,-0.7613793612,-9.943423271,3.258608103
1914,1.55965391655e+18,-0.7254652381,-11.34407425,3.208328247
1915,1.5596539166e+18,0.1987248063,-12.36882401,2.298503876
1916,1.55965391665e+18,1.776551962,-11.76546669,2.784541607
1917,1.55965391671e+18,1.635289669,-10.60903168,1.54909575
1918,1.55965391676e+18,-0.004788549617,-9.926663399,1.007989645
1919,1.55965391681e+18,-1.577827096,-9.289786339,0.9122186899
1920,1.55965391686e+18,-2.174001455,-8.595446587,1.276148438
1921,1.55965391691e+18,-1.975276709,-7.905895233,1.592192769
1922,1.55965391697e+18,-2.947352171,-7.86758709,2.434977531
1923,1.55965391702e+18,-3.421418667,-7.99687767,3.581835032
1924,1.55965391707e+18,-3.816473961,-7.371972084,3.929004908
1925,1.55965391712e+18,-4.915446281,-6.998465061,3.864359617
1926,1.55965391717e+18,-6.251451492,-7.132544518,4.209135056
1927,1.55965391723e+18,-6.06230402,-7.374366283,4.936994553
1928,1.55965391728e+18,-6.251451492,-7.233104229,5.767807961
1929,1.55965391733e+18,-7.795758724,-8.176448822,6.08624649
1930,1.55965391738e+18,-10.33368969,-7.529994488,8.75586319
1931,1.55965391743e+18,-8.921068192,-4.498842239,11.18605232
1932,1.55965391749e+18,-9.237112045,-0.2154847383,8.284191132
1933,1.55965391754e+18,-6.608198643,-0.4788549542,6.852414608
1934,1.55965391759e+18,-3.100585938,-0.4764606953,2.051893473
1935,1.55965391764e+18,-6.691998005,-8.049551964,-1.247417212
1936,1.55965391769e+18,-10.07271385,-14.52845955,-8.332076073
1937,1.55965391775e+18,-7.733507633,-7.939415455,-53.41866684
1938,1.5596539178e+18,0.1460507661,14.53085423,7.096630573
1939,1.55965391785e+18,-0.5339232683,-2.930592299,7.661679268
1940,1.5596539179e+18,-9.126976013,-2.396669149,10.69283104
1941,1.55965391795e+18,-12.82612991,-3.375927448,7.218738556
1942,1.55965391801e+18,-19.24278641,-6.179623127,3.787742853
1943,1.55965391806e+18,-16.91315651,-11.58829021,7.597033978
1944,1.55965391811e+18,-14.00650787,-6.993676662,6.373559475
1945,1.55965391816e+18,-12.57233715,-4.369551659,4.932206154
1946,1.55965391821e+18,-2.542719841,-2.233858347,7.877163887
1947,1.55965391827e+18,-5.530774593,-0.4740664065,5.231490612
1948,1.55965391832e+18,-0.6799740195,2.200338602,4.448562622
1949,1.55965391837e+18,3.957736254,8.006455421,4.884320736
1950,1.55965391842e+18,16.07037163,22.1350708,0.7422251701
1951,1.55965391847e+18,17.36088753,20.47105026,2.188367128
1952,1.55965391853e+18,12.09348202,1.766974807,28.88453102
1953,1.55965391858e+18,10.68804264,-18.88843346,-13.97298813
1954,1.55965391863e+18,-28.98030281,-7.422251701,5.432609558
1955,1.55965391868e+18,0.8834874034,-6.40468502,-3.718308687
1956,1.55965391873e+18,4.721509933,2.154847383,0.9002473354
1957,1.55965391879e+18,3.402264595,4.374340057,-1.711906433
1958,1.55965391884e+18,3.759011507,9.955394745,-0.8954587579
1959,1.55965391889e+18,3.361561775,6.471724987,0.9194015265
1960,1.55965391894e+18,2.813272953,-0.2825244367,3.866753817
1961,1.55965391899e+18,0.7996878028,-7.606611252,9.110215187
1962,1.55965391905e+18,-2.320052385,-14.154953,6.043149471
1963,1.5596539191e+18,-1.005595446,-18.82618332,12.25868702
1964,1.55965391915e+18,-1.412622094,-19.11349487,6.632141113
1965,1.5596539192e+18,-3.778165579,-19.24518013,8.645726204
1966,1.55965391925e+18,-3.699154615,-12.38558388,4.03195858
1967,1.55965391931e+18,-2.111750364,-10.8101511,1.455719113
1968,1.55965391936e+18,-0.2106961906,-9.258660316,1.92978549
1969,1.55965391941e+18,0.6775797606,-8.38235569,4.180403709
1970,1.55965391946e+18,0.44533512,-9.150918007,5.700768471
1971,1.55965391951e+18,-0.670396924,-9.565128326,4.175615311
1972,1.55965391957e+18,-1.288119793,-10.77663136,2.952140808
1973,1.55965391962e+18,-1.383890867,-12.39994907,1.917814136
1974,1.55965391967e+18,-0.01675992459,-11.84447765,1.154040456
1975,1.55965391972e+18,0.3759011328,-10.70240879,1.12291491
1976,1.55965391977e+18,-0.1867534369,-9.828497887,1.556278586
1977,1.55965391983e+18,-0.7518022656,-8.777411461,1.812466025
1978,1.55965391988e+18,-1.170800328,-8.408693314,2.650462151
1979,1.55965391993e+18,-1.604164124,-8.719948769,3.134105682
1980,1.55965391998e+18,-3.553103924,-8.624177933,2.995237827
1981,1.55965392003e+18,-4.448562622,-8.286584854,3.924216509
1982,1.55965392009e+18,-5.626545906,-7.173247337,4.831646442
1983,1.55965392014e+18,-6.426233768,-6.761432171,5.497254848
1984,1.55965392019e+18,-6.277788639,-6.016812801,6.519610405
1985,1.55965392024e+18,-6.893116951,-5.985687256,6.560312748
1986,1.55965392029e+18,-6.665660858,-5.1333251,6.533976078
1987,1.55965392035e+18,-7.798152924,-4.843617916,7.067899227
1988,1.5596539204e+18,-6.794951916,-3.572257996,7.348029613
1989,1.55965392045e+18,-8.205180168,-0.4309694767,6.838048935
1990,1.5596539205e+18,-7.278595448,2.106961727,6.861991405
1991,1.55965392055e+18,-4.664047241,4.151672363,4.970514297
1992,1.55965392061e+18,-2.253012657,3.550709486,3.957736254
1993,1.55965392066e+18,-1.881899953,-0.6057515144,2.396669149
1994,1.55965392071e+18,0.2633702159,-3.016786337,-2.786935806
1995,1.55965392076e+18,-0.335198462,-6.253845692,-2.916226625
1996,1.55965392081e+18,-1.668809533,-9.380768776,-5.913858891
1997,1.55965392087e+18,-7.460560322,-10.81733322,-11.47336483
1998,1.55965392092e+18,-5.585843086,-15.16294193,-6.253845692
1999,1.55965392097e+18,-3.852388144,-11.15253162,5.042342663
2000,1.55965392102e+18,-0.2849186957,-22.04408836,-4.932206154
