,Time (s),Acceleration x (m/s^2),Acceleration y (m/s^2),Acceleration z (m/s^2)
0,1.55965441905e+18,-11.76786041,0.1053480953,8.499675751
1,1.5596544191e+18,-11.20281219,1.539518714,7.020013809
2,1.55965441916e+18,-7.077476501,2.650462151,7.805335999
3,1.55965441921e+18,-4.984879971,3.519583941,2.415823221
4,1.55965441926e+18,-0.277735889,4.106181145,-3.917033672
5,1.55965441931e+18,1.12291491,2.705530643,-3.162837029
6,1.55965441936e+18,4.798126698,5.573871613,-11.08788681
7,1.55965441942e+18,-2.092596292,0.6225114465,0.926584363
8,1.55965441947e+18,0.5746259689,1.565855742,16.01530457
9,1.55965441952e+18,-0.2537931204,-11.8301115,3.921822071
10,1.55965441957e+18,-7.108602047,-40.67633438,28.14709473
11,1.55965441962e+18,-8.901913643,-14.73197269,12.22516727
12,1.55965441968e+18,-13.6641264,-3.234665155,10.75268841
13,1.55965441973e+18,-16.38881111,-11.4805479,5.624151707
14,1.55965441978e+18,-8.573898315,-4.498842239,5.446975231
15,1.55965441983e+18,-12.15573311,-4.43180275,-10.50847244
16,1.55965441988e+18,2.604970932,-4.948966026,-17.41834831
17,1.55965441994e+18,19.38883781,5.537957668,-23.2316494
18,1.55965441999e+18,-5.188393593,3.917033672,6.466936111
19,1.55965442004e+18,-2.75820446,1.142069101,14.58592224
20,1.55965442009e+18,-6.292154312,-23.98105621,5.746259689
21,1.55965442014e+18,-4.434196949,-7.465348721,27.83105087
22,1.5596544202e+18,-10.38875866,-8.813325882,11.27224541
23,1.55965442025e+18,-11.67687798,-7.620976925,9.538790703
24,1.5596544203e+18,-12.67529106,-13.13499165,12.54599953
25,1.55965442035e+18,-7.934626579,-6.790163517,9.534002304
26,1.5596544204e+18,-5.746259689,-4.917840481,1.628106833
27,1.55965442046e+18,-1.841197371,-4.867560863,3.608172178
28,1.55965442051e+18,0.3447755575,4.637710094,-5.439792156
29,1.55965442056e+18,-2.770175934,-7.127756119,-6.440599442
30,1.55965442061e+18,-2.470891714,0.7398309112,-10.71198559
31,1.55965442066e+18,-4.783761024,5.669642925,-3.885908127
32,1.55965442072e+18,10.00806904,-0.4261809289,6.93621397
33,1.55965442077e+18,1.872322917,-46.98524857,-12.83331299
34,1.55965442082e+18,-9.713572502,-20.04965782,11.06394386
35,1.55965442087e+18,-2.264983892,1.78134048,7.771816254
36,1.55965442092e+18,-3.189173937,-0.5865973234,12.4262867
37,1.55965442098e+18,-5.95695591,-8.3153162,14.29142666
38,1.55965442103e+18,-10.05834866,-11.50927925,13.4414587
39,1.55965442108e+18,-15.15097141,-8.942616463,8.909096718
40,1.55965442113e+18,-10.90352726,-5.442186832,4.333637238
41,1.55965442118e+18,-1.491633177,4.024775982,3.54113245
42,1.55965442124e+18,5.710345268,0.6057515144,-20.88047028
43,1.55965442129e+18,6.244268894,-10.62339687,-29.35380936
44,1.55965442134e+18,9.182044029,8.164477348,-13.2666769
45,1.55965442139e+18,-13.79820538,-9.28499794,41.99079132
46,1.55965442144e+18,-11.81814003,-24.57004738,17.60510254
47,1.5596544215e+18,-12.13657856,-3.701548815,13.04161453
48,1.55965442155e+18,-15.34251308,-11.49730778,12.01447105
49,1.5596544216e+18,-13.48216152,-9.69681263,12.69923401
50,1.55965442165e+18,-13.70961761,-4.968120098,7.731113434
51,1.5596544217e+18,-9.929058075,-2.329629421,4.273780346
52,1.55965442176e+18,-8.557138443,-1.845985889,3.725491524
53,1.55965442181e+18,-7.793364525,-5.569083214,1.383890867
54,1.55965442186e+18,-2.686376333,2.463708878,-0.3759011328
55,1.55965442191e+18,-10.9849329,-6.969734192,9.397528648
56,1.55965442196e+18,-14.54043102,-7.860404015,7.175641537
57,1.55965442202e+18,-14.17650127,-7.424646378,1.381496549
58,1.55965442207e+18,-7.829278469,0.8475732803,9.680052757
59,1.55965442212e+18,5.267404556,3.672817469,-11.61223316
60,1.55965442217e+18,-1.374313712,-14.56437397,-0.6584255695
61,1.55965442222e+18,6.672843933,-0.9385557175,-22.04887581
62,1.55965442228e+18,4.563488007,0.3423812985,5.147690773
63,1.55965442233e+18,-4.549122334,-9.873989105,34.5517807
64,1.55965442238e+18,-17.36567497,-26.0473156,18.41436768
65,1.55965442243e+18,-13.84609127,-4.053507328,17.475811
66,1.55965442248e+18,-13.47497845,-8.312922478,11.00408745
67,1.55965442254e+18,-11.31294823,-4.721509933,8.514040947
68,1.55965442259e+18,-11.44702816,-3.091008663,7.688016415
69,1.55965442264e+18,-10.34805584,-6.433416367,4.529967785
70,1.55965442269e+18,-12.13657856,-8.547560692,3.505218267
71,1.55965442274e+18,-7.817307472,-12.22995567,0.2250618339
72,1.5596544228e+18,-8.439818382,-1.790917516,0.1987248063
73,1.55965442285e+18,9.045570374,9.873989105,-8.858817101
74,1.5596544229e+18,22.05127144,6.325674057,3.134105682
75,1.55965442295e+18,12.52923965,5.894704342,-25.1925602
76,1.559654423e+18,9.464568138,-2.949746609,-7.113390446
77,1.55965442306e+18,-1.855562925,-8.241093636,34.59487534
78,1.55965442311e+18,-8.89951992,-28.93241692,7.477320194
79,1.55965442316e+18,-13.00091267,-4.063084126,14.98576641
80,1.55965442321e+18,-18.12705421,-4.975303173,11.29618835
81,1.55965442326e+18,-15.610672,-5.480494976,8.262641907
82,1.55965442332e+18,-10.71916866,-4.254626274,8.473338127
83,1.55965442337e+18,-9.593858719,-3.433390141,6.668055534
84,1.55965442342e+18,-9.914691925,1.091789365,5.114171028
85,1.55965442347e+18,-6.826077461,2.557085514,6.541158676
86,1.55965442352e+18,-3.823656797,1.884294271,6.65847826
87,1.55965442358e+18,-2.592999697,1.161223292,4.314483166
88,1.55965442363e+18,-8.499675751,-3.469304085,15.62264347
89,1.55965442368e+18,-0.1747820675,-6.047938347,-14.65775013
90,1.55965442373e+18,6.251451492,-5.707951069,-8.432636261
91,1.55965442378e+18,5.322473049,10.22355366,-11.30815983
92,1.55965442384e+18,-8.200390816,-16.33134842,18.65858269
93,1.55965442389e+18,-5.494860649,-10.30735302,10.0966568
94,1.55965442394e+18,-16.40078163,-12.62261677,21.28749657
95,1.55965442399e+18,-17.9019928,-13.52046967,13.38399601
96,1.55965442404e+18,-16.21881676,-12.25389862,12.7183876
97,1.5596544241e+18,-12.55078888,-7.987300873,12.29460144
98,1.55965442415e+18,-5.406272411,-2.004008055,9.150918007
99,1.5596544242e+18,-5.427821159,-0.3232271075,4.793338299
100,1.55965442425e+18,-10.80775642,-2.743839025,3.972101927
101,1.5596544243e+18,-8.511647224,2.782147408,2.097384691
102,1.55965442436e+18,-2.485257149,6.490879059,1.182771802
103,1.55965442441e+18,3.797319889,2.463708878,4.0702672
104,1.55965442446e+18,7.024802208,-2.274561167,4.850800991
105,1.55965442451e+18,0.5698373914,-2.660039425,-6.222720146
106,1.55965442456e+18,9.56273365,-0.5123748183,-21.35693169
107,1.55965442462e+18,-10.99690437,-9.280209541,12.14855003
108,1.55965442467e+18,-3.962524891,5.226701736,8.719948769
109,1.55965442472e+18,-9.689630508,0.7996878028,11.1645031
110,1.55965442477e+18,-24.40484238,-7.544359684,13.83651447
111,1.55965442482e+18,-22.07760811,1.110943556,7.649707794
112,1.55965442488e+18,-14.26987743,-0.9217957854,8.803748131
113,1.55965442493e+18,-5.494860649,1.103760719,9.598648071
114,1.55965442498e+18,-8.284191132,1.271359921,8.18602562
115,1.55965442503e+18,-12.98654652,-2.839609861,9.239506721
116,1.55965442508e+18,-15.59391212,-6.612987041,10.57790565
117,1.55965442514e+18,-8.130957603,-4.039141655,3.263396502
118,1.55965442519e+18,-7.89152956,3.462121487,1.33600533
119,1.55965442524e+18,1.010383964,6.349617004,4.400677204
120,1.55965442529e+18,-0.6440598965,0.2585816681,6.27539444
121,1.55965442534e+18,3.45493865,-4.326454639,4.192375183
122,1.5596544254e+18,-4.438985348,-10.15411949,-7.89152956
123,1.55965442545e+18,-11.26745701,-10.48692322,-17.56439972
124,1.5596544255e+18,0.2083019018,-3.22508812,-1.738243461
125,1.55965442555e+18,-22.49900055,-4.13730669,10.2618618
126,1.5596544256e+18,-1.000806928,-10.46776962,8.47812748
127,1.55965442565e+18,-14.66014481,-27.43120575,16.10868073
128,1.55965442571e+18,-21.56044388,-6.08864069,11.98573971
129,1.55965442576e+18,-17.63143921,-14.91633224,17.40637779
130,1.55965442581e+18,-15.46940994,-5.413455486,14.05199909
131,1.55965442586e+18,-17.87804985,-8.78219986,6.727912426
132,1.55965442591e+18,-19.26433563,-8.480521202,-2.760598898
133,1.55965442597e+18,-8.162082672,-0.08140534163,-6.114977837
134,1.55965442602e+18,-10.5970602,6.641718388,7.288172722
135,1.55965442607e+18,11.27224541,2.782147408,-15.59870052
136,1.55965442612e+18,14.13819313,0.08858817071,-5.566689014
137,1.55965442617e+18,7.664073467,2.43976593,-4.867560863
138,1.55965442623e+18,-2.224281311,2.774964571,-9.364008904
139,1.55965442628e+18,-5.401484013,0.4070267081,24.87172699
140,1.55965442633e+18,-2.05668211,2.475680113,-7.925049782
141,1.55965442638e+18,-50.82087708,-32.12158966,7.261835575
142,1.55965442643e+18,-18.66576576,-9.833286285,6.079063892
143,1.55965442649e+18,-11.29618835,-5.265010357,-0.07901106775
144,1.55965442654e+18,-9.335277557,-4.819674969,7.427040577
145,1.55965442659e+18,-7.503657341,-8.616994858,5.051919937
146,1.55965442664e+18,-10.28819847,-8.842057228,5.593026161
147,1.55965442669e+18,-12.05517387,-13.33132172,2.650462151
148,1.55965442675e+18,-6.366376877,-1.007989645,1.381496549
149,1.5596544268e+18,-0.8643332124,9.71117878,-7.393520832
150,1.55965442685e+18,2.48046875,-0.299284339,-6.490879059
151,1.5596544269e+18,4.077449799,3.368744612,-10.57790565
152,1.55965442695e+18,2.329629421,5.612180233,-9.296969414
153,1.55965442701e+18,10.36002731,10.11581135,1.058269501
154,1.55965442706e+18,-16.99216843,-3.790137053,32.83269119
155,1.55965442711e+18,-13.85327435,-17.75354767,3.955342054
156,1.55965442716e+18,-21.048069,-15.78305912,8.305739403
157,1.55965442721e+18,-13.16372299,-10.66170597,3.792531252
158,1.55965442727e+18,-8.803748131,-5.123748302,4.764606953
159,1.55965442732e+18,-8.731920242,-2.243435383,2.327235222
160,1.55965442737e+18,-9.766246796,-2.241041183,4.326454639
161,1.55965442742e+18,-8.935433388,1.647261024,1.891477108
162,1.55965442747e+18,-13.61384678,-4.328848839,1.845985889
163,1.55965442753e+18,-5.540351868,2.300898075,3.876330853
164,1.55965442758e+18,1.120520592,3.490852594,2.719896078
165,1.55965442763e+18,4.66883564,2.169213057,3.902667999
166,1.55965442768e+18,3.131711483,-0.3591412306,0.6656084061
167,1.55965442773e+18,-1.383890867,0.8523618579,-3.699154615
168,1.55965442779e+18,4.867560863,-2.394274712,-22.69293594
169,1.55965442784e+18,2.138087511,-1.606558442,12.0001049
170,1.55965442789e+18,-15.03604603,-34.30995941,14.26508904
171,1.55965442794e+18,-31.93483734,-14.26987743,1.525153041
172,1.55965442799e+18,-16.07037163,-11.4805479,7.838855743
173,1.55965442805e+18,-8.401510239,-5.24106741,8.142929077
174,1.5596544281e+18,-5.935407162,-0.7063110471,7.297749519
175,1.55965442815e+18,-9.155706406,-8.243488312,8.727131844
176,1.5596544282e+18,-15.85009956,-10.30735302,4.201952457
177,1.55965442825e+18,-14.50212288,-10.94901848,-2.279349566
178,1.55965442831e+18,-4.587430477,1.223474383,5.660065651
179,1.55965442836e+18,4.494053841,7.446194649,-10.07032013
180,1.55965442841e+18,-1.271359921,6.55073595,-1.599375606
181,1.55965442846e+18,10.05595398,-0.2370332032,-17.44708061
182,1.55965442851e+18,9.756669998,7.819701672,-7.750267506
183,1.55965442857e+18,-9.699207306,-3.083826065,24.61314583
184,1.55965442862e+18,-16.33613777,-16.57077599,13.8389082
185,1.55965442867e+18,-25.08481789,-14.63620186,12.96260357
186,1.55965442872e+18,-15.24195385,-7.407886028,5.822876453
187,1.55965442877e+18,-9.658504486,-2.660039425,3.866753817
188,1.55965442882e+18,-6.124555111,-1.723877907,6.043149471
189,1.55965442888e+18,-8.154899597,-4.491659641,9.079090118
190,1.55965442893e+18,-13.36484241,-10.25467873,4.948966026
191,1.55965442898e+18,-13.16611671,-4.549122334,8.638543129
192,1.55965442903e+18,-6.244268894,-1.652049661,9.52203083
193,1.55965442908e+18,-5.944984436,-2.085413456,4.692778587
194,1.55965442914e+18,3.062277555,5.865973473,-1.345582485
195,1.55965442919e+18,0.5411061049,-0.8643332124,-14.26030064
196,1.55965442924e+18,5.332049847,1.177983165,-6.280182838
197,1.55965442929e+18,8.844450951,3.41423583,-19.77671051
198,1.55965442934e+18,-7.632947922,-4.53475666,36.69465637
199,1.5596544294e+18,-22.8533535,-24.32343864,13.41033363
200,1.55965442945e+18,-25.8342247,-13.87242794,7.927443981
201,1.5596544295e+18,-11.42069054,-5.229096413,6.40468502
202,1.55965442955e+18,-9.445414543,1.54909575,7.048745155
203,1.5596544296e+18,-6.818894863,-0.1532335877,6.993676662
204,1.55965442966e+18,-8.372778893,-8.60741806,7.99687767
205,1.55965442971e+18,-9.852440834,-2.930592299,4.446168423
206,1.55965442976e+18,-10.70240879,4.410254002,1.491633177
207,1.55965442981e+18,-11.51167297,-4.594613552,-1.209108829
208,1.55965442986e+18,-2.382303476,2.832427025,-0.8595446348
209,1.55965442992e+18,2.818061352,0.591385901,-9.830892563
210,1.55965442997e+18,8.226728439,-5.138113976,-16.22599983
211,1.55965443002e+18,4.817280769,1.448536277,-5.391906738
212,1.55965443007e+18,-4.288146019,-1.096577883,4.640104771
213,1.55965443012e+18,-19.79825783,-5.418243885,28.43440819
214,1.55965443018e+18,-26.04013252,-31.27641106,14.26269531
215,1.55965443023e+18,-21.53171349,-11.1405611,4.70714426
216,1.55965443028e+18,-7.201978683,-9.043175697,8.351230621
217,1.55965443033e+18,-3.617749214,-0.277735889,5.037554264
218,1.55965443038e+18,-5.930618763,-7.65449667,6.533976078
219,1.55965443044e+18,-10.07989693,-15.42870712,7.19000721
220,1.55965443049e+18,-12.32572651,-1.992036581,0.8643332124
221,1.55965443054e+18,-13.23315716,-1.458113313,-0.481249243
222,1.55965443059e+18,-2.365543604,2.030344963,0.299284339
223,1.55965443064e+18,5.19797039,9.184437752,-0.5770202279
224,1.5596544307e+18,1.362342358,-2.001613855,0.6656084061
225,1.55965443075e+18,-1.623318315,9.878777504,2.46131444
226,1.5596544308e+18,6.586649895,-2.188367128,-17.39440727
227,1.55965443085e+18,6.263422966,12.34966946,-4.64249897
228,1.5596544309e+18,-1.005595446,-4.525179386,25.8821106
229,1.55965443096e+18,-25.37931252,-40.83675003,15.32096481
230,1.55965443101e+18,-13.64257812,-18.15339088,8.042368889
231,1.55965443106e+18,-7.395915031,-3.632114887,3.428601503
232,1.55965443111e+18,-5.049525738,1.570644259,5.602602959
233,1.55965443116e+18,-6.969734192,-7.680833817,11.04000092
234,1.55965443122e+18,-14.23156929,-11.63617516,9.885960579
235,1.55965443127e+18,-19.19011307,-6.55313015,3.167625666
236,1.55965443132e+18,-9.411893845,0.1819648892,-2.044710636
237,1.55965443137e+18,-1.869928598,7.561120033,-4.544333458
238,1.55965443142e+18,6.146103382,2.865947008,-1.553884387
239,1.55965443148e+18,-3.24424243,-7.391126156,-1.877111435
240,1.55965443153e+18,4.628133297,1.149251938,-6.596227169
241,1.55965443158e+18,7.261835575,4.084632874,-7.302538395
242,1.55965443163e+18,-1.103760719,0.1221080124,5.904281616
243,1.55965443168e+18,-2.889889717,0.02394274808,10.15411949
244,1.55965443174e+18,-3.866753817,-13.72637749,9.845257759
245,1.55965443179e+18,-20.51893425,-38.19826126,11.64575291
246,1.55965443184e+18,-11.68406105,-9.404711723,3.830839634
247,1.55965443189e+18,-10.55875206,-4.637710094,8.3153162
248,1.55965443194e+18,-11.34407425,-10.606637,5.324867249
249,1.559654432e+18,-15.57475758,-7.834067345,5.66485405
250,1.55965443205e+18,-16.3193779,-6.038361073,7.034379482
251,1.5596544321e+18,-5.473312378,-0.7230709791,-1.309668303
252,1.55965443215e+18,-1.963305354,-5.549929142,-1.110943556
253,1.5596544322e+18,-0.9912297726,-2.288926601,5.288952827
254,1.55965443226e+18,1.714300752,5.370358467,-0.2154847383
255,1.55965443231e+18,2.291321039,1.537124395,-1.491633177
256,1.55965443236e+18,2.58821106,8.660092354,-3.536343813
257,1.55965443241e+18,6.644112587,9.49569416,-3.905062199
258,1.55965443246e+18,2.755810261,-1.585009933,-1.515576005
259,1.55965443252e+18,-4.019987583,-7.798152924,2.9258039
260,1.55965443257e+18,-1.383890867,-15.46940994,1.65444386
261,1.55965443262e+18,-6.732700825,-29.16226768,12.7183876
262,1.55965443267e+18,-9.122186661,-15.7902422,9.58907032
263,1.55965443272e+18,-11.05436707,-20.15021706,7.079870701
264,1.55965443278e+18,-16.40557098,-17.10470009,10.4749527
265,1.55965443283e+18,-10.53480911,-6.258634567,8.808537483
266,1.55965443288e+18,-9.33767128,0.3591412306,-0.9050358534
267,1.55965443293e+18,-5.478100777,-5.978504181,-3.572257996
268,1.55965443298e+18,4.743058205,-1.438959122,-2.360754967
269,1.55965443304e+18,3.335224867,-1.266571403,2.236252785
270,1.55965443309e+18,-1.613741279,8.415876389,2.360754967
271,1.55965443314e+18,-9.672870636,9.981731415,6.560312748
272,1.55965443319e+18,5.593026161,7.537177086,-4.228289127
273,1.55965443324e+18,7.834067345,3.854782343,-8.379961967
274,1.5596544333e+18,-3.498035431,-2.291321039,11.34886265
275,1.55965443335e+18,-7.716747761,-24.14865494,1.604164124
276,1.5596544334e+18,-5.796539307,-28.49665833,7.723930359
277,1.55965443345e+18,-3.22269392,-15.88840771,7.338452339
278,1.5596544335e+18,-8.547560692,-13.94425678,7.027196407
279,1.55965443356e+18,-13.83172512,-11.64575291,10.17566776
280,1.55965443361e+18,-9.811738014,-0.8858816624,3.684788942
281,1.55965443366e+18,-6.148497581,6.40707922,4.790944099
282,1.55965443371e+18,-1.108549237,2.839609861,-0.5746259689
283,1.55965443376e+18,-3.050306082,-4.812492371,2.363149166
284,1.55965443382e+18,-5.628940105,-2.67440486,2.236252785
285,1.55965443387e+18,-4.060689926,4.975303173,4.079844475
286,1.55965443392e+18,3.359167576,7.893924236,1.647261024
287,1.55965443397e+18,-4.019987583,1.254600048,-1.692752242
288,1.55965443402e+18,13.62102985,-1.673598051,-13.81257153
289,1.55965443408e+18,1.321639657,-3.615355015,-1.415016413
290,1.55965443413e+18,-6.960156918,-12.17728138,25.45114136
291,1.55965443418e+18,-13.39596748,-27.34740639,13.74074268
292,1.55965443423e+18,-12.37600613,-11.60265541,11.46618176
293,1.55965443428e+18,-20.18852425,-13.53483582,6.646506786
294,1.55965443434e+18,-15.90037918,-3.320859194,7.211555958
295,1.55965443439e+18,-13.78862858,3.272973776,3.32804203
296,1.55965443444e+18,-7.331269264,4.273780346,2.660039425
297,1.55965443449e+18,-3.62732625,1.982459545,1.699935079
298,1.55965443454e+18,-4.146883965,-4.9609375,3.706337452
299,1.5596544346e+18,-16.33853149,-1.86514008,-1.455719113
300,1.55965443465e+18,-10.30495834,2.241041183,16.89160919
301,1.5596544347e+18,-1.237840056,8.202785492,-8.435029984
302,1.55965443475e+18,4.913052082,7.843644142,-11.18365765
303,1.5596544348e+18,4.532361984,0.3495641351,0.2873129845
304,1.55965443486e+18,7.709564686,-2.554691315,-19.34095192
305,1.55965443491e+18,8.956981659,1.005595446,7.625765324
306,1.55965443496e+18,-0.5698373914,-7.82688427,21.86691093
307,1.55965443501e+18,-28.90368462,-51.98928452,22.35055542
308,1.55965443506e+18,-18.88125038,-13.79102325,3.407052994
309,1.55965443512e+18,-17.49736023,3.976890564,6.838048935
310,1.55965443517e+18,-13.55638409,0.7877163887,8.030397415
311,1.55965443522e+18,-13.05119228,5.868367672,0.1221080124
312,1.55965443527e+18,-8.372778893,-2.676799297,3.41423583
313,1.55965443532e+18,-7.352818012,0.627300024,0.9122186899
314,1.55965443538e+18,-10.29777622,-3.545921087,22.60434914
315,1.55965443543e+18,-10.71916866,4.936994553,-15.93629265
316,1.55965443548e+18,0.6919454336,9.85483551,-6.246663094
317,1.55965443553e+18,1.170800328,3.258608103,-4.881926537
318,1.55965443558e+18,2.43976593,2.001613855,-9.364008904
319,1.55965443564e+18,-3.404658794,-0.462095052,-7.221132755
320,1.55965443569e+18,8.047157288,0.8595446348,-10.0487709
321,1.55965443574e+18,0.8212362528,-2.808484316,2.578634024
322,1.55965443579e+18,-11.67687798,-9.510059357,17.30581856
323,1.55965443584e+18,-41.14561081,-28.79594231,3.533949614
324,1.5596544359e+18,-24.20133018,-1.702329397,3.768588543
325,1.55965443595e+18,-20.13106346,-4.326454639,4.513207912
326,1.559654436e+18,-12.09587669,3.270579338,0.8595446348
327,1.55965443605e+18,-7.012830734,4.817280769,3.581835032
328,1.5596544361e+18,-0.07661679387,2.154847383,2.643279314
329,1.55965443615e+18,1.54909575,1.541913033,14.15734673
330,1.55965443621e+18,-7.448588848,-0.612934351,3.074248791
331,1.55965443626e+18,-48.60377884,5.717528343,0.5243461728
332,1.55965443631e+18,5.367964268,1.405439258,-21.21088028
333,1.55965443636e+18,5.188393593,3.340013266,-3.493247032
334,1.55965443641e+18,-12.25868702,-6.510033131,-8.097437859
335,1.55965443647e+18,3.929004908,2.947352171,-2.581028223
336,1.55965443652e+18,2.504411459,-1.276148438,7.23071003
337,1.55965443657e+18,-8.753468513,-26.62912369,18.89561653
338,1.55965443662e+18,-18.34493446,-22.36252594,17.80143356
339,1.55965443667e+18,-14.80858994,-6.095823765,11.86363125
340,1.55965443673e+18,-15.13660526,2.276955366,5.303318501
341,1.55965443678e+18,-8.870788574,6.081458092,2.621730804
342,1.55965443683e+18,-4.319271564,4.800520897,0.8164477348
343,1.55965443688e+18,-2.025556564,3.909850836,3.469304085
344,1.55965443693e+18,-8.789382935,3.696760416,6.656084061
345,1.55965443699e+18,-15.63222027,-12.00968266,-4.532361984
346,1.55965443704e+18,-11.03042412,-4.539545059,-3.148471355
347,1.55965443709e+18,-5.487678051,16.52528381,-7.178035736
348,1.55965443714e+18,7.999272346,3.450150013,-5.794145107
349,1.55965443719e+18,10.65212822,6.756643295,-8.961771011
350,1.55965443725e+18,-1.436564922,1.800494671,11.49251938
351,1.5596544373e+18,-4.254626274,-42.70907593,-4.252232075
352,1.55965443735e+18,-8.466156006,-33.48154068,2.581028223
353,1.5596544374e+18,-4.968120098,-26.9116497,4.872349262
354,1.55965443745e+18,-1.874717116,-15.76390553,9.713572502
355,1.55965443751e+18,-5.894704342,0.6656084061,3.818868399
356,1.55965443756e+18,-4.652075768,8.042368889,7.170853138
357,1.55965443761e+18,-1.596981287,5.834847927,6.924242973
358,1.55965443766e+18,-5.882733345,-0.9553156495,0.1245022863
359,1.55965443771e+18,-2.887495518,-3.208328247,3.272973776
360,1.55965443777e+18,-5.482889175,6.493273258,14.69366455
361,1.55965443782e+18,12.38558388,0.06464541703,5.236279011
362,1.55965443787e+18,13.52046967,5.566689014,-13.6162405
363,1.55965443792e+18,1.630501151,-8.068706512,-6.833260536
364,1.55965443797e+18,-3.572257996,-33.93166351,17.37525177
365,1.55965443803e+18,-4.92023468,-30.59883118,21.16060066
366,1.55965443808e+18,-9.478934288,-20.31542206,4.247443676
367,1.55965443813e+18,-10.96338463,-9.802161217,5.039948463
368,1.55965443818e+18,-8.842057228,-5.281770229,5.38711834
369,1.55965443823e+18,-4.927417755,2.956929445,4.35039711
370,1.55965443829e+18,-0.8786988258,6.668055534,7.527599812
371,1.55965443834e+18,7.855615616,3.931399345,5.111776829
372,1.55965443839e+18,-2.245829821,-4.850800991,11.873209
373,1.55965443844e+18,-9.821314812,-1.328822494,0.01915419847
374,1.55965443849e+18,-5.997658253,6.957762718,0.9792584181
375,1.55965443855e+18,3.45493865,11.63856983,4.510813713
376,1.5596544386e+18,-2.236252785,3.471698523,8.188420296
377,1.55965443865e+18,4.189980984,-2.463708878,-7.482108593
378,1.5596544387e+18,4.446168423,-0.1221080124,-8.583475113
379,1.55965443875e+18,-4.046324253,-13.30259037,6.996070862
380,1.55965443881e+18,-9.797372818,-56.33010483,6.761432171
381,1.55965443886e+18,-3.067065954,-20.14303398,12.38079548
382,1.55965443891e+18,-7.735901833,-15.5723629,8.751074791
383,1.55965443896e+18,-5.791750908,-3.201145411,4.848406315
384,1.55965443901e+18,-5.351204395,10.09426212,1.987248063
385,1.55965443907e+18,-3.787742853,1.594586968,7.527599812
386,1.55965443912e+18,-7.127756119,0.2154847383,0.9337671995
387,1.55965443917e+18,-9.900326729,-6.44538784,4.022381783
388,1.55965443922e+18,-7.606611252,0.9385557175,5.760625362
389,1.55965443927e+18,0.591385901,6.842837334,4.424619675
390,1.55965443933e+18,1.302485466,2.312869549,0.6225114465
391,1.55965443938e+18,7.065505028,-2.729473352,-13.05119228
392,1.55965443943e+18,10.19961071,6.809317589,-7.905895233
393,1.55965443948e+18,1.877111435,-7.810124397,12.38079548
394,1.55965443953e+18,-2.973689318,-66.10113525,20.80385399
395,1.55965443959e+18,-5.212336063,-30.59404373,8.851634026
396,1.55965443964e+18,-8.166871071,-9.543579102,7.728719234
397,1.55965443969e+18,-8.42305851,-2.557085514,4.731087208
398,1.55965443974e+18,-4.304905891,3.316070557,4.03195858
399,1.55965443979e+18,-2.0351336,-0.6799740195,6.040755272
400,1.55965443985e+18,-2.176395893,-4.70953846,6.754249096
401,1.5596544399e+18,-28.18300819,-24.90524673,-23.0377121
402,1.55965443995e+18,-0.1388679445,0.7925049663,-12.22516727
403,1.55965444e+18,7.635342598,11.79898643,-22.1733799
404,1.55965444005e+18,3.179596901,2.185972929,-8.130957603
405,1.55965444011e+18,-18.96265602,-13.43427563,24.4742775
406,1.55965444016e+18,3.533949614,-22.4654808,7.077476501
407,1.55965444021e+18,3.023969173,-9.277814865,16.17093277
408,1.55965444026e+18,-3.344801903,-14.81577206,9.660899162
409,1.55965444031e+18,-12.51247978,-8.751074791,11.46857643
410,1.55965444037e+18,-16.40317726,-3.842811108,8.949799538
411,1.55965444042e+18,-11.05436707,2.221887112,2.772570133
412,1.55965444047e+18,-3.059883118,2.719896078,3.476486921
413,1.55965444052e+18,-0.610540092,5.643305779,5.995264053
414,1.55965444057e+18,-9.668081284,3.775771379,3.124528646
415,1.55965444063e+18,-11.86363125,-1.218685865,-0.7182824612
416,1.55965444068e+18,-6.272999763,-0.7302538157,2.530748367
417,1.55965444073e+18,-1.975276709,-3.883513689,-4.266597748
418,1.55965444078e+18,-2.482862949,-8.830085754,-4.273780346
419,1.55965444083e+18,3.253819466,-0.6656084061,-6.263422966
420,1.55965444089e+18,-0.8260248303,-8.686429024,7.527599812
421,1.55965444094e+18,2.126116037,-20.60991669,12.72557068
422,1.55965444099e+18,-4.944177628,-21.2324295,9.050358772
423,1.55965444104e+18,-10.00806904,-19.23320961,14.0089016
424,1.55965444109e+18,-14.81577206,-14.04721069,12.79979324
425,1.55965444115e+18,-12.57712555,-6.040755272,10.71677399
426,1.5596544412e+18,-10.47734642,1.580221415,-0.04309694469
427,1.55965444125e+18,-0.6943396926,1.134886265,4.951360226
428,1.5596544413e+18,-0.06464541703,2.05668211,11.94264317
429,1.55965444135e+18,-5.217124939,-2.648067951,6.847625732
430,1.55965444141e+18,-7.929838181,-0.5770202279,-3.926610708
431,1.55965444146e+18,-3.20353961,2.090201855,5.162056446
432,1.55965444151e+18,4.678412914,5.774991035,-14.81337833
433,1.55965444156e+18,9.792584419,-0.5171633363,-13.36005306
434,1.55965444161e+18,2.128510237,-1.249811411,3.0119977
435,1.55965444167e+18,-0.4692778587,-17.63622856,10.07750225
436,1.55965444172e+18,-5.798933506,-24.87891006,20.29387283
437,1.55965444177e+18,-7.18761301,-9.991309166,6.876357079
438,1.55965444182e+18,-13.17329979,-8.308133125,8.830085754
439,1.55965444187e+18,-12.57233715,-2.111750364,8.27461338
440,1.55965444193e+18,-7.668862343,1.556278586,2.396669149
441,1.55965444198e+18,-3.399870157,4.199557781,5.672037125
442,1.55965444203e+18,-2.794118643,3.129317284,5.741470814
443,1.55965444208e+18,-5.059102535,-0.8475732803,7.242681503
444,1.55965444213e+18,-9.577098846,1.312062621,2.997632027
445,1.55965444219e+18,-12.71599388,2.916226625,2.080624819
446,1.55965444224e+18,-3.981678963,5.315289974,3.701548815
447,1.55965444229e+18,4.309694767,-0.9768640995,-7.522811413
448,1.55965444234e+18,7.40070343,-1.946545362,-11.75828362
449,1.55965444239e+18,5.176422119,-0.2011190802,1.134886265
450,1.55965444245e+18,-3.043123245,-10.48692322,20.86849976
451,1.5596544425e+18,-8.681640625,-38.40656281,22.5229435
452,1.55965444255e+18,-10.74550533,-19.10631371,14.13101006
453,1.5596544426e+18,-11.21957207,-11.65054131,10.53720379
454,1.55965444265e+18,-11.25069714,-3.577046633,9.792584419
455,1.5596544427e+18,-9.052753448,3.550709486,2.351177931
456,1.55965444276e+18,-0.9122186899,2.834821463,4.28575182
457,1.55965444281e+18,-0.22266756,0.8595446348,8.241093636
458,1.55965444286e+18,-5.1333251,-0.7374366522,7.096630573
459,1.55965444291e+18,-22.13746452,-2.071047783,4.180403709
460,1.55965444296e+18,-9.885960579,5.863578796,5.413455486
461,1.55965444302e+18,11.35365105,7.185218811,-20.717659
462,1.55965444307e+18,3.483669758,0.7158881426,-9.004867554
463,1.55965444312e+18,3.818868399,-5.427821159,-5.128536701
464,1.55965444317e+18,-4.185192585,-8.47812748,19.3289814
465,1.55965444322e+18,-2.032739401,-24.02415276,13.65215492
466,1.55965444328e+18,-11.11661816,-8.475732803,7.726325035
467,1.55965444333e+18,-19.24518013,-4.187586784,8.066311836
468,1.55965444338e+18,-23.76557159,-1.666415215,3.917033672
469,1.55965444343e+18,-12.56515408,0.9960182905,2.686376333
470,1.55965444348e+18,-6.921848297,4.28575182,-2.365543604
471,1.55965444354e+18,-0.3950553536,3.165231228,-1.539518714
472,1.55965444359e+18,-0.1340793967,1.465296149,5.681613922
473,1.55965444364e+18,-9.955394745,-8.322499275,8.310527802
474,1.55965444369e+18,-36.21580124,-24.03133583,15.31378174
475,1.55965444374e+18,0.6201171875,0.3878725171,-12.65613651
476,1.5596544438e+18,9.3783741,9.24429512,-15.73996258
477,1.55965444385e+18,0.948132813,1.934574008,-1.019961119
478,1.5596544439e+18,-3.744645834,-10.53480911,22.4750576
479,1.55965444395e+18,-1.745426297,-33.05296326,10.41988373
480,1.559654444e+18,-3.047911882,-12.40234375,6.237085819
481,1.55965444406e+18,-6.038361073,-6.399896622,13.05358601
482,1.55965444411e+18,-14.13101006,-11.63617516,10.89873886
483,1.55965444416e+18,-16.23318291,-2.111750364,6.38074255
484,1.55965444421e+18,-9.73751545,1.395862222,3.22508812
485,1.55965444426e+18,-3.373533249,7.304932594,3.258608103
486,1.55965444432e+18,-2.789330244,5.892310143,0.02394274808
487,1.55965444437e+18,-8.880365372,-0.9361614585,-1.393467903
488,1.55965444442e+18,-6.866780281,-0.4094209969,1.805283189
489,1.55965444447e+18,-3.035940409,0.09577099234,3.495641232
490,1.55965444452e+18,-9.584281921,0.1197137386,1.33600533
491,1.55965444458e+18,9.974549294,1.750214934,-11.60026169
492,1.55965444463e+18,2.916226625,-5.363175392,-7.285778046
493,1.55965444468e+18,-5.739076614,-32.91409683,2.810878515
494,1.55965444473e+18,-2.509200096,-20.04965782,11.03281784
495,1.55965444478e+18,-7.846038342,-19.6881218,12.16530991
496,1.55965444484e+18,-16.0775547,-12.9362669,7.745479107
497,1.55965444489e+18,-17.55721664,-11.10704041,12.98894119
498,1.55965444494e+18,-15.13181686,-6.328068256,3.191568375
499,1.55965444499e+18,-8.023215294,3.677606106,4.867560863
500,1.55965444504e+18,-1.740637779,1.628106833,6.375953674
501,1.5596544451e+18,-0.4405465722,-1.405439258,3.636903524
502,1.55965444515e+18,-9.220352173,-5.310501575,1.328822494
503,1.5596544452e+18,-7.089447498,2.238646984,-4.474899769
504,1.55965444525e+18,-1.92978549,4.345608711,-0.9577099085
505,1.5596544453e+18,9.450202942,6.387925148,-19.06082153
506,1.55965444536e+18,-3.086220264,-2.698347807,-3.969707727
507,1.55965444541e+18,-8.834874153,-8.693612099,3.603383541
508,1.55965444546e+18,-10.07510853,-30.46235847,8.502069473
509,1.55965444551e+18,-13.13738632,-14.74873257,10.47255802
510,1.55965444556e+18,-12.58191395,-11.64575291,10.0918684
511,1.55965444562e+18,-13.13499165,-15.49335194,14.10706711
512,1.55965444567e+18,-16.72879791,-5.786962032,6.751854897
513,1.55965444572e+18,-13.60905838,-4.314483166,3.893090725
514,1.55965444577e+18,-4.934600353,3.234665155,5.581054688
515,1.55965444582e+18,-1.23065722,2.846792698,5.293741703
516,1.55965444588e+18,-8.260248184,-10.35284424,-17.81101036
517,1.55965444593e+18,-5.976109982,-4.903474808,-15.13899994
518,1.55965444598e+18,1.664021015,-1.903448462,-8.367990494
519,1.55965444603e+18,9.332882881,18.36648178,-7.19000721
520,1.55965444608e+18,-2.425400496,2.432583094,1.664021015
521,1.55965444614e+18,-8.430241585,0.1173194647,5.17163372
522,1.55965444619e+18,-10.53241444,-11.21238899,-9.799766541
523,1.55965444624e+18,-19.51094627,-27.91963768,11.55716419
524,1.55965444629e+18,-11.34646797,-8.79656601,10.58269501
525,1.55965444634e+18,-11.18844604,-6.047938347,6.438204765
526,1.5596544464e+18,-10.52283764,-5.504437923,7.82688427
527,1.55965444645e+18,-15.69686604,-9.895537376,4.913052082
528,1.5596544465e+18,-12.24911022,-3.531555414,9.335277557
529,1.55965444655e+18,-10.30016994,6.237085819,5.777385235
530,1.5596544466e+18,-9.273026466,3.038334846,1.848380208
531,1.55965444666e+18,-8.475732803,0.6967339516,8.071100235
532,1.55965444671e+18,-5.885127544,-1.429382086,-9.909903526
533,1.55965444676e+18,-0.6225114465,-2.86355257,-6.208354473
534,1.55965444681e+18,5.329655647,-2.58581686,-13.25949383
535,1.55965444686e+18,5.506832123,5.157268047,-13.63060665
536,1.55965444692e+18,0.1699935049,3.792531252,-4.333637238
537,1.55965444697e+18,-4.132518291,-5.66485405,10.18524456
538,1.55965444702e+18,-13.6641264,-18.63703537,2.82045579
539,1.55965444707e+18,-24.15105057,-26.63630676,13.09428883
540,1.55965444712e+18,-12.33769798,-12.37600613,13.9993248
541,1.55965444718e+18,-11.77983189,-16.58035278,8.411087036
542,1.55965444723e+18,-14.04002762,-16.06319046,12.3831892
543,1.55965444728e+18,-16.52767944,-10.34326744,4.520390987
544,1.55965444733e+18,-6.280182838,-6.450176239,2.698347807
545,1.55965444738e+18,1.12291491,-2.473285913,-0.1652049571
546,1.55965444744e+18,4.120546818,6.304125786,-3.54113245
547,1.55965444749e+18,-2.921015263,15.04083443,7.743084908
548,1.55965444754e+18,2.796513081,3.167625666,-6.921848297
549,1.55965444759e+18,7.266623974,2.717501879,-9.368797302
550,1.55965444764e+18,-3.727885962,9.524425507,2.913832426
551,1.5596544477e+18,-6.038361073,1.561067224,8.973741531
552,1.55965444775e+18,-4.271386147,-1.0606637,10.96577835
553,1.5596544478e+18,-1.300091267,-5.897099018,2.58821106
554,1.55965444785e+18,-4.053507328,-30.60840988,2.856369734
555,1.5596544479e+18,-9.110215187,-16.23557663,6.842837334
556,1.55965444796e+18,-4.70953846,-10.01764584,5.806116581
557,1.55965444801e+18,-9.069513321,-21.90043259,6.182017326
558,1.55965444806e+18,-10.78141975,-17.42313766,7.618582249
559,1.55965444811e+18,-7.04395628,-6.059909344,10.41270161
560,1.55965444816e+18,-5.458946705,6.205960274,-0.1173194647
561,1.55965444822e+18,-2.506805658,3.960130453,-0.03351984918
562,1.55965444827e+18,0.2106961906,0.5985686779,-3.778165579
563,1.55965444832e+18,-0.03112557158,-6.095823765,-1.000806928
564,1.55965444837e+18,1.776551962,3.735068798,9.981731415
565,1.55965444842e+18,-3.299310684,3.069460392,-0.01436564885
566,1.55965444848e+18,5.822876453,4.965725899,-2.861158371
567,1.55965444853e+18,3.347196102,-0.0574625954,3.311282158
568,1.55965444858e+18,0.1580221355,-13.21400261,13.24033928
569,1.55965444863e+18,0.5075862408,-36.6108551,10.27622795
570,1.55965444868e+18,-11.09506989,-19.51573372,-1.687963724
571,1.55965444874e+18,-12.33530426,-14.26030064,3.969707727
572,1.55965444879e+18,-11.36562252,-19.19490051,6.081458092
573,1.55965444884e+18,-9.816526413,-12.48135471,7.747873306
574,1.55965444889e+18,-9.160495758,-2.882706881,1.03911531
575,1.55965444894e+18,-3.093403101,1.08221221,-5.071074009
576,1.559654449e+18,5.777385235,-0.6727912426,-2.35596633
577,1.55965444905e+18,2.736656189,3.998438835,4.084632874
578,1.5596544491e+18,-15.5627861,3.265790939,7.630553722
579,1.55965444915e+18,7.941809654,8.621783257,-12.26826382
580,1.5596544492e+18,6.955368519,5.121353626,1.182771802
581,1.55965444926e+18,-6.182017326,-6.742278099,11.00887585
582,1.55965444931e+18,-11.06873226,-12.97218132,8.779806137
583,1.55965444936e+18,-3.251425266,-23.92838287,13.31216812
584,1.55965444941e+18,-6.69918108,-10.77423668,7.271412373
585,1.55965444946e+18,-6.184412003,-7.079870701,5.964138508
586,1.55965444952e+18,-7.491685867,-26.19815445,5.830059052
587,1.55965444957e+18,-12.64895344,-17.98100471,5.985687256
588,1.55965444962e+18,-10.45579815,-5.176422119,4.999245644
589,1.55965444967e+18,-8.854028702,6.210748672,2.025556564
590,1.55965444972e+18,-3.526766777,2.786935806,-1.963305354
591,1.55965444978e+18,2.743839025,2.123721838,-0.6967339516
592,1.55965444983e+18,0.5506832004,-1.795706153,1.965699673
593,1.55965444988e+18,-2.047105074,-2.956929445,-0.04549122229
594,1.55965444993e+18,4.544333458,0.668002665,-3.876330853
595,1.55965444998e+18,-5.183605194,6.866780281,22.24999619
596,1.55965445004e+18,-3.811685562,-0.1891477108,12.30178356
597,1.55965445009e+18,-2.600182533,-20.58358002,-4.946571827
598,1.55965445014e+18,-7.513234138,-29.59563065,11.93785381
599,1.55965445019e+18,-7.345634937,-6.213143349,3.567469358
600,1.55965445024e+18,-4.024775982,-8.308133125,16.30740547
601,1.5596544503e+18,-7.529994488,-24.03373146,10.39594078
602,1.55965445035e+18,-11.59547329,-13.24991703,8.197997093
603,1.5596544504e+18,-10.98253822,-2.418217659,4.886714935
604,1.55965445045e+18,-1.838803053,0.9768640995,1.019961119
605,1.5596544505e+18,-8.628966331,-4.058295727,7.917866707
606,1.55965445056e+18,1.091789365,-3.54113245,-4.328848839
607,1.55965445061e+18,2.24822402,-4.003227711,-17.69608498
608,1.55965445066e+18,6.076669693,4.108575344,-9.093455315
609,1.55965445071e+18,2.14287591,2.391880512,0.7781392932
610,1.55965445076e+18,-14.09509563,-11.18126297,17.49017715
611,1.55965445082e+18,-17.22920227,-20.83498001,-3.620143414
612,1.55965445087e+18,-19.25475883,-12.85007286,5.87555027
613,1.55965445092e+18,-5.377541065,-0.6871568561,5.298530102
614,1.55965445097e+18,-2.899466753,-3.047911882,9.201197624
615,1.55965445102e+18,-5.674431324,-16.51810265,9.888355255
616,1.55965445108e+18,-10.38397026,-18.42155075,9.443019867
617,1.55965445113e+18,-15.0480175,-11.29139996,7.388731956
618,1.55965445118e+18,-11.20999432,1.312062621,4.357580185
619,1.55965445123e+18,-9.07430172,4.618556023,-1.264177084
620,1.55965445128e+18,1.951334,-1.532335877,-15.18688488
621,1.55965445134e+18,7.685622215,-4.45574522,-12.17009926
622,1.55965445139e+18,8.214756966,-3.373533249,-15.46701527
623,1.55965445144e+18,10.84845924,11.21717739,-9.304151535
624,1.55965445149e+18,-15.24434757,-16.95146561,16.61387253
625,1.55965445154e+18,-15.05998898,-21.64184952,10.78860188
626,1.5596544516e+18,-14.3297348,-14.09509563,10.2714386
627,1.55965445165e+18,-11.80138016,-5.298530102,8.183630943
628,1.5596544517e+18,-5.832453251,2.90425539,13.04879761
629,1.55965445175e+18,-6.608198643,-5.849213123,15.85967636
630,1.5596544518e+18,-14.94745731,-10.78620815,6.507638931
631,1.55965445186e+18,-14.67211628,-12.79739857,10.91549873
632,1.55965445191e+18,-10.75747681,-3.536343813,8.542772293
633,1.55965445196e+18,-2.423006058,2.298503876,6.385530949
634,1.55965445201e+18,-6.802134514,-8.614601135,-0.335198462
635,1.55965445206e+18,-8.667274475,-7.331269264,-8.655303001
636,1.55965445212e+18,-2.609759569,-0.648848474,-5.233884811
637,1.55965445217e+18,1.841197371,-0.05027977005,-6.08864069
638,1.55965445222e+18,2.645673752,3.311282158,-11.84447765
639,1.55965445227e+18,6.981705189,0.9744698405,7.170853138
640,1.55965445232e+18,-9.213169098,-29.15508461,1.455719113
641,1.55965445238e+18,-19.20208359,-36.00270844,5.494860649
642,1.55965445243e+18,-10.61382008,-5.660065651,8.279402733
643,1.55965445248e+18,-9.869200706,-1.08221221,7.795758724
644,1.55965445253e+18,-12.53881741,-11.53561592,8.46376133
645,1.55965445258e+18,-15.28505039,-14.09270191,4.309694767
646,1.55965445264e+18,-15.48377514,-13.12302017,8.672063828
647,1.55965445269e+18,-11.37998772,-0.4357580245,1.980065227
648,1.55965445274e+18,-5.288952827,6.548341751,-0.7948992252
649,1.55965445279e+18,-2.592999697,0.7278595567,-1.640078187
650,1.55965445284e+18,-1.156434774,-1.146857619,-3.9864676
651,1.5596544529e+18,0.299284339,-3.538738251,8.03758049
652,1.55965445295e+18,-0.2849186957,3.20353961,0.986441195
653,1.559654453e+18,5.509226322,5.786962032,-1.12530911
654,1.55965445305e+18,-3.148471355,5.798933506,-0.627300024
655,1.5596544531e+18,1.12530911,-8.406298637,5.55711174
656,1.55965445316e+18,-3.605777979,-13.11344337,4.38870573
657,1.55965445321e+18,1.54670155,-25.86535072,-1.189954638
658,1.55965445326e+18,-9.500482559,-21.38326836,7.182824612
659,1.55965445331e+18,-6.847625732,-9.759063721,9.454991341
660,1.55965445336e+18,-17.77270126,-21.06961823,6.48609066
661,1.55965445342e+18,-13.4462471,-13.06316376,8.576292038
662,1.55965445347e+18,-7.834067345,-3.785348415,3.644086361
663,1.55965445352e+18,-2.868341208,1.295302629,2.695953369
664,1.55965445357e+18,-0.1939362586,1.158828974,3.605777979
665,1.55965445362e+18,-8.142929077,-5.083045483,7.937020779
666,1.55965445368e+18,-0.1580221355,2.923409462,4.805309772
667,1.55965445373e+18,3.584229469,0.5458946824,-7.22831583
668,1.55965445378e+18,-1.245022893,-0.8499675393,-13.47976685
669,1.55965445383e+18,2.636096478,-1.031932473,-5.106987953
670,1.55965445388e+18,-11.56674194,-12.25629234,10.441432
671,1.55965445394e+18,-4.125335693,-13.27385998,0.313650012
672,1.55965445399e+18,-8.976136208,-24.8046875,20.32499886
673,1.55965445404e+18,-4.189980984,-8.226728439,10.80536175
674,1.55965445409e+18,-6.572284222,-14.96900654,12.14855003
675,1.55965445414e+18,-12.74472523,-17.43032074,10.76226521
676,1.5596544542e+18,-13.41751575,-11.49251938,8.746285439
677,1.55965445425e+18,-14.35607147,-8.832479477,1.472478986
678,1.5596544543e+18,-7.388731956,-1.515576005,-6.984099388
679,1.55965445435e+18,2.88510108,0.5387118459,-5.535563469
680,1.5596544544e+18,6.052726746,0.04788549617,7.850827217
681,1.55965445446e+18,0.3974496126,-2.370332003,11.09267521
682,1.55965445451e+18,3.179596901,4.32406044,-14.15016365
683,1.55965445456e+18,15.33772469,7.36239481,-9.409500122
684,1.55965445461e+18,9.574705124,2.892283916,-2.621730804
685,1.55965445466e+18,-3.122134447,-11.708004,12.45262337
686,1.55965445472e+18,-5.59781456,-26.78954124,1.778946161
687,1.55965445477e+18,-11.65054131,-17.85650063,7.496474266
688,1.55965445482e+18,-8.693612099,-9.261054993,8.547560692
689,1.55965445487e+18,-11.01366425,-13.71919441,9.560338974
690,1.55965445492e+18,-17.24117279,-13.87482262,8.054340363
691,1.55965445498e+18,-12.7758503,-5.463735104,3.057488918
692,1.55965445503e+18,-7.510839939,2.509200096,-0.2849186957
693,1.55965445508e+18,-1.18756032,4.484476566,-3.359167576
694,1.55965445513e+18,4.39109993,1.604164124,1.625712633
695,1.55965445518e+18,-1.707117915,0.1891477108,8.669669151
696,1.55965445524e+18,-7.795758724,4.944177628,7.410280704
697,1.55965445529e+18,-6.433416367,-1.707117915,5.525986195
698,1.55965445534e+18,3.45733285,2.834821463,-7.427040577
699,1.55965445539e+18,5.231490612,-3.442967176,-6.251451492
700,1.55965445544e+18,-10.31932449,-18.70886421,0.05985686928
701,1.5596544555e+18,-6.672843933,-18.69689178,3.306493521
702,1.55965445555e+18,-4.719115734,-20.02092552,18.16296959
703,1.5596544556e+18,-4.635315895,-11.708004,12.71599388
704,1.55965445565e+18,-17.15976715,-16.22599983,9.81413269
705,1.5596544557e+18,-19.8341732,-12.8931694,8.554743767
706,1.55965445576e+18,-14.37522602,-7.697593689,7.058321953
707,1.55965445581e+18,-7.46774292,1.67599237,5.248250484
708,1.55965445586e+18,-1.367130876,3.220299721,-0.3208328187
709,1.55965445591e+18,-1.225868702,-2.870735407,2.346389294
710,1.55965445596e+18,-6.026389599,5.106987953,0.06703969836
711,1.55965445602e+18,-7.410280704,4.376734257,-2.825244188
712,1.55965445607e+18,-7.460560322,6.004841328,-2.130904675
713,1.55965445612e+18,-2.942563772,-0.2130904645,-10.78620815
714,1.55965445617e+18,3.093403101,2.049499273,-21.73522758
715,1.55965445622e+18,5.032765865,-1.221080184,-16.69527817
716,1.55965445628e+18,-3.835628271,-13.07513428,-1.46290195
717,1.55965445633e+18,-21.17257118,-15.73517418,13.2810421
718,1.55965445638e+18,-8.188420296,-21.57002258,13.24033928
719,1.55965445643e+18,-9.021627426,-22.25478363,25.93717957
720,1.55965445648e+18,-12.85486126,-10.40073013,11.38238239
721,1.55965445654e+18,-23.34657288,3.32804203,-1.276148438
722,1.55965445659e+18,-16.21163559,1.786128998,1.630501151
723,1.55965445664e+18,-8.095043182,4.776578426,-0.9146129489
724,1.55965445669e+18,-3.205934048,4.733481407,0.2561874092
725,1.55965445674e+18,-1.33600533,5.966532707,-4.410254002
726,1.5596544568e+18,-3.87872529,6.950579643,2.48046875
727,1.55965445685e+18,-13.00330639,-5.080651283,1.33600533
728,1.5596544569e+18,-2.82045579,-2.858764172,18.16536331
729,1.55965445695e+18,-7.01761961,4.963331699,-9.404711723
730,1.559654457e+18,-2.312869549,2.470891714,-8.980924606
731,1.55965445706e+18,9.349642754,3.471698523,-12.85486126
732,1.55965445711e+18,-0.4070267081,-5.377541065,3.270579338
733,1.55965445716e+18,-3.028757572,0.1436564922,6.603409767
734,1.55965445721e+18,-10.00806904,-31.58527374,14.12382698
735,1.55965445726e+18,-22.71209145,-30.08406258,14.98576641
736,1.55965445732e+18,-16.90118599,7.78618145,6.943397045
737,1.55965445737e+18,-18.69928551,-3.56268096,5.616968632
738,1.55965445742e+18,-11.43505669,2.717501879,9.208380699
739,1.55965445747e+18,-5.679219723,3.11734581,1.302485466
740,1.55965445752e+18,-5.727105141,-5.181210518,3.586623669
741,1.55965445758e+18,-10.0966568,-1.553884387,-2.774964571
742,1.55965445763e+18,-11.69603252,9.512454033,-6.881145954
743,1.55965445768e+18,-6.421444893,7.970541,4.436591148
744,1.55965445773e+18,4.666441441,10.02722263,-7.819701672
745,1.55965445778e+18,8.327287674,2.616942406,2.533142805
746,1.55965445783e+18,8.322499275,-0.4237866402,-17.99776459
747,1.55965445789e+18,-1.316851139,-11.48294163,-6.974522591
748,1.55965445794e+18,5.265010357,1.680780888,6.158074856
749,1.55965445799e+18,-0.9337671995,-3.73267436,8.202785492
750,1.55965445804e+18,-22.73842812,-50.71073914,27.4264183
751,1.55965445809e+18,-17.28905869,-24.80947495,13.04161453
752,1.55965445815e+18,-9.447808266,-2.796513081,7.975329399
753,1.5596544582e+18,-10.15651417,1.170800328,5.061496735
754,1.55965445825e+18,-5.530774593,3.718308687,6.577073097
755,1.5596544583e+18,-3.823656797,1.599375606,12.41431522
756,1.55965445835e+18,-11.33689117,-1.956122518,-2.1213274
757,1.55965445841e+18,-11.84926605,-2.104567528,0.3782954216
758,1.55965445846e+18,-11.43505669,2.004008055,-3.840416908
759,1.55965445851e+18,1.264177084,6.182017326,-6.435810566
760,1.55965445856e+18,6.660872459,6.505244732,-2.310475111
761,1.55965445861e+18,1.606558442,0.670396924,-4.85558939
762,1.55965445867e+18,2.619336605,-0.8643332124,-9.639349937
763,1.55965445872e+18,1.517970204,-5.494860649,-6.153286457
764,1.55965445877e+18,-4.067873001,-0.3567469418,4.187586784
765,1.55965445882e+18,-2.82045579,-13.59229851,0.08619388938
766,1.55965445887e+18,-21.65860939,-43.81283569,30.53897476
767,1.55965445893e+18,-2.633702278,-8.200390816,15.53644943
768,1.55965445898e+18,-8.358413696,9.368797302,9.184437752
769,1.55965445903e+18,-13.79341698,7.010436535,6.466936111
770,1.55965445908e+18,-5.116565228,5.746259689,9.28499794
771,1.55965445913e+18,-10.937047,3.919427872,8.624177933
772,1.55965445919e+18,-16.6402092,4.929811954,-1.31445682
773,1.55965445924e+18,-18.6106987,0.3663240373,3.198751211
774,1.55965445929e+18,-12.68247414,-0.1723877788,3.395081758
775,1.55965445934e+18,-0.5075862408,0.7565908432,7.723930359
776,1.55965445939e+18,0.7781392932,-6.091034889,8.561926842
777,1.55965445944e+18,9.426259995,-6.955368519,-19.04885101
778,1.5596544595e+18,5.339232922,-5.786962032,-14.34888935
779,1.55965445955e+18,3.871542454,-4.956148624,4.74784708
780,1.5596544596e+18,-13.91073704,-24.00260544,20.57400322
781,1.55965445965e+18,-27.47190857,-28.45356178,24.33061981
782,1.5596544597e+18,-16.12065315,4.273780346,4.831646442
783,1.55965445976e+18,-14.23635769,1.695146561,9.981731415
784,1.55965445981e+18,-10.21876526,8.59305191,5.083045483
785,1.55965445986e+18,-8.918673515,5.468523502,7.407886028
786,1.55965445991e+18,-10.37199879,3.663240433,8.128562927
787,1.55965445996e+18,-12.93866062,0.4788549542,11.37759399
788,1.55965446002e+18,-18.23479652,0.1053480953,-0.102953814
789,1.55965446007e+18,-10.29538155,0.09337671846,-0.03830839694
790,1.55965446012e+18,-13.31456184,0.2705530524,11.05197239
791,1.55965446017e+18,0.9098244309,-3.66802907,-8.794171333
792,1.55965446022e+18,6.136526108,-5.602602959,-8.559532166
793,1.55965446028e+18,-0.1508393139,-12.01686573,0.8547561169
794,1.55965446033e+18,0.7494080067,3.13889432,14.67690468
795,1.55965446038e+18,0.7853221297,9.115004539,4.695172787
796,1.55965446043e+18,-28.96354294,-11.03042412,1.982459545
797,1.55965446048e+18,-15.22519398,-3.392687321,12.28741837
798,1.55965446054e+18,-11.76307201,-4.38870573,8.324893951
799,1.55965446059e+18,-12.90993023,0.689551115,6.220325947
800,1.55965446064e+18,-10.32650757,1.256994247,8.265036583
801,1.55965446069e+18,-11.35365105,-3.66802907,10.07989693
802,1.55965446074e+18,-18.80224037,-7.288172722,9.289786339
803,1.5596544608e+18,-18.45746422,-0.7781392932,5.995264053
804,1.55965446085e+18,-9.354432106,0.924190104,0.1245022863
805,1.5596544609e+18,-4.17800951,-2.336812258,-4.474899769
806,1.55965446095e+18,3.524372578,-3.205934048,5.360781193
807,1.559654461e+18,14.86365795,1.0175668,-17.85171318
808,1.55965446106e+18,11.51885605,2.039922237,-10.57790565
809,1.55965446111e+18,-3.998438835,-2.837215662,22.05845451
810,1.55965446116e+18,-26.54771996,-35.69624329,12.06714535
811,1.55965446121e+18,-15.66334534,-14.03045082,18.4550705
812,1.55965446126e+18,-7.000859737,1.115732074,8.626572609
813,1.55965446132e+18,-5.887521744,5.456552505,5.549929142
814,1.55965446137e+18,-4.721509933,3.0981915,8.468549728
815,1.55965446142e+18,-7.134938717,1.254600048,8.660092354
816,1.55965446147e+18,-14.38719749,-5.746259689,9.232323647
817,1.55965446152e+18,-12.5483942,-6.217931747,6.196382999
818,1.55965446158e+18,-33.6970253,-12.63458824,11.47336483
819,1.55965446163e+18,8.935433388,6.246663094,-3.691971779
820,1.55965446168e+18,11.50927925,6.100612164,-21.32580566
821,1.55965446173e+18,3.488458395,0.6201171875,-5.106987953
822,1.55965446178e+18,-11.62180996,-6.047938347,25.92041969
823,1.55965446184e+18,-6.821289062,-20.74399757,4.515602112
824,1.55965446189e+18,-12.70402241,-20.18134308,21.79029465
825,1.55965446194e+18,-14.17171288,-5.332049847,6.098217964
826,1.55965446199e+18,-11.58589554,2.26977253,2.626519442
827,1.55965446204e+18,-3.948159218,8.073494911,1.486844659
828,1.5596544621e+18,-0.7661679387,4.647287369,3.438178539
829,1.55965446215e+18,-5.789356709,4.482082367,9.557945251
830,1.5596544622e+18,-9.639349937,6.244268894,8.621783257
831,1.55965446225e+18,-19.69530487,-1.958516836,6.057515144
832,1.5596544623e+18,-15.87404156,0.2561874092,8.303344727
833,1.55965446236e+18,-1.874717116,1.005595446,3.747040033
834,1.55965446241e+18,7.982511997,-1.63289547,2.909043789
835,1.55965446246e+18,11.09028053,-1.168406129,-29.48310089
836,1.55965446251e+18,4.565882206,-1.331216812,-5.585843086
837,1.55965446256e+18,-2.418217659,-10.19242764,10.3097477
838,1.55965446262e+18,-12.26347542,-33.51984787,21.795084
839,1.55965446267e+18,-13.36963081,-27.49106407,17.62904549
840,1.55965446272e+18,-9.277814865,-3.174808502,11.3344965
841,1.55965446277e+18,-13.74553204,-1.003201127,7.668862343
842,1.55965446282e+18,-7.994483471,0.8140534163,9.735121727
843,1.55965446288e+18,-3.423812866,4.790944099,6.93621397
844,1.55965446293e+18,-2.808484316,0.4046324492,7.771816254
845,1.55965446298e+18,-7.462954521,-1.668809533,9.251478195
846,1.55965446303e+18,-11.09267521,1.776551962,0.8020820618
847,1.55965446308e+18,-10.71437931,3.023969173,2.0351336
848,1.55965446314e+18,-3.828445435,4.443774223,2.008796453
849,1.55965446319e+18,1.65444386,3.510006905,-2.942563772
850,1.55965446324e+18,9.945817947,-5.832453251,-13.75032043
851,1.55965446329e+18,9.493299484,-2.679193497,-10.67607117
852,1.55965446334e+18,0.8475732803,-2.432583094,10.52523232
853,1.5596544634e+18,-12.86443901,-34.96838379,12.7614851
854,1.55965446345e+18,-23.50459671,-32.22454453,18.72562408
855,1.5596544635e+18,-12.16770458,-2.576239586,5.763019562
856,1.55965446355e+18,-11.95221996,-0.09337671846,7.726325035
857,1.5596544636e+18,-7.453377247,5.554717541,3.854782343
858,1.55965446366e+18,-4.788549423,3.055094719,2.564268351
859,1.55965446371e+18,-6.72551775,9.797372818,4.640104771
860,1.55965446376e+18,-10.91071033,5.207547665,6.268211365
861,1.55965446381e+18,-15.24434757,5.375146866,2.830032825
862,1.55965446386e+18,-12.24432182,7.616188049,3.962524891
863,1.55965446392e+18,-2.054287672,-1.350371003,0.950527072
864,1.55965446397e+18,5.636122704,-3.402264595,-14.72478962
865,1.55965446402e+18,5.964138508,-7.810124397,-9.182044029
866,1.55965446407e+18,-3.488458395,-9.213169098,6.349617004
867,1.55965446412e+18,1.024749637,-3.162837029,14.01608467
868,1.55965446418e+18,-12.79979324,-11.06633854,22.30266953
869,1.55965446423e+18,-30.96515656,3.502824068,3.857176781
870,1.55965446428e+18,-18.54605293,-0.2178790122,6.272999763
871,1.55965446433e+18,-7.755055904,3.538738251,7.115784645
872,1.55965446438e+18,-3.550709486,5.329655647,5.205153465
873,1.55965446444e+18,-1.352765322,6.950579643,8.028003693
874,1.55965446449e+18,-6.538764477,8.238699913,10.73592854
875,1.55965446454e+18,-22.4846344,2.762993097,3.354378939
876,1.55965446459e+18,-18.28507614,0.1939362586,2.628913641
877,1.55965446464e+18,-14.32734013,-0.7110996246,3.402264595
878,1.5596544647e+18,-4.834040642,-1.381496549,0.4764606953
879,1.55965446475e+18,2.286532402,-4.56109333,-8.039975166
880,1.5596544648e+18,3.196356773,-7.726325035,6.885934353
881,1.55965446485e+18,9.452596664,-0.2897072434,-13.14456844
882,1.5596544649e+18,8.492492676,1.216291547,-14.04481602
883,1.55965446496e+18,6.572284222,-2.1213274,12.64416504
884,1.55965446501e+18,-14.46381378,-73.09481812,1.901054144
885,1.55965446506e+18,-11.53561592,-27.64669037,11.12619495
886,1.55965446511e+18,-2.365543604,2.997632027,9.751881599
887,1.55965446516e+18,-7.977723598,5.774991035,0.668002665
888,1.55965446522e+18,-8.961771011,5.004034519,9.05993557
889,1.55965446527e+18,-13.52046967,0.3687183261,5.310501575
890,1.55965446532e+18,-18.73520088,-7.04395628,6.691998005
891,1.55965446537e+18,-23.48783493,-14.65535641,34.45840454
892,1.55965446542e+18,-4.994457245,3.019180536,-6.878751755
893,1.55965446548e+18,30.74967194,3.354378939,-34.06813812
894,1.55965446553e+18,10.77423668,10.66170597,-14.01368999
895,1.55965446558e+18,2.79890728,0.05506832153,-3.847599506
896,1.55965446563e+18,-5.561900616,-20.5141468,26.48546791
897,1.55965446568e+18,-3.320859194,-22.08957863,9.416683197
898,1.55965446574e+18,-15.47659206,-10.18285084,13.54201794
899,1.55965446579e+18,-16.2906456,-5.284164429,10.34566116
900,1.55965446584e+18,-15.86446476,1.604164124,5.463735104
901,1.55965446589e+18,-11.98813438,7.635342598,3.071854591
902,1.55965446594e+18,-11.4997015,11.49251938,2.370332003
903,1.559654466e+18,-7.020013809,8.442213058,5.23867321
904,1.55965446605e+18,-13.82214832,3.265790939,8.006455421
905,1.5596544661e+18,-12.59149075,-2.466103077,6.383136749
906,1.55965446615e+18,-5.873156071,-2.150058746,7.434223175
907,1.5596544662e+18,0.3998439014,-0.1125309169,2.935380936
908,1.55965446626e+18,0.04309694469,-11.36322784,-5.423032284
909,1.55965446631e+18,4.386311531,-6.069486618,-14.77267551
910,1.55965446636e+18,-2.262589693,-8.731920242,-3.914639235
911,1.55965446641e+18,-0.7039167881,-6.287365437,8.794171333
912,1.55965446646e+18,4.398283005,-12.47417164,2.181184292
913,1.55965446652e+18,-17.89720345,-26.64348984,13.35287094
914,1.55965446657e+18,-6.284971237,-9.771035194,18.44309807
915,1.55965446662e+18,-9.275420189,-5.454157829,18.20606613
916,1.55965446667e+18,-16.13262367,-1.963305354,10.56354046
917,1.55965446672e+18,-16.10868073,2.207521439,8.940221786
918,1.55965446678e+18,-11.63378143,3.689577579,8.243488312
919,1.55965446683e+18,-15.11745071,2.801301479,4.0726614
920,1.55965446688e+18,-15.04322815,-3.378321648,0.1077423692
921,1.55965446693e+18,-14.43987179,-1.834014535,1.422199249
922,1.55965446698e+18,-5.837242126,-0.627300024,0.007182824425
923,1.55965446704e+18,-1.711906433,-4.877137661,-1.266571403
924,1.55965446709e+18,-1.577827096,-10.18045616,3.057488918
925,1.55965446714e+18,4.992063046,-4.197163582,-5.494860649
926,1.55965446719e+18,3.466909885,-0.3639297783,-13.64257812
927,1.55965446724e+18,1.874717116,-0.6871568561,1.29290843
928,1.5596544673e+18,-25.53494072,-31.08726501,17.3872242
929,1.55965446735e+18,-19.10870743,-27.51261139,20.59794617
930,1.5596544674e+18,-12.83570766,-3.691971779,17.38243484
931,1.55965446745e+18,-17.19089317,4.977697372,6.289760113
932,1.5596544675e+18,-16.31458855,2.643279314,5.315289974
933,1.55965446756e+18,-11.86602592,4.309694767,1.235445857
934,1.55965446761e+18,-14.05678749,-0.7996878028,0.2753416002
935,1.55965446766e+18,-13.16372299,-2.564268351,-5.825270653
936,1.55965446771e+18,-8.394327164,2.578634024,4.49644804
937,1.55965446776e+18,-2.260195494,8.394327164,7.223526955
938,1.55965446782e+18,-1.0606637,4.767001152,25.1063652
939,1.55965446787e+18,-0.01915419847,1.130097747,-4.759818554
940,1.55965446792e+18,8.978530884,-3.670423269,-6.955368519
941,1.55965446797e+18,-1.573038578,-2.791724443,-6.16765213
942,1.55965446802e+18,9.929058075,2.621730804,-20.16697693
943,1.55965446808e+18,-1.869928598,-2.451737404,1.575432777
944,1.55965446813e+18,-23.64346313,-22.47266388,27.02417946
945,1.55965446818e+18,-33.90771866,-30.04575539,8.06391716
946,1.55965446823e+18,-21.82860374,2.846792698,5.820482254
947,1.55965446828e+18,-17.22920227,1.798100352,5.308107376
948,1.55965446834e+18,-10.31453609,9.215563774,6.711152077
949,1.55965446839e+18,-10.5922718,4.024775982,3.907456398
950,1.55965446844e+18,-7.405491829,-0.2298503816,2.822849989
951,1.55965446849e+18,-11.3105545,-6.028783798,8.930644989
952,1.55965446854e+18,-4.012804508,-1.656838179,1.144463301
953,1.5596544686e+18,-28.86058807,8.466156006,8.669669151
954,1.55965446865e+18,-0.9098244309,3.500429869,-12.07672215
955,1.5596544687e+18,8.152505875,0.6225114465,-16.78865433
956,1.55965446875e+18,-12.21080112,-5.700768471,2.415823221
957,1.5596544688e+18,-0.8691217303,5.70316267,3.361561775
958,1.55965446886e+18,2.535537004,1.189954638,8.250671387
959,1.55965446891e+18,-11.58110714,-22.59477043,13.8293314
960,1.55965446896e+18,-31.08247566,-21.53171349,9.289786339
961,1.55965446901e+18,-13.21400261,-5.200365067,9.483722687
962,1.55965446906e+18,-6.957762718,0.5123748183,6.87156868
963,1.55965446912e+18,-2.14287591,3.809291124,7.316903591
964,1.55965446917e+18,-1.199531674,-0.2513988614,0.986441195
965,1.55965446922e+18,-1.268965602,-2.576239586,6.186806202
966,1.55965446927e+18,-7.173247337,0.3447755575,11.4805479
967,1.55965446932e+18,-15.29702187,2.22667551,9.660899162
968,1.55965446938e+18,-8.126168251,5.509226322,7.776604652
969,1.55965446943e+18,-2.099778891,5.221913338,-1.582615614
970,1.55965446948e+18,-6.533976078,-6.902694225,1.802888989
971,1.55965446953e+18,13.39836216,1.802888989,-10.37678719
972,1.55965446958e+18,3.778165579,2.619336605,-3.493247032
973,1.55965446964e+18,-7.087053299,-15.91235065,20.39443207
974,1.55965446969e+18,-13.66891479,-44.29169083,16.39838791
975,1.55965446974e+18,-9.838075638,-20.07120514,9.10063839
976,1.55965446979e+18,-7.556331158,-1.470084786,4.326454639
977,1.55965446984e+18,-10.67367744,1.154040456,4.118152618
978,1.5596544699e+18,-4.412648678,4.300117493,1.709512234
979,1.55965446995e+18,-3.782954216,3.608172178,5.332049847
980,1.55965447e+18,-7.060716629,-2.923409462,7.245075703
981,1.55965447005e+18,-12.18925285,-2.774964571,4.733481407
982,1.5596544701e+18,-10.6018486,2.0351336,0.7134938836
983,1.55965447016e+18,-11.60983849,8.123774529,4.822069645
984,1.55965447021e+18,5.645699978,4.980091572,0.05506832153
985,1.55965447026e+18,11.3680172,5.260221958,-17.60749626
986,1.55965447031e+18,10.52523232,2.35357213,-6.636929989
987,1.55965447036e+18,-16.82696342,-16.26191521,20.14303398
988,1.55965447042e+18,-10.36002731,-30.17025757,15.34730148
989,1.55965447047e+18,-8.202785492,-23.47347069,15.59630585
990,1.55965447052e+18,-8.097437859,-9.739910126,10.51804924
991,1.55965447057e+18,-9.452596664,3.253819466,1.910631299
992,1.55965447062e+18,-5.973715782,3.378321648,2.818061352
993,1.55965447068e+18,-2.509200096,4.276175022,6.165257454
994,1.55965447073e+18,-4.620950222,4.094210148,12.08151054
995,1.55965447078e+18,-13.88918781,-2.020767927,8.284191132
996,1.55965447083e+18,-14.93309212,-2.027950764,2.875524044
997,1.55965447088e+18,-13.01527786,5.09262228,4.975303173
998,1.55965447094e+18,-4.676018715,6.349617004,6.081458092
999,1.55965447099e+18,11.51646137,1.285725594,-17.81579971
1000,1.55965447104e+18,14.8780241,0.632088542,-9.790189743
1001,1.55965447109e+18,5.023188591,0.4166038036,-5.138113976
1002,1.55965447114e+18,-4.331243038,-8.157294273,25.56606674
1003,1.5596544712e+18,-23.09756851,-43.58537674,19.9993782
1004,1.55965447125e+18,-18.10311127,-8.554743767,8.870788574
1005,1.5596544713e+18,-10.95380688,-2.312869549,6.653689861
1006,1.55965447135e+18,-4.778972626,4.412648678,5.355992794
1007,1.5596544714e+18,-6.112583637,6.567495823,5.55711174
1008,1.55965447146e+18,-4.553910732,7.822095871,6.680026531
1009,1.55965447151e+18,-8.822902679,5.102199554,6.387925148
1010,1.55965447156e+18,-19.60910988,-6.158074856,9.687235832
1011,1.55965447161e+18,-18.88843346,-5.74386549,7.46774292
1012,1.55965447166e+18,-4.235472202,4.553910732,4.664047241
1013,1.55965447172e+18,5.511620522,3.110162973,-13.97059345
1014,1.55965447177e+18,7.597033978,-0.5770202279,-10.68325424
1015,1.55965447182e+18,9.258660316,-0.2681587934,-13.58272076
1016,1.55965447187e+18,-4.249837875,-6.610592842,15.35448456
1017,1.55965447192e+18,-7.348029613,-27.19656754,13.29061985
1018,1.55965447198e+18,-15.37842751,-27.63232613,23.01137543
1019,1.55965447203e+18,-13.90355396,-2.437371731,6.900300026
1020,1.55965447208e+18,-11.3680172,0.07661679387,6.857203007
1021,1.55965447213e+18,-8.980924606,3.526766777,6.713546753
1022,1.55965447218e+18,-4.055901527,2.695953369,6.814105988
1023,1.55965447224e+18,-2.432583094,2.889889717,9.081484795
1024,1.55965447229e+18,-6.785374641,3.088614464,8.502069473
1025,1.55965447234e+18,-12.32572651,2.437371731,3.584229469
1026,1.55965447239e+18,-6.572284222,6.782980442,7.003253937
1027,1.55965447244e+18,-2.478074312,3.43578434,-4.625739098
1028,1.55965447249e+18,-7.65210247,-1.999219418,-4.321666241
1029,1.55965447255e+18,5.06628561,-3.950553417,-14.07354736
1030,1.5596544726e+18,5.504437923,-1.743032098,-6.397502422
1031,1.55965447265e+18,5.06628561,3.416630268,7.0822649
1032,1.5596544727e+18,-7.86758709,-17.64580536,20.52851295
1033,1.55965447275e+18,-13.75750351,-44.76336288,26.42800522
1034,1.55965447281e+18,-4.608979225,-12.82134151,17.27229881
1035,1.55965447286e+18,-2.109356165,4.091815472,9.613013268
1036,1.55965447291e+18,-10.8149395,5.209941864,8.305739403
1037,1.55965447296e+18,-4.0702672,2.171607256,6.974522591
1038,1.55965447301e+18,-2.928198099,-0.2633702159,7.970541
1039,1.55965447307e+18,-12.44065189,0.670396924,6.943397045
1040,1.55965447312e+18,-12.79500484,1.647261024,1.520364523
1041,1.55965447317e+18,-6.220325947,6.354405403,1.091789365
1042,1.55965447322e+18,-0.5961744189,6.215537548,7.647313595
1043,1.55965447327e+18,13.1110487,2.815667152,-15.31138706
1044,1.55965447333e+18,8.655303001,-1.098972082,-20.8924427
1045,1.55965447338e+18,9.126976013,0.9744698405,1.110943556
1046,1.55965447343e+18,-16.80780983,-28.78397179,11.67927265
1047,1.55965447348e+18,-29.82069206,-26.34899521,8.650514603
1048,1.55965447353e+18,-15.13181686,-7.503657341,9.512454033
1049,1.55965447359e+18,-13.50370979,-4.386311531,6.572284222
1050,1.55965447364e+18,-12.2610817,4.70714426,1.278542757
1051,1.55965447369e+18,-7.635342598,6.998465061,3.507612705
1052,1.55965447374e+18,-4.606584549,2.360754967,6.567495823
1053,1.55965447379e+18,-8.727131844,5.248250484,5.437397957
1054,1.55965447385e+18,-16.98498535,2.700742006,6.241874218
1055,1.5596544739e+18,-14.07594204,4.865166187,-0.4525179267
1056,1.55965447395e+18,-9.862017632,3.512401104,0.5530774593
1057,1.559654474e+18,-10.9753561,1.424593568,9.454991341
1058,1.55965447405e+18,1.110943556,-0.1340793967,-3.019180536
1059,1.55965447411e+18,11.36562252,-9.459779739,-18.0671978
1060,1.55965447416e+18,9.883566856,-5.396695614,-7.371972084
1061,1.55965447421e+18,-2.217098475,-6.533976078,15.87883091
1062,1.55965447426e+18,-14.89478397,-19.37207794,19.58995628
1063,1.55965447431e+18,-30.6586895,-16.8149929,17.67214203
1064,1.55965447437e+18,-20.17894745,3.517189741,7.738296032
1065,1.55965447442e+18,-11.43026829,4.134912491,9.912297249
1066,1.55965447447e+18,-9.816526413,5.578660488,6.414262295
1067,1.55965447452e+18,-7.819701672,3.416630268,4.307300568
1068,1.55965447457e+18,-5.581054688,0.2442160249,7.563514233
1069,1.55965447463e+18,-15.83812809,-3.146077156,5.729499817
1070,1.55965447468e+18,-13.37681293,1.233051538,1.034326673
1071,1.55965447473e+18,-7.235498428,2.583422422,1.352765322
1072,1.55965447478e+18,-4.065478802,6.742278099,14.15016365
1073,1.55965447483e+18,10.54917526,0.9984126091,-10.33608437
1074,1.55965447489e+18,12.24192715,-2.229069948,-15.01689148
1075,1.55965447494e+18,5.02558279,1.786128998,-0.8236305118
1076,1.55965447499e+18,-0.8906702399,-7.604216576,16.16614342
1077,1.55965447504e+18,-29.35380936,-28.79594231,16.57556534
1078,1.55965447509e+18,-29.67703629,-5.542746067,2.82045579
1079,1.55965447515e+18,-11.38477707,0.05027977005,5.619362831
1080,1.5596544752e+18,-3.814079762,5.34641552,7.788576126
1081,1.55965447525e+18,-3.756617069,7.676044941,3.239453793
1082,1.5596544753e+18,-6.064698219,6.488484859,5.942590237
1083,1.55965447535e+18,-16.90836906,2.662433624,8.075888634
1084,1.55965447541e+18,-21.34256554,-0.9409499764,6.948185444
1085,1.55965447546e+18,-14.60507679,-1.580221415,5.693585396
1086,1.55965447551e+18,-7.860404015,-2.363149166,2.79890728
1087,1.55965447556e+18,-3.579440832,-1.252205729,3.181991339
1088,1.55965447561e+18,-4.39109993,-6.052726746,0.9026415944
1089,1.55965447567e+18,2.997632027,-1.472478986,-3.593806505
1090,1.55965447572e+18,2.992843628,-3.002420664,-4.549122334
1091,1.55965447577e+18,2.561874151,2.734261751,-4.465322495
1092,1.55965447582e+18,2.485257149,-5.367964268,12.0432024
1093,1.55965447587e+18,-16.38162804,-31.07289886,7.877163887
1094,1.55965447593e+18,-25.4750843,-26.27716637,12.25389862
1095,1.55965447598e+18,-11.28421688,1.798100352,7.395915031
1096,1.55965447603e+18,-8.298556328,2.255406857,4.252232075
1097,1.55965447608e+18,-5.899493217,5.885127544,10.24031353
1098,1.55965447613e+18,-8.267431259,-1.834014535,8.791776657
1099,1.55965447619e+18,-19.96346283,-0.04070267081,1.367130876
1100,1.55965447624e+18,-16.98498535,-2.253012657,-0.4932205975
1101,1.55965447629e+18,-6.751854897,2.463708878,-2.705530643
1102,1.55965447634e+18,-10.47734642,-5.542746067,-2.813272953
1103,1.55965447639e+18,11.17168617,7.814912796,-13.23315716
1104,1.55965447645e+18,3.514795303,-4.539545059,-9.806949615
1105,1.5596544765e+18,-2.77975297,-7.474925995,10.62579155
1106,1.55965447655e+18,-2.921015263,-14.65775013,8.729525566
1107,1.5596544766e+18,-26.65546227,-10.34326744,8.660092354
1108,1.55965447665e+18,-17.74875832,-4.029564381,6.641718388
1109,1.55965447671e+18,-9.950606346,1.513181686,4.970514297
1110,1.55965447676e+18,-9.126976013,6.960156918,2.794118643
1111,1.55965447681e+18,-8.207573891,10.91789341,2.844398499
1112,1.55965447686e+18,-9.953000069,6.421444893,0.4525179267
1113,1.55965447691e+18,-16.92033958,1.766974807,3.806896925
1114,1.55965447696e+18,-20.45189476,-4.376734257,6.270605564
1115,1.55965447702e+18,-11.18844604,-3.079037428,-0.3375927508
1116,1.55965447707e+18,-3.419024467,-1.216291547,-1.790917516
1117,1.55965447712e+18,1.494027495,-2.24822402,0.9696813226
1118,1.55965447717e+18,1.86514008,-2.485257149,-1.932179809
1119,1.55965447722e+18,-8.640937805,-7.702382088,18.38084793
1120,1.55965447728e+18,2.894678354,-2.418217659,1.242628574
1121,1.55965447733e+18,-1.984853864,-9.395133972,0.2849186957
1122,1.55965447738e+18,-28.28356743,-27.4359951,10.06553173
1123,1.55965447743e+18,-5.248250484,1.324033976,8.049551964
1124,1.55965447748e+18,-10.97774982,-3.529160976,13.6066637
1125,1.55965447754e+18,-11.3728056,2.949746609,9.617801666
1126,1.55965447759e+18,-7.704776287,3.301704884,5.142902374
1127,1.55965447764e+18,-7.331269264,3.727885962,7.541965485
1128,1.55965447769e+18,-11.05915546,2.540325642,11.67448425
1129,1.55965447774e+18,-13.989748,2.341600657,6.318490982
1130,1.5596544778e+18,-15.72080803,0.3591412306,0.3280156553
1131,1.55965447785e+18,-3.596200705,-0.3112557232,-4.972908974
1132,1.5596544779e+18,-7.379155159,-6.962551117,-3.873936653
1133,1.55965447795e+18,1.508393168,5.411061287,-8.724737167
1134,1.559654478e+18,5.889915943,-2.454131603,-7.726325035
1135,1.55965447806e+18,2.157241583,-2.274561167,8.03758049
1136,1.55965447811e+18,-17.52848625,-25.58761406,7.644919395
1137,1.55965447816e+18,-28.68101883,-33.75448608,18.0480442
1138,1.55965447821e+18,-3.572257996,-5.233884811,12.31854343
1139,1.55965447826e+18,-5.245856285,1.517970204,9.620196342
1140,1.55965447832e+18,-7.034379482,2.932986736,9.172467232
1141,1.55965447837e+18,-5.935407162,5.06628561,8.008849144
1142,1.55965447842e+18,-9.366402626,7.78618145,7.879558563
1143,1.55965447847e+18,-16.59471893,2.557085514,1.960911036
1144,1.55965447852e+18,-16.26670265,0.002394274808,-3.122134447
1145,1.55965447858e+18,-6.952973843,5.988081455,1.652049661
1146,1.55965447863e+18,-1.788523316,3.474092722,-1.098972082
1147,1.55965447868e+18,0.8236305118,-1.723877907,-12.43825722
1148,1.55965447873e+18,10.2714386,0.7853221297,-18.06240845
1149,1.55965447878e+18,11.89475727,3.869148016,-10.90831566
1150,1.55965447884e+18,-9.787795067,-16.19248009,13.46779537
1151,1.55965447889e+18,-21.19412041,-16.17332649,-0.6656084061
1152,1.55965447894e+18,-18.08635139,-18.06480408,20.37048912
1153,1.55965447899e+18,-11.97376823,-7.537177086,13.91313076
1154,1.55965447904e+18,-18.85730934,-0.8092648983,2.430188894
1155,1.5596544791e+18,-11.85644913,2.159635782,3.775771379
1156,1.55965447915e+18,-4.225894928,4.405465603,1.35755384
1157,1.5596544792e+18,2.79890728,3.088614464,8.188420296
1158,1.55965447925e+18,-4.89629221,-2.784541607,9.663292885
1159,1.5596544793e+18,-22.03211594,4.340820312,-7.130150318
1160,1.55965447936e+18,-15.00492001,-1.960911036,6.423839092
1161,1.55965447941e+18,-3.744645834,7.175641537,-5.45176363
1162,1.55965447946e+18,5.731894016,13.08471203,-9.443019867
1163,1.55965447951e+18,6.196382999,1.206714511,-9.991309166
1164,1.55965447956e+18,5.207547665,-4.345608711,-16.95385933
1165,1.55965447962e+18,3.737462997,0.4070267081,8.142929077
1166,1.55965447967e+18,-6.632141113,-4.35039711,14.54521942
1167,1.55965447972e+18,-25.55170059,-36.70183945,21.69931221
1168,1.55965447977e+18,-16.43669701,-19.49179077,11.95700836
1169,1.55965447982e+18,-11.84687138,-4.185192585,6.991282463
1170,1.55965447988e+18,-12.46938324,-0.5578660369,3.869148016
1171,1.55965447993e+18,-7.211555958,4.156461239,2.346389294
1172,1.55965447998e+18,-8.092648506,6.359193802,0.4573064744
1173,1.55965448003e+18,-8.202785492,7.589851379,1.139674783
1174,1.55965448008e+18,-5.937801361,4.910657406,4.723904133
1175,1.55965448014e+18,-16.50613022,4.21871233,13.31695652
1176,1.55965448019e+18,-17.64341164,0.5818088055,-0.2346389294
1177,1.55965448024e+18,-5.200365067,-1.115732074,1.295302629
1178,1.55965448029e+18,1.623318315,1.367130876,0.5219519138
1179,1.55965448034e+18,8.219545364,0.9744698405,-18.07198715
1180,1.5596544804e+18,4.13730669,-5.66245985,-13.05119228
1181,1.55965448045e+18,5.478100777,-2.413429022,1.711906433
1182,1.5596544805e+18,-9.071907043,-11.75588894,23.9211998
1183,1.55965448055e+18,-27.53894806,-29.08086205,7.647313595
1184,1.5596544806e+18,-25.73127174,-9.914691925,6.416656494
1185,1.55965448066e+18,-15.30181026,10.12778282,3.893090725
1186,1.55965448071e+18,-8.526012421,8.59305191,1.489238977
1187,1.55965448076e+18,-7.65449667,5.607391834,7.218738556
1188,1.55965448081e+18,-8.887548447,3.335224867,6.876357079
1189,1.55965448086e+18,-11.55477047,3.047911882,6.093429565
1190,1.55965448092e+18,-17.58594894,-3.0119977,1.254600048
1191,1.55965448097e+18,-16.53246689,0.6799740195,5.193181992
1192,1.55965448102e+18,0.2585816681,4.556304932,8.166871071
1193,1.55965448107e+18,10.35763264,2.765387297,-25.8821106
1194,1.55965448112e+18,3.11734581,-4.460534096,-9.531607628
1195,1.55965448118e+18,3.000026226,-4.714327335,-1.61134696
1196,1.55965448123e+18,-4.644893169,-6.227508545,10.94423008
1197,1.55965448128e+18,-5.138113976,-21.048069,16.6306324
1198,1.55965448133e+18,-22.30506325,-26.91643715,22.27633286
1199,1.55965448138e+18,-14.73197269,6.435810566,3.342407703
1200,1.55965448144e+18,-10.40073013,0.3926610649,6.150891781
1201,1.55965448149e+18,-1.055875182,3.950553417,5.554717541
1202,1.55965448154e+18,-1.573038578,2.858764172,4.860377789
1203,1.55965448159e+18,-2.518777132,-0.5411061049,7.398309231
1204,1.55965448164e+18,-11.50449085,0.9002473354,5.327261448
1205,1.5596544817e+18,-10.5970602,4.0726614,7.307326794
1206,1.55965448175e+18,-14.26508904,5.102199554,14.22917557
1207,1.5596544818e+18,-9.103033066,7.453377247,6.87156868
1208,1.55965448185e+18,8.06391716,8.367990494,-8.557138443
1209,1.5596544819e+18,5.940196037,-2.490045786,-18.00015831
1210,1.55965448196e+18,2.609759569,-0.3806896806,-3.581835032
1211,1.55965448201e+18,-4.108575344,-9.936240196,16.62823868
1212,1.55965448206e+18,-10.58030033,-32.14313889,15.74714565
1213,1.55965448211e+18,-20.26992989,-11.57631874,4.941783428
1214,1.55965448216e+18,-19.20208359,-4.022381783,4.757423878
1215,1.55965448222e+18,-10.46776962,0.9888355136,6.69918108
1216,1.55965448227e+18,-7.235498428,4.987274647,3.469304085
1217,1.55965448232e+18,-4.096604347,4.695172787,3.718308687
1218,1.55965448237e+18,-1.642472506,6.421444893,4.786155224
1219,1.55965448242e+18,-7.022408009,7.18761301,2.205127001
1220,1.55965448248e+18,-19.70009232,-2.300898075,2.406246185
1221,1.55965448253e+18,-17.49975395,1.113337755,5.083045483
1222,1.55965448258e+18,-7.350423813,2.147664547,8.968953133
1223,1.55965448263e+18,-2.576239586,5.396695614,8.195602417
1224,1.55965448268e+18,8.504464149,1.019961119,-14.43987179
1225,1.55965448274e+18,10.13017654,-4.027170181,-12.7758503
1226,1.55965448279e+18,0.6057515144,-5.415849686,-3.165231228
1227,1.55965448284e+18,-2.023162127,-6.0216012,20.23880577
1228,1.55965448289e+18,-9.062330246,-48.28294754,13.7766571
1229,1.55965448294e+18,-11.30097675,-24.3880825,15.19167328
1230,1.559654483e+18,-10.97296143,0.4285751879,5.722316742
1231,1.55965448305e+18,-7.216344357,3.600989342,3.792531252
1232,1.5596544831e+18,-2.932986736,7.058321953,5.992869854
1233,1.55965448315e+18,1.620923996,3.354378939,6.919454098
1234,1.5596544832e+18,-2.909043789,4.376734257,11.21238899
1235,1.55965448326e+18,-18.75196075,-2.523565531,-1.110943556
1236,1.55965448331e+18,-19.06082153,2.858764172,-1.252205729
1237,1.55965448336e+18,1.541913033,13.34089947,4.472505569
1238,1.55965448341e+18,11.56195259,2.853975534,-21.02412796
1239,1.55965448346e+18,9.443019867,-4.28575182,-4.905869007
1240,1.55965448352e+18,1.213897347,-1.793311834,4.999245644
1241,1.55965448357e+18,-2.212309837,-6.811711788,-1.381496549
1242,1.55965448362e+18,-29.78717232,-30.40489578,11.99531651
1243,1.55965448367e+18,-21.16539001,-13.68806934,8.049551964
1244,1.55965448372e+18,-12.2610817,-8.46376133,7.328875065
1245,1.55965448378e+18,-7.647313595,0.7446194887,4.067873001
1246,1.55965448383e+18,-5.435003757,3.404658794,1.635289669
1247,1.55965448388e+18,-2.449343204,4.690384388,2.061470509
1248,1.55965448393e+18,-7.23071003,3.452544212,7.544359684
1249,1.55965448398e+18,-22.33140182,0.8236305118,2.454131603
1250,1.55965448404e+18,-15.67771149,-0.1939362586,4.74784708
1251,1.55965448409e+18,-7.108602047,1.539518714,3.814079762
1252,1.55965448414e+18,0.9601042271,-4.462928295,-1.9944309
1253,1.55965448419e+18,21.45270157,14.18607807,-6.454965115
1254,1.55965448424e+18,10.8197279,0.9912297726,-12.06714535
1255,1.5596544843e+18,-0.7541965842,-2.377514839,2.425400496
1256,1.55965448435e+18,-7.477320194,-16.25951958,14.8971777
1257,1.5596544844e+18,-14.08791256,-34.09447479,18.99138832
1258,1.55965448445e+18,-8.411087036,-15.610672,12.92190075
1259,1.5596544845e+18,-11.28661156,-3.196356773,6.517216206
1260,1.55965448456e+18,-7.496474266,2.027950764,7.685622215
1261,1.55965448461e+18,-4.790944099,5.456552505,2.889889717
1262,1.55965448466e+18,-4.331243038,-0.06225114316,2.22667551
1263,1.55965448471e+18,-9.028810501,-1.295302629,1.312062621
1264,1.55965448476e+18,-11.28900528,-7.666468143,0.8403904438
1265,1.55965448482e+18,-10.07032013,-1.630501151,12.68726254
1266,1.55965448487e+18,-1.541913033,10.72874546,-2.667222023
1267,1.55965448492e+18,14.28663731,13.56356716,-11.46857643
1268,1.55965448497e+18,8.810931206,6.012023926,-5.02558279
1269,1.55965448502e+18,-6.821289062,-12.81894779,20.18852425
1270,1.55965448508e+18,-4.448562622,-28.32187653,7.89152956
1271,1.55965448513e+18,-5.253038883,-19.49179077,9.826104164
1272,1.55965448518e+18,-7.89152956,-6.342433929,10.73832226
1273,1.55965448523e+18,-10.63536835,-3.79492569,12.16052151
1274,1.55965448528e+18,-12.19404125,1.599375606,4.74784708
1275,1.55965448534e+18,-7.067899227,1.989642382,1.343188167
1276,1.55965448539e+18,-2.063864946,3.569863796,4.755029678
1277,1.55965448544e+18,-2.147664547,5.425426483,5.676825523
1278,1.55965448549e+18,-4.690384388,-0.3519583941,6.064698219
1279,1.55965448554e+18,-3.488458395,-0.5051919818,4.300117493
1280,1.5596544856e+18,-22.24999619,-10.61621475,6.308914185
1281,1.55965448565e+18,-0.9409499764,16.84611702,-2.664827824
1282,1.5596544857e+18,3.550709486,-3.110162973,0.5770202279
1283,1.55965448575e+18,-1.470084786,-16.53964996,3.804502726
1284,1.5596544858e+18,-3.974496126,-16.62344933,6.996070862
1285,1.55965448586e+18,-4.64249897,-10.87240219,10.69761944
1286,1.55965448591e+18,-9.234718323,-14.08791256,11.95700836
1287,1.55965448596e+18,-14.39916897,-11.35604572,12.99612331
1288,1.55965448601e+18,-12.4310751,-1.331216812,5.38711834
1289,1.55965448606e+18,-7.352818012,5.63851738,3.148471355
1290,1.55965448612e+18,-1.211503029,5.820482254,6.929031372
1291,1.55965448617e+18,0.8906702399,-1.604164124,10.36960411
1292,1.55965448622e+18,-3.390293121,-4.302511692,3.823656797
1293,1.55965448627e+18,-8.07828331,-2.762993097,2.856369734
1294,1.55965448632e+18,-5.229096413,5.236279011,3.696760416
1295,1.55965448638e+18,3.208328247,12.2179842,0.2083019018
1296,1.55965448643e+18,2.664827824,5.511620522,-4.965725899
1297,1.55965448648e+18,3.610566378,-1.39825654,-4.376734257
1298,1.55965448653e+18,1.034326673,-4.532361984,7.934626579
1299,1.55965448658e+18,-7.989695072,-40.85829926,1.046298146
1300,1.55965448664e+18,-8.696005821,-27.08882523,0.184359163
1301,1.55965448669e+18,-8.451789856,-15.82855034,7.218738556
1302,1.55965448674e+18,-12.87880421,-12.62979984,4.096604347
1303,1.55965448679e+18,-13.4462471,-9.165284157,4.898686409
1304,1.55965448684e+18,-4.125335693,2.540325642,0.2801301479
1305,1.55965448689e+18,-0.03591412306,6.249057293,-0.5818088055
1306,1.55965448695e+18,1.680780888,-4.45574522,3.282550812
1307,1.559654487e+18,-2.944957972,-3.351984739,4.082238674
1308,1.55965448705e+18,-1.604164124,12.09587669,-3.940976381
1309,1.5596544871e+18,27.65147972,20.36091232,13.97777653
1310,1.55965448715e+18,2.952140808,8.391933441,-5.815693378
1311,1.55965448721e+18,-0.7254652381,-3.787742853,-9.596253395
1312,1.55965448726e+18,0.2825244367,-14.39438057,5.593026161
1313,1.55965448731e+18,5.545140266,-41.9788208,22.18535042
1314,1.55965448736e+18,-0.651242733,-14.320158,5.63851738
1315,1.55965448741e+18,-9.790189743,-17.40877151,-4.103786945
1316,1.55965448747e+18,-9.792584419,-16.35289764,9.984126091
1317,1.55965448752e+18,-14.08073044,-11.82053471,5.466129303
1318,1.55965448757e+18,-8.856422424,2.681587696,5.056708336
1319,1.55965448762e+18,-3.632114887,9.783006668,6.756643295
1320,1.55965448767e+18,8.839662552,3.608172178,-2.106961727
1321,1.55965448773e+18,0.9577099085,-2.205127001,1.673598051
1322,1.55965448778e+18,-8.42305851,-0.464489311,-2.05668211
1323,1.55965448783e+18,-5.358386993,4.015198708,6.306519985
1324,1.55965448788e+18,4.369551659,13.41512203,7.369577885
1325,1.55965448793e+18,2.497228622,1.211503029,4.783761024
1326,1.55965448799e+18,4.197163582,4.158855438,-3.234665155
1327,1.55965448804e+18,1.932179809,-9.725543976,1.245022893
1328,1.55965448809e+18,-5.834847927,-41.69150543,15.28983879
1329,1.55965448814e+18,-8.384750366,-14.18607807,-1.625712633
1330,1.55965448819e+18,-5.391906738,-2.712713242,7.992089272
1331,1.55965448825e+18,-17.64341164,-16.24036598,10.2570734
1332,1.5596544883e+18,-21.19651413,-11.3728056,5.784567833
1333,1.55965448835e+18,-13.75032043,-1.613741279,-0.3950553536
1334,1.5596544884e+18,-7.23071003,1.987248063,-0.2202732861
1335,1.55965448845e+18,-0.3399870098,4.199557781,-2.978477955
1336,1.55965448851e+18,3.495641232,0.6943396926,-0.8739103079
1337,1.55965448856e+18,0.0287312977,-1.984853864,4.11097002
1338,1.55965448861e+18,-4.661653042,-3.447755814,4.781366825
1339,1.55965448866e+18,-3.545921087,-0.3687183261,1.738243461
1340,1.55965448871e+18,3.658451796,14.52367115,-21.73762131
1341,1.55965448877e+18,-4.362368584,-0.9194015265,2.688770533
1342,1.55965448882e+18,-16.96343613,-23.96669006,-0.8858816624
1343,1.55965448887e+18,-1.685569525,-15.71601963,11.76786041
1344,1.55965448892e+18,0.1053480953,-7.755055904,15.69925976
1345,1.55965448897e+18,-0.4046324492,-7.86519289,10.92986488
1346,1.55965448903e+18,-18.63464165,-17.74875832,8.15968895
1347,1.55965448908e+18,-22.93475914,-8.655303001,4.563488007
1348,1.55965448913e+18,-16.64739227,-4.826858044,6.153286457
1349,1.55965448918e+18,-3.124528646,2.719896078,5.885127544
1350,1.55965448923e+18,6.500456333,4.685595989,-1.496421814
1351,1.55965448929e+18,4.728692532,0.4070267081,2.50201726
1352,1.55965448934e+18,-5.458946705,-1.003201127,0.6871568561
1353,1.55965448939e+18,-13.44864178,7.623371124,-5.995264053
1354,1.55965448944e+18,-2.569056988,2.43976593,5.394300938
1355,1.55965448949e+18,4.676018715,14.94266891,-10.6449461
1356,1.55965448955e+18,-2.889889717,2.317657948,-4.573064804
1357,1.5596544896e+18,0.8260248303,2.988054991,-1.031932473
1358,1.55965448965e+18,0.004788549617,-9.35203743,10.41749001
1359,1.5596544897e+18,-4.091815472,-29.79914474,11.27703476
1360,1.55965448975e+18,-10.65212822,-17.79664421,3.478881359
1361,1.55965448981e+18,-7.886741161,-12.04559612,13.25709915
1362,1.55965448986e+18,-13.51089287,-14.03763294,10.35044956
1363,1.55965448991e+18,-16.87245369,-6.589044094,7.735901833
1364,1.55965448996e+18,-12.71359921,-0.2657645047,5.985687256
1365,1.55965449001e+18,-6.529187202,2.351177931,6.30173111
1366,1.55965449007e+18,-1.671203852,1.762186289,5.226701736
1367,1.55965449012e+18,-5.573871613,-2.308080912,2.279349566
1368,1.55965449017e+18,-7.910684109,2.178790092,-3.488458395
1369,1.55965449022e+18,-5.157268047,-1.960911036,9.639349937
1370,1.55965449027e+18,-0.7470137477,11.13577175,-1.055875182
1371,1.55965449033e+18,15.56518078,6.730306625,-8.379961967
1372,1.55965449038e+18,7.93223238,2.636096478,-8.78219986
1373,1.55965449043e+18,-3.756617069,-3.751828671,0.4070267081
1374,1.55965449048e+18,-2.351177931,-8.016032219,7.989695072
1375,1.55965449053e+18,-9.031204224,-30.7855854,16.38402176
1376,1.55965449059e+18,-10.71916866,-25.49184418,18.99138832
1377,1.55965449064e+18,-14.74155045,-16.9897747,12.15573311
1378,1.55965449069e+18,-16.39599419,-6.747066498,10.18285084
1379,1.55965449074e+18,-12.85246754,1.968093872,0.7039167881
1380,1.55965449079e+18,-4.336031914,6.691998005,4.252232075
1381,1.55965449085e+18,2.602576733,1.561067224,-0.08140534163
1382,1.5596544909e+18,2.097384691,-3.505218267,4.21631813
1383,1.55965449095e+18,-3.088614464,3.179596901,2.935380936
1384,1.559654491e+18,-4.118152618,9.653716087,-0.7518022656
1385,1.55965449105e+18,-4.029564381,9.172467232,6.926637173
1386,1.55965449111e+18,1.091789365,4.89629221,-5.820482254
1387,1.55965449116e+18,12.84288979,6.000052452,-16.7958374
1388,1.55965449121e+18,7.110996246,-4.558699131,-7.664073467
1389,1.55965449126e+18,2.966506481,-8.056735039,-7.197190285
1390,1.55965449131e+18,-6.739883423,-19.09434128,21.03370476
1391,1.55965449137e+18,-21.05285835,-26.13350868,4.273780346
1392,1.55965449142e+18,-26.32983971,-4.295329094,2.327235222
1393,1.55965449147e+18,-20.38964462,-4.898686409,5.614574432
1394,1.55965449152e+18,-9.402317047,3.153259993,5.691191196
1395,1.55965449157e+18,-6.416656494,6.29933691,1.106154919
1396,1.55965449163e+18,-4.661653042,7.999272346,1.762186289
1397,1.55965449168e+18,-4.946571827,7.103813171,7.010436535
1398,1.55965449173e+18,-10.52044392,5.676825523,5.121353626
1399,1.55965449178e+18,-20.40401077,2.858764172,3.761405706
1400,1.55965449183e+18,-13.6545496,0.1101366431,4.142095566
1401,1.55965449189e+18,-2.35596633,8.403904915,2.614548206
1402,1.55965449194e+18,0.08140534163,-0.9217957854,7.656890869
1403,1.55965449199e+18,10.60424328,-6.213143349,-20.69371796
1404,1.55965449204e+18,12.99133492,-7.154093266,-22.82222748
1405,1.55965449209e+18,2.231464148,-6.526793003,7.381549358
1406,1.55965449215e+18,-13.91073704,-37.34589767,5.767807961
1407,1.5596544922e+18,-28.10639191,-36.076931,14.20283794
1408,1.55965449225e+18,-14.55958557,-1.558672905,9.560338974
1409,1.5596544923e+18,-16.52289009,-2.281744003,7.707170486
1410,1.55965449235e+18,-11.96658516,4.254626274,6.684815407
1411,1.55965449241e+18,-8.707977295,6.80452919,5.949772835
1412,1.55965449246e+18,-6.567495823,3.067065954,9.526819229
1413,1.55965449251e+18,-12.203619,-1.312062621,2.971295118
1414,1.55965449256e+18,-10.22115898,2.063864946,7.206767082
1415,1.55965449261e+18,-5.844424725,6.771008968,6.761432171
1416,1.55965449267e+18,-6.028783798,6.409473896,-4.652075768
1417,1.55965449272e+18,8.341653824,2.468497276,-20.12388039
1418,1.55965449277e+18,3.577046633,-10.9753561,-23.0089817
1419,1.55965449282e+18,9.912297249,-1.288119793,0.1771763414
1420,1.55965449287e+18,-7.592245579,-16.29782867,12.74711895
1421,1.55965449293e+18,-11.01605797,-40.31240463,26.59799957
1422,1.55965449298e+18,-9.826104164,-21.36650848,16.08952713
1423,1.55965449303e+18,-11.66730118,-2.521171331,7.130150318
1424,1.55965449308e+18,-9.905115128,4.719115734,5.755836487
1425,1.55965449313e+18,-4.11097002,4.769395351,8.976136208
1426,1.55965449319e+18,0.7398309112,3.294522047,12.01925945
1427,1.55965449324e+18,-2.104567528,1.786128998,14.43029404
1428,1.55965449329e+18,-11.82771778,2.358360767,12.78303337
1429,1.55965449334e+18,-15.79503059,2.590605259,0.4549122155
1430,1.55965449339e+18,-9.368797302,5.27937603,0.01197137404
1431,1.55965449344e+18,-2.988054991,0.7278595567,6.38074255
1432,1.5596544935e+18,3.675211906,-1.101366401,-14.86844635
1433,1.55965449355e+18,11.73912907,-5.06867981,-11.25548553
1434,1.5596544936e+18,0.3735068738,-6.557918549,0.3639297783
1435,1.55965449365e+18,-0.3687183261,0.01436564885,16.34571457
1436,1.5596544937e+18,-17.19089317,-32.0856781,19.89163589
1437,1.55965449376e+18,-22.56125069,-14.69605923,11.69842625
1438,1.55965449381e+18,-13.24273396,0.8356019258,10.13257122
1439,1.55965449386e+18,-10.56114578,3.253819466,5.70316267
1440,1.55965449391e+18,-11.21957207,6.962551117,6.387925148
1441,1.55965449396e+18,-7.793364525,4.757423878,5.016005516
1442,1.55965449402e+18,-7.716747761,-1.194743156,9.811738014
1443,1.55965449407e+18,-15.20125103,-1.03911531,2.956929445
1444,1.55965449412e+18,-14.24593544,-1.058269501,1.12530911
1445,1.55965449417e+18,-11.1597147,2.58581686,9.399923325
1446,1.55965449422e+18,4.271386147,2.346389294,-23.54529762
1447,1.55965449428e+18,12.48614311,-3.682394743,-11.93306541
1448,1.55965449433e+18,0.7613793612,-1.137280583,1.309668303
1449,1.55965449438e+18,6.184412003,-5.734288216,6.000052452
1450,1.55965449443e+18,-18.11029434,-44.48323059,26.94756317
1451,1.55965449448e+18,-13.49173832,-23.79909134,16.24036598
1452,1.55965449454e+18,-9.476539612,-5.576265812,9.531607628
1453,1.55965449459e+18,-12.59388542,-0.6153286099,5.830059052
1454,1.55965449464e+18,-9.811738014,6.38074255,3.344801903
1455,1.55965449469e+18,-3.483669758,4.158855438,7.470137596
1456,1.55965449474e+18,-7.269018173,6.220325947,7.36239481
1457,1.5596544948e+18,-13.90594769,3.581835032,1.857957244
1458,1.55965449485e+18,-12.02644253,2.813272953,-0.2681587934
1459,1.5596544949e+18,-6.043149471,1.300091267,0.3088614643
1460,1.55965449495e+18,6.505244732,1.364736676,-13.54680729
1461,1.559654495e+18,-2.099778891,8.162082672,3.694365978
1462,1.55965449506e+18,4.2426548,-7.723930359,-7.666468143
1463,1.55965449511e+18,1.386285067,-6.311308384,-1.869928598
1464,1.55965449516e+18,-2.004008055,-13.61384678,8.205180168
1465,1.55965449521e+18,-30.19898796,-21.68015862,6.744672298
1466,1.55965449526e+18,-25.02735519,-7.094236374,4.994457245
1467,1.55965449532e+18,-16.28346252,-1.369525194,3.52197814
1468,1.55965449537e+18,-11.58350182,3.895485163,5.202759266
1469,1.55965449542e+18,-7.522811413,4.424619675,2.272166729
1470,1.55965449547e+18,-4.817280769,2.430188894,6.431022167
1471,1.55965449552e+18,-9.227535248,1.362342358,5.590631485
1472,1.55965449558e+18,-20.73920822,-2.0351336,4.065478802
1473,1.55965449563e+18,-16.98259163,3.775771379,-3.37113905
1474,1.55965449568e+18,-10.28819847,-0.2753416002,3.395081758
1475,1.55965449573e+18,15.47659206,1.204320192,-21.81902695
1476,1.55965449578e+18,11.7032156,-4.223500729,-17.1741333
1477,1.55965449584e+18,7.666468143,-1.467690468,-5.109382629
1478,1.55965449589e+18,-15.88361931,-26.40885162,11.5380106
1479,1.55965449594e+18,-18.0193119,-24.65145302,16.8245697
1480,1.55965449599e+18,-13.04400921,-9.541185379,17.53087997
1481,1.55965449604e+18,-16.42233086,-2.430188894,11.3297081
1482,1.5596544961e+18,-11.55237579,1.328822494,8.269824982
1483,1.55965449615e+18,-9.026415825,5.470917702,6.239480019
1484,1.5596544962e+18,-3.430995703,3.680000305,7.812518597
1485,1.55965449625e+18,1.003201127,4.522785187,10.6401577
1486,1.5596544963e+18,-0.2154847383,7.142121792,10.29538155
1487,1.55965449636e+18,-16.76231766,-1.659232497,0.610540092
1488,1.55965449641e+18,-13.0918951,1.927391171,-5.17402792
1489,1.55965449646e+18,-6.284971237,3.342407703,3.895485163
1490,1.55965449651e+18,1.764580488,0.3423812985,-12.52923965
1491,1.55965449656e+18,11.67208958,-2.403851986,-22.02014542
1492,1.55965449662e+18,8.983319283,-5.260221958,2.027950764
1493,1.55965449667e+18,2.82045579,-14.24114609,8.818114281
1494,1.55965449672e+18,-31.47753143,-50.51680374,8.097437859
1495,1.55965449677e+18,-11.50927925,-18.11987114,14.17650127
1496,1.55965449682e+18,-10.16369629,-2.231464148,11.37519932
1497,1.55965449688e+18,-14.49733353,1.331216812,6.979310989
1498,1.55965449693e+18,-10.27622795,4.70953846,3.237059593
1499,1.55965449698e+18,-4.798126698,4.11336422,6.361588001
1500,1.55965449703e+18,-9.780612946,3.624932051,4.434196949
1501,1.55965449708e+18,-18.79266357,-6.335251331,-2.377514839
1502,1.55965449714e+18,-9.636956215,0.6823683381,0.007182824425
1503,1.55965449719e+18,-4.357580185,6.292154312,4.680807114
1504,1.55965449724e+18,7.046350956,6.55313015,-5.466129303
1505,1.55965449729e+18,12.73514748,-2.154847383,-13.26907063
1506,1.55965449734e+18,9.498087883,4.415042877,-9.794978142
1507,1.5596544974e+18,0.668002665,0.102953814,3.861965179
1508,1.55965449745e+18,-15.22998238,-32.99310684,3.720703125
1509,1.5596544975e+18,-25.90365982,-39.66834641,17.80622101
1510,1.55965449755e+18,-8.188420296,-14.97140026,13.4462471
1511,1.5596544976e+18,-4.491659641,4.865166187,7.376760483
1512,1.55965449766e+18,-11.72715759,3.823656797,7.716747761
1513,1.55965449771e+18,-5.786962032,4.048718929,4.398283005
1514,1.55965449776e+18,1.910631299,0.986441195,10.57072353
1515,1.55965449781e+18,5.70555687,6.131737709,14.16213512
1516,1.55965449786e+18,-4.635315895,0.8595446348,11.17168617
1517,1.55965449792e+18,-20.17894745,-5.624151707,-8.291373253
1518,1.55965449797e+18,-8.18602562,2.913832426,-5.940196037
1519,1.55965449802e+18,0.6560313106,3.13889432,-13.2714653
1520,1.55965449807e+18,6.282577038,-0.2202732861,-2.743839025
1521,1.55965449812e+18,5.437397957,-3.189173937,-10.58748341
1522,1.55965449818e+18,-2.284138203,-4.608979225,13.0583744
1523,1.55965449823e+18,-16.49894714,-13.95622826,2.58581686
1524,1.55965449828e+18,-34.65233994,-17.06160164,12.14615631
1525,1.55965449833e+18,-14.28663731,-7.771816254,13.90834236
1526,1.55965449838e+18,-11.73912907,3.737462997,7.956175327
1527,1.55965449844e+18,-10.69522572,4.745452881,5.593026161
1528,1.55965449849e+18,-5.748653889,10.05116558,4.470110893
1529,1.55965449854e+18,-10.13017654,8.461367607,4.446168423
1530,1.55965449859e+18,-25.23326302,4.850800991,-0.3926610649
1531,1.55965449864e+18,-18.52929306,-0.44533512,-0.610540092
1532,1.5596544987e+18,-14.08551884,-0.1197137386,-0.4094209969
1533,1.55965449875e+18,-4.42940855,2.58821106,-1.175588965
1534,1.5596544988e+18,-0.2035133541,-2.717501879,11.10225201
1535,1.55965449885e+18,-3.569863796,-5.159662247,-11.74631214
1536,1.5596544989e+18,3.261002302,2.473285913,-17.21004677
1537,1.55965449896e+18,4.597007751,-4.369551659,-2.367937803
1538,1.55965449901e+18,-0.1508393139,0.5387118459,0.8691217303
1539,1.55965449906e+18,-16.93709946,-9.292180061,16.03924751
1540,1.55965449911e+18,-29.35141563,-25.36015892,2.75820446
1541,1.55965449916e+18,-15.941082,-4.180403709,15.74475098
1542,1.55965449922e+18,-13.73356056,4.618556023,8.27461338
1543,1.55965449927e+18,-9.088666916,6.818894863,11.06633854
1544,1.55965449932e+18,-12.50050831,7.57309103,12.14376163
1545,1.55965449937e+18,-19.63544846,6.608198643,2.478074312
1546,1.55965449942e+18,-18.26352882,0.4405465722,6.179623127
1547,1.55965449948e+18,-14.12382698,-5.966532707,-1.338399649
1548,1.55965449953e+18,-10.21158218,-2.624125242,-11.70560932
1549,1.55965449958e+18,-1.936968327,2.118933201,-8.655303001
1550,1.55965449963e+18,11.29858303,-1.046298146,-16.60429573
1551,1.55965449968e+18,10.65691757,2.77735877,-3.804502726
1552,1.55965449974e+18,-6.675238132,-2.48046875,2.324840784
1553,1.55965449979e+18,-14.93788052,-4.515602112,16.56598663
1554,1.55965449984e+18,-36.076931,-30.87417412,23.66261864
1555,1.55965449989e+18,-21.94352913,1.630501151,3.251425266
1556,1.55965449994e+18,-7.680833817,4.738269806,4.752635479
1557,1.5596545e+18,-0.9026415944,6.112583637,3.713520288
1558,1.55965450005e+18,-3.340013266,4.898686409,9.194015503
1559,1.5596545001e+18,-12.49811459,3.83802247,3.77337718
1560,1.55965450015e+18,-18.67294884,-0.3375927508,5.988081455
1561,1.5596545002e+18,-17.16216278,-5.363175392,10.02004051
1562,1.55965450026e+18,-11.3153429,1.130097747,4.77418375
1563,1.55965450031e+18,0.332804203,-3.462121487,25.6498661
1564,1.55965450036e+18,9.778218269,9.364008904,-8.760651588
1565,1.55965450041e+18,9.574705124,5.006428719,-14.8923893
1566,1.55965450046e+18,3.440572977,4.987274647,-7.822095871
1567,1.55965450052e+18,-6.452570438,-4.359974384,20.65301514
1568,1.55965450057e+18,-13.14217472,-20.72484207,12.22516727
1569,1.55965450062e+18,-28.04892921,-21.91719246,9.943423271
1570,1.55965450067e+18,-13.20681953,0.2825244367,6.466936111
1571,1.55965450072e+18,-4.438985348,5.341627121,4.558699131
1572,1.55965450078e+18,0.06943397224,5.765413761,3.969707727
1573,1.55965450083e+18,-4.223500729,5.418243885,5.837242126
1574,1.55965450088e+18,-15.79742527,1.932179809,9.565128326
1575,1.55965450093e+18,-18.33056831,-2.403851986,15.43349552
1576,1.55965450098e+18,-15.62024879,-4.273780346,3.883513689
1577,1.55965450104e+18,-8.514040947,1.901054144,-1.154040456
1578,1.55965450109e+18,-1.067846537,0.6608198285,-5.415849686
1579,1.55965450114e+18,-1.721483588,3.419024467,7.472531796
1580,1.55965450119e+18,10.47255802,-0.7398309112,-16.22839546
1581,1.55965450124e+18,9.045570374,6.775797844,-7.680833817
1582,1.5596545013e+18,-7.999272346,-1.872322917,18.11268806
1583,1.55965450135e+18,-25.49902725,-36.72099304,0.4788549542
1584,1.5596545014e+18,-18.26352882,-33.61801147,10.16848469
1585,1.55965450145e+18,-0.9337671995,-3.091008663,6.500456333
1586,1.5596545015e+18,-2.698347807,8.305739403,4.446168423
1587,1.55965450156e+18,-8.801354408,7.292961121,5.751048088
1588,1.55965450161e+18,-1.223474383,1.48445034,11.34407425
1589,1.55965450166e+18,-8.336864471,-1.628106833,15.34011841
1590,1.55965450171e+18,-17.66735458,-1.211503029,-1.599375606
1591,1.55965450176e+18,-41.01153183,-4.841223717,5.468523502
1592,1.55965450182e+18,2.698347807,6.694392204,-10.89634418
1593,1.55965450187e+18,8.312922478,1.984853864,-14.06636429
1594,1.55965450192e+18,11.12380123,4.934600353,-8.300951004
1595,1.55965450197e+18,3.22269392,-2.250618219,0.627300024
1596,1.55965450202e+18,-8.095043182,-7.304932594,23.15263748
1597,1.55965450208e+18,-21.61311913,-40.70506668,14.29860878
1598,1.55965450213e+18,-17.42792702,-17.05920792,10.90352726
1599,1.55965450218e+18,-11.36322784,-0.2753416002,1.735849261
1600,1.55965450223e+18,-4.944177628,2.174001455,4.043930054
1601,1.55965450228e+18,-2.856369734,7.027196407,3.723097324
1602,1.55965450234e+18,-1.331216812,2.832427025,6.0216012
1603,1.55965450239e+18,-3.940976381,3.830839634,13.07752895
1604,1.55965450244e+18,-14.69845295,-1.470084786,11.74391747
1605,1.55965450249e+18,-15.40476418,-0.8284190893,6.280182838
1606,1.55965450254e+18,-18.75196075,1.46290195,5.719922543
1607,1.5596545026e+18,-5.047131062,1.443747759,3.620143414
1608,1.55965450265e+18,16.61147881,2.26977253,-11.31773663
1609,1.5596545027e+18,10.20200539,-1.968093872,-17.94269562
1610,1.55965450275e+18,9.445414543,5.231490612,1.71908927
1611,1.5596545028e+18,-11.69603252,-12.34248638,24.90524673
1612,1.55965450286e+18,-30.6682663,-46.72187805,19.96585846
1613,1.55965450291e+18,-7.173247337,-13.2858305,11.15253162
1614,1.55965450296e+18,-4.438985348,2.810878515,6.237085819
1615,1.55965450301e+18,-8.88515377,4.649681568,6.505244732
1616,1.55965450306e+18,-2.940169573,5.774991035,5.648094177
1617,1.55965450312e+18,-6.114977837,2.710319042,7.778998852
1618,1.55965450317e+18,-16.34092522,2.128510237,-7.058321953
1619,1.55965450322e+18,-13.67609787,-3.272973776,-5.296135902
1620,1.55965450327e+18,-14.10946178,-3.344801903,7.278595448
1621,1.55965450332e+18,-5.353598595,5.753442287,0.7158881426
1622,1.55965450338e+18,14.85886955,5.578660488,-7.637736797
1623,1.55965450343e+18,7.628159523,0.3423812985,-7.338452339
1624,1.55965450348e+18,10.87240219,1.666415215,2.05668211
1625,1.55965450353e+18,-6.012023926,-8.91149044,18.31859589
1626,1.55965450358e+18,-23.04489517,-29.17184448,11.6649065
1627,1.55965450364e+18,-24.59638596,-8.312922478,-1.010383964
1628,1.55965450369e+18,-14.22678089,-4.091815472,1.793311834
1629,1.55965450374e+18,-8.030397415,1.259388566,6.799740314
1630,1.55965450379e+18,-4.467716694,7.383943558,3.804502726
1631,1.55965450384e+18,-3.083826065,7.702382088,6.363982677
1632,1.5596545039e+18,-6.143709183,3.502824068,8.339259148
1633,1.55965450395e+18,-13.68088627,-0.3854782581,10.60424328
1634,1.559654504e+18,-16.74316406,-4.268991947,4.594613552
1635,1.55965450405e+18,-14.91393757,-2.762993097,4.841223717
1636,1.5596545041e+18,-4.2426548,-0.9577099085,-1.075029373
1637,1.55965450416e+18,0.2585816681,-4.364762783,-3.603383541
1638,1.55965450421e+18,1.762186289,4.939388752,-4.963331699
1639,1.55965450426e+18,11.88518047,4.972908974,-12.99851799
1640,1.55965450431e+18,3.972101927,-6.349617004,13.30019665
1641,1.55965450436e+18,-19.70967102,-60.68768311,23.73205185
1642,1.55965450442e+18,-11.3201313,-21.68734169,10.29538155
1643,1.55965450447e+18,-1.58979845,-2.559479713,11.56674194
1644,1.55965450452e+18,-3.79492569,1.637683988,3.598595142
1645,1.55965450457e+18,-4.319271564,3.770982742,1.376708031
1646,1.55965450462e+18,-3.629720688,8.169265747,6.826077461
1647,1.55965450468e+18,-7.285778046,3.150865555,9.055147171
1648,1.55965450473e+18,-12.70881081,-1.391073704,2.516382933
1649,1.55965450478e+18,-9.85483551,2.719896078,9.076695442
1650,1.55965450483e+18,8.973741531,6.052726746,-16.01530457
1651,1.55965450488e+18,9.756669998,9.85483551,-15.51729488
1652,1.55965450494e+18,5.054314137,3.569863796,5.06628561
1653,1.55965450499e+18,-11.45181656,-35.76088715,5.020794392
1654,1.55965450504e+18,-7.379155159,-27.23727036,8.71516037
1655,1.55965450509e+18,-1.405439258,-15.98417854,14.46860313
1656,1.55965450514e+18,-13.19963741,-13.98017025,9.071907043
1657,1.5596545052e+18,-14.8876009,-3.64648056,4.43180275
1658,1.55965450525e+18,-9.723150253,3.442967176,3.021574736
1659,1.5596545053e+18,-4.010410309,8.444606781,0.9337671995
1660,1.55965450535e+18,-0.7374366522,9.282603264,3.512401104
1661,1.5596545054e+18,-3.143682718,1.300091267,3.936187744
1662,1.55965450546e+18,-13.42709351,-5.018400192,9.395133972
1663,1.55965450551e+18,-5.293741703,-2.77735877,2.061470509
1664,1.55965450556e+18,1.319245458,3.177202702,6.438204765
1665,1.55965450561e+18,9.984126091,8.05194664,-3.847599506
1666,1.55965450566e+18,0.1747820675,-3.246636629,-3.170019865
1667,1.55965450572e+18,-2.679193497,-7.881952763,2.928198099
1668,1.55965450577e+18,-3.584229469,-20.58836937,5.02797699
1669,1.55965450582e+18,-8.540378571,-26.38969612,17.07596779
1670,1.55965450587e+18,-11.75349522,-20.15979385,11.92588329
1671,1.55965450592e+18,-11.15253162,-10.05834866,9.227535248
1672,1.55965450598e+18,-8.418270111,0.9050358534,3.186779737
1673,1.55965450603e+18,-4.798126698,4.297723293,4.87953186
1674,1.55965450608e+18,-2.004008055,1.561067224,4.740664005
1675,1.55965450613e+18,-3.143682718,-2.997632027,2.681587696
1676,1.55965450618e+18,-8.176448822,-2.104567528,2.322446585
1677,1.55965450624e+18,-8.399115562,3.9864676,-1.601769805
1678,1.55965450629e+18,-1.740637779,11.49251938,-4.268991947
1679,1.55965450634e+18,2.569056988,2.813272953,8.624177933
1680,1.55965450639e+18,9.306546211,6.026389599,-1.92978549
1681,1.55965450644e+18,5.820482254,1.37910223,-8.375173569
1682,1.5596545065e+18,4.755029678,-1.783734679,4.422225475
1683,1.55965450655e+18,2.727078915,-27.25163651,6.840443134
1684,1.5596545066e+18,-13.75510883,-41.38264465,6.143709183
1685,1.55965450665e+18,-9.366402626,-18.39281845,5.183605194
1686,1.5596545067e+18,-7.125361919,-7.213950157,5.569083214
1687,1.55965450676e+18,-3.737462997,-0.462095052,3.560286522
1688,1.55965450681e+18,-3.586623669,7.278595448,0.8284190893
1689,1.55965450686e+18,-0.241821751,1.960911036,2.044710636
1690,1.55965450691e+18,-5.051919937,-0.8356019258,8.74149704
1691,1.55965450696e+18,-9.850046158,-2.257801056,4.831646442
1692,1.55965450702e+18,-7.520417213,21.51016426,5.602602959
1693,1.55965450707e+18,8.588263512,8.739103317,-7.893924236
1694,1.55965450712e+18,9.474145889,11.82053471,-10.17327404
1695,1.55965450717e+18,-5.049525738,0.01436564885,8.114197731
1696,1.55965450722e+18,-15.54602623,-38.50472641,-1.144463301
1697,1.55965450728e+18,-5.966532707,-24.44794083,8.588263512
1698,1.55965450733e+18,6.033572674,-21.10792732,6.27539444
1699,1.55965450738e+18,-4.544333458,-16.84851265,2.298503876
1700,1.55965450743e+18,-5.834847927,-12.39994907,10.85803604
1701,1.55965450748e+18,-5.561900616,-1.44135344,6.189200401
1702,1.55965450754e+18,-11.41829681,15.7327795,1.735849261
1703,1.55965450759e+18,-5.892310143,6.694392204,1.97288239
1704,1.55965450764e+18,-1.774157643,2.224281311,3.198751211
1705,1.55965450769e+18,-4.254626274,-0.462095052,1.015172482
1706,1.55965450774e+18,-3.991255999,1.333611012,3.488458395
1707,1.5596545078e+18,0.7158881426,-1.54670155,-1.005595446
1708,1.55965450785e+18,4.383917332,-0.7518022656,-1.790917516
1709,1.5596545079e+18,1.960911036,5.904281616,7.800547123
1710,1.55965450795e+18,-3.526766777,-6.787769318,-3.237059593
1711,1.559654508e+18,2.865947008,-17.1741333,-0.9409499764
1712,1.55965450806e+18,-3.102980137,-23.84697723,11.70560932
1713,1.55965450811e+18,-6.833260536,-25.99224663,6.414262295
1714,1.55965450816e+18,-9.49569416,-22.30506325,6.9122715
1715,1.55965450821e+18,-11.4949131,-10.19961071,5.195576191
1716,1.55965450826e+18,-9.715967178,1.422199249,6.507638931
1717,1.55965450832e+18,-2.535537004,8.545166969,5.63851738
1718,1.55965450837e+18,2.415823221,8.05194664,3.720703125
1719,1.55965450842e+18,-7.637736797,-1.620923996,5.044736862
1720,1.55965450847e+18,-13.71680069,-8.221940041,-4.793338299
1721,1.55965450852e+18,-8.834874153,-6.703969479,3.981678963
1722,1.55965450858e+18,10.13735962,5.382329941,-10.48692322
1723,1.55965450863e+18,12.79261017,2.736656189,1.596981287
1724,1.55965450868e+18,-2.782147408,-5.377541065,-0.9792584181
1725,1.55965450873e+18,-6.158074856,-9.086273193,-1.561067224
1726,1.55965450878e+18,-5.736682415,-24.61793327,12.82373619
1727,1.55965450883e+18,-4.158855438,-29.78717232,14.84210968
1728,1.55965450889e+18,-12.3736124,-20.60033989,11.42787361
1729,1.55965450894e+18,-15.10069084,-6.646506786,11.94024849
1730,1.55965450899e+18,-12.99372959,-2.1213274,8.595446587
1731,1.55965450904e+18,-3.450150013,0.6177229285,2.791724443
1732,1.55965450909e+18,1.620923996,2.571451187,5.372752666
1733,1.55965450915e+18,3.22269392,0.2825244367,4.901080608
1734,1.5596545092e+18,-2.69355917,3.624932051,4.532361984
1735,1.55965450925e+18,-12.72078228,0.3112557232,-1.838803053
1736,1.5596545093e+18,-6.72551775,3.873936653,2.004008055
1737,1.55965450935e+18,2.178790092,3.751828671,-0.9146129489
1738,1.55965450941e+18,5.506832123,2.059076309,5.116565228
1739,1.55965450946e+18,11.25309181,10.50847244,-4.489265442
1740,1.55965450951e+18,1.194743156,2.154847383,-2.415823221
1741,1.55965450956e+18,-18.34732819,-44.01874161,11.71997547
1742,1.55965450961e+18,-3.466909885,-36.90056229,11.00169277
1743,1.55965450967e+18,-5.710345268,-25.00101662,7.960963726
1744,1.55965450972e+18,-5.990475655,-8.147717476,5.700768471
1745,1.55965450977e+18,-14.8780241,5.590631485,1.762186289
1746,1.55965450982e+18,-9.246688843,2.305686712,3.000026226
1747,1.55965450987e+18,-2.255406857,4.395888329,3.112557173
1748,1.55965450992e+18,0.07661679387,2.329629421,-0.2849186957
1749,1.55965450998e+18,0.5794144869,6.148497581,4.142095566
1750,1.55965451003e+18,-14.06397057,4.051113129,8.111803055
1751,1.55965451008e+18,-10.95859623,3.0119977,4.517996788
1752,1.55965451013e+18,1.910631299,0.2849186957,27.02178574
1753,1.55965451018e+18,7.860404015,11.79659176,-1.108549237
1754,1.55965451024e+18,2.995237827,7.822095871,-6.095823765
1755,1.55965451029e+18,0.4309694767,-0.7925049663,5.324867249
1756,1.55965451034e+18,-5.564294815,-9.426259995,10.9897213
1757,1.55965451039e+18,-12.89077568,-36.49114227,12.7758503
1758,1.55965451044e+18,-10.53720379,-18.27549934,9.914691925
1759,1.5596545105e+18,-14.64577866,-6.945791245,9.888355255
1760,1.55965451055e+18,-16.2906456,-4.790944099,6.890722752
1761,1.5596545106e+18,-10.30256462,2.324840784,2.722290516
1762,1.55965451065e+18,-5.193181992,7.50605154,-0.689551115
1763,1.5596545107e+18,0.7541965842,3.421418667,1.920208454
1764,1.55965451076e+18,0.5051919818,2.731867552,2.576239586
1765,1.55965451081e+18,-1.755003452,1.872322917,0.3208328187
1766,1.55965451086e+18,-15.47659206,-1.774157643,-4.462928295
1767,1.55965451091e+18,-4.527573586,5.564294815,2.897072554
1768,1.55965451096e+18,5.190787792,23.56924057,3.462121487
1769,1.55965451102e+18,-5.164450645,-0.7278595567,0.3782954216
1770,1.55965451107e+18,-12.57712555,-14.09988403,11.62420464
1771,1.55965451112e+18,-6.328068256,-26.25561714,11.58110714
1772,1.55965451117e+18,-0.8978530765,-9.110215187,12.31854343
1773,1.55965451122e+18,-7.003253937,-8.262641907,7.702382088
1774,1.55965451128e+18,-16.58274651,-10.44622135,7.960963726
1775,1.55965451133e+18,-22.99222183,-7.834067345,2.535537004
1776,1.55965451138e+18,-14.59310532,1.498816013,1.903448462
1777,1.55965451143e+18,-3.696760416,12.25150394,0.7925049663
1778,1.55965451148e+18,5.636122704,11.03042412,5.178816319
1779,1.55965451154e+18,-1.618529797,4.884320736,6.368771076
1780,1.55965451159e+18,-8.597841263,-0.4285751879,-1.537124395
1781,1.55965451164e+18,-13.31216812,-3.960130453,-2.698347807
1782,1.55965451169e+18,-6.289760113,-3.081431627,-2.482862949
1783,1.55965451174e+18,-9.545973778,-12.15812778,8.004060745
1784,1.5596545118e+18,12.17967606,-3.004814863,-10.86761379
1785,1.55965451185e+18,-2.774964571,-15.20603943,-2.875524044
1786,1.5596545119e+18,-17.58834267,-30.79995155,5.604997158
1787,1.55965451195e+18,-3.73267436,-14.08073044,10.16130257
1788,1.559654512e+18,-3.861965179,-16.88203239,15.25392437
1789,1.55965451206e+18,-21.4167881,-15.70165443,9.938634872
1790,1.55965451211e+18,-19.26912308,-7.491685867,6.632141113
1791,1.55965451216e+18,-9.296969414,0.2633702159,-0.6608198285
1792,1.55965451221e+18,4.163643837,3.390293121,2.1213274
1793,1.55965451226e+18,9.56273365,5.731894016,6.905088425
1794,1.55965451232e+18,-0.3471698463,2.166818619,2.300898075
1795,1.55965451237e+18,-16.39120483,6.962551117,-0.7853221297
1796,1.55965451242e+18,-19.00335884,1.496421814,4.656864643
1797,1.55965451247e+18,-0.2322446555,5.602602959,-17.33694458
1798,1.55965451252e+18,6.064698219,-5.863578796,-9.672870636
1799,1.55965451258e+18,0.04070267081,0.06703969836,-0.3615354896
1800,1.55965451263e+18,-8.111803055,-17.28187561,0.04309694469
1801,1.55965451268e+18,-3.763799906,-33.51984787,17.51172638
1802,1.55965451273e+18,0.2346389294,-10.33847904,10.81733322
1803,1.55965451278e+18,-7.491685867,-18.2324028,9.483722687
1804,1.55965451284e+18,-9.476539612,-15.70883656,17.3393383
1805,1.55965451289e+18,-9.718361855,-9.610619545,7.008042336
1806,1.55965451294e+18,-8.394327164,1.189954638,0.5339232683
1807,1.55965451299e+18,-1.558672905,3.950553417,4.091815472
1808,1.55965451304e+18,4.067873001,1.577827096,4.869955063
1809,1.5596545131e+18,0.5770202279,0.1747820675,2.470891714
1810,1.55965451315e+18,-6.957762718,3.213116884,-2.37272644
1811,1.5596545132e+18,-13.76708031,15.0719595,-7.448588848
1812,1.55965451325e+18,9.873989105,16.27867508,-11.09746361
1813,1.5596545133e+18,-0.8116591573,-4.563488007,-5.248250484
1814,1.55965451336e+18,-3.000026226,-7.93223238,4.209135056
1815,1.55965451341e+18,2.729473352,-20.87807655,12.25868702
1816,1.55965451346e+18,-4.348002911,-23.12630081,12.85007286
1817,1.55965451351e+18,-8.17165947,-21.98183632,0.2035133541
1818,1.55965451356e+18,-9.601041794,-20.11909103,7.898712635
1819,1.55965451362e+18,-9.507665634,-14.97140026,8.142929077
1820,1.55965451367e+18,-6.081458092,1.563461423,1.367130876
1821,1.55965451372e+18,-1.774157643,4.92023468,1.431776285
1822,1.55965451377e+18,2.731867552,2.573845387,1.204320192
1823,1.55965451382e+18,1.975276709,2.011190891,2.533142805
1824,1.55965451388e+18,-3.150865555,0.4932205975,1.637683988
1825,1.55965451393e+18,-7.647313595,4.850800991,2.664827824
1826,1.55965451398e+18,-14.03284454,11.03042412,0.7110996246
1827,1.55965451403e+18,9.964971542,9.766246796,-11.35365105
1828,1.55965451408e+18,-2.054287672,-4.000833035,6.059909344
1829,1.55965451414e+18,-6.095823765,-24.05049133,0.8092648983
1830,1.55965451419e+18,-2.923409462,-23.59318352,12.46698856
1831,1.55965451424e+18,-1.905842781,-9.747093201,9.222746849
1832,1.55965451429e+18,-8.049551964,-20.25317001,5.140508175
1833,1.55965451434e+18,-9.246688843,-18.56520653,10.07750225
1834,1.5596545144e+18,-10.00806904,-7.060716629,4.393494129
1835,1.55965451445e+18,-8.205180168,6.320885658,1.920208454
1836,1.5596545145e+18,-2.569056988,-0.7637736797,2.238646984
1837,1.55965451455e+18,-2.492439985,-1.103760719,0.1891477108
1838,1.5596545146e+18,-0.7063110471,6.251451492,2.528354168
1839,1.55965451466e+18,-4.154066563,4.479688168,4.53715086
1840,1.55965451471e+18,-5.856396198,5.650488377,-3.849993944
1841,1.55965451476e+18,1.580221415,16.39120483,4.000833035
1842,1.55965451481e+18,12.68247414,7.132544518,-7.788576126
1843,1.55965451486e+18,3.502824068,-2.212309837,0.8499675393
1844,1.55965451492e+18,-1.867534399,-30.52221489,3.998438835
1845,1.55965451497e+18,-5.334444046,-29.49028206,12.94344997
1846,1.55965451502e+18,-2.027950764,-14.14537525,6.093429565
1847,1.55965451507e+18,-11.69124413,-20.01374245,5.049525738
1848,1.55965451512e+18,-12.36642933,-13.18766594,9.514847755
1849,1.55965451518e+18,-8.408693314,-0.9553156495,4.019987583
1850,1.55965451523e+18,-6.433416367,6.581861496,0.2921015322
1851,1.55965451528e+18,-2.286532402,0.8954587579,-1.036720991
1852,1.55965451533e+18,2.889889717,0.5650488734,1.096577883
1853,1.55965451538e+18,5.566689014,4.259414673,5.825270653
1854,1.55965451544e+18,-2.1213274,5.456552505,10.27862167
1855,1.55965451549e+18,-11.47336483,3.476486921,3.392687321
1856,1.55965451554e+18,-0.1532335877,21.27313232,9.045570374
1857,1.55965451559e+18,10.91789341,5.449369431,-3.538738251
1858,1.55965451564e+18,-2.351177931,-11.28661156,-0.2849186957
1859,1.5596545157e+18,-2.430188894,-25.61395264,3.213116884
1860,1.55965451575e+18,-10.48931789,-27.99146652,4.486870766
1861,1.5596545158e+18,-3.87872529,-12.25389862,13.2618885
1862,1.55965451585e+18,-9.967366219,-19.57798576,14.98576641
1863,1.5596545159e+18,-10.58030033,-7.585062504,10.32890129
1864,1.55965451596e+18,-8.221940041,-2.004008055,-1.50599885
1865,1.55965451601e+18,-1.965699673,4.484476566,-1.541913033
1866,1.55965451606e+18,-0.9337671995,5.729499817,-4.508419514
1867,1.55965451611e+18,-1.16601181,-0.4237866402,0.4213923812
1868,1.55965451616e+18,-7.012830734,-4.127729893,1.482056141
1869,1.55965451622e+18,-20.95229912,4.2426548,-0.5291347504
1870,1.55965451627e+18,3.85957098,9.0335989,-9.888355255
1871,1.55965451632e+18,11.26506329,4.848406315,3.735068798
1872,1.55965451637e+18,-4.407859802,-7.225921154,6.51242733
1873,1.55965451642e+18,-7.589851379,-34.19742584,5.073468208
1874,1.55965451648e+18,-6.337645531,-15.54842091,-2.456526041
1875,1.55965451653e+18,1.072635174,-6.074275017,9.567522049
1876,1.55965451658e+18,-1.302485466,-26.14069176,7.75984478
1877,1.55965451663e+18,-11.04718399,-18.11747742,12.25389862
1878,1.55965451668e+18,-14.12861538,-5.825270653,1.144463301
1879,1.55965451674e+18,-4.43180275,6.0216012,5.377541065
1880,1.55965451679e+18,0.7589851022,3.876330853,5.861184597
1881,1.55965451684e+18,-0.5075862408,1.424593568,3.603383541
1882,1.55965451689e+18,-0.928978622,2.171607256,1.640078187
1883,1.55965451694e+18,-3.933793545,-4.125335693,4.211529255
1884,1.559654517e+18,-4.166038036,9.675264359,0.5123748183
1885,1.55965451705e+18,8.839662552,16.06319046,-5.59781456
1886,1.5596545171e+18,5.083045483,5.698374271,-2.178790092
1887,1.55965451715e+18,-4.635315895,-7.458166122,3.579440832
1888,1.5596545172e+18,-3.536343813,-22.25238991,-0.09816526622
1889,1.55965451726e+18,-1.391073704,-25.20692444,10.90592194
1890,1.55965451731e+18,-3.325647593,-14.18128967,3.268185139
1891,1.55965451736e+18,-5.24106741,-29.95716667,7.132544518
1892,1.55965451741e+18,-11.13098335,-19.97303963,5.77020216
1893,1.55965451746e+18,-8.585869789,-7.874769688,4.917840481
1894,1.55965451752e+18,-3.751828671,0.08619388938,0.2298503816
1895,1.55965451757e+18,3.96731329,3.114951611,-0.2394274771
1896,1.55965451762e+18,2.786935806,0.9409499764,1.438959122
1897,1.55965451767e+18,-0.7278595567,8.537983894,1.874717116
1898,1.55965451772e+18,-6.907482624,-0.2106961906,17.57637215
1899,1.55965451778e+18,-9.320911407,7.395915031,8.614601135
1900,1.55965451783e+18,4.716721535,5.511620522,-3.687183142
1901,1.55965451788e+18,10.2474966,9.402317047,1.470084786
1902,1.55965451793e+18,0.9601042271,1.240234375,2.861158371
1903,1.55965451798e+18,0.07661679387,-21.91958618,-1.331216812
1904,1.55965451804e+18,-5.928224564,-28.19498062,8.74149704
1905,1.55965451809e+18,-4.632921696,-20.86131668,5.049525738
1906,1.55965451814e+18,-8.865999222,-17.82537651,5.073468208
1907,1.55965451819e+18,-15.04322815,-14.64099026,5.707951069
1908,1.55965451824e+18,-10.31453609,-2.942563772,2.485257149
1909,1.5596545183e+18,-4.022381783,4.553910732,0.5865973234
1910,1.55965451835e+18,0.6416656375,3.730280161,-0.464489311
1911,1.5596545184e+18,3.282550812,0.7374366522,1.48445034
1912,1.55965451845e+18,2.676799297,6.052726746,5.303318501
1913,1.5596545185e+18,-4.802915096,5.933012962,9.220352173
1914,1.55965451856e+18,-15.83573341,4.465322495,1.151646137
1915,1.55965451861e+18,-4.302511692,2.315263748,14.36085987
1916,1.55965451866e+18,2.810878515,0.5051919818,-0.8308133483
1917,1.55965451871e+18,-0.06943397224,-4.357580185,0.5291347504
1918,1.55965451876e+18,0.2561874092,-10.44861507,0.1340793967
1919,1.55965451882e+18,-15.7279911,-32.02582169,4.810098171
1920,1.55965451887e+18,-5.628940105,-15.87164783,2.224281311
1921,1.55965451892e+18,-6.833260536,-18.26592255,14.83253288
1922,1.55965451897e+18,-14.28184891,-16.15656662,8.243488312
1923,1.55965451902e+18,-12.9458437,0.7110996246,-0.5411061049
1924,1.55965451908e+18,-5.485283375,3.390293121,1.429382086
1925,1.55965451913e+18,-0.0574625954,7.807730198,0.8044763207
1926,1.55965451918e+18,1.130097747,7.103813171,4.965725899
1927,1.55965451923e+18,-8.710371971,7.484503269,3.069460392
1928,1.55965451928e+18,-13.75271416,2.085413456,3.759011507
1929,1.55965451934e+18,-4.60179615,-4.874743462,-3.684788942
1930,1.55965451939e+18,-1.764580488,-20.04008102,4.877137661
1931,1.55965451944e+18,1.118126392,15.51729488,10.86043072
1932,1.55965451949e+18,1.290514112,-6.579467297,-6.974522591
1933,1.55965451954e+18,-22.14225388,-30.52221489,-1.18756032
1934,1.5596545196e+18,11.39435387,-10.86282444,15.00252628
1935,1.55965451965e+18,4.343214512,-27.31149292,15.64658546
1936,1.5596545197e+18,-7.604216576,-20.18613052,8.892336845
1937,1.55965451975e+18,-13.59469223,-8.420664787,10.53002071
1938,1.5596545198e+18,-11.76067829,-2.853975534,3.373533249
1939,1.55965451986e+18,-4.28575182,5.585843086,5.262616158
1940,1.55965451991e+18,4.35039711,2.104567528,-1.544307232
1941,1.55965451996e+18,-3.857176781,-3.000026226,1.415016413
1942,1.55965452001e+18,-4.146883965,9.507665634,-4.666441441
1943,1.55965452006e+18,-2.58821106,27.10079575,12.98894119
1944,1.55965452012e+18,1.520364523,5.978504181,-11.77264881
1945,1.55965452017e+18,-3.749434233,-4.175615311,6.878751755
1946,1.55965452022e+18,-15.0671711,-7.14930439,12.48853779
1947,1.55965452027e+18,-0.1460507661,-16.36486816,-3.818868399
1948,1.55965452032e+18,-2.913832426,-13.54441261,12.65853119
1949,1.55965452038e+18,-2.411034822,-5.672037125,7.558725357
1950,1.55965452043e+18,-8.087860107,-8.327287674,6.811711788
1951,1.55965452048e+18,-17.30581856,-9.660899162,11.85405445
1952,1.55965452053e+18,-20.73920822,-12.17967606,1.096577883
1953,1.55965452058e+18,-15.85967636,-6.459753513,5.425426483
1954,1.55965452064e+18,-5.978504181,0.1101366431,-1.764580488
1955,1.55965452069e+18,4.336031914,1.367130876,-6.332856655
1956,1.55965452074e+18,9.055147171,1.522758722,6.306519985
1957,1.55965452079e+18,0.06225114316,3.605777979,4.039141655
1958,1.55965452084e+18,-9.21795845,8.734314919,1.745426297
1959,1.5596545209e+18,1.807677507,2.320052385,-8.322499275
1960,1.55965452095e+18,4.587430477,14.84929276,-8.600234985
1961,1.559654521e+18,-13.12302017,-3.536343813,-1.987248063
1962,1.55965452105e+18,-20.26274681,-15.39518738,6.979310989
1963,1.5596545211e+18,-4.168432236,-18.37127113,13.21160793
1964,1.55965452116e+18,-5.34402132,-9.143735886,11.52125072
1965,1.55965452121e+18,-6.071880817,-1.221080184,6.929031372
1966,1.55965452126e+18,-13.92270756,-12.87162113,10.13975334
1967,1.55965452131e+18,-13.70961761,-10.26425648,9.747093201
1968,1.55965452136e+18,-11.58829021,-2.751021862,6.06230402
1969,1.55965452142e+18,-6.866780281,2.513988495,8.916279793
1970,1.55965452147e+18,-5.308107376,-1.948939681,8.736708641
1971,1.55965452152e+18,-4.719115734,1.137280583,-7.18761301
1972,1.55965452157e+18,-9.627379417,-6.998465061,-8.284191132
1973,1.55965452162e+18,-4.0702672,6.545947552,-14.04242134
1974,1.55965452168e+18,12.30417824,4.012804508,-7.242681503
1975,1.55965452173e+18,-1.71669507,7.640130997,-4.568276405
1976,1.55965452178e+18,-5.327261448,-11.06154919,2.35357213
1977,1.55965452183e+18,-11.99052811,-29.75844193,10.32650757
1978,1.55965452188e+18,-8.549955368,-18.56281281,11.1405611
1979,1.55965452194e+18,-7.860404015,-4.568276405,7.304932594
1980,1.55965452199e+18,-11.82292938,-11.42547894,8.964164734
1981,1.55965452204e+18,-8.595446587,-8.827691078,12.40952587
1982,1.55965452209e+18,-17.78946114,-4.941783428,4.656864643
1983,1.55965452214e+18,-8.277008057,-4.053507328,2.303292274
1984,1.5596545222e+18,1.446141958,5.868367672,10.6545229
1985,1.55965452225e+18,-0.4094209969,1.678386688,1.869928598
1986,1.5596545223e+18,-16.16614342,-3.715914488,-3.64887476
1987,1.55965452235e+18,7.913078308,-7.106207848,-14.85647488
1988,1.5596545224e+18,-7.292961121,16.7862606,-14.21480942
1989,1.55965452246e+18,7.115784645,13.49892139,2.430188894
1990,1.55965452251e+18,-3.914639235,-31.35302925,18.49816704
1991,1.55965452256e+18,-21.23482323,-27.38332176,4.11097002
1992,1.55965452261e+18,-9.567522049,-10.51804924,-2.894678354
1993,1.55965452266e+18,-4.891503334,-4.139701366,3.589017868
1994,1.55965452272e+18,-7.716747761,-2.473285913,7.266623974
1995,1.55965452277e+18,-7.348029613,-1.070240855,5.099805355
1996,1.55965452282e+18,-11.29858303,2.106961727,6.72312355
1997,1.55965452287e+18,-13.05598068,-3.028757572,5.87555027
1998,1.55965452292e+18,-4.060689926,3.488458395,9.385557175
1999,1.55965452298e+18,-0.1819648892,3.220299721,7.110996246
2000,1.55965452303e+18,4.103786945,4.465322495,1.371919513
2001,1.55965452308e+18,-7.115784645,-0.5195576549,10.72156239
2002,1.55965452313e+18,5.626545906,7.340846539,-11.43026829
2003,1.55965452318e+18,-4.019987583,-8.983319283,-14.05439281
