,Time (s),Acceleration x (m/s^2),Acceleration y (m/s^2),Acceleration z (m/s^2)
0,1.55965532205e+18,2.650462151,0.8044763207,9.002472878
1,1.5596553221e+18,2.482862949,0.6033572555,8.949799538
2,1.55965532216e+18,2.734261751,0.316044271,9.028810501
3,1.55965532221e+18,3.045517445,-1.419804931,9.488511086
4,1.55965532226e+18,1.063058019,-0.7637736797,9.385557175
5,1.55965532231e+18,1.807677507,-1.826831698,10.0966568
6,1.55965532236e+18,-2.506805658,-1.913025618,7.690410614
7,1.55965532242e+18,-4.206740856,-0.9912297726,7.470137596
8,1.55965532247e+18,-8.75586319,1.424593568,7.606611252
9,1.55965532252e+18,-6.294548512,2.300898075,8.039975166
10,1.55965532257e+18,-7.197190285,3.426207304,8.526012421
11,1.55965532262e+18,-7.005648136,4.719115734,7.170853138
12,1.55965532268e+18,-8.049551964,3.854782343,6.205960274
13,1.55965532273e+18,-6.715940952,3.210722446,4.53715086
14,1.55965532278e+18,-9.162889481,0.8858816624,7.108602047
15,1.55965532283e+18,-8.01124382,-2.001613855,6.349617004
16,1.55965532288e+18,-6.818894863,-2.504411459,8.995290756
17,1.55965532294e+18,-1.577827096,-1.197137356,11.66969585
18,1.55965532299e+18,-7.127756119,-0.05267404765,7.879558563
19,1.55965532304e+18,-5.672037125,0.462095052,7.269018173
20,1.55965532309e+18,-1.508393168,-1.098972082,12.01447105
21,1.55965532314e+18,-7.154093266,2.451737404,8.729525566
22,1.5596553232e+18,-4.170826912,1.158828974,7.810124397
23,1.55965532325e+18,-1.860351562,2.573845387,7.36239481
24,1.5596553233e+18,-1.54670155,3.593806505,6.993676662
25,1.55965532335e+18,-0.14844504,4.146883965,6.873962879
26,1.5596553234e+18,0.4884320498,4.067873001,7.937020779
27,1.55965532346e+18,-0.6656084061,3.502824068,7.802941799
28,1.55965532351e+18,2.214704275,5.49246645,8.028003693
29,1.55965532356e+18,1.867534399,5.619362831,8.839662552
30,1.55965532361e+18,2.33441782,5.018400192,9.56273365
31,1.55965532366e+18,2.243435383,4.00562191,8.37038517
32,1.55965532372e+18,-0.8116591573,3.232270956,8.05194664
33,1.55965532377e+18,-1.790917516,4.151672363,7.027196407
34,1.55965532382e+18,0.1101366431,3.715914488,7.424646378
35,1.55965532387e+18,-0.2609759569,1.9944309,7.975329399
36,1.55965532392e+18,-0.9146129489,1.924996972,6.87156868
37,1.55965532398e+18,-0.4094209969,3.991255999,8.882759094
38,1.55965532403e+18,-1.699935079,4.024775982,9.064723969
39,1.55965532408e+18,-1.78134048,2.724684715,9.914691925
40,1.55965532413e+18,-1.209108829,1.168406129,10.71198559
41,1.55965532418e+18,-0.8930644989,0.1963305324,11.34167957
42,1.55965532424e+18,-1.182771802,0.2298503816,11.1501379
43,1.55965532429e+18,-0.964892745,0.1580221355,10.68564892
44,1.55965532434e+18,-1.699935079,0.07182824612,9.58907032
45,1.55965532439e+18,-1.300091267,-0.1005595401,10.17806244
46,1.55965532444e+18,-0.3639297783,0.7278595567,10.25946712
47,1.5596553245e+18,-0.4213923812,0.5650488734,10.00327969
48,1.55965532455e+18,-1.640078187,1.048692346,9.081484795
49,1.5596553246e+18,-1.582615614,1.412622094,8.67445755
50,1.55965532465e+18,-2.719896078,1.819648862,8.820508003
51,1.5596553247e+18,-2.796513081,0.9098244309,8.940221786
52,1.55965532476e+18,-1.359948039,1.534730196,10.12299347
53,1.55965532481e+18,-5.269798756,-0.4884320498,10.43903828
54,1.55965532486e+18,-3.387898922,0.05985686928,10.01046276
55,1.55965532491e+18,-0.5458946824,0.5818088055,9.778218269
56,1.55965532496e+18,-1.740637779,0.7350423932,7.534782887
57,1.55965532502e+18,-1.393467903,0.7134938836,11.01845264
58,1.55965532507e+18,-2.564268351,0.5051919818,8.940221786
59,1.55965532512e+18,-0.2513988614,0.2705530524,13.42709351
60,1.55965532517e+18,-1.525153041,0.2561874092,9.466962814
61,1.55965532522e+18,0.9768640995,0.0837996155,7.913078308
62,1.55965532528e+18,1.479661822,0.3615354896,7.151699066
63,1.55965532533e+18,0.8906702399,-0.8571503758,8.784594536
64,1.55965532538e+18,-0.1460507661,-0.5387118459,7.101418972
65,1.55965532543e+18,0.3854782581,-0.3519583941,9.064723969
66,1.55965532548e+18,0.945738554,1.276148438,9.040781975
67,1.55965532554e+18,1.130097747,1.776551962,9.656110764
68,1.55965532559e+18,2.197944164,1.831620216,9.502876282
69,1.55965532564e+18,2.324840784,1.872322917,9.663292885
70,1.55965532569e+18,2.159635782,1.33600533,9.49569416
71,1.55965532574e+18,2.983266354,0.7613793612,9.641744614
72,1.5596553258e+18,2.770175934,1.264177084,10.01285744
73,1.55965532585e+18,1.388679385,0.5219519138,10.37439251
74,1.5596553259e+18,1.168406129,0.8188419938,10.07750225
75,1.55965532595e+18,0.4932205975,0.7709565163,9.708784103
76,1.559655326e+18,0.8667274714,1.608952641,10.10862827
77,1.55965532606e+18,0.3208328187,0.9217957854,10.61860847
78,1.55965532611e+18,1.228263021,0.6201171875,11.33928585
79,1.55965532616e+18,1.034326673,0.7853221297,10.35044956
80,1.55965532621e+18,1.664021015,1.211503029,9.809344292
81,1.55965532626e+18,1.977671027,1.764580488,8.849239349
82,1.55965532632e+18,2.363149166,2.590605259,8.442213058
83,1.55965532637e+18,1.723877907,2.432583094,8.815719604
84,1.55965532642e+18,4.292934895,1.640078187,7.388731956
85,1.55965532647e+18,4.939388752,1.834014535,7.12296772
86,1.55965532652e+18,5.308107376,2.9258039,4.881926537
87,1.55965532658e+18,5.832453251,2.487651587,5.229096413
88,1.55965532663e+18,5.147690773,3.711125851,4.585036278
89,1.55965532668e+18,6.014418125,2.921015263,5.672037125
90,1.55965532673e+18,5.391906738,2.604970932,3.857176781
91,1.55965532678e+18,5.317684174,2.384697676,4.142095566
92,1.55965532684e+18,5.712739468,3.019180536,4.393494129
93,1.55965532689e+18,6.143709183,3.170019865,4.563488007
94,1.55965532694e+18,7.575485706,3.950553417,4.788549423
95,1.55965532699e+18,10.32171917,4.362368584,5.8516078
96,1.55965532704e+18,11.92827702,4.798126698,9.31133461
97,1.5596553271e+18,15.5532093,6.601015568,10.36960411
98,1.55965532715e+18,20.78230476,8.272219658,11.40393066
99,1.5596553272e+18,39.69947052,18.94829178,5.06628561
100,1.55965532725e+18,30.81910515,18.03367805,-5.949772835
101,1.5596553273e+18,3.871542454,-6.682421207,20.76075745
102,1.55965532736e+18,3.452544212,-42.61809158,6.366376877
103,1.55965532741e+18,-7.223526955,-19.95627975,-4.829252243
104,1.55965532746e+18,0.4046324492,-2.178790092,-4.491659641
105,1.55965532751e+18,8.032792091,7.987300873,-0.4573064744
106,1.55965532756e+18,4.127729893,7.144515991,-0.2633702159
107,1.55965532762e+18,-0.2585816681,3.907456398,-0.943344295
108,1.55965532767e+18,0.5099805593,3.404658794,0.184359163
109,1.55965532772e+18,-0.5961744189,-2.154847383,8.253065109
110,1.55965532777e+18,-0.1005595401,-5.628940105,8.696005821
111,1.55965532782e+18,1.659232497,-7.666468143,13.51089287
112,1.55965532788e+18,3.143682718,-5.059102535,13.15414619
113,1.55965532793e+18,1.793311834,-3.950553417,16.72161484
114,1.55965532798e+18,-0.7733507752,-2.518777132,12.87401581
115,1.55965532803e+18,-4.223500729,-4.180403709,10.22594738
116,1.55965532808e+18,-11.56913567,-3.778165579,7.410280704
117,1.55965532814e+18,-12.13418484,-0.7278595567,-1.288119793
118,1.55965532819e+18,-14.76788712,0.1005595401,2.068653345
119,1.55965532824e+18,-12.85007286,2.909043789,1.120520592
120,1.55965532829e+18,-13.39357281,2.090201855,2.842004299
121,1.55965532834e+18,-12.45022869,1.242628574,2.614548206
122,1.5596553284e+18,-10.56354046,0.7182824612,2.923409462
123,1.55965532845e+18,-12.39037228,-0.4070267081,0.1699935049
124,1.5596553285e+18,-9.845257759,-1.101366401,1.189954638
125,1.55965532855e+18,-9.67047596,-1.78134048,1.304879785
126,1.5596553286e+18,-8.229122162,-2.22667551,2.264983892
127,1.55965532866e+18,-7.460560322,-1.364736676,2.051893473
128,1.55965532871e+18,-8.080677032,-1.374313712,2.18357873
129,1.55965532876e+18,-7.929838181,-0.1987248063,3.888302326
130,1.55965532881e+18,-11.30576611,0.1628106833,5.030371189
131,1.55965532886e+18,-12.08869362,1.556278586,5.497254848
132,1.55965532892e+18,-12.01207638,3.723097324,4.525179386
133,1.55965532897e+18,-13.21160793,5.209941864,4.024775982
134,1.55965532902e+18,-12.53881741,5.545140266,4.008016109
135,1.55965532907e+18,-10.18285084,4.257020473,3.313676357
136,1.55965532912e+18,-9.828497887,3.538738251,2.99044919
137,1.55965532918e+18,-6.890722752,4.024775982,3.050306082
138,1.55965532923e+18,-4.235472202,4.637710094,3.73267436
139,1.55965532928e+18,-3.792531252,7.529994488,7.793364525
140,1.55965532933e+18,-8.025609016,7.328875065,4.558699131
141,1.55965532938e+18,-8.712765694,6.0216012,6.371165276
142,1.55965532944e+18,-6.296942711,4.223500729,3.421418667
143,1.55965532949e+18,-5.49246645,5.121353626,2.724684715
144,1.55965532954e+18,-4.958543301,4.13730669,2.346389294
145,1.55965532959e+18,-3.914639235,5.643305779,2.557085514
146,1.55965532964e+18,-0.2944957912,6.59143877,0.9002473354
147,1.5596553297e+18,0.8140534163,6.08864069,1.386285067
148,1.55965532975e+18,0.2609759569,3.131711483,-0.6057515144
149,1.5596553298e+18,1.33600533,0.7470137477,-1.300091267
150,1.55965532985e+18,-1.814860344,-0.3256213665,-2.77975297
151,1.5596553299e+18,19.32658577,-23.59318352,58.30059052
152,1.55965532996e+18,-6.438204765,16.45106316,0.9002473354
153,1.55965533001e+18,-9.474145889,5.590631485,-3.0981915
154,1.55965533006e+18,-7.623371124,10.73832226,-6.732700825
155,1.55965533011e+18,-11.47815323,8.535589218,-6.72551775
156,1.55965533016e+18,-9.668081284,8.332076073,-2.949746609
157,1.55965533021e+18,-14.93788052,6.201171875,-2.683982134
158,1.55965533027e+18,-12.16291618,6.110189438,-1.54909575
159,1.55965533032e+18,-14.63859653,2.978477955,0.04309694469
160,1.55965533037e+18,-13.88439941,2.67201066,-1.108549237
161,1.55965533042e+18,-13.50131607,-0.1460507661,0.5123748183
162,1.55965533047e+18,-13.05119228,-0.4956148863,1.941756845
163,1.55965533053e+18,-14.14298153,-1.963305354,1.594586968
164,1.55965533058e+18,-10.37199879,-0.5411061049,2.047105074
165,1.55965533063e+18,-9.452596664,0.3591412306,2.846792698
166,1.55965533068e+18,-9.976943016,1.343188167,2.506805658
167,1.55965533073e+18,-10.19482231,1.39825654,2.377514839
168,1.55965533079e+18,-8.336864471,1.989642382,5.897099018
169,1.55965533084e+18,-7.192401409,0.8906702399,6.158074856
170,1.55965533089e+18,-5.521197796,0.9577099085,5.976109982
171,1.55965533094e+18,-1.723877907,1.381496549,6.905088425
172,1.55965533099e+18,-3.41423583,2.703136206,8.181237221
173,1.55965533105e+18,3.653663397,2.004008055,5.997658253
174,1.5596553311e+18,0.7015225291,1.843591571,10.63057995
175,1.55965533115e+18,4.826858044,1.726272106,3.952947617
176,1.5596553312e+18,6.057515144,1.359948039,7.218738556
177,1.55965533125e+18,5.942590237,2.911438227,3.969707727
178,1.55965533131e+18,8.303344727,1.450930476,5.949772835
179,1.55965533136e+18,7.051139355,3.933793545,5.34641552
180,1.55965533141e+18,6.431022167,3.146077156,4.951360226
181,1.55965533146e+18,7.249864101,2.14287591,5.681613922
182,1.55965533151e+18,6.993676662,2.995237827,4.383917332
183,1.55965533157e+18,5.952167034,2.264983892,3.359167576
184,1.55965533162e+18,5.226701736,2.494834423,4.187586784
185,1.55965533167e+18,5.693585396,2.650462151,4.292934895
186,1.55965533172e+18,6.991282463,2.628913641,5.791750908
187,1.55965533177e+18,7.951386452,2.645673752,7.029590607
188,1.55965533183e+18,10.30495834,3.110162973,8.590658188
189,1.55965533188e+18,12.63937664,3.131711483,11.76307201
190,1.55965533193e+18,18.057621,4.132518291,13.33371639
191,1.55965533198e+18,30.93642426,8.894730568,9.550762177
192,1.55965533203e+18,36.00510406,18.56999588,0.0287312977
193,1.55965533209e+18,21.97704887,3.189173937,-1.031932473
194,1.55965533214e+18,4.848406315,-7.331269264,9.213169098
195,1.55965533219e+18,-11.02802944,-35.746521,6.258634567
196,1.55965533224e+18,-0.8116591573,-9.665687561,-8.497281075
197,1.55965533229e+18,2.308080912,5.205153465,-3.981678963
198,1.55965533235e+18,6.268211365,5.844424725,-0.5674431324
199,1.5596553324e+18,4.108575344,5.616968632,1.999219418
200,1.55965533245e+18,0.06225114316,0.8882759809,4.034353256
201,1.5596553325e+18,1.197137356,-2.420611858,5.758230686
202,1.55965533255e+18,4.075055599,-6.572284222,9.519637108
203,1.55965533261e+18,7.879558563,-3.486064196,10.606637
204,1.55965533266e+18,6.65847826,0.3806896806,8.810931206
205,1.55965533271e+18,3.809291124,1.903448462,10.00327969
206,1.55965533276e+18,1.223474383,3.857176781,10.8197279
207,1.55965533281e+18,-2.853975534,0.4740664065,15.34251308
208,1.55965533287e+18,-4.817280769,0.5626545548,13.23555088
209,1.55965533292e+18,-9.864412308,2.169213057,12.72557068
210,1.55965533297e+18,-10.68325424,2.695953369,11.45660496
211,1.55965533302e+18,-8.588263512,1.67599237,9.055147171
212,1.55965533307e+18,-9.062330246,2.241041183,7.975329399
213,1.55965533313e+18,-10.40791225,1.261782765,5.444581032
214,1.55965533318e+18,-8.511647224,1.048692346,4.510813713
215,1.55965533323e+18,-7.144515991,0.629694283,4.802915096
216,1.55965533328e+18,-8.46376133,-0.2178790122,4.565882206
217,1.55965533333e+18,-8.669669151,-1.024749637,4.881926537
218,1.55965533339e+18,-8.109408379,-1.367130876,4.726298332
219,1.55965533344e+18,-6.383136749,-0.9385557175,5.604997158
220,1.55965533349e+18,-6.500456333,-0.08858817071,4.869955063
221,1.55965533354e+18,-7.398309231,0.1388679445,4.762212753
222,1.55965533359e+18,-7.453377247,0.2322446555,4.757423878
223,1.55965533365e+18,-8.245882034,0.2466102988,4.417437077
224,1.5596553337e+18,-9.581888199,0.4261809289,3.727885962
225,1.55965533375e+18,-10.96817303,0.3567469418,3.059883118
226,1.5596553338e+18,-10.70959091,-0.4166038036,3.895485163
227,1.55965533385e+18,-9.134158134,-0.6632141471,4.826858044
228,1.55965533391e+18,-7.776604652,-0.4477293789,5.018400192
229,1.55965533396e+18,-7.331269264,-0.02394274808,4.790944099
230,1.55965533401e+18,-8.071100235,-0.1268965602,4.92262888
231,1.55965533406e+18,-9.646533012,-0.3232271075,4.723904133
232,1.55965533411e+18,-9.828497887,0.5387118459,5.154873848
233,1.55965533417e+18,-10.70001411,0.6057515144,5.219519138
234,1.55965533422e+18,-7.458166122,0.2178790122,6.366376877
235,1.55965533427e+18,-5.449369431,0.2178790122,5.731894016
236,1.55965533432e+18,-3.636903524,-0.964892745,7.099024773
237,1.55965533437e+18,-3.404658794,-1.807677507,8.47812748
238,1.55965533443e+18,-2.600182533,-2.377514839,8.959376335
239,1.55965533448e+18,-2.011190891,-1.850774407,8.846845627
240,1.55965533453e+18,-1.455719113,-1.369525194,8.317710876
241,1.55965533458e+18,-3.301704884,-0.8523618579,7.422251701
242,1.55965533463e+18,-3.962524891,-0.1939362586,7.750267506
243,1.55965533469e+18,-5.06628561,-0.03591412306,8.475732803
244,1.55965533474e+18,-5.74386549,-0.277735889,9.323306084
245,1.55965533479e+18,-5.652883053,0.1580221355,9.124581337
246,1.55965533484e+18,-5.250644684,0.5411061049,8.214756966
247,1.55965533489e+18,-5.059102535,0.8547561169,7.348029613
248,1.55965533495e+18,-6.069486618,0.9888355136,6.991282463
249,1.559655335e+18,-8.557138443,1.553884387,5.827664852
250,1.55965533505e+18,-8.669669151,1.259388566,5.504437923
251,1.5596553351e+18,-8.707977295,0.648848474,5.257827282
252,1.55965533515e+18,-8.949799538,-0.1221080124,4.987274647
253,1.55965533521e+18,-8.746285439,0.2178790122,5.118959427
254,1.55965533526e+18,-7.676044941,0.6153286099,5.377541065
255,1.55965533531e+18,-7.115784645,1.043903828,5.870761871
256,1.55965533536e+18,-7.800547123,1.110943556,5.854001999
257,1.55965533541e+18,-8.643332481,0.8427847624,5.056708336
258,1.55965533547e+18,-8.827691078,1.501210332,5.669642925
259,1.55965533552e+18,-8.418270111,2.67201066,6.186806202
260,1.55965533557e+18,-8.497281075,3.205934048,6.76622057
261,1.55965533562e+18,-9.004867554,2.988054991,5.964138508
262,1.55965533567e+18,-7.877163887,2.791724443,5.633728504
263,1.55965533573e+18,-8.442213058,2.188367128,4.781366825
264,1.55965533578e+18,-7.553936958,2.336812258,4.644893169
265,1.55965533583e+18,-5.700768471,3.170019865,5.504437923
266,1.55965533588e+18,-4.515602112,3.735068798,5.45176363
267,1.55965533593e+18,-4.118152618,4.328848839,5.226701736
268,1.55965533599e+18,-3.356773376,4.364762783,5.463735104
269,1.55965533604e+18,-3.510006905,3.723097324,6.040755272
270,1.55965533609e+18,-5.595420361,2.135693073,6.835654736
271,1.55965533614e+18,-4.687990189,0.2202732861,7.637736797
272,1.55965533619e+18,-6.984099388,-1.367130876,6.395108223
273,1.55965533625e+18,-6.304125786,-0.8739103079,6.074275017
274,1.5596553363e+18,-7.515628815,-2.516382933,5.02797699
275,1.55965533635e+18,-7.01522541,-2.913832426,7.57309103
276,1.5596553364e+18,-8.300951004,-4.70953846,7.709564686
277,1.55965533645e+18,-6.72551775,-4.036747456,0.6799740195
278,1.55965533651e+18,-9.150918007,-0.01436564885,7.992089272
279,1.55965533656e+18,-5.911464691,2.760598898,8.743891716
280,1.55965533661e+18,-6.375953674,1.831620216,8.870788574
281,1.55965533666e+18,-6.112583637,1.944151163,10.63297462
282,1.55965533671e+18,-6.186806202,1.491633177,9.170072556
283,1.55965533677e+18,-4.458139896,2.466103077,9.088666916
284,1.55965533682e+18,-4.187586784,2.686376333,8.38235569
285,1.55965533687e+18,-2.638490915,3.450150013,7.733507633
286,1.55965533692e+18,0.3375927508,4.28575182,7.82688427
287,1.55965533697e+18,1.431776285,6.023995399,6.138920784
288,1.55965533703e+18,3.237059593,4.778972626,4.194769382
289,1.55965533708e+18,6.442993641,3.220299721,4.865166187
290,1.55965533713e+18,3.761405706,3.905062199,3.96731329
291,1.55965533718e+18,4.908263206,3.88111949,3.94576478
292,1.55965533723e+18,4.992063046,3.64887476,5.114171028
293,1.55965533729e+18,5.624151707,4.266597748,4.850800991
294,1.55965533734e+18,7.225921154,4.063084126,4.817280769
295,1.55965533739e+18,7.357606411,4.491659641,5.585843086
296,1.55965533744e+18,8.257853508,4.326454639,8.138139725
297,1.55965533749e+18,12.34727478,5.365570068,9.991309166
298,1.55965533755e+18,16.73119164,6.792557716,11.99531651
299,1.5596553376e+18,30.71136284,12.23474407,13.1110487
300,1.55965533765e+18,36.28523636,22.60674286,-2.50201726
301,1.5596553377e+18,23.53093338,5.207547665,0.02154847234
302,1.55965533775e+18,0.627300024,-3.43578434,4.462928295
303,1.55965533781e+18,-2.624125242,-57.32133484,20.96187592
304,1.55965533786e+18,-14.09270191,-14.01368999,-11.99531651
305,1.55965533791e+18,8.916279793,1.412622094,-6.031178474
306,1.55965533796e+18,14.02566147,13.73116589,0.5985686779
307,1.55965533801e+18,4.166038036,3.917033672,3.759011507
308,1.55965533807e+18,4.546727657,4.494053841,1.448536277
309,1.55965533812e+18,4.304905891,1.249811411,5.628940105
310,1.55965533817e+18,7.271412373,0.9529213905,5.844424725
311,1.55965533822e+18,6.988888264,-2.006402254,6.895511627
312,1.55965533827e+18,5.707951069,-0.6967339516,6.933819771
313,1.55965533833e+18,4.024775982,-0.5842030644,6.122160912
314,1.55965533838e+18,1.256994247,1.419804931,7.695199013
315,1.55965533843e+18,-0.4429408312,3.220299721,7.269018173
316,1.55965533848e+18,-3.512401104,3.660846233,15.57715225
317,1.55965533853e+18,-4.063084126,6.057515144,13.41512203
318,1.55965533859e+18,-6.581861496,3.751828671,11.22675419
319,1.55965533864e+18,-10.32411289,3.478881359,9.500482559
320,1.55965533869e+18,-12.72557068,2.044710636,6.55073595
321,1.55965533874e+18,-13.03443241,4.000833035,7.259441376
322,1.55965533879e+18,-10.79817963,4.338426113,5.475706577
323,1.55965533885e+18,-9.167677879,2.683982134,5.549929142
324,1.5596553389e+18,-8.439818382,0.8786988258,3.689577579
325,1.55965533895e+18,-8.415876389,-0.007182824425,2.968900681
326,1.559655339e+18,-8.530800819,0.06225114316,2.188367128
327,1.55965533905e+18,-7.477320194,0.4357580245,2.039922237
328,1.55965533911e+18,-7.453377247,0.9601042271,2.202732801
329,1.55965533916e+18,-8.88515377,0.8499675393,1.970488191
330,1.55965533921e+18,-10.67128277,1.053480864,0.8523618579
331,1.55965533926e+18,-10.38397026,0.8427847624,1.594586968
332,1.55965533931e+18,-9.751881599,0.7422251701,1.618529797
333,1.55965533937e+18,-9.744698524,0.5099805593,1.388679385
334,1.55965533942e+18,-10.51565456,-0.1795706153,1.697540879
335,1.55965533947e+18,-11.33689117,-1.527547359,1.486844659
336,1.55965533952e+18,-8.995290756,-0.7134938836,2.152452946
337,1.55965533957e+18,-7.063110828,0.04549122229,2.739050388
338,1.55965533963e+18,-7.577879906,0.632088542,2.509200096
339,1.55965533968e+18,-9.660899162,-0.3974496126,2.494834423
340,1.55965533973e+18,-9.71117878,0.04549122229,2.449343204
341,1.55965533978e+18,-9.088666916,1.003201127,2.719896078
342,1.55965533983e+18,-9.919480324,0.481249243,3.129317284
343,1.55965533989e+18,-8.875576973,1.110943556,3.694365978
344,1.55965533994e+18,-8.389538765,1.503604531,3.682394743
345,1.55965533999e+18,-8.265036583,1.012778282,3.713520288
346,1.55965534004e+18,-9.095849991,1.163617611,3.158048391
347,1.55965534009e+18,-9.672870636,1.218685865,2.887495518
348,1.55965534015e+18,-10.11102295,1.699935079,2.911438227
349,1.5596553402e+18,-9.936240196,2.413429022,3.940976381
350,1.55965534025e+18,-10.30735302,3.670423269,4.975303173
351,1.5596553403e+18,-10.74790001,2.971295118,3.907456398
352,1.55965534035e+18,-9.2035923,2.547508478,2.703136206
353,1.55965534041e+18,-7.206767082,2.935380936,2.786935806
354,1.55965534046e+18,-5.760625362,2.557085514,3.629720688
355,1.55965534051e+18,-6.469330311,1.86514008,2.858764172
356,1.55965534056e+18,-10.41270161,-0.2298503816,2.748627424
357,1.55965534061e+18,-9.799766541,-0.6177229285,5.250644684
358,1.55965534067e+18,-7.975329399,1.316851139,7.393520832
359,1.55965534072e+18,-6.569890022,2.123721838,6.179623127
360,1.55965534077e+18,-5.839636326,1.668809533,4.11097002
361,1.55965534082e+18,-6.675238132,1.019961119,3.385504484
362,1.55965534087e+18,-8.121379852,0.481249243,3.94576478
363,1.55965534093e+18,-7.537177086,0.4213923812,5.379935265
364,1.55965534098e+18,-6.615381241,-0.8858816624,5.604997158
365,1.55965534103e+18,-6.208354473,-1.575432777,4.506025314
366,1.55965534108e+18,-8.930644989,-6.330462456,6.87156868
367,1.55965534113e+18,-5.303318501,-9.873989105,35.54540253
368,1.55965534119e+18,-16.53725624,-0.651242733,5.221913338
369,1.55965534124e+18,-3.122134447,0.7685621977,10.04158878
370,1.55965534129e+18,-8.073494911,-0.1580221355,10.16848469
371,1.55965534134e+18,-10.771842,2.430188894,6.538764477
372,1.55965534139e+18,-4.788549423,1.889082789,8.67445755
373,1.55965534145e+18,-5.06628561,3.45493865,8.375173569
374,1.5596553415e+18,-3.411841631,4.66883564,6.897905827
375,1.55965534155e+18,1.479661822,4.043930054,7.510839939
376,1.5596553416e+18,0.7278595567,3.876330853,6.890722752
377,1.55965534165e+18,3.24424243,4.345608711,7.110996246
378,1.55965534171e+18,4.412648678,3.038334846,6.55313015
379,1.55965534176e+18,3.342407703,3.756617069,7.661679268
380,1.55965534181e+18,3.13889432,3.718308687,5.734288216
381,1.55965534186e+18,6.933819771,1.750214934,6.186806202
382,1.55965534191e+18,4.563488007,2.243435383,4.905869007
383,1.55965534197e+18,4.297723293,2.619336605,4.781366825
384,1.55965534202e+18,4.697566986,3.270579338,5.23867321
385,1.55965534207e+18,5.482889175,3.124528646,5.942590237
386,1.55965534212e+18,7.479714394,3.299310684,5.514014721
387,1.55965534217e+18,7.688016415,4.000833035,6.790163517
388,1.55965534223e+18,9.402317047,4.11097002,9.050358772
389,1.55965534228e+18,12.65134811,5.037554264,11.12140656
390,1.55965534233e+18,16.2906456,6.490879059,12.72078228
391,1.55965534238e+18,34.63079071,13.75271416,11.8253231
392,1.55965534243e+18,34.55417252,19.90121269,-3.189173937
393,1.55965534249e+18,20.75118065,-2.296109438,2.126116037
394,1.55965534254e+18,0.2825244367,-18.82857704,-1.71908927
395,1.55965534259e+18,-4.233078003,-30.64192963,12.07672215
396,1.55965534264e+18,-9.909903526,-8.640937805,-7.690410614
397,1.55965534269e+18,8.379961967,7.211555958,-3.337619066
398,1.55965534275e+18,9.354432106,9.967366219,0.03112557158
399,1.5596553428e+18,3.842811108,4.886714935,2.078230619
400,1.55965534285e+18,3.32804203,2.801301479,3.399870157
401,1.5596553429e+18,4.673624516,1.137280583,4.520390987
402,1.55965534295e+18,5.298530102,-0.1963305324,5.889915943
403,1.55965534301e+18,6.943397045,-0.09816526622,6.366376877
404,1.55965534306e+18,6.629746914,-0.3519583941,7.532388687
405,1.55965534311e+18,5.375146866,1.0175668,8.411087036
406,1.55965534316e+18,3.799714088,2.901860952,8.597841263
407,1.55965534321e+18,1.37910223,2.645673752,13.91552544
408,1.55965534327e+18,-1.326428294,2.336812258,11.48773098
409,1.55965534332e+18,-6.780586243,1.884294271,11.35843945
410,1.55965534337e+18,-8.013637543,3.311282158,8.140534401
411,1.55965534342e+18,-12.25150394,1.685569525,7.405491829
412,1.55965534347e+18,-11.94024849,3.926610708,6.680026531
413,1.55965534353e+18,-13.52765274,2.233858347,8.123774529
414,1.55965534358e+18,-11.06633854,1.450930476,5.806116581
415,1.55965534363e+18,-9.732727051,0.002394274808,6.44538784
416,1.55965534368e+18,-8.609811783,0.03830839694,4.92262888
417,1.55965534373e+18,-7.321692467,0.2681587934,3.742251635
418,1.55965534379e+18,-7.427040577,0.3375927508,3.0957973
419,1.55965534384e+18,-8.188420296,0.05027977005,2.707924843
420,1.55965534389e+18,-8.281796455,0.3543526828,3.198751211
421,1.55965534394e+18,-8.806142807,-0.06225114316,3.897879362
422,1.55965534399e+18,-9.960183144,0.6249057055,4.85558939
423,1.55965534405e+18,-17.37046432,6.97691679,4.173221111
424,1.5596553441e+18,-17.30342484,6.780586243,2.897072554
425,1.55965534415e+18,-11.79180336,5.837242126,2.801301479
426,1.5596553442e+18,-10.57790565,3.584229469,0.5363175869
427,1.55965534425e+18,-9.974549294,0.2394274771,-3.730280161
428,1.55965534431e+18,-2.648067951,0.1915419847,-1.764580488
429,1.55965534436e+18,1.300091267,1.331216812,-0.07901106775
430,1.55965534441e+18,2.947352171,3.289733648,1.367130876
431,1.55965534446e+18,3.0957973,3.778165579,2.054287672
432,1.55965534451e+18,1.517970204,5.439792156,2.174001455
433,1.55965534457e+18,0.4261809289,3.181991339,1.295302629
434,1.55965534462e+18,-3.397475958,1.980065227,3.770982742
435,1.55965534467e+18,-9.809344292,3.77337718,0.4980091453
436,1.55965534472e+18,-18.31620216,0.1005595401,0.1436564922
437,1.55965534477e+18,-17.80382729,3.998438835,-3.0981915
438,1.55965534483e+18,-15.74953938,6.507638931,-0.2130904645
439,1.55965534488e+18,-11.58110714,5.595420361,-0.4525179267
440,1.55965534493e+18,-9.692024231,4.846012115,-1.079817891
441,1.55965534498e+18,-9.445414543,4.122941017,-1.692752242
442,1.55965534503e+18,-7.987300873,3.816473961,-1.486844659
443,1.55965534509e+18,-7.132544518,3.33043623,-0.5770202279
444,1.55965534514e+18,-9.926663399,2.018373728,-2.181184292
445,1.55965534519e+18,-10.37918091,2.796513081,-1.345582485
446,1.55965534524e+18,-10.46298122,2.006402254,0.3519583941
447,1.55965534529e+18,-7.683228016,3.093403101,2.032739401
448,1.55965534535e+18,-12.51726913,1.199531674,1.747820616
449,1.5596553454e+18,-8.540378571,1.350371003,1.884294271
450,1.55965534545e+18,-8.499675751,1.723877907,2.178790092
451,1.5596553455e+18,-8.320104599,2.624125242,1.690358043
452,1.55965534555e+18,-8.181237221,3.363956213,2.554691315
453,1.55965534561e+18,-8.087860107,3.780560017,2.921015263
454,1.55965534566e+18,-8.842057228,3.768588543,3.038334846
455,1.55965534571e+18,-8.585869789,3.605777979,3.105374336
456,1.55965534576e+18,-10.19482231,4.087027073,2.044710636
457,1.55965534581e+18,-8.583475113,4.89629221,2.427794695
458,1.55965534587e+18,-7.630553722,5.090228081,2.341600657
459,1.55965534592e+18,-6.514821529,5.190787792,2.810878515
460,1.55965534597e+18,-7.793364525,4.676018715,2.628913641
461,1.55965534602e+18,-7.980117798,3.337619066,3.383110285
462,1.55965534607e+18,-8.327287674,-0.3759011328,2.571451187
463,1.55965534613e+18,-11.82292938,-3.902667999,2.707924843
464,1.55965534618e+18,-9.735121727,-4.352791786,2.794118643
465,1.55965534623e+18,-9.39274025,-4.692778587,3.177202702
466,1.55965534628e+18,-8.166871071,-2.595393896,2.743839025
467,1.55965534633e+18,-7.427040577,-1.606558442,3.320859194
468,1.55965534638e+18,-9.613013268,-2.578634024,4.522785187
469,1.55965534644e+18,-10.77423668,-3.974496126,-4.441379547
470,1.55965534649e+18,-16.14220047,-1.917814136,3.680000305
471,1.55965534654e+18,-7.072687626,-1.367130876,8.075888634
472,1.55965534659e+18,-10.21397591,-0.4357580245,6.919454098
473,1.55965534664e+18,-9.766246796,1.106154919,6.050332546
474,1.55965534669e+18,-5.24106741,3.481275558,5.475706577
475,1.55965534675e+18,-3.421418667,4.273780346,8.808537483
476,1.5596553468e+18,-3.744645834,4.355185986,7.161275864
477,1.55965534685e+18,-0.05506832153,4.036747456,8.707977295
478,1.5596553469e+18,1.051086664,4.359974384,7.752661705
479,1.55965534695e+18,3.993650436,4.661653042,6.239480019
480,1.55965534701e+18,5.085439682,4.400677204,5.614574432
481,1.55965534706e+18,5.98329258,4.35039711,5.55711174
482,1.55965534711e+18,6.105400562,3.572257996,5.324867249
483,1.55965534716e+18,5.102199554,3.680000305,4.630527496
484,1.55965534721e+18,5.971321583,2.90664959,5.09262228
485,1.55965534727e+18,6.287365437,3.553103924,4.699961662
486,1.55965534732e+18,5.219519138,2.408640385,5.039948463
487,1.55965534737e+18,5.430215359,2.736656189,5.06867981
488,1.55965534742e+18,4.972908974,1.941756845,5.360781193
489,1.55965534747e+18,6.44778204,1.661626697,6.033572674
490,1.55965534753e+18,7.40070343,1.470084786,6.62016964
491,1.55965534758e+18,7.881952763,1.86514008,7.968146324
492,1.55965534763e+18,9.031204224,1.644866824,10.08468533
493,1.55965534768e+18,11.61223316,2.794118643,10.83409309
494,1.55965534773e+18,13.74553204,3.0957973,11.90912247
495,1.55965534779e+18,22.68096542,5.62175703,13.60426903
496,1.55965534784e+18,35.56695175,12.90274715,4.422225475
497,1.55965534789e+18,29.69140244,11.23393726,-2.33441782
498,1.55965534794e+18,4.405465603,-10.9992981,19.82220078
499,1.55965534799e+18,-13.85806274,-44.17676544,9.895537376
500,1.55965534805e+18,-3.96731329,-15.60827732,-3.213116884
501,1.5596553481e+18,2.279349566,0.09816526622,-5.078257084
502,1.55965534815e+18,8.861210823,11.27224541,-5.719922543
503,1.5596553482e+18,6.469330311,6.091034889,0.05267404765
504,1.55965534825e+18,4.453351021,2.976083517,2.473285913
505,1.55965534831e+18,3.703943014,0.2825244367,4.472505569
506,1.55965534836e+18,4.446168423,1.266571403,5.439792156
507,1.55965534841e+18,5.707951069,0.2394274771,7.496474266
508,1.55965534846e+18,6.112583637,0.3447755575,7.889135361
509,1.55965534851e+18,5.178816319,0.4501236677,9.85483551
510,1.55965534857e+18,3.861965179,2.844398499,8.114197731
511,1.55965534862e+18,0.2513988614,1.836408734,13.77905178
512,1.55965534867e+18,-1.23065722,2.650462151,8.60741806
513,1.55965534872e+18,-10.6449461,1.386285067,3.960130453
514,1.55965534877e+18,-15.84291649,3.368744612,-1.470084786
515,1.55965534883e+18,-19.14941025,5.473312378,-1.161223292
516,1.55965534888e+18,-13.02485466,4.407859802,3.316070557
517,1.55965534893e+18,-9.505270958,2.305686712,4.850800991
518,1.55965534898e+18,-8.458972931,2.576239586,3.0957973
519,1.55965534903e+18,-10.937047,1.932179809,2.171607256
520,1.55965534909e+18,-11.28421688,0.4788549542,2.324840784
521,1.55965534914e+18,-8.832479477,1.158828974,2.985660791
522,1.55965534919e+18,-7.424646378,1.240234375,3.30888772
523,1.55965534924e+18,-6.718335152,2.0375278,2.973689318
524,1.55965534929e+18,-8.109408379,2.264983892,2.997632027
525,1.55965534935e+18,-11.47575951,3.102980137,7.0846591
526,1.5596553494e+18,-22.46069145,7.312115192,15.88361931
527,1.55965534945e+18,-15.77827072,5.45176363,11.65293503
528,1.5596553495e+18,-10.22115898,7.309720993,5.011217117
529,1.55965534955e+18,-7.881952763,2.870735407,-3.483669758
530,1.55965534961e+18,-3.586623669,1.015172482,-5.363175392
531,1.55965534966e+18,1.156434774,1.709512234,-0.277735889
532,1.55965534971e+18,1.642472506,0.6871568561,2.394274712
533,1.55965534976e+18,-2.801301479,3.375927448,2.56666255
534,1.55965534981e+18,-3.438178539,4.652075768,2.423006058
535,1.55965534987e+18,-4.280963421,3.802108288,4.199557781
536,1.55965534992e+18,-4.462928295,3.074248791,3.890696526
537,1.55965534997e+18,-4.32406044,2.109356165,2.494834423
538,1.55965535002e+18,-4.587430477,3.153259993,3.708731651
539,1.55965535007e+18,-4.45574522,7.316903591,3.502824068
540,1.55965535013e+18,-5.74386549,7.470137596,6.811711788
541,1.55965535018e+18,-11.32731438,7.218738556,6.296942711
542,1.55965535023e+18,-16.16374969,5.930618763,4.278569221
543,1.55965535028e+18,-16.14220047,3.447755814,3.189173937
544,1.55965535033e+18,-10.52523232,3.603383541,-0.3806896806
545,1.55965535039e+18,-10.35523891,0.8403904438,3.100585938
546,1.55965535044e+18,-10.1062336,-1.130097747,4.486870766
547,1.55965535049e+18,-7.980117798,-1.067846537,4.029564381
548,1.55965535054e+18,-5.083045483,0.3663240373,4.180403709
549,1.55965535059e+18,-5.949772835,1.127703428,3.404658794
550,1.55965535065e+18,-7.769421577,2.080624819,3.265790939
551,1.5596553507e+18,-10.88197899,1.771763325,3.897879362
552,1.55965535075e+18,-9.553156853,3.124528646,3.179596901
553,1.5596553508e+18,-8.746285439,2.645673752,3.790137053
554,1.55965535085e+18,-8.89951992,1.992036581,3.663240433
555,1.55965535091e+18,-8.195602417,2.025556564,3.864359617
556,1.55965535096e+18,-8.130957603,2.135693073,3.359167576
557,1.55965535101e+18,-6.12694931,2.011190891,2.791724443
558,1.55965535106e+18,-8.571503639,-0.9026415944,4.314483166
559,1.55965535111e+18,-9.445414543,-1.010383964,4.398283005
560,1.55965535117e+18,-10.40791225,0.1508393139,4.800520897
561,1.55965535122e+18,-7.206767082,1.343188167,6.998465061
562,1.55965535127e+18,-7.139727592,0.5554717779,6.356799603
563,1.55965535132e+18,-8.511647224,0.8547561169,5.480494976
564,1.55965535137e+18,-9.471751213,0.8092648983,3.948159218
565,1.55965535143e+18,-9.340065956,1.058269501,2.966506481
566,1.55965535148e+18,-8.861210823,0.8810931444,3.809291124
567,1.55965535153e+18,-7.642525196,1.03911531,4.632921696
568,1.55965535158e+18,-7.874769688,0.9696813226,5.427821159
569,1.55965535163e+18,-9.553156853,0.3854782581,5.604997158
570,1.55965535169e+18,-9.572310448,0.7158881426,5.24106741
571,1.55965535174e+18,-11.05436707,0.3088614643,4.199557781
572,1.55965535179e+18,-9.574705124,0.3471698463,4.252232075
573,1.55965535184e+18,-8.032792091,0.59378016,4.81488657
574,1.55965535189e+18,-7.113390446,0.06943397224,4.465322495
575,1.55965535195e+18,-6.680026531,-0.14844504,4.843617916
576,1.559655352e+18,-8.822902679,2.264983892,5.607391834
577,1.55965535205e+18,-9.586676598,3.239453793,3.962524891
578,1.5596553521e+18,-8.18602562,3.026363373,4.788549423
579,1.55965535215e+18,-7.110996246,0.7206767201,4.297723293
580,1.55965535221e+18,-6.124555111,-0.4333637357,3.392687321
581,1.55965535226e+18,-6.545947552,-2.157241583,4.173221111
582,1.55965535231e+18,-6.87156868,-2.315263748,2.382303476
583,1.55965535236e+18,-9.138946533,-5.928224564,-1.702329397
584,1.55965535241e+18,-15.51490116,-4.376734257,7.915472507
585,1.55965535247e+18,-10.04398251,1.024749637,7.853221416
586,1.55965535252e+18,-10.36960411,-0.5051919818,5.959350109
587,1.55965535257e+18,-8.717555046,-0.09098244458,6.160469055
588,1.55965535262e+18,-6.538764477,1.438959122,7.805335999
589,1.55965535267e+18,-6.569890022,2.849187136,5.98089838
590,1.55965535273e+18,-6.629746914,3.780560017,5.097411156
591,1.55965535278e+18,-4.60179615,3.311282158,6.828471661
592,1.55965535283e+18,-2.401457548,4.553910732,6.715940952
593,1.55965535288e+18,-0.3615354896,4.151672363,8.231516838
594,1.55965535293e+18,0.0574625954,3.979284763,8.976136208
595,1.55965535299e+18,-0.04549122229,5.317684174,4.42940855
596,1.55965535304e+18,3.442967176,4.637710094,9.227535248
597,1.55965535309e+18,3.847599506,4.43180275,5.897099018
598,1.55965535314e+18,4.134912491,4.419831276,9.052753448
599,1.55965535319e+18,2.171607256,5.236279011,4.211529255
600,1.55965535325e+18,7.242681503,4.589824677,7.565908432
601,1.5596553533e+18,3.869148016,4.699961662,10.45579815
602,1.55965535335e+18,6.050332546,2.956929445,9.172467232
603,1.5596553534e+18,5.140508175,3.20353961,7.903501034
604,1.55965535345e+18,5.305713177,2.456526041,6.488484859
605,1.55965535351e+18,4.783761024,1.879505754,6.375953674
606,1.55965535356e+18,5.511620522,2.26737833,4.307300568
607,1.55965535361e+18,5.360781193,1.9944309,3.895485163
608,1.55965535366e+18,5.607391834,2.384697676,5.004034519
609,1.55965535371e+18,5.276981831,2.827638626,4.494053841
610,1.55965535377e+18,6.462147713,2.746233225,6.052726746
611,1.55965535382e+18,7.494080067,3.335224867,6.033572674
612,1.55965535387e+18,7.527599812,3.634509087,7.568302631
613,1.55965535392e+18,9.478934288,4.307300568,8.554743767
614,1.55965535397e+18,11.47336483,5.348809719,10.22594738
615,1.55965535403e+18,15.37603283,5.791750908,12.24911022
616,1.55965535408e+18,25.86056137,9.739910126,12.24192715
617,1.55965535413e+18,36.87662125,20.28908539,3.397475958
618,1.55965535418e+18,24.31625557,0.4525179267,5.016005516
619,1.55965535423e+18,3.081431627,-9.613013268,8.913885117
620,1.55965535429e+18,-11.18605232,-31.72414207,7.798152924
621,1.55965535434e+18,-5.27937603,-11.73434067,-6.790163517
622,1.55965535439e+18,3.502824068,1.585009933,-5.437397957
623,1.55965535444e+18,7.419857502,8.612206459,-2.394274712
624,1.55965535449e+18,4.252232075,1.628106833,3.419024467
625,1.55965535455e+18,1.910631299,0.03591412306,4.436591148
626,1.5596553546e+18,2.080624819,-1.496421814,7.764633179
627,1.55965535465e+18,3.79492569,0.7254652381,8.595446587
628,1.5596553547e+18,6.842837334,4.048718929,9.313729286
629,1.55965535475e+18,8.58108139,6.016812801,9.086273193
630,1.55965535481e+18,7.9729352,6.229903221,12.25150394
631,1.55965535486e+18,4.00562191,3.672817469,11.14774323
632,1.55965535491e+18,-2.947352171,1.568249941,10.79339123
633,1.55965535496e+18,-12.88359261,0.03591412306,6.636929989
634,1.55965535501e+18,-10.79817963,3.131711483,6.069486618
635,1.55965535507e+18,-10.1014452,2.106961727,6.538764477
636,1.55965535512e+18,-8.209968567,2.384697676,7.321692467
637,1.55965535517e+18,-9.129369736,0.6249057055,6.689603806
638,1.55965535522e+18,-9.581888199,-0.44533512,6.366376877
639,1.55965535527e+18,-8.238699913,-0.3711125851,5.528380394
640,1.55965535533e+18,-7.106207848,-0.9050358534,5.988081455
641,1.55965535538e+18,-6.59143877,-0.241821751,4.872349262
642,1.55965535543e+18,-7.012830734,-0.5315290093,4.213923454
643,1.55965535548e+18,-7.158881664,0.2322446555,4.276175022
644,1.55965535553e+18,-7.125361919,0.7158881426,4.676018715
645,1.55965535559e+18,-8.46376133,1.213897347,4.889109135
646,1.55965535564e+18,-8.17165947,1.843591571,5.169239521
647,1.55965535569e+18,-9.328094482,3.045517445,5.02797699
648,1.55965535574e+18,-9.996097565,1.838803053,4.987274647
649,1.55965535579e+18,-8.921068192,2.432583094,4.067873001
650,1.55965535585e+18,-7.960963726,3.114951611,4.046324253
651,1.5596553559e+18,-10.28341007,2.497228622,3.629720688
652,1.55965535595e+18,-11.05676079,1.915419817,3.917033672
653,1.559655356e+18,-10.39833546,1.364736676,3.275367975
654,1.55965535605e+18,-8.387145042,2.195549965,2.621730804
655,1.55965535611e+18,-9.541185379,1.424593568,2.250618219
656,1.55965535616e+18,-9.694418907,1.084606528,2.013585091
657,1.55965535621e+18,-8.468549728,1.010383964,1.711906433
658,1.55965535626e+18,-8.121379852,1.055875182,1.783734679
659,1.55965535631e+18,-8.985713005,0.627300024,1.118126392
660,1.55965535637e+18,-8.818114281,0.6368771195,1.82443738
661,1.55965535642e+18,-8.260248184,1.288119793,2.712713242
662,1.55965535647e+18,-8.880365372,1.458113313,3.045517445
663,1.55965535652e+18,-9.885960579,2.109356165,2.018373728
664,1.55965535657e+18,-10.44622135,1.671203852,1.46290195
665,1.55965535663e+18,-9.323306084,1.429382086,1.857957244
666,1.55965535668e+18,-8.865999222,1.067846537,2.351177931
667,1.55965535673e+18,-9.323306084,1.209108829,2.451737404
668,1.55965535678e+18,-9.414288521,1.496421814,2.944957972
669,1.55965535683e+18,-9.64413929,2.071047783,2.755810261
670,1.55965535689e+18,-9.608224869,2.595393896,2.75820446
671,1.55965535694e+18,-8.504464149,3.055094719,2.56666255
672,1.55965535699e+18,-6.08624649,3.85957098,2.250618219
673,1.55965535704e+18,-9.720755577,0.9409499764,2.006402254
674,1.55965535709e+18,-9.194015503,1.680780888,1.975276709
675,1.55965535715e+18,-9.811738014,3.548315287,3.471698523
676,1.5596553572e+18,-8.571503639,4.199557781,3.22269392
677,1.55965535725e+18,-9.27063179,3.105374336,1.774157643
678,1.5596553573e+18,-9.500482559,-0.8212362528,0.5458946824
679,1.55965535735e+18,-11.79419804,-4.486870766,0.5650488734
680,1.55965535741e+18,-6.241874218,-2.561874151,5.267404556
681,1.55965535746e+18,-8.341653824,-1.747820616,1.932179809
682,1.55965535751e+18,-16.30501175,-7.855615616,-8.818114281
683,1.55965535756e+18,-8.06391716,7.697593689,-1.091789365
684,1.55965535761e+18,-5.679219723,1.446141958,5.195576191
685,1.55965535767e+18,-9.912297249,0.01915419847,5.315289974
686,1.55965535772e+18,-12.41192055,1.668809533,4.762212753
687,1.55965535777e+18,-9.735121727,2.351177931,6.9098773
688,1.55965535782e+18,-10.9753561,2.499622822,7.307326794
689,1.55965535787e+18,-7.340846539,3.246636629,6.967339516
690,1.55965535793e+18,-4.793338299,3.653663397,8.485309601
691,1.55965535798e+18,-3.998438835,4.479688168,5.578660488
692,1.55965535803e+18,-1.055875182,4.393494129,6.409473896
693,1.55965535808e+18,-0.5889915824,5.815693378,4.53475666
694,1.55965535813e+18,3.531555414,5.02797699,5.420638084
695,1.55965535819e+18,6.280182838,2.937775135,6.859597206
696,1.55965535824e+18,4.316877365,4.058295727,3.931399345
697,1.55965535829e+18,4.359974384,3.960130453,6.320885658
698,1.55965535834e+18,6.668055534,3.842811108,4.64249897
699,1.55965535839e+18,5.332049847,3.172414064,5.159662247
700,1.55965535845e+18,5.49007225,3.385504484,5.921041489
701,1.5596553585e+18,3.538738251,3.363956213,4.11336422
702,1.55965535855e+18,4.597007751,2.604970932,4.580247879
703,1.5596553586e+18,6.629746914,2.58581686,5.327261448
704,1.55965535865e+18,7.36239481,2.449343204,6.572284222
705,1.55965535871e+18,7.185218811,3.62732625,7.714353561
706,1.55965535876e+18,7.913078308,3.524372578,8.832479477
707,1.55965535881e+18,10.07510853,4.194769382,9.249083519
708,1.55965535886e+18,13.45582485,4.826858044,12.06235695
709,1.55965535891e+18,21.04567528,7.146910191,13.46540165
710,1.55965535897e+18,37.33632278,16.98498535,8.39672184
711,1.55965535902e+18,30.85262489,10.79339123,0.6919454336
712,1.55965535907e+18,4.781366825,-14.69366455,25.20213699
713,1.55965535912e+18,-9.512454033,-47.55029678,9.708784103
714,1.55965535917e+18,-10.01285744,-17.75354767,1.738243461
715,1.55965535923e+18,-1.065452337,-1.388679385,-5.054314137
716,1.55965535928e+18,2.810878515,3.75422287,-2.063864946
717,1.55965535933e+18,4.685595989,5.063891411,0.8930644989
718,1.55965535938e+18,2.552296877,3.189173937,3.383110285
719,1.55965535943e+18,4.063084126,1.031932473,6.150891781
720,1.55965535949e+18,6.232297421,0.6919454336,6.538764477
721,1.55965535954e+18,5.755836487,0.2154847383,9.313729286
722,1.55965535959e+18,6.718335152,2.346389294,10.1062336
723,1.55965535964e+18,4.939388752,4.13730669,12.30657291
724,1.55965535969e+18,2.655250788,3.735068798,9.821314812
725,1.55965535975e+18,-3.000026226,2.379909277,9.799766541
726,1.5596553598e+18,-11.43505669,1.544307232,2.973689318
727,1.55965535985e+18,-13.94904518,3.490852594,4.328848839
728,1.5596553599e+18,-10.66649437,4.192375183,5.588237286
729,1.55965535995e+18,-10.87719059,4.309694767,6.816500187
730,1.55965536001e+18,-11.66251278,2.729473352,4.620950222
731,1.55965536006e+18,-10.87240219,2.667222023,4.862771988
732,1.55965536011e+18,-10.43424988,1.087000728,4.304905891
733,1.55965536016e+18,-9.414288521,1.807677507,4.039141655
734,1.55965536021e+18,-8.705583572,1.752609134,3.366350412
735,1.55965536027e+18,-9.572310448,2.423006058,4.130124092
736,1.55965536032e+18,-7.86519289,2.535537004,3.047911882
737,1.55965536037e+18,-7.398309231,1.913025618,3.565075159
738,1.55965536042e+18,-6.739883423,2.889889717,3.543526649
739,1.55965536047e+18,-8.485309601,2.69355917,3.289733648
740,1.55965536053e+18,-10.9418354,1.740637779,3.050306082
741,1.55965536058e+18,-9.81413269,1.355159521,2.710319042
742,1.55965536063e+18,-7.82449007,1.252205729,2.983266354
743,1.55965536068e+18,-7.539571285,1.934574008,2.636096478
744,1.55965536073e+18,-9.296969414,1.568249941,2.741444588
745,1.55965536079e+18,-10.77902508,1.264177084,1.812466025
746,1.55965536084e+18,-9.476539612,1.415016413,2.114144564
747,1.55965536089e+18,-8.480521202,1.443747759,2.712713242
748,1.55965536094e+18,-8.765439987,1.371919513,2.578634024
749,1.55965536099e+18,-9.146129608,1.40065074,2.686376333
750,1.55965536105e+18,-9.057541847,1.527547359,2.164424419
751,1.5596553611e+18,-9.081484795,1.802888989,2.063864946
752,1.55965536115e+18,-9.399923325,1.628106833,1.826831698
753,1.5596553612e+18,-9.464568138,1.63289547,1.704723716
754,1.55965536125e+18,-9.440625191,1.240234375,1.939362645
755,1.55965536131e+18,-9.01923275,1.295302629,2.114144564
756,1.55965536136e+18,-9.069513321,1.316851139,2.071047783
757,1.55965536141e+18,-9.3783741,1.249811411,1.867534399
758,1.55965536146e+18,-9.399923325,1.383890867,1.687963724
759,1.55965536151e+18,-9.194015503,1.410227895,1.766974807
760,1.55965536157e+18,-9.507665634,1.161223292,1.652049661
761,1.55965536162e+18,-9.53639698,1.376708031,1.577827096
762,1.55965536167e+18,-9.505270958,1.283331275,1.395862222
763,1.55965536172e+18,-9.387951851,1.44135344,1.556278586
764,1.55965536177e+18,-9.397528648,1.319245458,1.403045058
765,1.55965536183e+18,-9.22992897,1.312062621,1.347976685
766,1.55965536188e+18,-9.366402626,1.134886265,1.374313712
767,1.55965536193e+18,-9.330489159,1.144463301,1.419804931
768,1.55965536198e+18,-9.512454033,1.08221221,1.371919513
769,1.55965536203e+18,-9.208380699,1.29290843,1.438959122
770,1.55965536209e+18,-9.22992897,1.256994247,1.558672905
771,1.55965536214e+18,-9.534002304,1.271359921,1.438959122
772,1.55965536219e+18,-9.459779739,1.340793848,1.472478986
773,1.55965536224e+18,-9.598648071,1.204320192,1.790917516
774,1.55965536229e+18,-9.569916725,1.067846537,2.090201855
775,1.55965536235e+18,-9.296969414,1.055875182,2.075836182
776,1.5596553624e+18,-9.191620827,1.048692346,2.164424419
777,1.55965536245e+18,-9.182044029,1.012778282,1.960911036
778,1.5596553625e+18,-9.306546211,0.928978622,1.752609134
779,1.55965536255e+18,-9.330489159,0.8715160489,1.757397652
780,1.55965536261e+18,-9.35203743,0.8691217303,1.733454943
781,1.55965536266e+18,-9.323306084,0.9050358534,1.747820616
782,1.55965536271e+18,-9.129369736,1.089395046,1.707117915
783,1.55965536276e+18,-9.134158134,1.115732074,1.889082789
784,1.55965536281e+18,-9.385557175,1.103760719,1.728666425
785,1.55965536287e+18,-9.601041794,0.964892745,1.707117915
786,1.55965536292e+18,-9.699207306,1.029538155,1.771763325
787,1.55965536297e+18,-9.553156853,1.089395046,1.838803053
788,1.55965536302e+18,-9.22992897,1.118126392,1.893871427
789,1.55965536307e+18,-9.220352173,1.218685865,1.836408734
790,1.55965536313e+18,-9.450202942,1.189954638,1.613741279
791,1.55965536318e+18,-9.507665634,1.189954638,1.697540879
792,1.55965536323e+18,-9.538790703,1.194743156,1.932179809
793,1.55965536328e+18,-8.961771011,1.508393168,1.90823698
794,1.55965536333e+18,-9.088666916,1.326428294,1.953728199
795,1.55965536339e+18,-9.356825829,0.8595446348,1.810071707
796,1.55965536344e+18,-9.196409225,0.8786988258,1.812466025
797,1.55965536349e+18,-8.990502357,0.8212362528,1.743032098
798,1.55965536354e+18,-9.122186661,0.8763045669,1.860351562
799,1.55965536359e+18,-9.359220505,1.012778282,1.903448462
800,1.55965536365e+18,-9.450202942,1.098972082,1.812466025
801,1.5596553637e+18,-9.529213905,1.043903828,1.771763325
802,1.55965536375e+18,-9.531607628,0.8786988258,1.738243461
803,1.5596553638e+18,-9.407105446,0.7134938836,1.776551962
804,1.55965536385e+18,-9.182044029,0.5171633363,1.898659945
805,1.5596553639e+18,-8.351230621,0.4046324492,2.1213274
806,1.55965536396e+18,-9.232323647,0.7757450342,1.891477108
807,1.55965536401e+18,-10.95380688,0.4070267081,1.529941559
808,1.55965536406e+18,-10.90113354,0.1508393139,1.498816013
809,1.55965536411e+18,-8.557138443,0.3232271075,1.704723716
810,1.55965536416e+18,-7.292961121,0.6991282701,1.489238977
811,1.55965536422e+18,-8.636149406,-0.1125309169,2.171607256
812,1.55965536427e+18,-10.17806244,-0.1053480953,2.549902678
813,1.55965536432e+18,-10.20200539,0.627300024,3.093403101
814,1.55965536437e+18,-10.02004051,1.146857619,3.37113905
815,1.55965536442e+18,-8.662486076,0.9409499764,3.383110285
816,1.55965536448e+18,-8.181237221,0.5698373914,3.665634632
817,1.55965536453e+18,-7.958569527,0.5746259689,4.228289127
818,1.55965536458e+18,-8.169265747,0.4740664065,4.319271564
819,1.55965536463e+18,-7.881952763,0.4094209969,4.199557781
820,1.55965536468e+18,-8.224333763,0.4405465722,4.053507328
821,1.55965536474e+18,-8.549955368,0.3232271075,4.245049
822,1.55965536479e+18,-8.497281075,0.1460507661,3.972101927
823,1.55965536484e+18,-8.241093636,0.2944957912,3.94576478
824,1.55965536489e+18,-8.842057228,-0.4429408312,3.845205307
825,1.55965536494e+18,-8.58108139,-0.7063110471,3.665634632
826,1.559655365e+18,-9.344854355,-1.371919513,3.311282158
827,1.55965536505e+18,-9.246688843,-1.529941559,3.280156374
828,1.5596553651e+18,-8.765439987,-1.697540879,3.258608103
829,1.55965536515e+18,-9.000079155,-2.075836182,3.249030828
830,1.5596553652e+18,-9.41907692,-2.238646984,3.407052994
831,1.55965536526e+18,-9.22992897,-2.217098475,3.725491524
832,1.55965536531e+18,-8.940221786,-2.063864946,3.677606106
833,1.55965536536e+18,-8.945011139,-2.063864946,3.651269197
834,1.55965536541e+18,-8.827691078,-1.9944309,3.727885962
835,1.55965536546e+18,-8.921068192,-1.999219418,3.675211906
836,1.55965536552e+18,-8.786988258,-1.963305354,3.756617069
837,1.55965536557e+18,-8.403904915,-1.86514008,3.998438835
838,1.55965536562e+18,-8.827691078,-2.051893473,3.586623669
839,1.55965536567e+18,-8.877970695,-2.097384691,3.553103924
840,1.55965536572e+18,-8.379961967,-1.948939681,3.533949614
841,1.55965536578e+18,-7.714353561,-1.776551962,3.34959054
842,1.55965536583e+18,-8.111803055,-1.623318315,3.569863796
843,1.55965536588e+18,-8.506858826,-1.347976685,3.888302326
844,1.55965536593e+18,-9.079090118,-1.307274103,4.304905891
845,1.55965536598e+18,-9.086273193,-0.8116591573,3.768588543
846,1.55965536604e+18,-9.608224869,-0.5051919818,3.220299721
847,1.55965536609e+18,-9.435836792,-0.8044763207,3.407052994
848,1.55965536614e+18,-8.636149406,-1.007989645,3.533949614
849,1.55965536619e+18,-8.447001457,-0.9337671995,3.062277555
850,1.55965536624e+18,-8.511647224,-1.115732074,3.004814863
851,1.5596553663e+18,-8.549955368,-1.012778282,3.313676357
852,1.55965536635e+18,-9.234718323,-0.7757450342,3.620143414
853,1.5596553664e+18,-9.577098846,-0.6009629965,3.749434233
854,1.55965536645e+18,-9.07430172,-0.04070267081,4.43180275
855,1.5596553665e+18,-8.995290756,0.1532335877,4.620950222
856,1.55965536656e+18,-8.791776657,0.648848474,4.716721535
857,1.55965536661e+18,-8.880365372,0.9146129489,4.45574522
858,1.55965536666e+18,-9.383162498,0.2250618339,3.814079762
859,1.55965536671e+18,-9.938634872,-0.6656084061,3.428601503
860,1.55965536676e+18,-8.643332481,-1.151646137,3.950553417
861,1.55965536682e+18,-7.937020779,-0.3711125851,3.651269197
862,1.55965536687e+18,-7.556331158,-0.1388679445,3.62732625
863,1.55965536692e+18,-6.988888264,0.5578660369,4.652075768
864,1.55965536697e+18,-7.319298267,0.6440598965,5.030371189
865,1.55965536702e+18,-10.16848469,-2.657644987,3.680000305
866,1.55965536708e+18,-9.083878517,-2.540325642,3.866753817
867,1.55965536713e+18,-8.619389534,-1.333611012,3.249030828
868,1.55965536718e+18,-8.166871071,-0.5818088055,4.525179386
869,1.55965536723e+18,-8.470944405,-0.03351984918,4.103786945
870,1.55965536728e+18,-8.789382935,0.6201171875,4.968120098
871,1.55965536734e+18,-9.136552811,1.201925993,4.788549423
872,1.55965536739e+18,-9.342460632,0.4716721475,4.486870766
873,1.55965536744e+18,-8.729525566,0.1963305324,4.419831276
874,1.55965536749e+18,-7.67843914,-1.096577883,5.633728504
875,1.55965536754e+18,-7.446194649,-2.688770533,5.854001999
876,1.5596553676e+18,-7.218738556,-0.7685621977,5.159662247
877,1.55965536765e+18,-8.324893951,-0.277735889,0.332804203
878,1.5596553677e+18,-11.56434727,-1.747820616,-3.775771379
879,1.55965536775e+18,-11.22914886,-0.5506832004,4.225894928
880,1.5596553678e+18,-6.761432171,-0.4884320498,9.88117218
881,1.55965536786e+18,-9.088666916,0.8260248303,7.733507633
882,1.55965536791e+18,-6.325674057,0.335198462,8.066311836
883,1.55965536796e+18,-7.676044941,1.673598051,6.924242973
884,1.55965536801e+18,-7.115784645,1.984853864,8.025609016
885,1.55965536806e+18,-6.419050694,2.451737404,8.78219986
886,1.55965536812e+18,-5.212336063,3.835628271,7.776604652
887,1.55965536817e+18,-2.741444588,4.209135056,7.008042336
888,1.55965536822e+18,-1.16601181,4.427014351,6.107795238
889,1.55965536827e+18,1.817254543,4.352791786,4.817280769
890,1.55965536832e+18,5.126142502,4.450956821,6.481301785
891,1.55965536838e+18,4.022381783,2.765387297,6.431022167
892,1.55965536843e+18,9.031204224,3.768588543,7.0846591
893,1.55965536848e+18,6.141314983,2.827638626,6.873962879
894,1.55965536853e+18,6.366376877,3.256213665,7.834067345
895,1.55965536858e+18,6.249057293,2.822849989,5.952167034
896,1.55965536864e+18,6.344828129,1.879505754,4.846012115
897,1.55965536869e+18,6.313702583,1.728666425,5.38472414
898,1.55965536874e+18,4.427014351,4.027170181,3.799714088
899,1.55965536879e+18,5.253038883,1.369525194,4.606584549
900,1.55965536884e+18,5.549929142,1.268965602,4.836435318
901,1.5596553689e+18,6.651295185,1.295302629,4.21871233
902,1.55965536895e+18,6.40707922,2.396669149,6.330462456
903,1.559655369e+18,7.266623974,2.499622822,6.653689861
904,1.55965536905e+18,9.356825829,2.01597929,8.28897953
905,1.5596553691e+18,10.70001411,2.813272953,9.445414543
906,1.55965536916e+18,13.31695652,2.710319042,10.82212257
907,1.55965536921e+18,14.154953,4.008016109,11.00408745
908,1.55965536926e+18,28.25723076,5.657671452,12.47177792
909,1.55965536931e+18,36.66113663,18.44788742,1.503604531
910,1.55965536936e+18,24.67539597,7.838855743,-1.48445034
911,1.55965536942e+18,5.940196037,-9.816526413,20.23641014
912,1.55965536947e+18,-17.78467369,-41.18392181,13.90594769
913,1.55965536952e+18,-8.176448822,-13.8341198,-5.147690773
914,1.55965536957e+18,2.427794695,-0.02633702382,-3.299310684
915,1.55965536962e+18,7.213950157,4.249837875,-0.8834874034
916,1.55965536968e+18,7.460560322,2.039922237,3.134105682
917,1.55965536973e+18,6.500456333,3.991255999,2.420611858
918,1.55965536978e+18,7.127756119,1.891477108,6.009629726
919,1.55965536983e+18,9.660899162,3.22508812,6.857203007
920,1.55965536988e+18,9.387951851,2.717501879,8.514040947
921,1.55965536994e+18,8.655303001,2.705530643,7.237892628
922,1.55965536999e+18,5.243461609,3.459727049,9.320911407
923,1.55965537004e+18,1.517970204,1.968093872,10.95859623
924,1.55965537009e+18,-2.255406857,1.850774407,7.532388687
925,1.55965537014e+18,-11.542799,-0.5674431324,8.346442223
926,1.5596553702e+18,-8.597841263,4.312088966,5.334444046
927,1.55965537025e+18,-11.46378803,3.167625666,7.211555958
928,1.5596553703e+18,-12.33051491,2.051893473,7.836461544
929,1.55965537035e+18,-8.504464149,1.350371003,7.951386452
930,1.5596553704e+18,-8.164477348,0.59378016,7.01761961
931,1.55965537046e+18,-6.672843933,0.483643502,4.752635479
932,1.55965537051e+18,-5.899493217,1.388679385,4.740664005
933,1.55965537056e+18,-6.744672298,1.254600048,4.822069645
934,1.55965537061e+18,-7.405491829,2.633702278,5.415849686
935,1.55965537066e+18,-7.822095871,2.272166729,4.711932659
936,1.55965537072e+18,-7.628159523,4.084632874,4.989668846
937,1.55965537077e+18,-7.513234138,3.828445435,5.801327705
938,1.55965537082e+18,-8.403904915,4.738269806,5.674431324
939,1.55965537087e+18,-8.346442223,4.39109993,5.063891411
940,1.55965537092e+18,-7.886741161,3.52197814,5.006428719
941,1.55965537098e+18,-7.146910191,3.632114887,4.714327335
942,1.55965537103e+18,-8.202785492,3.11734581,4.058295727
943,1.55965537108e+18,-7.702382088,3.141288519,4.21871233
944,1.55965537113e+18,-8.025609016,3.189173937,3.950553417
945,1.55965537118e+18,-8.851634026,2.796513081,3.387898922
946,1.55965537124e+18,-9.012050629,2.379909277,3.268185139
947,1.55965537129e+18,-8.166871071,2.159635782,3.22508812
948,1.55965537134e+18,-8.202785492,2.219492674,3.198751211
949,1.55965537139e+18,-8.480521202,2.150058746,3.067065954
950,1.55965537144e+18,-8.401510239,2.212309837,3.155654192
951,1.5596553715e+18,-8.526012421,2.58581686,3.150865555
952,1.55965537155e+18,-9.083878517,2.786935806,3.392687321
953,1.5596553716e+18,-9.287391663,2.909043789,3.416630268
954,1.55965537165e+18,-9.375980377,2.923409462,3.510006905
955,1.5596553717e+18,-8.827691078,3.802108288,4.194769382
956,1.55965537176e+18,-7.324086666,4.161249638,4.53715086
957,1.55965537181e+18,-7.067899227,3.830839634,4.259414673
958,1.55965537186e+18,-7.036773682,2.880312681,3.292127848
959,1.55965537191e+18,-6.883540154,1.766974807,4.036747456
960,1.55965537196e+18,-5.039948463,1.015172482,6.038361073
961,1.55965537202e+18,-12.15573311,-1.254600048,-0.2442160249
962,1.55965537207e+18,-14.36804295,1.333611012,-3.162837029
963,1.55965537212e+18,-10.28580475,0.907430172,0.8739103079
964,1.55965537217e+18,-8.006455421,1.235445857,3.272973776
965,1.55965537222e+18,-8.399115562,0.7996878028,2.48046875
966,1.55965537228e+18,-8.571503639,0.591385901,2.047105074
967,1.55965537233e+18,-9.028810501,0.4716721475,1.309668303
968,1.55965537238e+18,-8.772623062,1.051086664,2.102173328
969,1.55965537243e+18,-8.616994858,1.450930476,2.806090117
970,1.55965537248e+18,-9.581888199,1.88668859,2.576239586
971,1.55965537254e+18,-9.471751213,1.802888989,3.663240433
972,1.55965537259e+18,-9.3783741,1.97288239,3.718308687
973,1.55965537264e+18,-9.615407944,1.845985889,3.402264595
974,1.55965537269e+18,-9.064723969,1.685569525,3.332830429
975,1.55965537274e+18,-8.947404861,1.71908927,3.167625666
976,1.5596553728e+18,-8.79656601,1.54670155,2.853975534
977,1.55965537285e+18,-8.731920242,2.008796453,3.591412306
978,1.5596553729e+18,-9.780612946,3.421418667,3.043123245
979,1.55965537295e+18,-8.317710876,3.153259993,3.785348415
980,1.559655373e+18,-8.01124382,2.358360767,2.983266354
981,1.55965537306e+18,-7.142121792,0.02633702382,1.596981287
982,1.55965537311e+18,-7.889135361,-4.233078003,3.354378939
983,1.55965537316e+18,-7.14930439,-3.96731329,3.550709486
984,1.55965537321e+18,-8.849239349,-2.722290516,2.425400496
985,1.55965537326e+18,-7.269018173,-4.082238674,4.465322495
986,1.55965537332e+18,-14.20044422,-3.210722446,1.321639657
987,1.55965537337e+18,-9.086273193,-0.8332076073,1.879505754
988,1.55965537342e+18,-8.980924606,-4.556304932,2.159635782
989,1.55965537347e+18,-10.06313705,-3.210722446,3.390293121
990,1.55965537352e+18,-9.615407944,-1.12291491,2.475680113
991,1.55965537358e+18,-9.435836792,1.192348838,4.395888329
992,1.55965537363e+18,-9.69681263,4.544333458,5.209941864
993,1.55965537368e+18,-8.533195496,6.778192043,4.527573586
994,1.55965537373e+18,-7.807730198,7.419857502,5.758230686
995,1.55965537378e+18,-7.276201248,5.901887417,4.008016109
996,1.55965537384e+18,-7.666468143,5.545140266,3.955342054
997,1.55965537389e+18,-7.034379482,4.925023079,4.498842239
998,1.55965537394e+18,-7.812518597,4.374340057,4.848406315
999,1.55965537399e+18,-6.203566074,4.982485771,6.232297421
1000,1.55965537404e+18,-6.186806202,4.130124092,5.564294815
1001,1.5596553741e+18,-6.150891781,5.154873848,6.584255695
1002,1.55965537415e+18,-4.424619675,5.355992794,6.792557716
1003,1.5596553742e+18,-3.897879362,3.747040033,5.051919937
1004,1.55965537425e+18,-1.249811411,4.407859802,6.107795238
1005,1.5596553743e+18,0.8499675393,4.254626274,6.514821529
1006,1.55965537436e+18,1.381496549,2.901860952,8.693612099
1007,1.55965537441e+18,4.221106529,2.446948767,8.863605499
1008,1.55965537446e+18,2.245829821,4.173221111,5.894704342
1009,1.55965537451e+18,5.98089838,4.292934895,6.026389599
1010,1.55965537456e+18,6.517216206,3.687183142,6.883540154
1011,1.55965537462e+18,7.472531796,3.907456398,8.877970695
1012,1.55965537467e+18,5.511620522,3.581835032,6.680026531
1013,1.55965537472e+18,5.312895775,2.58581686,6.840443134
1014,1.55965537477e+18,5.868367672,3.040729046,6.205960274
1015,1.55965537482e+18,6.818894863,3.241847992,6.785374641
1016,1.55965537488e+18,5.655277252,2.842004299,4.66883564
1017,1.55965537493e+18,6.045543671,2.909043789,5.729499817
1018,1.55965537498e+18,5.202759266,1.932179809,4.271386147
1019,1.55965537503e+18,4.81488657,1.223474383,4.817280769
1020,1.55965537508e+18,5.485283375,1.383890867,5.255433083
1021,1.55965537514e+18,7.980117798,1.733454943,5.564294815
1022,1.55965537519e+18,7.319298267,1.898659945,7.051139355
1023,1.55965537524e+18,8.552350044,2.231464148,7.300143719
1024,1.55965537529e+18,9.747093201,2.557085514,8.595446587
1025,1.55965537534e+18,13.58511543,2.56666255,9.761458397
1026,1.5596553754e+18,16.28825188,3.569863796,10.06792545
1027,1.55965537545e+18,36.115242,10.29777622,10.06553173
1028,1.5596553755e+18,36.10087585,18.21324921,-8.557138443
1029,1.55965537555e+18,15.31378174,-0.5291347504,-0.7685621977
1030,1.5596553756e+18,4.635315895,-14.14776993,-1.280937076
1031,1.55965537566e+18,-9.205986977,-42.50077057,11.21957207
1032,1.55965537571e+18,-12.57473087,-7.206767082,-10.9753561
1033,1.55965537576e+18,7.901106834,1.891477108,-4.625739098
1034,1.55965537581e+18,12.50769138,14.03045082,0.7541965842
1035,1.55965537586e+18,4.45574522,5.545140266,1.237840056
1036,1.55965537592e+18,0.1412622184,0.5339232683,1.395862222
1037,1.55965537597e+18,-1.819648862,-2.928198099,3.94576478
1038,1.55965537602e+18,-1.312062621,-6.378347874,4.422225475
1039,1.55965537607e+18,-1.371919513,-10.26425648,8.67445755
1040,1.55965537612e+18,-1.127703428,-13.70961761,12.227561
1041,1.55965537618e+18,-2.420611858,-11.17647457,15.10548019
1042,1.55965537623e+18,-3.428601503,-8.32968235,15.03604603
1043,1.55965537628e+18,-7.273807049,-6.38074255,11.36083412
1044,1.55965537633e+18,-18.82378769,-7.716747761,-3.790137053
1045,1.55965537638e+18,-19.22363281,-2.444554567,-9.435836792
1046,1.55965537644e+18,-21.17975426,0.9337671995,-6.76622057
1047,1.55965537649e+18,-13.32174492,3.852388144,-0.8164477348
1048,1.55965537654e+18,-7.829278469,1.015172482,2.554691315
1049,1.55965537659e+18,-9.914691925,-4.012804508,3.419024467
1050,1.55965537664e+18,-10.20439911,-6.952973843,1.766974807
1051,1.5596553767e+18,-10.05834866,-7.33605814,0.3399870098
1052,1.55965537675e+18,-9.047964096,-8.109408379,0.1699935049
1053,1.5596553768e+18,-6.251451492,-6.454965115,1.656838179
1054,1.55965537685e+18,-4.659258842,-4.448562622,2.296109438
1055,1.5596553769e+18,-5.944984436,-2.530748367,1.709512234
1056,1.55965537696e+18,-7.46774292,-1.733454943,2.18357873
1057,1.55965537701e+18,-8.961771011,-0.5004034638,2.810878515
1058,1.55965537706e+18,-9.830892563,-0.3040728867,3.296916485
1059,1.55965537711e+18,-9.893143654,0.3064671755,3.110162973
1060,1.55965537716e+18,-10.40312386,1.563461423,3.383110285
1061,1.55965537722e+18,-12.60825157,1.127703428,2.394274712
1062,1.55965537727e+18,-11.25069714,0.8858816624,2.406246185
1063,1.55965537732e+18,-8.901913643,0.3974496126,2.875524044
1064,1.55965537737e+18,-7.968146324,1.005595446,2.851581335
1065,1.55965537742e+18,-11.12858963,0.08140534163,1.661626697
1066,1.55965537748e+18,-12.45022869,-0.07901106775,1.034326673
1067,1.55965537753e+18,-10.11341667,-0.5291347504,2.118933201
1068,1.55965537758e+18,-8.092648506,-0.4213923812,2.552296877
1069,1.55965537763e+18,-7.194795609,0.29689008,3.119740009
1070,1.55965537768e+18,-9.00726223,-0.06464541703,2.394274712
1071,1.55965537774e+18,-8.640937805,0.2873129845,2.332023621
1072,1.55965537779e+18,-8.628966331,-0.1652049571,3.249030828
1073,1.55965537784e+18,-8.705583572,-0.7948992252,3.390293121
1074,1.55965537789e+18,-7.527599812,-0.4980091453,3.684788942
1075,1.55965537794e+18,-7.822095871,-0.1987248063,4.022381783
1076,1.559655378e+18,-8.444606781,-0.01436564885,3.735068798
1077,1.55965537805e+18,-9.258660316,-0.4477293789,4.211529255
1078,1.5596553781e+18,-9.668081284,-0.4309694767,5.06867981
1079,1.55965537815e+18,-9.687235832,-0.2921015322,4.280963421
1080,1.5596553782e+18,-8.490098,0.09577099234,3.77337718
1081,1.55965537826e+18,-7.917866707,0.2849186957,3.466909885
1082,1.55965537831e+18,-8.303344727,-0.01675992459,3.411841631
1083,1.55965537836e+18,-9.105426788,-0.06943397224,3.404658794
1084,1.55965537841e+18,-9.150918007,0.05506832153,3.359167576
1085,1.55965537846e+18,-8.444606781,0.1077423692,3.316070557
1086,1.55965537852e+18,-8.485309601,-0.1005595401,2.954535007
1087,1.55965537857e+18,-6.847625732,0.01915419847,2.621730804
1088,1.55965537862e+18,-9.21795845,-1.580221415,3.102980137
1089,1.55965537867e+18,-7.106207848,-0.7901107073,3.0981915
1090,1.55965537872e+18,-4.941783428,-1.127703428,3.205934048
1091,1.55965537878e+18,-2.961717844,-1.144463301,2.595393896
1092,1.55965537883e+18,-2.365543604,-3.035940409,1.810071707
1093,1.55965537888e+18,-7.29535532,-9.615407944,1.596981287
1094,1.55965537893e+18,-9.050358772,-13.56117249,3.249030828
1095,1.55965537898e+18,-7.33366394,-13.86045647,4.764606953
1096,1.55965537904e+18,-4.53475666,-12.10305882,4.834040642
1097,1.55965537909e+18,-2.573845387,-9.976943016,3.778165579
1098,1.55965537914e+18,-3.409447432,-8.387145042,2.930592299
1099,1.55965537919e+18,-5.059102535,-7.877163887,1.37910223
1100,1.55965537924e+18,-5.940196037,-8.291373253,1.242628574
1101,1.5596553793e+18,-5.418243885,-8.669669151,1.726272106
1102,1.55965537935e+18,-4.757423878,-8.707977295,1.834014535
1103,1.5596553794e+18,-4.635315895,-8.78219986,1.881899953
1104,1.55965537945e+18,-4.637710094,-8.576292038,1.678386688
1105,1.5596553795e+18,-5.118959427,-9.129369736,2.126116037
1106,1.55965537956e+18,-4.685595989,-9.110215187,2.327235222
1107,1.55965537961e+18,-4.189980984,-8.669669151,2.82045579
1108,1.55965537966e+18,-4.259414673,-7.692804813,2.463708878
1109,1.55965537971e+18,-4.338426113,-7.2546525,1.9944309
1110,1.55965537976e+18,-4.084632874,-7.415069103,2.152452946
1111,1.55965537981e+18,-3.687183142,-7.968146324,2.478074312
1112,1.55965537987e+18,-3.481275558,-8.583475113,3.000026226
1113,1.55965537992e+18,-3.196356773,-9.105426788,3.684788942
1114,1.55965537997e+18,-3.172414064,-9.095849991,3.708731651
1115,1.55965538002e+18,-3.447755814,-8.514040947,3.181991339
1116,1.55965538007e+18,-4.00562191,-8.516435623,2.703136206
1117,1.55965538013e+18,-4.721509933,-8.636149406,2.413429022
1118,1.55965538018e+18,-5.250644684,-8.533195496,1.884294271
1119,1.55965538023e+18,-5.954561234,-8.518829346,1.915419817
1120,1.55965538028e+18,-6.138920784,-8.466156006,2.032739401
1121,1.55965538033e+18,-5.767807961,-8.05194664,2.233858347
1122,1.55965538039e+18,-5.98089838,-7.680833817,2.174001455
1123,1.55965538044e+18,-6.30173111,-7.465348721,1.869928598
1124,1.55965538049e+18,-6.557918549,-7.266623974,1.836408734
1125,1.55965538054e+18,-6.866780281,-7.185218811,1.843591571
1126,1.55965538059e+18,-7.321692467,-7.182824612,1.82204318
1127,1.55965538065e+18,-7.314509392,-6.93860817,2.001613855
1128,1.5596553807e+18,-7.328875065,-6.435810566,1.992036581
1129,1.55965538075e+18,-7.33605814,-5.997658253,2.176395893
1130,1.5596553808e+18,-7.22831583,-5.626545906,2.26737833
1131,1.55965538085e+18,-7.355212212,-5.27937603,2.343995094
1132,1.55965538091e+18,-7.496474266,-4.893897533,2.293715239
1133,1.55965538096e+18,-7.36000061,-4.302511692,2.181184292
1134,1.55965538101e+18,-7.589851379,-3.974496126,1.915419817
1135,1.55965538106e+18,-7.683228016,-3.735068798,1.905842781
1136,1.55965538111e+18,-8.18602562,-3.766194344,1.750214934
1137,1.55965538117e+18,-8.253065109,-3.634509087,1.826831698
1138,1.55965538122e+18,-8.652909279,-3.699154615,1.88668859
1139,1.55965538127e+18,-8.897125244,-3.545921087,2.039922237
1140,1.55965538132e+18,-9.356825829,-3.519583941,2.221887112
1141,1.55965538137e+18,-9.320911407,-3.021574736,2.075836182
1142,1.55965538143e+18,-9.225140572,-2.949746609,2.291321039
1143,1.55965538148e+18,-8.980924606,-2.870735407,2.099778891
1144,1.55965538153e+18,-8.619389534,-2.913832426,1.625712633
1145,1.55965538158e+18,-8.255459785,-2.940169573,1.438959122
1146,1.55965538163e+18,-9.469356537,-3.428601503,2.710319042
1147,1.55965538169e+18,-11.31294823,-2.411034822,2.332023621
1148,1.55965538174e+18,-11.51406765,-0.2633702159,1.628106833
1149,1.55965538179e+18,-12.08869362,-0.2083019018,1.221080184
1150,1.55965538184e+18,-11.22436047,0.007182824425,0.2130904645
1151,1.55965538189e+18,-8.830085754,-0.2346389294,1.261782765
1152,1.55965538195e+18,-7.218738556,0.2059076279,1.975276709
1153,1.559655382e+18,-9.35203743,-0.1149251908,1.88668859
1154,1.55965538205e+18,-8.1453228,0.3567469418,4.264203548
1155,1.5596553821e+18,-8.988107681,1.256994247,4.395888329
1156,1.55965538215e+18,-8.207573891,1.158828974,5.588237286
1157,1.55965538221e+18,-7.115784645,1.213897347,4.182797909
1158,1.55965538226e+18,-8.039975166,0.5339232683,2.0351336
1159,1.55965538231e+18,-8.075888634,-0.924190104,1.438959122
1160,1.55965538236e+18,-8.363202095,-2.059076309,0.5770202279
1161,1.55965538241e+18,-8.375173569,-2.631308079,2.612153769
1162,1.55965538247e+18,-8.17165947,-0.4405465722,3.996044636
1163,1.55965538252e+18,-8.863605499,-0.2466102988,3.857176781
1164,1.55965538257e+18,-9.771035194,-1.003201127,3.653663397
1165,1.55965538262e+18,-8.35601902,-0.3375927508,5.470917702
1166,1.55965538267e+18,-8.868393898,0.1580221355,1.790917516
1167,1.55965538273e+18,-10.25946712,-0.5075862408,1.71669507
1168,1.55965538278e+18,-13.01288319,-3.253819466,-2.171607256
1169,1.55965538283e+18,-8.557138443,1.103760719,4.66883564
1170,1.55965538288e+18,-6.636929989,-1.776551962,6.924242973
1171,1.55965538293e+18,-12.36642933,0.8164477348,4.352791786
1172,1.55965538299e+18,-8.351230621,0.3854782581,7.33366394
1173,1.55965538304e+18,-8.447001457,2.245829821,6.232297421
1174,1.55965538309e+18,-6.86917448,2.631308079,6.545947552
1175,1.55965538314e+18,-5.542746067,1.618529797,6.522004604
1176,1.55965538319e+18,-5.248250484,1.975276709,8.265036583
1177,1.55965538325e+18,-4.587430477,1.901054144,7.958569527
1178,1.5596553833e+18,-4.010410309,1.879505754,8.542772293
1179,1.55965538335e+18,-2.727078915,2.976083517,6.268211365
1180,1.5596553834e+18,0.7254652381,3.316070557,9.294574738
1181,1.55965538345e+18,1.029538155,4.252232075,8.956981659
1182,1.55965538351e+18,3.026363373,4.666441441,6.799740314
1183,1.55965538356e+18,5.229096413,4.118152618,8.418270111
1184,1.55965538361e+18,4.513207912,4.13730669,8.657697678
1185,1.55965538366e+18,5.612180233,2.825244188,8.039975166
1186,1.55965538371e+18,5.126142502,3.126922846,6.684815407
1187,1.55965538377e+18,5.537957668,2.99044919,6.423839092
1188,1.55965538382e+18,6.517216206,3.114951611,6.459753513
1189,1.55965538387e+18,5.056708336,3.0096035,4.266597748
1190,1.55965538392e+18,5.760625362,1.359948039,4.307300568
1191,1.55965538397e+18,5.013611317,2.054287672,3.888302326
1192,1.55965538403e+18,5.652883053,1.934574008,4.822069645
1193,1.55965538408e+18,6.522004604,1.644866824,5.200365067
1194,1.55965538413e+18,5.796539307,1.393467903,5.528380394
1195,1.55965538418e+18,6.524398804,1.606558442,5.772596359
1196,1.55965538423e+18,7.106207848,1.659232497,6.689603806
1197,1.55965538429e+18,8.353624344,1.374313712,6.897905827
1198,1.55965538434e+18,8.389538765,0.9002473354,8.746285439
1199,1.55965538439e+18,11.49730778,1.901054144,9.512454033
1200,1.55965538444e+18,13.58511543,2.025556564,11.19802284
1201,1.55965538449e+18,19.67375565,3.543526649,14.25551224
1202,1.55965538455e+18,37.76010895,10.53480911,13.25709915
1203,1.5596553846e+18,37.46800613,15.17730808,-2.159635782
1204,1.55965538465e+18,16.13262367,-7.075081825,-3.553103924
1205,1.5596553847e+18,8.870788574,-42.29246902,7.599428177
1206,1.55965538475e+18,-16.46063995,-19.92515564,-7.46774292
1207,1.55965538481e+18,-3.830839634,-10.92028713,-5.514014721
1208,1.55965538486e+18,8.197997093,0.5291347504,-3.33043623
1209,1.55965538491e+18,12.28262997,5.523591995,-1.800494671
1210,1.55965538496e+18,5.157268047,1.177983165,-1.374313712
1211,1.55965538501e+18,5.162056446,0.8212362528,2.741444588
1212,1.55965538507e+18,6.014418125,-0.2825244367,6.409473896
1213,1.55965538512e+18,9.277814865,0.8356019258,11.75110054
1214,1.55965538517e+18,8.200390816,0.5458946824,12.88119888
1215,1.55965538522e+18,4.731087208,0.5674431324,11.17408085
1216,1.55965538527e+18,1.352765322,4.221106529,5.595420361
1217,1.55965538533e+18,-10.41988373,3.062277555,6.071880817
1218,1.55965538538e+18,-8.595446587,6.332856655,4.197163582
1219,1.55965538543e+18,-18.33296204,4.692778587,-0.1891477108
1220,1.55965538548e+18,-17.74397087,5.818087578,2.152452946
1221,1.55965538553e+18,-15.33293629,2.552296877,1.644866824
1222,1.55965538559e+18,-9.28499794,1.932179809,3.392687321
1223,1.55965538564e+18,-5.870761871,1.54909575,3.0957973
1224,1.55965538569e+18,-5.442186832,2.217098475,2.147664547
1225,1.55965538574e+18,-8.628966331,2.231464148,2.621730804
1226,1.55965538579e+18,-11.93546009,1.115732074,1.185166001
1227,1.55965538585e+18,-9.687235832,1.098972082,1.608952641
1228,1.5596553859e+18,-8.487704277,0.4261809289,1.211503029
1229,1.55965538595e+18,-6.30173111,1.063058019,1.666415215
1230,1.559655386e+18,-6.703969479,1.252205729,2.032739401
1231,1.55965538605e+18,-7.951386452,1.280937076,2.434977531
1232,1.55965538611e+18,-9.957788467,1.362342358,2.660039425
1233,1.55965538616e+18,-11.50927925,2.209915638,3.323253393
1234,1.55965538621e+18,-12.09348202,2.087807655,4.522785187
1235,1.55965538626e+18,-11.25309181,1.604164124,3.342407703
1236,1.55965538631e+18,-8.427846909,1.50599885,2.79890728
1237,1.55965538637e+18,-6.76382637,2.0375278,2.956929445
1238,1.55965538642e+18,-9.258660316,1.67599237,1.936968327
1239,1.55965538647e+18,-11.63378143,0.6775797606,0.986441195
1240,1.55965538652e+18,-10.21397591,0.9744698405,1.71908927
1241,1.55965538657e+18,-9.105426788,1.312062621,1.968093872
1242,1.55965538663e+18,-8.590658188,1.137280583,2.346389294
1243,1.55965538668e+18,-8.801354408,0.7589851022,2.049499273
1244,1.55965538673e+18,-9.24429512,0.1388679445,2.032739401
1245,1.55965538678e+18,-8.190814018,0.6560313106,2.109356165
1246,1.55965538683e+18,-7.280989647,0.8451790214,2.899466753
1247,1.55965538689e+18,-6.713546753,1.44135344,2.832427025
1248,1.55965538694e+18,-8.976136208,1.089395046,3.284945011
1249,1.55965538699e+18,-10.07989693,2.133298874,2.446948767
1250,1.55965538704e+18,-13.34568787,0.6751855016,2.959323645
1251,1.55965538709e+18,-10.93225861,2.221887112,2.961717844
1252,1.55965538715e+18,-8.032792091,1.920208454,2.719896078
1253,1.5596553872e+18,-9.663292885,0.3184385598,1.429382086
1254,1.55965538725e+18,-8.32968235,0.5770202279,1.216291547
1255,1.5596553873e+18,-8.830085754,0.7972934842,2.01597929
1256,1.55965538735e+18,-9.153312683,1.958516836,2.825244188
1257,1.55965538741e+18,-9.428654671,2.078230619,2.940169573
1258,1.55965538746e+18,-9.771035194,1.37910223,3.105374336
1259,1.55965538751e+18,-9.399923325,1.103760719,3.253819466
1260,1.55965538756e+18,-9.361614227,1.50599885,2.853975534
1261,1.55965538761e+18,-8.777411461,2.882706881,3.102980137
1262,1.55965538767e+18,-8.765439987,2.739050388,3.426207304
1263,1.55965538772e+18,-8.497281075,3.110162973,4.288146019
1264,1.55965538777e+18,-10.69043732,0.634482801,4.494053841
1265,1.55965538782e+18,-10.50847244,-0.612934351,3.423812866
1266,1.55965538787e+18,-8.444606781,-1.139674783,3.196356773
1267,1.55965538793e+18,-6.378347874,-1.209108829,3.102980137
1268,1.55965538798e+18,-6.981705189,-1.517970204,2.9258039
1269,1.55965538803e+18,-9.921875,-4.683201313,2.923409462
1270,1.55965538808e+18,-10.0487709,-0.948132813,1.910631299
1271,1.55965538813e+18,-9.627379417,-0.4070267081,-5.056708336
1272,1.55965538819e+18,-8.090254784,1.956122518,3.237059593
1273,1.55965538824e+18,-6.107795238,-1.704723716,8.59305191
1274,1.55965538829e+18,-12.723176,-0.4046324492,5.497254848
1275,1.55965538834e+18,-9.474145889,-0.3639297783,8.250671387
1276,1.55965538839e+18,-10.56114578,2.190761566,6.112583637
1277,1.55965538845e+18,-5.442186832,2.664827824,6.323279858
1278,1.5596553885e+18,-5.669642925,3.816473961,9.22992897
1279,1.55965538855e+18,-3.715914488,4.565882206,4.194769382
1280,1.5596553886e+18,-0.3256213665,5.767807961,5.707951069
1281,1.55965538865e+18,3.469304085,4.752635479,5.561900616
1282,1.55965538871e+18,3.263396502,5.45176363,4.051113129
1283,1.55965538876e+18,6.246663094,5.030371189,5.083045483
1284,1.55965538881e+18,6.328068256,3.672817469,6.423839092
1285,1.55965538886e+18,5.205153465,2.834821463,6.012023926
1286,1.55965538891e+18,5.937801361,3.960130453,6.562707424
1287,1.55965538897e+18,4.996851444,3.040729046,5.504437923
1288,1.55965538902e+18,6.249057293,3.749434233,4.551516533
1289,1.55965538907e+18,5.782173634,2.217098475,4.680807114
1290,1.55965538912e+18,4.687990189,3.119740009,5.889915943
1291,1.55965538917e+18,6.397502422,2.154847383,4.793338299
1292,1.55965538923e+18,7.012830734,2.097384691,5.77020216
1293,1.55965538928e+18,7.132544518,2.466103077,6.452570438
1294,1.55965538933e+18,8.547560692,3.440572977,7.944203854
1295,1.55965538938e+18,12.0527792,2.856369734,9.24429512
1296,1.55965538943e+18,13.71919441,4.338426113,10.91789341
1297,1.55965538949e+18,25.03932571,5.856396198,15.55081463
1298,1.55965538954e+18,37.12802124,16.93231201,7.185218811
1299,1.55965538959e+18,33.04817581,10.54917526,-3.426207304
1300,1.55965538964e+18,8.940221786,-11.37519932,21.4167881
1301,1.55965538969e+18,-9.294574738,-78.3574295,20.10233116
1302,1.55965538975e+18,-15.24913597,-15.50053501,-9.512454033
1303,1.5596553898e+18,5.224307537,-4.771789551,-8.569109917
1304,1.55965538985e+18,14.30100346,12.50290298,1.829225898
1305,1.5596553899e+18,7.889135361,3.507612705,-2.300898075
1306,1.55965538995e+18,3.900273561,3.0096035,0.4189980924
1307,1.55965539001e+18,4.592218876,-0.1053480953,3.342407703
1308,1.55965539006e+18,6.122160912,0.7589851022,6.684815407
1309,1.55965539011e+18,6.718335152,1.752609134,8.238699913
1310,1.55965539016e+18,2.971295118,2.549902678,10.25467873
1311,1.55965539021e+18,-2.147664547,1.075029373,6.409473896
1312,1.55965539026e+18,-11.6601181,0.5363175869,4.529967785
1313,1.55965539032e+18,-18.31141281,3.040729046,-0.7015225291
1314,1.55965539037e+18,-16.11347008,5.815693378,6.153286457
1315,1.55965539042e+18,-13.81017685,3.150865555,6.256239891
1316,1.55965539047e+18,-11.05915546,4.671230316,5.51640892
1317,1.55965539052e+18,-12.59867382,2.846792698,3.83802247
1318,1.55965539058e+18,-10.79339123,1.726272106,3.921822071
1319,1.55965539063e+18,-9.289786339,1.362342358,3.828445435
1320,1.55965539068e+18,-8.135746002,1.9944309,3.220299721
1321,1.55965539073e+18,-8.789382935,1.61134696,3.131711483
1322,1.55965539078e+18,-8.449396133,1.695146561,2.446948767
1323,1.55965539084e+18,-8.332076073,2.528354168,2.731867552
1324,1.55965539089e+18,-8.231516838,2.45892024,2.643279314
1325,1.55965539094e+18,-9.115004539,1.92978549,3.600989342
1326,1.55965539099e+18,-9.287391663,1.910631299,2.9258039
1327,1.55965539104e+18,-9.476539612,1.817254543,2.662433624
1328,1.5596553911e+18,-9.237112045,1.881899953,2.858764172
1329,1.55965539115e+18,-9.797372818,0.8092648983,2.530748367
1330,1.5596553912e+18,-9.771035194,0.2322446555,2.547508478
1331,1.55965539125e+18,-8.537983894,0.4189980924,3.600989342
1332,1.5596553913e+18,-7.879558563,0.4309694767,3.610566378
1333,1.55965539136e+18,-9.098244667,0.6751855016,3.344801903
1334,1.55965539141e+18,-8.425453186,1.029538155,3.433390141
1335,1.55965539146e+18,-8.597841263,1.769369125,2.482862949
1336,1.55965539151e+18,-8.976136208,1.58979845,2.597788095
1337,1.55965539156e+18,-9.28499794,1.544307232,2.343995094
1338,1.55965539162e+18,-9.263449669,1.108549237,2.729473352
1339,1.55965539167e+18,-9.313729286,1.278542757,2.655250788
1340,1.55965539172e+18,-9.421471596,1.146857619,2.478074312
1341,1.55965539177e+18,-8.909096718,1.316851139,2.700742006
1342,1.55965539182e+18,-8.942616463,1.455719113,2.643279314
1343,1.55965539188e+18,-9.529213905,1.424593568,2.528354168
1344,1.55965539193e+18,-9.143735886,1.161223292,2.743839025
1345,1.55965539198e+18,-8.775016785,1.015172482,2.676799297
1346,1.55965539203e+18,-8.571503639,0.8308133483,2.681587696
1347,1.55965539208e+18,-8.332076073,0.5267404318,3.498035431
1348,1.55965539214e+18,-8.64812088,0.612934351,4.230683804
1349,1.55965539219e+18,-10.03201103,1.163617611,4.192375183
1350,1.55965539224e+18,-10.21876526,1.37910223,4.331243038
1351,1.55965539229e+18,-9.565128326,1.78134048,4.091815472
1352,1.55965539234e+18,-10.1014452,1.297696948,3.54113245
1353,1.5596553924e+18,-9.277814865,2.071047783,3.170019865
1354,1.55965539245e+18,-8.229122162,2.533142805,4.017592907
1355,1.5596553925e+18,-7.862798691,2.231464148,3.677606106
1356,1.55965539255e+18,-7.948992252,1.235445857,2.116539001
1357,1.5596553926e+18,-7.726325035,1.024749637,3.014391899
1358,1.55965539266e+18,-8.197997093,1.465296149,3.126922846
1359,1.55965539271e+18,-6.821289062,3.340013266,3.478881359
1360,1.55965539276e+18,-7.261835575,4.053507328,4.585036278
1361,1.55965539281e+18,-9.220352173,2.774964571,3.22508812
1362,1.55965539286e+18,-10.68325424,0.3806896806,3.993650436
1363,1.55965539292e+18,-11.23872566,-1.410227895,4.221106529
1364,1.55965539297e+18,-7.611399651,-2.083019018,6.270605564
1365,1.55965539302e+18,-7.33366394,-2.561874151,5.19797039
1366,1.55965539307e+18,-8.229122162,-3.742251635,6.308914185
1367,1.55965539312e+18,-8.344047546,-3.062277555,2.578634024
1368,1.55965539318e+18,-8.916279793,-3.043123245,22.08718491
1369,1.55965539323e+18,-13.65215492,-1.63289547,0.6608198285
1370,1.55965539328e+18,-5.312895775,0.299284339,7.86758709
1371,1.55965539333e+18,-7.216344357,-3.845205307,9.98891449
1372,1.55965539338e+18,-12.55557728,-0.4788549542,7.367183685
1373,1.55965539344e+18,-6.375953674,-1.036720991,10.44622135
1374,1.55965539349e+18,-6.792557716,1.489238977,8.827691078
1375,1.55965539354e+18,-6.960156918,2.425400496,7.788576126
1376,1.55965539359e+18,-2.260195494,3.797319889,6.035966873
1377,1.55965539364e+18,0.3064671755,5.45176363,4.412648678
1378,1.5596553937e+18,3.799714088,5.581054688,5.722316742
1379,1.55965539375e+18,5.430215359,3.833234072,6.1939888
1380,1.5596553938e+18,3.94576478,5.528380394,4.240260601
1381,1.55965539385e+18,7.510839939,3.050306082,3.735068798
1382,1.5596553939e+18,6.478907585,3.342407703,4.905869007
1383,1.55965539396e+18,6.098217964,4.108575344,6.682421207
1384,1.55965539401e+18,7.168458939,2.174001455,5.820482254
1385,1.55965539406e+18,7.477320194,1.951334,6.332856655
1386,1.55965539411e+18,7.520417213,2.427794695,5.578660488
1387,1.55965539416e+18,6.562707424,1.565855742,4.944177628
1388,1.55965539422e+18,6.69918108,1.386285067,4.652075768
1389,1.55965539427e+18,5.758230686,1.067846537,3.014391899
1390,1.55965539432e+18,6.354405403,0.7733507752,3.972101927
1391,1.55965539437e+18,6.313702583,1.403045058,3.584229469
1392,1.55965539442e+18,8.001666069,1.297696948,4.575459003
1393,1.55965539448e+18,10.13017654,0.5315290093,7.61379385
1394,1.55965539453e+18,11.90433407,1.503604531,7.556331158
1395,1.55965539458e+18,13.56356716,1.65444386,8.557138443
1396,1.55965539463e+18,16.14698982,2.094990492,10.35044956
1397,1.55965539468e+18,36.73535919,4.046324253,8.976136208
1398,1.55965539474e+18,40.43211746,16.6210556,-7.647313595
1399,1.55965539479e+18,23.416008,2.964112282,-8.226728439
1400,1.55965539484e+18,4.752635479,-9.323306084,15.47180367
1401,1.55965539489e+18,-11.06394386,-52.89910889,15.25392437
1402,1.55965539494e+18,-18.01212883,-6.895511627,-9.842864037
1403,1.559655395e+18,7.233104229,0.5818088055,-8.803748131
1404,1.55965539505e+18,17.87086678,10.59945488,-2.90425539
1405,1.5596553951e+18,5.825270653,1.743032098,-0.5075862408
1406,1.55965539515e+18,4.553910732,1.278542757,2.099778891
1407,1.5596553952e+18,5.482889175,-0.986441195,3.940976381
1408,1.55965539526e+18,6.208354473,-1.817254543,5.944984436
1409,1.55965539531e+18,6.668055534,-0.7805336118,9.435836792
1410,1.55965539536e+18,6.160469055,0.5770202279,9.416683197
1411,1.55965539541e+18,2.834821463,1.201925993,11.95700836
1412,1.55965539546e+18,1.312062621,1.40065074,11.64335823
1413,1.55965539552e+18,-2.322446585,1.0606637,15.01210308
1414,1.55965539557e+18,-0.8475732803,0.591385901,12.12221336
1415,1.55965539562e+18,-4.345608711,0.04309694469,12.98654652
1416,1.55965539567e+18,-4.398283005,1.036720991,9.569916725
1417,1.55965539572e+18,-7.060716629,0.5219519138,8.784594536
1418,1.55965539578e+18,-6.483695984,0.9816526771,7.551542759
1419,1.55965539583e+18,-6.859597206,-0.3304099143,8.363202095
1420,1.55965539588e+18,-6.344828129,-0.5339232683,7.728719234
1421,1.55965539593e+18,-7.776604652,-1.127703428,8.863605499
1422,1.55965539598e+18,-6.840443134,-0.2011190802,7.671256542
1423,1.55965539604e+18,-7.388731956,-0.5004034638,7.757450581
1424,1.55965539609e+18,-7.302538395,0.07422251999,7.757450581
1425,1.55965539614e+18,-8.102226257,-0.4764606953,6.952973843
1426,1.55965539619e+18,-7.314509392,0.04549122229,6.196382999
1427,1.55965539624e+18,-6.93860817,-0.02154847234,5.401484013
1428,1.5596553963e+18,-7.386337757,0.3375927508,5.300924301
1429,1.55965539635e+18,-8.861210823,-0.3998439014,5.727105141
1430,1.5596553964e+18,-8.854028702,-0.2537931204,5.53316927
1431,1.55965539645e+18,-8.480521202,-0.1292908341,4.654470444
1432,1.5596553965e+18,-8.765439987,-0.4573064744,4.237866402
1433,1.55965539655e+18,-7.858009815,-0.4692778587,4.225894928
1434,1.55965539661e+18,-7.829278469,-0.483643502,4.683201313
1435,1.55965539666e+18,-7.65449667,-0.4189980924,4.671230316
1436,1.55965539671e+18,-7.688016415,-0.1460507661,4.75024128
1437,1.55965539676e+18,-7.620976925,0.2059076279,4.831646442
1438,1.55965539681e+18,-7.704776287,0.5339232683,4.850800991
1439,1.55965539687e+18,-7.714353561,0.8667274714,5.296135902
1440,1.55965539692e+18,-8.291373253,0.8906702399,5.02797699
1441,1.55965539697e+18,-8.801354408,1.015172482,4.556304932
1442,1.55965539702e+18,-9.045570374,0.7948992252,4.798126698
1443,1.55965539707e+18,-8.638543129,0.5554717779,4.862771988
1444,1.55965539713e+18,-8.013637543,0.7350423932,4.630527496
1445,1.55965539718e+18,-7.776604652,0.8260248303,4.529967785
1446,1.55965539723e+18,-8.121379852,0.4094209969,4.618556023
1447,1.55965539728e+18,-8.961771011,-0.1245022863,4.946571827
1448,1.55965539733e+18,-8.430241585,0.06464541703,4.824463844
1449,1.55965539739e+18,-8.190814018,0.1580221355,4.884320736
1450,1.55965539744e+18,-8.200390816,0.2059076279,5.145296574
1451,1.55965539749e+18,-8.650514603,0.1580221355,5.245856285
1452,1.55965539754e+18,-8.269824982,0.4381522834,5.293741703
1453,1.55965539759e+18,-7.968146324,0.4094209969,5.236279011
1454,1.55965539764e+18,-8.257853508,0.0574625954,4.822069645
1455,1.5596553977e+18,-8.162082672,-0.004788549617,4.767001152
1456,1.55965539775e+18,-8.305739403,0.3639297783,4.549122334
1457,1.5596553978e+18,-9.593858719,0.5123748183,3.694365978
1458,1.55965539785e+18,-10.10383987,0.7948992252,3.703943014
1459,1.5596553979e+18,-5.514014721,0.7063110471,6.739883423
1460,1.55965539796e+18,-3.876330853,0.4908263385,6.519610405
1461,1.55965539801e+18,-6.821289062,-0.9050358534,6.143709183
1462,1.55965539806e+18,-7.874769688,-0.9026415944,5.21473074
1463,1.55965539811e+18,-8.219545364,-0.3926610649,4.166038036
1464,1.55965539816e+18,-7.422251701,-0.2657645047,4.702355862
1465,1.55965539822e+18,-7.836461544,-0.2729473412,4.53715086
1466,1.55965539827e+18,-8.760651588,-0.1580221355,3.857176781
1467,1.55965539832e+18,-9.110215187,-0.1292908341,3.950553417
1468,1.55965539837e+18,-8.71516037,-0.0574625954,4.245049
1469,1.55965539842e+18,-8.75586319,-0.1556278616,5.138113976
1470,1.55965539848e+18,-8.832479477,-0.2202732861,5.377541065
1471,1.55965539853e+18,-8.971347809,-0.1963305324,4.841223717
1472,1.55965539858e+18,-8.909096718,0.277735889,4.965725899
1473,1.55965539863e+18,-10.29777622,0.299284339,3.189173937
1474,1.55965539868e+18,-10.77663136,0.07661679387,1.944151163
1475,1.55965539874e+18,-9.318517685,-0.3088614643,2.746233225
1476,1.55965539879e+18,-8.521224022,-0.3854782581,3.320859194
1477,1.55965539884e+18,-8.466156006,-0.5674431324,3.158048391
1478,1.55965539889e+18,-8.664880753,0.1867534369,3.107768774
1479,1.55965539894e+18,-8.657697678,0.7518022656,3.442967176
1480,1.559655399e+18,-8.959376335,1.245022893,4.398283005
1481,1.55965539905e+18,-9.94821167,0.9529213905,4.525179386
1482,1.5596553991e+18,-9.62977314,1.352765322,4.580247879
1483,1.55965539915e+18,-9.991309166,1.685569525,4.039141655
1484,1.5596553992e+18,-9.098244667,2.051893473,4.125335693
1485,1.55965539926e+18,-8.763046265,1.309668303,4.427014351
1486,1.55965539931e+18,-7.558725357,1.280937076,4.563488007
1487,1.55965539936e+18,-5.51640892,0.6440598965,4.331243038
1488,1.55965539941e+18,-6.510033131,-0.1316851079,4.767001152
1489,1.55965539946e+18,-8.976136208,-1.766974807,4.613767624
1490,1.55965539952e+18,-6.969734192,-0.6081457734,5.042342663
1491,1.55965539957e+18,-7.144515991,-1.115732074,4.259414673
1492,1.55965539962e+18,-8.162082672,-1.393467903,4.118152618
1493,1.55965539967e+18,-8.667274475,1.137280583,1.084606528
1494,1.55965539972e+18,-9.416683197,1.359948039,3.926610708
1495,1.55965539978e+18,-9.610619545,1.460507631,2.504411459
1496,1.55965539983e+18,-11.19323444,-0.5004034638,2.789330244
1497,1.55965539988e+18,-8.415876389,-1.422199249,7.482108593
1498,1.55965539993e+18,-9.792584419,-1.924996972,8.861210823
1499,1.55965539998e+18,-6.653689861,-1.098972082,7.968146324
1500,1.55965540004e+18,-6.16765213,0.3998439014,7.513234138
1501,1.55965540009e+18,-8.243488312,1.573038578,7.379155159
1502,1.55965540014e+18,-7.898712635,3.311282158,6.811711788
1503,1.55965540019e+18,-4.690384388,3.232270956,7.259441376
1504,1.55965540024e+18,-2.18357873,3.450150013,9.316123009
1505,1.5596554003e+18,0.8020820618,3.462121487,9.976943016
1506,1.55965540035e+18,0.591385901,4.35039711,6.565101624
1507,1.5596554004e+18,3.869148016,3.24424243,3.548315287
1508,1.55965540045e+18,4.494053841,1.75979197,7.048745155
1509,1.5596554005e+18,7.518023014,4.041535854,5.897099018
1510,1.55965540056e+18,5.877944469,3.787742853,6.933819771
1511,1.55965540061e+18,6.48609066,3.165231228,6.002447128
1512,1.55965540066e+18,7.127756119,3.069460392,3.565075159
1513,1.55965540071e+18,7.580274105,2.940169573,5.688796997
1514,1.55965540076e+18,7.259441376,1.635289669,4.395888329
1515,1.55965540082e+18,7.168458939,0.9792584181,3.33043623
1516,1.55965540087e+18,4.611373425,0.5842030644,2.992843628
1517,1.55965540092e+18,3.569863796,1.577827096,2.54511404
1518,1.55965540097e+18,5.09262228,0.7278595567,2.897072554
1519,1.55965540102e+18,8.061523438,0.7733507752,3.833234072
1520,1.55965540108e+18,10.93944168,1.036720991,6.541158676
1521,1.55965540113e+18,12.88359261,2.245829821,7.386337757
1522,1.55965540118e+18,15.9554472,1.683175206,9.263449669
1523,1.55965540123e+18,18.92913628,2.58581686,9.31133461
1524,1.55965540128e+18,35.46160507,5.715134144,5.91625309
1525,1.55965540134e+18,37.97319794,16.97540855,-5.796539307
1526,1.55965540139e+18,26.15505791,6.249057293,-7.889135361
1527,1.55965540144e+18,11.69124413,-13.17808819,18.11029434
1528,1.55965540149e+18,-14.77267551,-42.38345337,2.631308079
1529,1.55965540154e+18,-12.51966286,-10.31453609,-10.36242104
1530,1.5596554016e+18,7.86758709,1.065452337,-7.166064739
1531,1.55965540165e+18,13.92270756,12.28023529,0.01915419847
1532,1.5596554017e+18,4.862771988,6.483695984,-1.151646137
1533,1.55965540175e+18,-0.5554717779,0.2178790122,-0.1053480953
1534,1.5596554018e+18,-1.285725594,-3.416630268,3.905062199
1535,1.55965540186e+18,0.7063110471,-8.576292038,8.894730568
1536,1.55965540191e+18,3.624932051,-11.29139996,11.11422348
1537,1.55965540196e+18,5.090228081,-8.281796455,13.19245434
1538,1.55965540201e+18,6.883540154,-3.493247032,13.51568127
1539,1.55965540206e+18,7.003253937,-2.530748367,15.86685944
1540,1.55965540212e+18,4.85319519,-1.735849261,14.41353416
1541,1.55965540217e+18,-1.817254543,-3.514795303,13.76708031
1542,1.55965540222e+18,-7.182824612,-2.727078915,6.488484859
1543,1.55965540227e+18,-13.06795216,-2.071047783,4.180403709
1544,1.55965540232e+18,-12.82612991,-1.012778282,3.553103924
1545,1.55965540238e+18,-9.639349937,-2.727078915,5.219519138
1546,1.55965540243e+18,-5.952167034,-5.145296574,8.75586319
1547,1.55965540248e+18,-5.695979595,-6.577073097,8.751074791
1548,1.55965540253e+18,-6.153286457,-4.956148624,6.208354473
1549,1.55965540258e+18,-7.695199013,-5.212336063,4.992063046
1550,1.55965540264e+18,-7.494080067,-4.865166187,5.468523502
1551,1.55965540269e+18,-7.003253937,-4.683201313,5.616968632
1552,1.55965540274e+18,-6.759037971,-4.106181145,5.150084972
1553,1.55965540279e+18,-6.495667458,-3.105374336,4.836435318
1554,1.55965540284e+18,-6.632141113,-2.391880512,4.462928295
1555,1.5596554029e+18,-6.9122715,-2.020767927,4.558699131
1556,1.55965540295e+18,-7.371972084,-1.197137356,4.32406044
1557,1.559655403e+18,-7.740690231,-0.5458946824,4.460534096
1558,1.55965540305e+18,-7.817307472,-0.464489311,3.75422287
1559,1.5596554031e+18,-6.9122715,-0.6081457734,3.988861799
1560,1.55965540316e+18,-7.096630573,0.6823683381,4.374340057
1561,1.55965540321e+18,-10.0822916,-0.002394274808,4.74784708
1562,1.55965540326e+18,-10.80775642,0.6727912426,3.464515686
1563,1.55965540331e+18,-10.37678719,0.9050358534,3.701548815
1564,1.55965540336e+18,-9.792584419,1.596981287,3.799714088
1565,1.55965540342e+18,-10.252285,1.474873304,3.0981915
1566,1.55965540347e+18,-9.660899162,1.209108829,3.071854591
1567,1.55965540352e+18,-8.933039665,1.503604531,2.818061352
1568,1.55965540357e+18,-9.976943016,0.9936240315,2.406246185
1569,1.55965540362e+18,-10.23791885,0.6033572555,2.221887112
1570,1.55965540368e+18,-10.23313046,0.3232271075,2.399063349
1571,1.55965540373e+18,-8.068706512,0.2250618339,2.169213057
1572,1.55965540378e+18,-8.03758049,0.8595446348,2.291321039
1573,1.55965540383e+18,-9.885960579,0.5889915824,1.503604531
1574,1.55965540388e+18,-10.6449461,-0.04549122229,1.707117915
1575,1.55965540394e+18,-8.475732803,0.5435003638,2.478074312
1576,1.55965540399e+18,-8.78219986,0.646454215,2.18357873
1577,1.55965540404e+18,-9.00726223,0.4908263385,2.209915638
1578,1.55965540409e+18,-8.945011139,0.7613793612,2.45892024
1579,1.55965540414e+18,-9.287391663,0.7685621977,2.358360767
1580,1.5596554042e+18,-9.454991341,0.8667274714,2.01597929
1581,1.55965540425e+18,-9.64413929,0.5889915824,1.75979197
1582,1.5596554043e+18,-9.186832428,0.6608198285,1.97288239
1583,1.55965540435e+18,-9.07430172,0.313650012,1.989642382
1584,1.5596554044e+18,-8.736708641,0.3687183261,2.35357213
1585,1.55965540446e+18,-8.978530884,0.3519583941,2.18357873
1586,1.55965540451e+18,-9.320911407,0.277735889,1.776551962
1587,1.55965540456e+18,-9.364008904,0.3495641351,1.881899953
1588,1.55965540461e+18,-9.49569416,0.2873129845,1.884294271
1589,1.55965540466e+18,-9.28499794,0.4429408312,1.9944309
1590,1.55965540472e+18,-9.153312683,0.3304099143,2.075836182
1591,1.55965540477e+18,-8.918673515,0.2705530524,2.276955366
1592,1.55965540482e+18,-8.411087036,-0.04788549617,2.803695917
1593,1.55965540487e+18,-8.985713005,-0.9553156495,2.79890728
1594,1.55965540492e+18,-9.771035194,-1.50599885,2.82045579
1595,1.55965540498e+18,-9.84046936,-1.671203852,2.312869549
1596,1.55965540503e+18,-9.56273365,-1.312062621,2.619336605
1597,1.55965540508e+18,-9.53639698,-1.345582485,2.858764172
1598,1.55965540513e+18,-9.41907692,-1.599375606,2.918621063
1599,1.55965540518e+18,-9.349642754,-1.738243461,2.102173328
1600,1.55965540524e+18,-9.124581337,-1.769369125,2.145270348
1601,1.55965540529e+18,-9.012050629,-1.762186289,1.922602654
1602,1.55965540534e+18,-9.071907043,-1.766974807,1.867534399
1603,1.55965540539e+18,-9.129369736,-1.723877907,1.958516836
1604,1.55965540544e+18,-9.486116409,-1.867534399,2.075836182
1605,1.5596554055e+18,-9.414288521,-1.721483588,2.229069948
1606,1.55965540555e+18,-9.366402626,-1.697540879,2.150058746
1607,1.5596554056e+18,-9.024022102,-1.733454943,2.363149166
1608,1.55965540565e+18,-9.026415825,-1.807677507,2.308080912
1609,1.5596554057e+18,-9.105426788,-1.78134048,2.126116037
1610,1.55965540576e+18,-9.136552811,-1.75979197,2.116539001
1611,1.55965540581e+18,-9.158101082,-1.757397652,2.094990492
1612,1.55965540586e+18,-9.201197624,-1.764580488,2.118933201
1613,1.55965540591e+18,-9.189227104,-1.585009933,1.812466025
1614,1.55965540596e+18,-9.414288521,-1.563461423,1.630501151
1615,1.55965540602e+18,-9.510059357,-1.474873304,1.369525194
1616,1.55965540607e+18,-9.416683197,-1.501210332,1.479661822
1617,1.55965540612e+18,-9.222746849,-1.649655342,1.795706153
1618,1.55965540617e+18,-9.407105446,-1.635289669,1.728666425
1619,1.55965540622e+18,-9.373585701,-1.628106833,1.766974807
1620,1.55965540628e+18,-9.447808266,-1.501210332,2.051893473
1621,1.55965540633e+18,-9.524425507,-1.539518714,1.920208454
1622,1.55965540638e+18,-9.35203743,-1.424593568,2.023162127
1623,1.55965540643e+18,-9.641744614,-1.376708031,1.561067224
1624,1.55965540648e+18,-10.03680038,-1.235445857,2.382303476
1625,1.55965540654e+18,-9.998491287,-1.149251938,2.332023621
1626,1.55965540659e+18,-9.725543976,-0.4573064744,3.229876757
1627,1.55965540664e+18,-9.28499794,-0.3878725171,3.0096035
1628,1.55965540669e+18,-9.818921089,-0.2561874092,2.873129845
1629,1.55965540674e+18,-9.632167816,-0.9888355136,2.174001455
1630,1.5596554068e+18,-9.126976013,-0.3711125851,2.858764172
1631,1.55965540685e+18,-8.638543129,0.6584255695,3.816473961
1632,1.5596554069e+18,-9.794978142,2.600182533,4.304905891
1633,1.55965540695e+18,-10.18763924,3.342407703,3.790137053
1634,1.559655407e+18,-9.043175697,2.712713242,4.364762783
1635,1.55965540706e+18,-7.118178844,1.307274103,4.03195858
1636,1.55965540711e+18,-7.36239481,-0.1987248063,3.43578434
1637,1.55965540716e+18,-6.603409767,-1.304879785,4.053507328
1638,1.55965540721e+18,-8.071100235,-3.581835032,4.788549423
1639,1.55965540726e+18,-8.499675751,-2.274561167,2.509200096
1640,1.55965540732e+18,-11.77743816,-3.466909885,-4.66883564
1641,1.55965540737e+18,-11.72476387,-3.577046633,5.104593754
1642,1.55965540742e+18,-5.894704342,1.429382086,9.249083519
1643,1.55965540747e+18,-9.969759941,-0.09337671846,5.324867249
1644,1.55965540752e+18,-10.01764584,-0.5075862408,6.296942711
1645,1.55965540758e+18,-8.248276711,1.034326673,6.313702583
1646,1.55965540763e+18,-7.640130997,2.241041183,6.847625732
1647,1.55965540768e+18,-6.93621397,2.106961727,8.854028702
1648,1.55965540773e+18,-5.473312378,4.146883965,6.270605564
1649,1.55965540778e+18,0.1316851079,3.9864676,9.213169098
1650,1.55965540784e+18,-0.2873129845,4.872349262,6.222720146
1651,1.55965540789e+18,1.810071707,5.308107376,5.035160065
1652,1.55965540794e+18,4.704750061,4.936994553,5.710345268
1653,1.55965540799e+18,3.713520288,4.661653042,5.607391834
1654,1.55965540804e+18,6.392713547,4.180403709,4.247443676
1655,1.5596554081e+18,6.850020409,4.343214512,4.427014351
1656,1.55965540815e+18,8.035185814,3.775771379,7.271412373
1657,1.5596554082e+18,7.606611252,3.529160976,4.608979225
1658,1.55965540825e+18,7.482108593,1.642472506,5.336838722
1659,1.5596554083e+18,5.928224564,2.609759569,4.53475666
1660,1.55965540836e+18,5.827664852,1.762186289,3.517189741
1661,1.55965540841e+18,5.293741703,0.9146129489,2.772570133
1662,1.55965540846e+18,5.614574432,1.393467903,3.660846233
1663,1.55965540851e+18,6.359193802,1.661626697,4.38870573
1664,1.55965540856e+18,7.632947922,1.647261024,4.74784708
1665,1.55965540862e+18,8.59305191,1.764580488,5.193181992
1666,1.55965540867e+18,10.67846584,2.257801056,6.500456333
1667,1.55965540872e+18,12.91471863,2.157241583,7.510839939
1668,1.55965540877e+18,16.93709946,2.803695917,9.692024231
1669,1.55965540882e+18,27.50303459,3.253819466,10.59945488
1670,1.55965540888e+18,39.43610001,13.69285774,5.63851738
1671,1.55965540893e+18,32.03300095,11.05915546,-8.214756966
1672,1.55965540898e+18,9.498087883,-12.63458824,12.81655312
1673,1.55965540903e+18,9.845257759,-45.00518417,1.228263021
1674,1.55965540908e+18,-10.21637058,-17.3776474,-7.134938717
1675,1.55965540914e+18,1.517970204,-3.332830429,-12.82852459
1676,1.55965540919e+18,16.37684059,14.79661846,7.951386452
1677,1.55965540924e+18,3.991255999,5.413455486,-0.8667274714
1678,1.55965540929e+18,-2.18357873,0.1340793967,1.391073704
1679,1.55965540934e+18,-1.010383964,-1.197137356,5.542746067
1680,1.5596554094e+18,3.423812866,-1.551490068,9.263449669
1681,1.55965540945e+18,6.794951916,0.5147690773,10.13975334
1682,1.5596554095e+18,4.948966026,2.118933201,10.57551193
1683,1.55965540955e+18,6.864386082,2.341600657,11.95940304
1684,1.5596554096e+18,4.984879971,4.975303173,10.72874546
1685,1.55965540966e+18,3.045517445,4.331243038,10.6449461
1686,1.55965540971e+18,-0.7589851022,1.941756845,11.95221996
1687,1.55965540976e+18,-6.172440529,1.271359921,8.176448822
1688,1.55965540981e+18,-11.67208958,-0.4429408312,8.698400497
1689,1.55965540986e+18,-10.48213482,2.540325642,6.210748672
1690,1.55965540992e+18,-10.58987713,1.946545362,8.221940041
1691,1.55965540997e+18,-10.13496494,0.5961744189,7.946598053
1692,1.55965541002e+18,-9.766246796,-1.510787368,5.403878212
1693,1.55965541007e+18,-8.480521202,-1.209108829,5.080651283
1694,1.55965541012e+18,-7.709564686,-1.173194647,4.647287369
1695,1.55965541018e+18,-7.522811413,-0.3375927508,4.565882206
1696,1.55965541023e+18,-7.118178844,0.3735068738,2.980872154
1697,1.55965541028e+18,-7.46774292,0.7302538157,2.497228622
1698,1.55965541033e+18,-8.035185814,-0.1077423692,2.997632027
1699,1.55965541038e+18,-7.795758724,-0.06225114316,5.449369431
1700,1.55965541044e+18,-8.327287674,0.5746259689,6.035966873
1701,1.55965541049e+18,-9.56273365,0.6608198285,5.779779434
1702,1.55965541054e+18,-12.17728138,-0.4573064744,4.558699131
1703,1.55965541059e+18,-9.249083519,1.065452337,4.197163582
1704,1.55965541064e+18,-10.26904488,0.07901106775,4.884320736
1705,1.5596554107e+18,-9.5483675,0.1388679445,4.556304932
1706,1.55965541075e+18,-8.183630943,0.4046324492,3.996044636
1707,1.5596554108e+18,-8.427846909,0.04549122229,3.622537851
1708,1.55965541085e+18,-8.516435623,-0.7853221297,3.402264595
1709,1.5596554109e+18,-8.322499275,-0.5865973234,3.744645834
1710,1.55965541096e+18,-8.976136208,-0.986441195,3.854782343
1711,1.55965541101e+18,-10.62100315,-0.928978622,3.744645834
1712,1.55965541106e+18,-10.18045616,-1.405439258,5.583448887
1713,1.55965541111e+18,-7.544359684,-2.22667551,5.375146866
1714,1.55965541116e+18,-4.963331699,-1.285725594,6.031178474
1715,1.55965541122e+18,-4.235472202,-0.5075862408,6.548341751
1716,1.55965541127e+18,-5.341627121,-1.029538155,7.343240738
1717,1.55965541132e+18,-7.04395628,-1.407833576,6.993676662
1718,1.55965541137e+18,-7.19000721,-0.7853221297,6.335251331
1719,1.55965541142e+18,-7.395915031,-0.22266756,5.940196037
1720,1.55965541148e+18,-7.257047176,0.5865973234,5.442186832
1721,1.55965541153e+18,-7.802941799,0.9098244309,5.530774593
1722,1.55965541158e+18,-8.509252548,0.6967339516,5.334444046
1723,1.55965541163e+18,-8.523618698,0.3543526828,5.901887417
1724,1.55965541168e+18,-7.364789486,0.7110996246,5.312895775
1725,1.55965541174e+18,-6.905088425,0.3639297783,6.905088425
1726,1.55965541179e+18,-6.284971237,-0.1412622184,7.14930439
1727,1.55965541184e+18,-7.276201248,0.1915419847,7.024802208
1728,1.55965541189e+18,-7.78618145,0.8786988258,5.296135902
1729,1.55965541194e+18,-8.200390816,0.8763045669,4.932206154
1730,1.559655412e+18,-8.245882034,1.283331275,5.106987953
1731,1.55965541205e+18,-7.877163887,0.9098244309,5.396695614
1732,1.5596554121e+18,-7.419857502,0.4573064744,5.17402792
1733,1.55965541215e+18,-8.308133125,0.4860377908,4.39109993
1734,1.5596554122e+18,-8.990502357,-0.7805336118,5.458946705
1735,1.55965541226e+18,-7.846038342,-1.707117915,5.145296574
1736,1.55965541231e+18,-6.033572674,-1.247417212,4.70714426
1737,1.55965541236e+18,-8.1453228,-2.35596633,4.42940855
1738,1.55965541241e+18,-8.650514603,-2.305686712,4.206740856
1739,1.55965541246e+18,-9.708784103,-2.391880512,4.419831276
1740,1.55965541252e+18,-8.504464149,-1.661626697,4.676018715
1741,1.55965541257e+18,-8.059128761,-1.582615614,5.602602959
1742,1.55965541262e+18,-7.673650742,-1.944151163,5.087833881
1743,1.55965541267e+18,-7.285778046,-1.783734679,4.872349262
1744,1.55965541272e+18,-7.371972084,-2.518777132,5.739076614
1745,1.55965541278e+18,-7.350423813,-2.46131444,5.181210518
1746,1.55965541283e+18,-8.712765694,-2.703136206,4.905869007
1747,1.55965541288e+18,-7.889135361,-2.961717844,5.686402798
1748,1.55965541293e+18,-7.716747761,-2.660039425,6.847625732
1749,1.55965541298e+18,-7.585062504,-2.291321039,6.806923389
1750,1.55965541304e+18,-8.693612099,-1.745426297,6.536370277
1751,1.55965541309e+18,-8.775016785,-1.199531674,5.394300938
1752,1.55965541314e+18,-8.238699913,-0.5794144869,5.511620522
1753,1.55965541319e+18,-9.261054993,-0.4477293789,5.327261448
1754,1.55965541324e+18,-8.691217422,0.481249243,4.407859802
1755,1.5596554133e+18,-7.89152956,1.620923996,2.940169573
1756,1.55965541335e+18,-7.065505028,2.33441782,3.466909885
1757,1.5596554134e+18,-7.644919395,0.2849186957,4.142095566
1758,1.55965541345e+18,-6.071880817,0.7158881426,5.308107376
1759,1.5596554135e+18,-6.517216206,1.683175206,4.640104771
1760,1.55965541355e+18,-9.115004539,0.5004034638,5.205153465
1761,1.55965541361e+18,-10.87958431,0.7278595567,5.504437923
1762,1.55965541366e+18,-6.988888264,0.8523618579,5.633728504
1763,1.55965541371e+18,-4.465322495,0.9313728809,7.606611252
1764,1.55965541376e+18,-8.344047546,-0.3711125851,7.168458939
1765,1.55965541381e+18,-7.415069103,0.1364736706,8.616994858
1766,1.55965541387e+18,-5.645699978,2.174001455,7.039167881
1767,1.55965541392e+18,-5.736682415,3.550709486,7.278595448
1768,1.55965541397e+18,-5.98089838,3.129317284,7.647313595
1769,1.55965541402e+18,-5.415849686,3.691971779,8.166871071
1770,1.55965541407e+18,-4.92262888,3.739857197,6.263422966
1771,1.55965541413e+18,-4.790944099,3.526766777,9.387951851
1772,1.55965541418e+18,-4.568276405,4.211529255,6.08624649
1773,1.55965541423e+18,-2.329629421,3.759011507,6.823683262
1774,1.55965541428e+18,-4.266597748,3.126922846,8.928250313
1775,1.55965541433e+18,-3.840416908,3.318464994,7.93223238
1776,1.55965541439e+18,-1.647261024,3.373533249,8.03758049
1777,1.55965541444e+18,-0.5435003638,3.301704884,7.915472507
1778,1.55965541449e+18,1.690358043,2.542719841,10.04158878
1779,1.55965541454e+18,0.6751855016,1.881899953,10.34326744
1780,1.55965541459e+18,2.751021862,2.317657948,7.747873306
1781,1.55965541465e+18,4.266597748,2.427794695,9.10063839
1782,1.5596554147e+18,4.575459003,3.0981915,7.163670063
1783,1.55965541475e+18,4.570670605,3.002420664,6.557918549
1784,1.5596554148e+18,5.226701736,3.126922846,6.541158676
1785,1.55965541485e+18,6.38074255,3.433390141,4.977697372
1786,1.55965541491e+18,7.300143719,4.154066563,5.408666611
1787,1.55965541496e+18,6.790163517,3.495641232,5.358386993
1788,1.55965541501e+18,7.637736797,3.766194344,4.788549423
1789,1.55965541506e+18,6.61777544,2.054287672,4.546727657
1790,1.55965541511e+18,6.545947552,1.573038578,5.135719299
1791,1.55965541517e+18,4.807703972,1.704723716,4.168432236
1792,1.55965541522e+18,5.245856285,0.4716721475,4.058295727
1793,1.55965541527e+18,7.477320194,1.139674783,5.078257084
1794,1.55965541532e+18,7.185218811,1.003201127,5.296135902
1795,1.55965541537e+18,8.420664787,1.324033976,6.517216206
1796,1.55965541543e+18,9.591464996,1.458113313,7.817307472
1797,1.55965541548e+18,12.96020985,1.750214934,10.02722263
1798,1.55965541553e+18,16.56359291,2.729473352,11.3105545
1799,1.55965541558e+18,30.9986763,3.143682718,13.01048946
1800,1.55965541563e+18,37.14477921,14.78704166,2.286532402
1801,1.55965541569e+18,31.93483734,7.079870701,-8.284191132
1802,1.55965541574e+18,5.786962032,-9.498087883,24.76159096
1803,1.55965541579e+18,-6.146103382,-52.9781189,3.000026226
1804,1.55965541584e+18,-13.44864178,-16.17811394,-14.29860878
1805,1.55965541589e+18,4.252232075,-0.3950553536,-11.19562912
1806,1.55965541595e+18,17.9019928,12.7758503,3.430995703
1807,1.559655416e+18,3.387898922,5.111776829,0.945738554
1808,1.55965541605e+18,-2.734261751,1.982459545,1.582615614
1809,1.5596554161e+18,-0.9313728809,0.1915419847,5.849213123
1810,1.55965541615e+18,5.032765865,-1.177983165,9.196409225
1811,1.55965541621e+18,8.854028702,-3.318464994,9.043175697
1812,1.55965541626e+18,10.08947372,-3.45493865,10.07750225
1813,1.55965541631e+18,9.876383781,0.08619388938,6.586649895
1814,1.55965541636e+18,7.908289909,-0.2466102988,8.631361008
1815,1.55965541641e+18,8.676852226,2.731867552,8.456578255
1816,1.55965541647e+18,7.740690231,-0.1652049571,10.73353386
1817,1.55965541652e+18,5.612180233,0.5363175869,11.37519932
1818,1.55965541657e+18,4.477293968,1.084606528,9.641744614
1819,1.55965541662e+18,-0.3854782581,-1.515576005,13.08710575
1820,1.55965541667e+18,-1.592192769,-0.2346389294,10.11341667
1821,1.55965541673e+18,-5.537957668,-1.879505754,10.57311726
1822,1.55965541678e+18,-5.552323341,-0.7015225291,8.564320564
1823,1.55965541683e+18,-5.317684174,-1.151646137,8.425453186
1824,1.55965541688e+18,-4.802915096,-1.168406129,8.753468513
1825,1.55965541693e+18,-6.217931747,-2.296109438,7.929838181
1826,1.55965541699e+18,-5.24106741,-1.237840056,7.36000061
1827,1.55965541704e+18,-5.494860649,-2.394274712,6.519610405
1828,1.55965541709e+18,-5.379935265,-2.389486313,7.075081825
1829,1.55965541714e+18,-5.942590237,-4.048718929,7.168458939
1830,1.55965541719e+18,-7.65210247,-3.0119977,7.350423813
1831,1.55965541725e+18,-7.510839939,-1.71669507,6.210748672
1832,1.5596554173e+18,-8.020820618,0.4381522834,5.937801361
1833,1.55965541735e+18,-9.143735886,0.668002665,5.339232922
1834,1.5596554174e+18,-8.698400497,0.08619388938,5.832453251
1835,1.55965541745e+18,-7.180429935,0.002394274808,6.505244732
1836,1.55965541751e+18,-5.842030525,-0.08140534163,7.077476501
1837,1.55965541756e+18,-5.767807961,-0.1316851079,8.018425941
1838,1.55965541761e+18,-6.533976078,-1.173194647,7.647313595
1839,1.55965541766e+18,-8.013637543,-1.352765322,6.387925148
1840,1.55965541771e+18,-7.769421577,-1.608952641,6.359193802
1841,1.55965541777e+18,-7.070293427,-1.666415215,6.325674057
1842,1.55965541782e+18,-6.780586243,-2.004008055,6.004841328
1843,1.55965541787e+18,-6.845231533,-1.678386688,5.674431324
1844,1.55965541792e+18,-7.151699066,-1.647261024,5.549929142
1845,1.55965541797e+18,-7.343240738,-1.723877907,5.456552505
1846,1.55965541803e+18,-7.71914196,-2.087807655,6.519610405
1847,1.55965541808e+18,-6.143709183,-3.002420664,6.646506786
1848,1.55965541813e+18,-6.519610405,-3.581835032,6.747066498
1849,1.55965541818e+18,-7.012830734,-2.9258039,5.511620522
1850,1.55965541823e+18,-8.35601902,-2.837215662,4.989668846
1851,1.55965541829e+18,-9.002472878,-2.652856588,4.951360226
1852,1.55965541834e+18,-8.64812088,-2.581028223,4.893897533
1853,1.55965541839e+18,-7.077476501,-1.889082789,4.834040642
1854,1.55965541844e+18,-7.161275864,-1.625712633,4.587430477
1855,1.55965541849e+18,-7.115784645,-1.513181686,4.470110893
1856,1.55965541855e+18,-7.628159523,-1.417410731,4.874743462
1857,1.5596554186e+18,-7.683228016,-1.417410731,5.24106741
1858,1.55965541865e+18,-7.767027378,-1.288119793,5.504437923
1859,1.5596554187e+18,-7.659285069,-1.065452337,5.873156071
1860,1.55965541875e+18,-7.668862343,-1.096577883,5.528380394
1861,1.55965541881e+18,-8.200390816,-1.12291491,5.430215359
1862,1.55965541886e+18,-8.657697678,-1.154040456,4.970514297
1863,1.55965541891e+18,-9.864412308,-1.965699673,5.02558279
1864,1.55965541896e+18,-9.452596664,-2.451737404,4.929811954
1865,1.55965541901e+18,-7.40309763,-1.992036581,5.552323341
1866,1.55965541907e+18,-7.458166122,-2.24822402,5.803721905
1867,1.55965541912e+18,-7.589851379,-2.751021862,5.968926907
1868,1.55965541917e+18,-7.051139355,-2.861158371,6.119766235
1869,1.55965541922e+18,-6.435810566,-2.264983892,5.98089838
1870,1.55965541927e+18,-6.859597206,-2.171607256,6.253845692
1871,1.55965541933e+18,-6.272999763,-2.032739401,5.832453251
1872,1.55965541938e+18,-6.304125786,-1.843591571,5.782173634
1873,1.55965541943e+18,-7.415069103,-2.217098475,5.660065651
1874,1.55965541948e+18,-7.50844574,-2.564268351,5.585843086
1875,1.55965541953e+18,-7.264229774,-2.178790092,5.935407162
1876,1.55965541959e+18,-7.338452339,-2.320052385,5.482889175
1877,1.55965541964e+18,-8.176448822,-2.073441982,5.193181992
1878,1.55965541969e+18,-8.238699913,-1.527547359,4.659258842
1879,1.55965541974e+18,-7.922655106,-0.7709565163,5.265010357
1880,1.55965541979e+18,-7.558725357,-0.9409499764,6.191594601
1881,1.55965541985e+18,-7.482108593,-0.8763045669,6.198777676
1882,1.5596554199e+18,-7.553936958,-1.319245458,6.790163517
1883,1.55965541995e+18,-7.838855743,-1.752609134,6.033572674
1884,1.55965542e+18,-7.946598053,-1.807677507,5.765413761
1885,1.55965542005e+18,-8.379961967,-0.9936240315,5.911464691
1886,1.55965542011e+18,-7.731113434,-0.2130904645,5.81090498
1887,1.55965542016e+18,-8.140534401,0.4237866402,6.567495823
1888,1.55965542021e+18,-8.765439987,0.4094209969,7.218738556
1889,1.55965542026e+18,-7.958569527,0.962498486,6.883540154
1890,1.55965542031e+18,-6.76622057,1.362342358,5.600208759
1891,1.55965542037e+18,-4.620950222,0.950527072,5.691191196
1892,1.55965542042e+18,-8.492492676,-0.2442160249,4.046324253
1893,1.55965542047e+18,-10.34566116,-0.9170072675,2.255406857
1894,1.55965542052e+18,-8.001666069,-1.326428294,4.359974384
1895,1.55965542057e+18,-7.33605814,0.2873129845,3.660846233
1896,1.55965542063e+18,-7.838855743,0.1699935049,4.336031914
1897,1.55965542068e+18,-8.557138443,-0.986441195,-0.3112557232
1898,1.55965542073e+18,-12.35685253,-0.4908263385,0.7422251701
1899,1.55965542078e+18,-7.247469902,1.448536277,7.635342598
1900,1.55965542083e+18,-6.627352715,1.113337755,7.735901833
1901,1.55965542089e+18,-8.775016785,2.79890728,6.387925148
1902,1.55965542094e+18,-6.62016964,3.091008663,8.1453228
1903,1.55965542099e+18,-4.494053841,3.610566378,7.604216576
1904,1.55965542104e+18,-6.567495823,4.240260601,7.264229774
1905,1.55965542109e+18,-6.239480019,4.268991947,5.549929142
1906,1.55965542115e+18,-6.847625732,4.158855438,6.026389599
1907,1.5596554212e+18,-4.800520897,4.163643837,5.74386549
1908,1.55965542125e+18,-4.948966026,4.142095566,6.876357079
1909,1.5596554213e+18,-4.506025314,4.213923454,7.817307472
1910,1.55965542135e+18,-2.530748367,3.811685562,8.458972931
1911,1.55965542141e+18,-2.135693073,3.718308687,10.28580475
1912,1.55965542146e+18,-2.264983892,4.312088966,8.095043182
1913,1.55965542151e+18,0.6823683381,2.413429022,9.909903526
1914,1.55965542156e+18,1.381496549,2.834821463,9.514847755
1915,1.55965542161e+18,2.983266354,2.770175934,7.75984478
1916,1.55965542167e+18,4.082238674,3.146077156,6.945791245
1917,1.55965542172e+18,5.604997158,2.068653345,8.061523438
1918,1.55965542177e+18,4.764606953,1.288119793,7.201978683
1919,1.55965542182e+18,5.698374271,2.288926601,6.110189438
1920,1.55965542187e+18,6.864386082,-0.06225114316,6.347222328
1921,1.55965542193e+18,6.000052452,2.909043789,6.174834728
1922,1.55965542198e+18,8.123774529,2.197944164,6.124555111
1923,1.55965542203e+18,8.650514603,2.683982134,5.882733345
1924,1.55965542208e+18,7.807730198,2.683982134,5.727105141
1925,1.55965542213e+18,8.59305191,2.075836182,3.531555414
1926,1.55965542219e+18,7.237892628,1.678386688,2.767781734
1927,1.55965542224e+18,7.802941799,1.245022893,2.703136206
1928,1.55965542229e+18,6.986494064,1.33600533,2.79890728
1929,1.55965542234e+18,6.711152077,1.046298146,2.423006058
1930,1.55965542239e+18,6.332856655,0.8858816624,2.626519442
1931,1.55965542245e+18,7.695199013,1.762186289,2.351177931
1932,1.5596554225e+18,9.21795845,1.094183564,4.336031914
1933,1.55965542255e+18,12.10545349,1.410227895,4.142095566
1934,1.5596554226e+18,14.54282475,1.498816013,5.394300938
1935,1.55965542265e+18,18.89322281,2.001613855,6.883540154
1936,1.55965542271e+18,25.90126419,2.822849989,7.527599812
1937,1.55965542276e+18,43.23820877,13.03682613,-2.351177931
1938,1.55965542281e+18,36.29959869,11.32252598,-11.89715195
1939,1.55965542286e+18,8.856422424,-7.570696831,13.10386562
1940,1.55965542291e+18,10.78381348,-59.01647949,4.149278164
1941,1.55965542297e+18,-15.00013161,-13.70243454,-11.4805479
1942,1.55965542302e+18,6.780586243,-6.653689861,-8.152505875
1943,1.55965542307e+18,11.84687138,4.443774223,-1.97288239
1944,1.55965542312e+18,5.921041489,5.976109982,-1.802888989
1945,1.55965542317e+18,2.379909277,5.351204395,-1.92978549
1946,1.55965542323e+18,3.962524891,0.945738554,1.75979197
1947,1.55965542328e+18,3.888302326,1.271359921,6.002447128
1948,1.55965542333e+18,5.897099018,3.476486921,9.804554939
1949,1.55965542338e+18,6.435810566,4.53715086,11.02563572
1950,1.55965542343e+18,6.65847826,5.657671452,11.60505009
1951,1.55965542349e+18,5.456552505,6.136526108,10.77423668
1952,1.55965542354e+18,0.6967339516,4.678412914,11.05915546
1953,1.55965542359e+18,-2.751021862,3.720703125,8.116591454
1954,1.55965542364e+18,-10.81254482,2.24822402,5.633728504
1955,1.55965542369e+18,-9.31133461,5.430215359,6.442993641
1956,1.55965542375e+18,-9.10063839,5.865973473,8.645726204
1957,1.5596554238e+18,-10.69522572,2.284138203,9.10063839
1958,1.55965542385e+18,-11.30815983,0.6440598965,7.434223175
1959,1.5596554239e+18,-9.107821465,-0.5985686779,6.821289062
1960,1.55965542395e+18,-6.890722752,-1.146857619,6.567495823
1961,1.55965542401e+18,-6.16765213,-0.5147690773,5.858790398
1962,1.55965542406e+18,-6.08864069,-0.2178790122,5.901887417
1963,1.55965542411e+18,-7.343240738,-0.6775797606,5.62175703
1964,1.55965542416e+18,-7.259441376,-0.4597007632,5.303318501
1965,1.55965542421e+18,-6.498061657,0.8595446348,5.466129303
1966,1.55965542427e+18,-6.112583637,0.8810931444,4.948966026
1967,1.55965542432e+18,-7.216344357,0.3806896806,5.355992794
1968,1.55965542437e+18,-7.707170486,0.7661679387,5.154873848
1969,1.55965542442e+18,-8.042368889,0.984046936,4.448562622
1970,1.55965542447e+18,-8.736708641,1.043903828,4.261809349
1971,1.55965542453e+18,-9.301757812,1.491633177,3.849993944
1972,1.55965542458e+18,-9.797372818,1.31445682,3.536343813
1973,1.55965542463e+18,-9.56273365,0.8786988258,3.66802907
1974,1.55965542468e+18,-10.10862827,0.102953814,4.53715086
1975,1.55965542473e+18,-8.576292038,0.5889915824,4.288146019
1976,1.55965542479e+18,-8.698400497,0.9194015265,5.166844845
1977,1.55965542484e+18,-8.60741806,1.527547359,5.255433083
1978,1.55965542489e+18,-10.01764584,1.264177084,6.148497581
1979,1.55965542494e+18,-9.249083519,1.388679385,5.348809719
1980,1.55965542499e+18,-8.6888237,2.557085514,6.749460697
1981,1.55965542505e+18,-6.27539444,4.936994553,7.513234138
1982,1.5596554251e+18,-5.791750908,4.122941017,7.266623974
1983,1.55965542515e+18,-10.39833546,0.984046936,4.417437077
1984,1.5596554252e+18,-11.77743816,-0.7589851022,5.142902374
1985,1.55965542525e+18,-11.26745701,-1.170800328,3.663240433
1986,1.55965542531e+18,-4.769395351,0.7446194887,5.777385235
1987,1.55965542536e+18,-5.782173634,-0.08140534163,5.178816319
1988,1.55965542541e+18,-7.249864101,0.4261809289,3.610566378
1989,1.55965542546e+18,-6.780586243,0.1149251908,5.281770229
1990,1.55965542551e+18,-6.665660858,0.0574625954,4.577853203
1991,1.55965542557e+18,-7.142121792,-1.738243461,5.995264053
1992,1.55965542562e+18,-5.81090498,-2.715107679,7.862798691
1993,1.55965542567e+18,-4.0702672,-3.660846233,19.1446209
1994,1.55965542572e+18,-9.759063721,-6.510033131,3.0119977
1995,1.55965542577e+18,-3.998438835,-2.487651587,10.69761944
1996,1.55965542583e+18,-6.866780281,-2.027950764,10.35523891
1997,1.55965542588e+18,-4.680807114,-1.137280583,6.732700825
1998,1.55965542593e+18,-1.810071707,0.1532335877,12.64895344
1999,1.55965542598e+18,-5.77020216,0.3399870098,11.12619495
2000,1.55965542603e+18,-4.64249897,1.989642382,9.941028595
2001,1.55965542609e+18,1.642472506,1.687963724,10.54917526
2002,1.55965542614e+18,-0.5818088055,2.403851986,9.706390381
2003,1.55965542619e+18,3.306493521,3.038334846,7.075081825
2004,1.55965542624e+18,6.541158676,3.775771379,6.97691679
2005,1.55965542629e+18,5.566689014,4.039141655,4.867560863
2006,1.55965542635e+18,6.428627968,3.105374336,5.614574432
2007,1.5596554264e+18,5.722316742,3.600989342,2.051893473
2008,1.55965542645e+18,7.266623974,1.841197371,1.963305354
2009,1.5596554265e+18,8.032792091,2.200338602,2.236252785
2010,1.55965542655e+18,6.651295185,2.473285913,2.473285913
2011,1.55965542661e+18,5.411061287,1.206714511,2.842004299
2012,1.55965542666e+18,6.452570438,1.328822494,3.390293121
2013,1.55965542671e+18,7.259441376,1.108549237,3.565075159
2014,1.55965542676e+18,8.775016785,0.986441195,4.089421272
2015,1.55965542681e+18,9.332882881,1.089395046,4.063084126
