,Time (s),Acceleration x (m/s^2),Acceleration y (m/s^2),Acceleration z (m/s^2)
0,1.55965502105e+18,-0.5698373914,8.851634026,18.26113319
1,1.5596550211e+18,2.207521439,10.36242104,16.82935715
2,1.55965502115e+18,15.33054161,17.71045113,19.72403526
3,1.5596550212e+18,17.33694458,20.92596245,10.64733982
4,1.55965502125e+18,0.7039167881,-4.041535854,14.60986519
5,1.5596550213e+18,-30.26842308,-28.10160255,-8.293767929
6,1.55965502135e+18,-1.501210332,-14.04721069,9.031204224
7,1.55965502141e+18,0.0574625954,-9.483722687,1.881899953
8,1.55965502146e+18,4.336031914,0.3711125851,1.158828974
9,1.55965502151e+18,4.225894928,3.181991339,1.855562925
10,1.55965502156e+18,2.190761566,3.143682718,3.600989342
11,1.55965502161e+18,4.395888329,2.083019018,5.351204395
12,1.55965502166e+18,5.672037125,1.340793848,7.206767082
13,1.55965502171e+18,3.253819466,0.9553156495,8.121379852
14,1.55965502176e+18,0.4884320498,-0.945738554,8.801354408
15,1.55965502181e+18,-7.620976925,-6.885934353,10.04637718
16,1.55965502186e+18,-12.92190075,-6.524398804,8.147717476
17,1.55965502191e+18,-16.34571457,-5.897099018,4.711932659
18,1.55965502196e+18,-14.39438057,-3.093403101,3.759011507
19,1.55965502202e+18,-13.19005966,-1.50599885,4.666441441
20,1.55965502207e+18,-12.81415844,0.1891477108,3.720703125
21,1.55965502212e+18,-14.03045082,-0.3256213665,4.158855438
22,1.55965502217e+18,-14.34888935,-0.9960182905,3.268185139
23,1.55965502222e+18,-15.3832159,-0.7278595567,3.531555414
24,1.55965502227e+18,-15.51250648,-0.4285751879,5.454157829
25,1.55965502232e+18,-13.43427563,0.4501236677,6.000052452
26,1.55965502237e+18,-16.07276726,0.1005595401,1.623318315
27,1.55965502242e+18,-10.00327969,1.61134696,1.256994247
28,1.55965502248e+18,-4.790944099,3.409447432,0.2394274771
29,1.55965502253e+18,-2.150058746,0.8140534163,0.962498486
30,1.55965502258e+18,1.149251938,-4.395888329,3.239453793
31,1.55965502263e+18,0.0287312977,-18.34493446,-0.4022381604
32,1.55965502268e+18,-7.46774292,-10.08947372,-2.621730804
33,1.55965502273e+18,8.511647224,-14.03523922,13.67609787
34,1.55965502278e+18,-1.778946161,22.13985825,0.8260248303
35,1.55965502284e+18,-5.181210518,9.577098846,17.74875832
36,1.55965502289e+18,-4.170826912,4.125335693,19.42235756
37,1.55965502294e+18,-0.1795706153,6.416656494,21.83099747
38,1.55965502299e+18,3.040729046,8.631361008,23.48065376
39,1.55965502304e+18,11.54758739,13.61384678,20.58597565
40,1.55965502309e+18,16.73358727,12.06235695,12.90035248
41,1.55965502314e+18,-0.4932205975,-5.918647289,19.05124474
42,1.55965502319e+18,-19.72882462,-20.38006783,-5.944984436
43,1.55965502324e+18,-2.449343204,-8.820508003,2.949746609
44,1.5596550233e+18,-1.381496549,-7.374366283,3.624932051
45,1.55965502335e+18,1.467690468,-1.266571403,1.568249941
46,1.5596550234e+18,0.8571503758,1.766974807,1.647261024
47,1.55965502345e+18,-0.6775797606,0.0837996155,5.777385235
48,1.5596550235e+18,0.2921015322,0.5746259689,6.08864069
49,1.55965502355e+18,-0.184359163,-0.4094209969,6.395108223
50,1.5596550236e+18,-3.375927448,-2.466103077,7.257047176
51,1.55965502365e+18,-5.008822918,-3.368744612,5.801327705
52,1.5596550237e+18,-12.15573311,-9.24429512,8.300951004
53,1.55965502375e+18,-13.14217472,-8.650514603,7.479714394
54,1.5596550238e+18,-15.91713905,-9.862017632,5.59781456
55,1.55965502386e+18,-14.35128307,-6.265817165,4.374340057
56,1.55965502391e+18,-15.52926636,-4.252232075,3.603383541
57,1.55965502396e+18,-15.70404816,-4.235472202,5.645699978
58,1.55965502401e+18,-13.98017025,-2.104567528,5.360781193
59,1.55965502406e+18,-12.90514088,-1.33600533,4.532361984
60,1.55965502411e+18,-13.7862339,-1.855562925,3.11734581
61,1.55965502416e+18,-29.49986076,-4.096604347,6.363982677
62,1.55965502421e+18,-8.664880753,1.386285067,18.1055069
63,1.55965502427e+18,-8.767834663,4.180403709,15.81179047
64,1.55965502432e+18,-6.378347874,7.053533554,17.71045113
65,1.55965502437e+18,-4.125335693,6.390319347,18.77829742
66,1.55965502442e+18,0.5004034638,7.369577885,20.59076309
67,1.55965502447e+18,13.29061985,13.80778313,16.75753021
68,1.55965502452e+18,22.05605888,9.816526413,16.59471893
69,1.55965502457e+18,-14.3393116,-12.18446445,24.56047058
70,1.55965502462e+18,-10.84606457,-11.59068394,-2.123721838
71,1.55965502467e+18,0.002394274808,-15.36884975,3.79492569
72,1.55965502472e+18,0.7518022656,-5.70555687,3.026363373
73,1.55965502477e+18,1.968093872,3.478881359,-1.44135344
74,1.55965502483e+18,1.347976685,2.329629421,1.960911036
75,1.55965502488e+18,-0.6608198285,0.7925049663,4.869955063
76,1.55965502493e+18,0.1077423692,-0.1053480953,5.655277252
77,1.55965502498e+18,0.6225114465,-0.277735889,8.095043182
78,1.55965502503e+18,0.1364736706,1.252205729,10.00806904
79,1.55965502508e+18,0.1532335877,0.5698373914,8.518829346
80,1.55965502513e+18,-5.571477413,-4.458139896,11.3680172
81,1.55965502518e+18,-11.82292938,-6.122160912,9.53639698
82,1.55965502523e+18,-15.81657982,-5.672037125,4.680807114
83,1.55965502528e+18,-14.03763294,-2.597788095,3.550709486
84,1.55965502534e+18,-14.3776207,-0.6943396926,6.562707424
85,1.55965502539e+18,-12.24432182,-3.129317284,-0.8308133483
86,1.55965502544e+18,-13.74553204,-2.176395893,1.666415215
87,1.55965502549e+18,-7.563514233,-3.052700281,2.940169573
88,1.55965502554e+18,-6.466936111,-2.832427025,4.608979225
89,1.55965502559e+18,-8.576292038,-3.404658794,4.0726614
90,1.55965502564e+18,-10.45819283,-3.198751211,2.430188894
91,1.5596550257e+18,-10.63536835,-2.35357213,2.537931204
92,1.55965502575e+18,-13.96580505,0.3375927508,-0.6799740195
93,1.5596550258e+18,-13.38399601,0.2442160249,-0.612934351
94,1.55965502585e+18,-8.712765694,-0.7637736797,-0.5267404318
95,1.5596550259e+18,-2.937775135,-3.545921087,-0.1460507661
96,1.55965502595e+18,-2.741444588,-9.684841156,1.053480864
97,1.559655026e+18,-8.243488312,-8.130957603,-0.6632141471
98,1.55965502605e+18,-10.36481571,-6.007235527,0.6033572555
99,1.55965502611e+18,-11.24830341,-3.062277555,1.829225898
100,1.55965502616e+18,-15.02407455,0.2059076279,3.114951611
101,1.55965502621e+18,-20.95948219,3.569863796,3.555498123
102,1.55965502626e+18,-11.67448425,1.61134696,3.708731651
103,1.55965502631e+18,-12.53881741,-2.67440486,1.237840056
104,1.55965502636e+18,-9.428654671,-0.4189980924,-0.9122186899
105,1.55965502641e+18,-7.606611252,-2.087807655,-3.517189741
106,1.55965502646e+18,-8.439818382,0.299284339,-2.48046875
107,1.55965502652e+18,-11.08788681,-4.292934895,2.05668211
108,1.55965502657e+18,-16.58753586,-3.730280161,4.187586784
109,1.55965502662e+18,9.967366219,5.712739468,0.8475732803
110,1.55965502667e+18,9.167677879,4.649681568,2.418217659
111,1.55965502672e+18,5.62175703,6.16765213,5.044736862
112,1.55965502677e+18,8.466156006,8.616994858,3.301704884
113,1.55965502682e+18,5.106987953,5.454157829,6.924242973
114,1.55965502687e+18,5.990475655,5.121353626,10.64733982
115,1.55965502693e+18,6.907482624,1.381496549,9.967366219
116,1.55965502698e+18,5.997658253,1.795706153,6.313702583
117,1.55965502703e+18,5.267404556,3.205934048,4.857983589
118,1.55965502708e+18,5.487678051,3.390293121,7.113390446
119,1.55965502713e+18,4.436591148,3.347196102,6.162863255
120,1.55965502718e+18,4.21631813,2.255406857,8.451789856
121,1.55965502724e+18,5.961744308,2.700742006,9.811738014
122,1.55965502729e+18,9.440625191,3.589017868,10.75268841
123,1.55965502734e+18,22.21408081,9.574705124,8.557138443
124,1.55965502739e+18,35.64117432,17.60031319,0.5147690773
125,1.55965502744e+18,16.75274086,1.352765322,3.586623669
126,1.55965502749e+18,-8.863605499,-8.595446587,21.16778374
127,1.55965502754e+18,-14.89957237,-25.68338585,14.97379494
128,1.55965502759e+18,-2.276955366,-6.873962879,3.775771379
129,1.55965502765e+18,0.5171633363,-3.363956213,2.657644987
130,1.5596550277e+18,3.450150013,1.403045058,2.976083517
131,1.55965502775e+18,4.302511692,2.305686712,4.343214512
132,1.5596550278e+18,4.03195858,1.596981287,5.525986195
133,1.55965502785e+18,2.949746609,1.458113313,6.660872459
134,1.5596550279e+18,1.31445682,0.5339232683,9.474145889
135,1.55965502795e+18,-2.176395893,-3.488458395,12.01447105
136,1.55965502801e+18,-7.462954521,-7.953781128,10.00567436
137,1.55965502806e+18,-9.890748978,-6.399896622,8.059128761
138,1.55965502811e+18,-13.35287094,-5.734288216,4.237866402
139,1.55965502816e+18,-13.56596088,-3.565075159,3.419024467
140,1.55965502821e+18,-12.50050831,-1.963305354,4.589824677
141,1.55965502826e+18,-11.78940868,-1.376708031,4.716721535
142,1.55965502831e+18,-11.36322784,-1.225868702,3.948159218
143,1.55965502836e+18,-11.79659176,-2.956929445,4.051113129
144,1.55965502841e+18,-11.62420464,-5.011217117,5.147690773
145,1.55965502847e+18,-9.287391663,-4.482082367,5.245856285
146,1.55965502852e+18,-7.462954521,-3.306493521,4.398283005
147,1.55965502857e+18,-7.352818012,-3.11734581,4.506025314
148,1.55965502862e+18,-8.269824982,-2.880312681,6.742278099
149,1.55965502867e+18,-10.73592854,-2.090201855,7.714353561
150,1.55965502872e+18,-11.82771778,0.3088614643,9.488511086
151,1.55965502877e+18,-12.557971,-0.6225114465,11.91391182
152,1.55965502882e+18,-16.04643059,-2.923409462,11.47097015
153,1.55965502887e+18,-9.816526413,-1.154040456,8.169265747
154,1.55965502892e+18,-4.630527496,0.7709565163,-0.945738554
155,1.55965502897e+18,-3.430995703,0.1436564922,-2.145270348
156,1.55965502903e+18,0.3639297783,-2.303292274,0.5961744189
157,1.55965502908e+18,0.5482889414,-4.343214512,4.812492371
158,1.55965502913e+18,-6.237085819,-7.379155159,-0.634482801
159,1.55965502918e+18,-10.63297462,-14.91633224,-5.868367672
160,1.55965502923e+18,-56.40193176,-75.59683228,74.21533966
161,1.55965502928e+18,-0.6249057055,42.79526901,-35.59807968
162,1.55965502933e+18,-15.09829712,1.893871427,-13.02964306
163,1.55965502938e+18,-15.22040462,9.845257759,-3.275367975
164,1.55965502943e+18,-17.87565613,12.86204433,-6.031178474
165,1.55965502949e+18,-13.47737312,10.937047,-2.930592299
166,1.55965502954e+18,-7.04156208,8.909096718,1.525153041
167,1.55965502959e+18,-9.569916725,7.829278469,3.761405706
168,1.55965502964e+18,-3.344801903,7.704776287,2.719896078
169,1.55965502969e+18,-0.07182824612,8.482915878,3.75422287
170,1.55965502974e+18,1.568249941,12.85007286,7.410280704
171,1.55965502979e+18,-3.677606106,19.27630615,8.861210823
172,1.55965502984e+18,3.806896925,25.32184982,3.004814863
173,1.55965502989e+18,0.6368771195,24.88609314,2.051893473
174,1.55965502994e+18,-14.71042442,-4.826858044,27.96752357
175,1.55965503e+18,-16.68091202,-18.78069115,-12.0479908
176,1.55965503005e+18,12.81655312,-22.16619682,21.67776489
177,1.5596550301e+18,-1.391073704,-6.895511627,-1.156434774
178,1.55965503015e+18,8.518829346,5.276981831,3.057488918
179,1.5596550302e+18,2.552296877,3.304099321,5.588237286
180,1.55965503025e+18,0.483643502,-0.4166038036,5.444581032
181,1.5596550303e+18,3.143682718,-1.106154919,7.956175327
182,1.55965503035e+18,4.235472202,-1.874717116,10.55875206
183,1.5596550304e+18,3.577046633,-2.250618219,11.77264881
184,1.55965503045e+18,1.453324795,-2.554691315,11.7127924
185,1.5596550305e+18,-2.257801056,-3.026363373,9.684841156
186,1.55965503055e+18,-8.521224022,-5.217124939,9.000079155
187,1.55965503061e+18,-13.59708691,-5.547534943,5.466129303
188,1.55965503066e+18,-14.178895,-2.978477955,5.727105141
189,1.55965503071e+18,-15.83812809,-1.92978549,2.921015263
190,1.55965503076e+18,-11.78222656,-1.247417212,1.496421814
191,1.55965503081e+18,-11.873209,-1.551490068,2.760598898
192,1.55965503086e+18,-9.967366219,-3.055094719,3.20353961
193,1.55965503091e+18,-10.03201103,-4.187586784,4.063084126
194,1.55965503096e+18,-9.771035194,-4.462928295,4.446168423
195,1.55965503101e+18,-9.443019867,-4.395888329,5.116565228
196,1.55965503106e+18,-9.53639698,-2.174001455,7.034379482
197,1.55965503111e+18,-11.89236259,-0.03830839694,6.878751755
198,1.55965503117e+18,-13.38639069,1.920208454,6.737489223
199,1.55965503122e+18,-10.6018486,4.606584549,5.940196037
200,1.55965503127e+18,-9.809344292,11.28421688,-0.7015225291
201,1.55965503132e+18,0.3615354896,10.57551193,-0.2609759569
202,1.55965503137e+18,-10.64733982,-2.971295118,14.60028744
203,1.55965503142e+18,-14.07594204,2.794118643,-2.844398499
204,1.55965503148e+18,-7.668862343,-0.8068706393,0.4932205975
205,1.55965503153e+18,0.1053480953,1.628106833,0.8427847624
206,1.55965503158e+18,-3.804502726,-6.577073097,-6.639324188
207,1.55965503163e+18,-2.50201726,-12.49811459,-8.403904915
208,1.55965503168e+18,-6.586649895,-7.213950157,-19.04885101
209,1.55965503173e+18,0.2825244367,9.754275322,16.40078163
210,1.55965503178e+18,-2.842004299,-4.913052082,17.29863548
211,1.55965503184e+18,-18.87885666,-1.005595446,9.974549294
212,1.55965503189e+18,-13.75989723,-1.999219418,17.80382729
213,1.55965503194e+18,-17.20525932,1.003201127,14.00650787
214,1.55965503199e+18,-12.06475067,-1.324033976,13.18766594
215,1.55965503204e+18,-12.45262337,0.9146129489,8.839662552
216,1.55965503209e+18,-8.731920242,1.170800328,6.114977837
217,1.55965503214e+18,-7.443800449,2.339206457,5.731894016
218,1.5596550322e+18,-7.50844574,3.706337452,5.944984436
219,1.55965503225e+18,-6.023995399,3.275367975,7.836461544
220,1.5596550323e+18,0.8260248303,4.0726614,10.15651417
221,1.55965503235e+18,14.76309872,10.66649437,12.46698856
222,1.5596550324e+18,26.71531868,15.59630585,8.016032219
223,1.55965503245e+18,5.70316267,-3.03115201,10.78860188
224,1.5596550325e+18,-21.16299438,-13.77905178,-0.09577099234
225,1.55965503256e+18,-7.829278469,-13.36244774,11.83729458
226,1.55965503261e+18,-1.110943556,-3.361561775,4.769395351
227,1.55965503266e+18,4.264203548,3.134105682,2.913832426
228,1.55965503271e+18,2.025556564,4.436591148,2.523565531
229,1.55965503276e+18,2.846792698,5.391906738,3.861965179
230,1.55965503281e+18,2.77735877,3.430995703,5.940196037
231,1.55965503286e+18,2.533142805,2.695953369,8.940221786
232,1.55965503291e+18,1.54909575,1.352765322,8.322499275
233,1.55965503296e+18,-1.762186289,-3.0096035,9.33767128
234,1.55965503301e+18,-5.308107376,-3.917033672,6.40468502
235,1.55965503307e+18,-10.56593513,-6.378347874,6.093429565
236,1.55965503312e+18,-11.08309841,-4.738269806,3.052700281
237,1.55965503317e+18,-12.95302677,-4.85319519,3.22269392
238,1.55965503322e+18,-11.60983849,-3.517189741,3.232270956
239,1.55965503327e+18,-13.63060665,-3.560286522,4.690384388
240,1.55965503332e+18,-14.78464699,-3.210722446,5.786962032
241,1.55965503337e+18,-17.6984787,-2.509200096,6.352011204
242,1.55965503342e+18,-17.32976151,-1.872322917,5.420638084
243,1.55965503347e+18,-13.70961761,-3.265790939,5.815693378
244,1.55965503352e+18,-10.69283104,-3.294522047,4.800520897
245,1.55965503357e+18,-8.6888237,0.08858817071,4.096604347
246,1.55965503363e+18,-4.460534096,4.00562191,3.11734581
247,1.55965503368e+18,-2.56666255,0.1149251908,6.806923389
248,1.55965503373e+18,-11.55477047,1.431776285,4.506025314
249,1.55965503378e+18,-23.27953339,2.569056988,-6.203566074
250,1.55965503383e+18,-10.92986488,5.779779434,-2.660039425
251,1.55965503388e+18,-1.685569525,5.415849686,2.454131603
252,1.55965503393e+18,-2.367937803,-2.434977531,3.553103924
253,1.55965503399e+18,-4.465322495,-7.343240738,-2.511594296
254,1.55965503404e+18,-15.59391212,-21.0384922,-12.53402901
255,1.55965503409e+18,-13.2858305,-42.52471542,44.64604187
256,1.55965503414e+18,-2.255406857,34.55417252,23.04250145
257,1.55965503419e+18,-22.32661247,-4.649681568,9.838075638
258,1.55965503424e+18,-20.38246155,0.8834874034,12.15812778
259,1.55965503429e+18,-12.64895344,1.235445857,4.379128456
260,1.55965503434e+18,-10.441432,-0.7158881426,11.65293503
261,1.55965503439e+18,-7.371972084,0.1867534369,10.06074238
262,1.55965503445e+18,-5.698374271,0.7446194887,4.881926537
263,1.5596550345e+18,-3.347196102,2.935380936,4.28335762
264,1.55965503455e+18,-4.620950222,2.320052385,7.498868465
265,1.5596550346e+18,-5.506832123,3.502824068,8.672063828
266,1.55965503465e+18,-5.114171028,4.793338299,10.83888245
267,1.5596550347e+18,3.172414064,8.169265747,16.32416534
268,1.55965503475e+18,13.41033363,15.61785412,19.34574127
269,1.5596550348e+18,16.73837471,21.6107235,10.92747021
270,1.55965503485e+18,-7.034379482,-0.2609759569,15.9458704
271,1.55965503491e+18,-10.54438591,-12.7758503,-11.61941528
272,1.55965503496e+18,2.624125242,-28.17103767,15.08871937
273,1.55965503501e+18,-0.8691217303,-7.046350956,0.5195576549
274,1.55965503506e+18,4.702355862,1.419804931,-0.9960182905
275,1.55965503511e+18,2.844398499,3.172414064,3.258608103
276,1.55965503516e+18,-0.1316851079,-0.02394274808,5.607391834
277,1.55965503521e+18,2.978477955,-0.8930644989,6.792557716
278,1.55965503526e+18,0.6153286099,0.05027977005,8.616994858
279,1.55965503531e+18,-1.491633177,0.09337671846,9.64413929
280,1.55965503536e+18,-4.977697372,-7.12296772,8.351230621
281,1.55965503541e+18,-11.69603252,-10.66409969,12.65853119
282,1.55965503546e+18,-16.05121803,-8.78219986,6.012023926
283,1.55965503552e+18,-18.41436768,-6.258634567,2.631308079
284,1.55965503557e+18,-16.00333214,-2.217098475,0.8547561169
285,1.55965503562e+18,-13.25709915,0.9217957854,0.8212362528
286,1.55965503567e+18,-12.34009266,0.004788549617,2.312869549
287,1.55965503572e+18,-11.32731438,-1.953728199,1.405439258
288,1.55965503577e+18,-11.30097675,-3.407052994,1.606558442
289,1.55965503582e+18,-11.85884285,-4.903474808,1.927391171
290,1.55965503587e+18,-11.43505669,-4.92023468,2.111750364
291,1.55965503592e+18,-10.64255142,-5.085439682,1.67599237
292,1.55965503597e+18,-8.535589218,-4.546727657,2.719896078
293,1.55965503602e+18,-6.761432171,-3.131711483,3.105374336
294,1.55965503608e+18,-8.569109917,-1.82204318,3.395081758
295,1.55965503613e+18,-9.476539612,1.731060743,2.916226625
296,1.55965503618e+18,-11.34646797,2.293715239,3.577046633
297,1.55965503623e+18,-10.92268181,2.875524044,4.616161823
298,1.55965503628e+18,-13.96101665,3.34959054,7.893924236
299,1.55965503633e+18,-17.16216278,3.608172178,8.042368889
300,1.55965503638e+18,-9.567522049,5.473312378,7.290566921
301,1.55965503643e+18,-4.525179386,6.988888264,6.342433929
302,1.55965503648e+18,-0.6727912426,8.245882034,2.772570133
303,1.55965503653e+18,-0.8834874034,4.692778587,5.162056446
304,1.55965503659e+18,-3.387898922,3.052700281,-1.63289547
305,1.55965503664e+18,-1.831620216,-0.7015225291,1.692752242
306,1.55965503669e+18,-5.602602959,-4.793338299,-0.2585816681
307,1.55965503674e+18,-5.128536701,-0.3567469418,-7.604216576
308,1.55965503679e+18,4.659258842,-7.604216576,-25.70493507
309,1.55965503684e+18,19.09194756,20.58118629,-2.655250788
310,1.55965503689e+18,2.748627424,7.245075703,-3.179596901
311,1.55965503694e+18,6.294548512,8.123774529,-1.817254543
312,1.559655037e+18,5.62175703,10.62339687,0.6656084061
313,1.55965503705e+18,-0.08619388938,8.300951004,-0.4166038036
314,1.5596550371e+18,0.5075862408,7.915472507,0.1245022863
315,1.55965503715e+18,8.317710876,9.565128326,7.060716629
316,1.5596550372e+18,4.714327335,9.01923275,8.38235569
317,1.55965503725e+18,4.953754425,8.825297356,12.24192715
318,1.5596550373e+18,4.163643837,8.403904915,12.82612991
319,1.55965503735e+18,3.411841631,5.796539307,11.19084072
320,1.5596550374e+18,5.858790398,6.612987041,13.30259037
321,1.55965503745e+18,11.5332222,8.27461338,16.16853714
322,1.55965503751e+18,20.35612488,14.52367115,15.27547359
323,1.55965503756e+18,23.64825249,17.23398972,9.914691925
324,1.55965503761e+18,0.8020820618,-1.75979197,19.95867538
325,1.55965503766e+18,-5.719922543,-9.529213905,-21.5915699
326,1.55965503771e+18,-4.338426113,-29.50225449,13.90355396
327,1.55965503776e+18,-1.297696948,-10.11341667,6.318490982
328,1.55965503781e+18,1.237840056,-0.7446194887,-1.889082789
329,1.55965503786e+18,0.7877163887,3.184385538,3.071854591
330,1.55965503791e+18,-2.456526041,-1.024749637,4.35039711
331,1.55965503797e+18,-0.7853221297,-1.946545362,7.115784645
332,1.55965503802e+18,-1.048692346,-2.935380936,8.37038517
333,1.55965503807e+18,-1.429382086,-5.004034519,9.581888199
334,1.55965503812e+18,-5.260221958,-7.225921154,9.850046158
335,1.55965503817e+18,-8.43742466,-9.553156853,8.042368889
336,1.55965503822e+18,-14.54043102,-9.356825829,4.395888329
337,1.55965503827e+18,-17.09991074,-8.99289608,2.214704275
338,1.55965503832e+18,-14.77267551,-5.803721905,4.419831276
339,1.55965503837e+18,-13.33850479,-3.79492569,3.517189741
340,1.55965503842e+18,-13.33371639,-2.449343204,2.114144564
341,1.55965503847e+18,-11.92109394,-1.855562925,1.592192769
342,1.55965503852e+18,-10.29777622,-1.623318315,2.133298874
343,1.55965503857e+18,-9.862017632,-3.170019865,2.406246185
344,1.55965503863e+18,-12.10784817,-4.881926537,2.631308079
345,1.55965503868e+18,-15.84531021,-8.324893951,3.172414064
346,1.55965503873e+18,-14.05678749,-7.939415455,7.831672668
347,1.55965503878e+18,-7.458166122,-6.294548512,12.11024189
348,1.55965503883e+18,-1.819648862,-3.110162973,18.96265602
349,1.55965503888e+18,-4.273780346,2.214704275,14.24593544
350,1.55965503893e+18,-9.85483551,2.312869549,8.030397415
351,1.55965503898e+18,-9.902720451,-6.409473896,3.162837029
352,1.55965503903e+18,-7.443800449,-10.41030693,-1.261782765
353,1.55965503908e+18,-1.63289547,-10.76944828,-3.857176781
354,1.55965503913e+18,-0.009577099234,-14.6649332,-2.839609861
355,1.55965503918e+18,-20.61949539,-15.52447796,22.1446476
356,1.55965503923e+18,7.233104229,-3.464515686,-29.10719872
357,1.55965503929e+18,-18.16536331,-7.022408009,-15.6154604
358,1.55965503934e+18,-10.94662476,0.8834874034,-14.3776207
359,1.55965503939e+18,-22.70490837,-6.902694225,-12.01925945
360,1.55965503944e+18,-19.25954628,-4.173221111,-11.32731438
361,1.55965503949e+18,-24.6299057,-5.746259689,-9.986519814
362,1.55965503954e+18,-19.0871582,-1.266571403,-5.542746067
363,1.55965503959e+18,-20.2028904,0.984046936,-7.443800449
364,1.55965503965e+18,-11.22675419,1.836408734,-3.387898922
365,1.5596550397e+18,-7.039167881,0.7206767201,-0.1268965602
366,1.55965503975e+18,-6.974522591,0.07661679387,0.7901107073
367,1.5596550398e+18,-5.593026161,-0.1747820675,0.3711125851
368,1.55965503985e+18,-7.850827217,-0.4046324492,1.980065227
369,1.5596550399e+18,-6.797346115,-0.2442160249,1.58979845
370,1.55965503995e+18,-9.680052757,1.132491946,2.633702278
371,1.55965504001e+18,-6.296942711,1.872322917,4.778972626
372,1.55965504006e+18,-6.110189438,3.579440832,7.158881664
373,1.55965504011e+18,-3.158048391,7.541965485,11.99292278
374,1.55965504016e+18,6.510033131,13.96819878,19.78868103
375,1.55965504021e+18,15.14139366,19.77431488,12.56036568
376,1.55965504026e+18,5.758230686,4.829252243,14.20523262
377,1.55965504031e+18,-29.04015923,-17.86607933,9.466962814
378,1.55965504037e+18,-3.83802247,-13.72158909,2.873129845
379,1.55965504042e+18,1.113337755,-15.38560963,7.450983047
380,1.55965504047e+18,2.609759569,-4.460534096,2.595393896
381,1.55965504052e+18,3.366350412,0.5602602959,2.411034822
382,1.55965504057e+18,0.5147690773,0.4357580245,4.599401951
383,1.55965504062e+18,1.386285067,-1.44135344,7.676044941
384,1.55965504067e+18,2.506805658,-2.083019018,9.356825829
385,1.55965504072e+18,0.22266756,-2.901860952,10.38636398
386,1.55965504077e+18,-2.437371731,-4.405465603,8.248276711
387,1.55965504082e+18,-7.367183685,-7.166064739,9.586676598
388,1.55965504087e+18,-11.96897984,-6.277788639,6.387925148
389,1.55965504092e+18,-16.04643059,-6.483695984,2.513988495
390,1.55965504098e+18,-14.21002102,-2.561874151,3.687183142
391,1.55965504103e+18,-14.8971777,-1.608952641,1.486844659
392,1.55965504108e+18,-15.08153725,-1.965699673,1.055875182
393,1.55965504113e+18,-15.78305912,-3.344801903,0.668002665
394,1.55965504118e+18,-13.36484241,-2.547508478,-0.2202732861
395,1.55965504123e+18,-11.36083412,-2.621730804,0.8356019258
396,1.55965504128e+18,-9.390345573,-2.0351336,1.920208454
397,1.55965504133e+18,-10.61621475,-1.213897347,0.6847625971
398,1.55965504138e+18,-12.80697632,-1.098972082,0.1723877788
399,1.55965504143e+18,-13.85806274,-0.4381522834,0.3950553536
400,1.55965504149e+18,-14.0089016,0.2130904645,1.692752242
401,1.55965504154e+18,-12.17488766,1.769369125,1.771763325
402,1.55965504159e+18,-10.89634418,1.728666425,0.7613793612
403,1.55965504164e+18,-6.644112587,2.899466753,0.2466102988
404,1.55965504169e+18,-3.761405706,3.280156374,0.3806896806
405,1.55965504174e+18,-2.451737404,2.478074312,-0.4716721475
406,1.55965504179e+18,1.367130876,0.7709565163,0.5722316504
407,1.55965504184e+18,0.6081457734,-8.123774529,4.438985348
408,1.5596550419e+18,-9.165284157,-14.11185551,-13.02246094
409,1.55965504195e+18,8.710371971,-63.16815186,62.63662338
410,1.559655042e+18,-4.166038036,7.699987888,7.958569527
411,1.55965504205e+18,-27.04812241,-6.809317589,-0.3208328187
412,1.5596550421e+18,-18.11508369,-0.4094209969,7.752661705
413,1.55965504215e+18,-22.22844696,0.3735068738,2.794118643
414,1.5596550422e+18,-17.15737343,1.075029373,4.886714935
415,1.55965504226e+18,-11.83250618,6.960156918,4.925023079
416,1.55965504231e+18,-7.304932594,5.545140266,5.70555687
417,1.55965504236e+18,-7.288172722,3.632114887,8.334470749
418,1.55965504241e+18,-9.658504486,3.402264595,9.198803902
419,1.55965504246e+18,-10.42946148,6.536370277,12.50050831
420,1.55965504251e+18,-5.763019562,8.947404861,14.05678749
421,1.55965504256e+18,8.590658188,16.08234406,14.78704166
422,1.55965504261e+18,5.322473049,8.798959732,15.5675745
423,1.55965504266e+18,-25.69056892,-7.843644142,17.69129562
424,1.55965504271e+18,-6.687209606,-9.778218269,3.213116884
425,1.55965504276e+18,-1.158828974,-13.15414619,8.643332481
426,1.55965504282e+18,1.034326673,-3.189173937,2.310475111
427,1.55965504287e+18,0.03112557158,0.3471698463,1.743032098
428,1.55965504292e+18,-0.2154847383,1.438959122,3.938581944
429,1.55965504297e+18,0.1101366431,1.577827096,5.657671452
430,1.55965504302e+18,-0.4932205975,0.3495641351,5.949772835
431,1.55965504307e+18,-1.041509509,-1.429382086,5.379935265
432,1.55965504313e+18,-2.454131603,-4.03195858,5.954561234
433,1.55965504318e+18,-6.093429565,-9.234718323,5.480494976
434,1.55965504323e+18,-12.02165413,-15.71123123,7.290566921
435,1.55965504328e+18,-17.50933075,-14.05678749,2.35596633
436,1.55965504333e+18,-18.15099716,-8.56671524,-0.5865973234
437,1.55965504338e+18,-14.54282475,-5.700768471,0.8571503758
438,1.55965504343e+18,-14.82774353,-3.062277555,1.551490068
439,1.55965504349e+18,-15.62503719,-2.853975534,-1.623318315
440,1.55965504354e+18,-13.97777653,-3.493247032,-0.8164477348
441,1.55965504359e+18,-12.80937004,-4.340820312,0.03351984918
442,1.55965504364e+18,-11.23393726,-4.479688168,0.8523618579
443,1.55965504369e+18,-9.28499794,-3.759011507,1.644866824
444,1.55965504374e+18,-10.67846584,-4.175615311,0.3998439014
445,1.55965504379e+18,-11.01126957,-4.427014351,-0.59378016
446,1.55965504384e+18,-9.380768776,-4.822069645,-0.5961744189
447,1.55965504389e+18,-5.722316742,-4.53475666,0.8619389534
448,1.55965504394e+18,-5.267404556,-6.861991405,-0.03112557158
449,1.559655044e+18,-6.277788639,-7.774210453,-0.7110996246
450,1.55965504405e+18,-4.058295727,-7.046350956,-0.6632141471
451,1.5596550441e+18,-6.261028767,-6.462147713,0.5171633363
452,1.55965504415e+18,-9.409500122,-4.728692532,3.37113905
453,1.5596550442e+18,-15.45265007,-2.683982134,3.019180536
454,1.55965504425e+18,-17.5524292,1.690358043,1.000806928
455,1.5596550443e+18,-12.34727478,-0.2442160249,3.146077156
456,1.55965504435e+18,-12.62501144,1.472478986,-0.2633702159
457,1.55965504441e+18,-11.30576611,0.7182824612,-2.636096478
458,1.55965504446e+18,-4.944177628,2.485257149,-2.698347807
459,1.55965504451e+18,3.888302326,2.803695917,-0.926584363
460,1.55965504456e+18,-6.205960274,-11.73434067,-10.80057335
461,1.55965504461e+18,-19.9802227,-5.358386993,-9.486116409
462,1.55965504466e+18,-5.071074009,2.083019018,-1.173194647
463,1.55965504471e+18,-12.32333279,9.483722687,0.8691217303
464,1.55965504476e+18,-5.988081455,8.535589218,2.753416061
465,1.55965504481e+18,-7.886741161,7.326480865,4.992063046
466,1.55965504486e+18,-7.563514233,7.247469902,2.743839025
467,1.55965504492e+18,-0.0287312977,5.885127544,-0.2729473412
468,1.55965504497e+18,6.711152077,2.664827824,10.93944168
469,1.55965504502e+18,1.237840056,3.24424243,9.167677879
470,1.55965504507e+18,-1.23065722,2.427794695,6.83086586
471,1.55965504512e+18,0.6536370516,2.815667152,9.103033066
472,1.55965504517e+18,1.71669507,3.466909885,9.404711723
473,1.55965504522e+18,2.272166729,3.102980137,11.69603252
474,1.55965504527e+18,4.939388752,4.790944099,14.0089016
475,1.55965504533e+18,15.92432213,9.227535248,15.88361931
476,1.55965504538e+18,26.71531868,15.7279911,6.61777544
477,1.55965504543e+18,16.4462738,4.577853203,5.537957668
478,1.55965504548e+18,-13.88918781,-7.450983047,20.35372925
479,1.55965504553e+18,-9.320911407,-19.03209114,0.02633702382
480,1.55965504558e+18,1.359948039,-9.921875,9.653716087
481,1.55965504563e+18,2.279349566,-2.844398499,3.574652195
482,1.55965504568e+18,4.527573586,1.44135344,1.831620216
483,1.55965504574e+18,2.640885115,3.335224867,2.849187136
484,1.55965504579e+18,3.251425266,0.9816526771,5.425426483
485,1.55965504584e+18,4.613767624,0.332804203,6.119766235
486,1.55965504589e+18,3.962524891,0.1819648892,7.029590607
487,1.55965504594e+18,1.556278586,-1.256994247,5.463735104
488,1.55965504599e+18,-1.467690468,-5.633728504,5.06628561
489,1.55965504604e+18,-7.695199013,-13.00330639,6.217931747
490,1.5596550461e+18,-8.485309601,-14.14298153,6.986494064
491,1.55965504615e+18,-10.252285,-15.96981335,6.471724987
492,1.5596550462e+18,-9.488511086,-12.50290298,5.561900616
493,1.55965504625e+18,-12.15573311,-10.71198559,5.255433083
494,1.5596550463e+18,-13.23794556,-8.854028702,3.751828671
495,1.55965504635e+18,-10.67846584,-7.422251701,4.659258842
496,1.5596550464e+18,-8.490098,-7.288172722,5.784567833
497,1.55965504645e+18,-8.918673515,-7.676044941,3.366350412
498,1.5596550465e+18,-12.56276035,-8.028003693,-0.02394274808
499,1.55965504655e+18,-16.85808945,-9.256266594,1.23065722
500,1.5596550466e+18,-16.92991638,-10.75508213,2.348783493
501,1.55965504665e+18,-12.37600613,-6.72551775,1.71908927
502,1.55965504671e+18,-6.941002846,-5.688796997,2.657644987
503,1.55965504676e+18,-2.796513081,-2.549902678,0.7901107073
504,1.55965504681e+18,-1.221080184,-1.769369125,1.106154919
505,1.55965504686e+18,-0.464489311,-3.979284763,-1.321639657
506,1.55965504691e+18,-1.529941559,-9.823709488,-4.728692532
507,1.55965504696e+18,-5.248250484,-11.04478931,-6.217931747
508,1.55965504701e+18,0.09098244458,-17.90438652,-1.412622094
509,1.55965504707e+18,-16.72879791,30.3187027,-42.34514236
510,1.55965504712e+18,-17.82537651,-2.67440486,5.265010357
511,1.55965504717e+18,-18.0193119,7.23071003,1.163617611
512,1.55965504722e+18,-18.18212318,3.675211906,5.370358467
513,1.55965504727e+18,-17.48299408,3.974496126,4.685595989
514,1.55965504732e+18,-11.09746361,4.501236439,3.13889432
515,1.55965504737e+18,-8.202785492,2.971295118,1.424593568
516,1.55965504742e+18,-3.37113905,1.635289669,7.82688427
517,1.55965504747e+18,-7.348029613,2.710319042,3.696760416
518,1.55965504752e+18,-3.490852594,1.03911531,8.585869789
519,1.55965504757e+18,-4.984879971,4.769395351,10.31692982
520,1.55965504762e+18,1.805283189,8.250671387,15.63940334
521,1.55965504767e+18,8.942616463,14.05439281,11.83968925
522,1.55965504773e+18,21.0384922,20.7463913,4.529967785
523,1.55965504778e+18,1.793311834,1.640078187,10.10862827
524,1.55965504783e+18,-20.72244835,-9.373585701,0.926584363
525,1.55965504788e+18,8.025609016,-12.36882401,-1.668809533
526,1.55965504793e+18,2.549902678,-20.59794617,16.08952713
527,1.55965504798e+18,0.8260248303,-1.489238977,-0.6632141471
528,1.55965504803e+18,3.799714088,0.962498486,1.316851139
529,1.55965504809e+18,-2.736656189,-0.5315290093,3.742251635
530,1.55965504814e+18,-1.247417212,-3.723097324,5.820482254
531,1.55965504819e+18,1.106154919,-4.383917332,6.929031372
532,1.55965504824e+18,0.5842030644,-6.574678421,9.148524284
533,1.55965504829e+18,-1.446141958,-10.21397591,8.830085754
534,1.55965504834e+18,-5.178816319,-13.13738632,9.27063179
535,1.55965504839e+18,-7.259441376,-13.76229191,6.462147713
536,1.55965504844e+18,-12.26347542,-14.58831596,5.727105141
537,1.55965504849e+18,-12.78303337,-12.09108734,5.071074009
538,1.55965504854e+18,-12.70881081,-8.940221786,3.660846233
539,1.55965504859e+18,-11.5380106,-5.253038883,2.262589693
540,1.55965504865e+18,-10.34326744,-3.94576478,1.790917516
541,1.5596550487e+18,-10.28819847,-5.430215359,2.066259146
542,1.55965504875e+18,-11.21717739,-8.406298637,1.175588965
543,1.5596550488e+18,-10.36242104,-9.296969414,1.199531674
544,1.55965504885e+18,-9.41907692,-9.577098846,1.08221221
545,1.5596550489e+18,-8.549955368,-9.174860954,0.3423812985
546,1.55965504895e+18,-8.169265747,-8.88515377,0.2609759569
547,1.559655049e+18,-7.78618145,-8.506858826,0.7302538157
548,1.55965504905e+18,-7.307326794,-7.367183685,0.1316851079
549,1.5596550491e+18,-6.610592842,-6.335251331,0.8858816624
550,1.55965504915e+18,-6.450176239,-4.101392746,2.18357873
551,1.55965504921e+18,-8.11898613,-1.508393168,2.552296877
552,1.55965504926e+18,-11.83968925,1.043903828,3.474092722
553,1.55965504931e+18,-12.5531826,2.14048171,5.820482254
554,1.55965504936e+18,-9.162889481,2.88510108,8.46376133
555,1.55965504941e+18,-10.33368969,1.144463301,5.250644684
556,1.55965504946e+18,-9.299363136,1.151646137,3.900273561
557,1.55965504951e+18,-6.495667458,1.757397652,0.2178790122
558,1.55965504956e+18,-2.899466753,1.376708031,3.294522047
559,1.55965504961e+18,-3.852388144,-3.486064196,1.120520592
560,1.55965504966e+18,-6.08864069,-11.34407425,-1.089395046
561,1.55965504972e+18,-9.991309166,-13.62102985,-14.07594204
562,1.55965504977e+18,-12.45262337,-5.298530102,-54.09145737
563,1.55965504982e+18,-5.379935265,12.4310751,-35.15992737
564,1.55965504987e+18,-15.88840771,7.913078308,-12.74472523
565,1.55965504992e+18,-9.984126091,10.2714386,-8.147717476
566,1.55965504997e+18,-12.75190735,10.9945097,-6.873962879
567,1.55965505002e+18,-13.64736652,9.067118645,-3.426207304
568,1.55965505007e+18,-10.98253822,8.303344727,-1.503604531
569,1.55965505012e+18,-12.73514748,6.064698219,-1.798100352
570,1.55965505017e+18,-5.712739468,3.040729046,-4.980091572
571,1.55965505023e+18,4.051113129,0.6560313106,5.880339146
572,1.55965505028e+18,-3.131711483,2.293715239,10.29777622
573,1.55965505033e+18,-6.890722752,4.209135056,4.635315895
574,1.55965505038e+18,-1.982459545,-0.3950553536,13.30498505
575,1.55965505043e+18,-1.405439258,1.723877907,9.723150253
576,1.55965505048e+18,0.6368771195,2.796513081,8.468549728
577,1.55965505053e+18,3.720703125,2.468497276,10.06553173
578,1.55965505059e+18,2.837215662,1.800494671,9.280209541
579,1.55965505064e+18,3.083826065,1.352765322,9.720755577
580,1.55965505069e+18,7.12296772,3.816473961,14.67451
581,1.55965505074e+18,16.58514214,6.098217964,9.289786339
582,1.55965505079e+18,31.31232643,14.06397057,0.5818088055
583,1.55965505084e+18,11.3344965,-2.315263748,2.039922237
584,1.55965505089e+18,-10.00088596,-11.57871342,16.59471893
585,1.55965505094e+18,-5.02558279,-10.86761379,2.616942406
586,1.559655051e+18,-1.33600533,-10.40312386,9.208380699
587,1.55965505105e+18,1.319245458,-3.43578434,3.399870157
588,1.5596550511e+18,3.306493521,0.8451790214,2.343995094
589,1.55965505115e+18,2.16203022,-0.6871568561,4.446168423
590,1.5596550512e+18,2.389486313,-2.997632027,6.926637173
591,1.55965505125e+18,4.091815472,-2.411034822,5.832453251
592,1.5596550513e+18,2.772570133,-3.184385538,6.632141113
593,1.55965505135e+18,1.352765322,-3.56268096,5.432609558
594,1.55965505141e+18,-5.535563469,-9.991309166,7.206767082
595,1.55965505146e+18,-9.773429871,-11.99052811,7.242681503
596,1.55965505151e+18,-15.3832159,-13.35765934,7.75984478
597,1.55965505156e+18,-14.89478397,-9.249083519,6.103006363
598,1.55965505161e+18,-14.92112064,-5.933012962,2.470891714
599,1.55965505166e+18,-14.54521942,-2.762993097,1.515576005
600,1.55965505171e+18,-12.5962801,-2.14287591,1.498816013
601,1.55965505176e+18,-11.82053471,-3.476486921,1.101366401
602,1.55965505181e+18,-11.53561592,-5.116565228,1.283331275
603,1.55965505186e+18,-9.86680603,-5.791750908,1.350371003
604,1.55965505191e+18,-11.48294163,-8.490098,2.583422422
605,1.55965505196e+18,-11.30576611,-8.751074791,3.055094719
606,1.55965505202e+18,-8.973741531,-6.675238132,3.289733648
607,1.55965505207e+18,-8.087860107,-3.845205307,2.540325642
608,1.55965505212e+18,-9.263449669,-1.132491946,3.227482557
609,1.55965505217e+18,-14.61704731,-0.2442160249,0.313650012
610,1.55965505222e+18,-11.80616951,2.640885115,-0.09337671846
611,1.55965505227e+18,-13.4845562,4.118152618,-3.624932051
612,1.55965505232e+18,-8.219545364,3.038334846,1.206714511
613,1.55965505237e+18,-3.849993944,2.530748367,1.424593568
614,1.55965505242e+18,-2.250618219,-0.184359163,2.789330244
615,1.55965505247e+18,-1.984853864,-3.174808502,-0.7110996246
616,1.55965505253e+18,-0.8571503758,-6.110189438,-2.229069948
617,1.55965505258e+18,-6.457359314,-11.75110054,-4.56109333
618,1.55965505263e+18,-5.456552505,-14.87323475,-68.54808807
619,1.55965505268e+18,-11.78462029,9.94821167,13.2762537
620,1.55965505273e+18,-11.6649065,1.893871427,14.154953
621,1.55965505278e+18,-20.35612488,3.421418667,6.385530949
622,1.55965505283e+18,-13.92270756,1.728666425,9.605830193
623,1.55965505288e+18,-14.91393757,2.918621063,3.581835032
624,1.55965505293e+18,-11.86123753,3.347196102,4.802915096
625,1.55965505299e+18,-5.303318501,3.251425266,8.042368889
626,1.55965505304e+18,-10.22115898,2.174001455,5.74386549
627,1.55965505309e+18,-8.379961967,2.14048171,3.828445435
628,1.55965505314e+18,-1.094183564,1.453324795,3.612960577
629,1.55965505319e+18,-3.689577579,2.69355917,7.692804813
630,1.55965505324e+18,-3.280156374,2.839609861,7.355212212
631,1.55965505329e+18,-0.2657645047,3.861965179,11.69603252
632,1.55965505335e+18,1.23065722,6.136526108,10.47016335
633,1.5596550534e+18,6.246663094,11.91630554,12.72796535
634,1.55965505345e+18,19.52531052,18.88603973,5.207547665
635,1.5596550535e+18,12.79739857,11.57871342,10.79099655
636,1.55965505355e+18,-12.99851799,-8.296162605,23.68416595
637,1.5596550536e+18,-4.936994553,-16.10868073,-7.807730198
638,1.55965505365e+18,-3.653663397,-17.00413895,9.483722687
639,1.5596550537e+18,-1.745426297,-6.237085819,0.9984126091
640,1.55965505376e+18,4.460534096,1.268965602,1.024749637
641,1.55965505381e+18,0.4908263385,1.374313712,6.409473896
642,1.55965505386e+18,2.633702278,-3.170019865,3.555498123
643,1.55965505391e+18,0.5865973234,-6.158074856,5.260221958
644,1.55965505396e+18,-2.794118643,-11.01126957,5.66245985
645,1.55965505401e+18,-5.707951069,-15.84770489,7.915472507
646,1.55965505406e+18,-7.956175327,-20.36330795,6.284971237
647,1.55965505411e+18,-10.89395046,-20.48062706,7.529994488
648,1.55965505417e+18,-11.87081432,-14.92590904,5.116565228
649,1.55965505422e+18,-11.49730778,-9.292180061,2.971295118
650,1.55965505427e+18,-11.4853363,-6.12694931,2.832427025
651,1.55965505432e+18,-8.978530884,-6.411868095,3.184385538
652,1.55965505437e+18,-8.528407097,-8.269824982,3.624932051
653,1.55965505442e+18,-8.703188896,-9.488511086,2.985660791
654,1.55965505447e+18,-9.445414543,-11.19802284,1.92978549
655,1.55965505452e+18,-8.645726204,-12.49571991,3.450150013
656,1.55965505457e+18,-5.602602959,-10.73353386,3.749434233
657,1.55965505462e+18,-4.860377789,-10.28101635,4.963331699
658,1.55965505468e+18,-6.124555111,-8.411087036,2.921015263
659,1.55965505473e+18,-7.376760483,-7.304932594,-0.3232271075
660,1.55965505478e+18,-6.866780281,-8.059128761,-0.2298503816
661,1.55965505483e+18,-3.763799906,-6.40707922,0.632088542
662,1.55965505488e+18,-1.829225898,-7.36000061,2.894678354
663,1.55965505493e+18,-2.367937803,-6.131737709,4.343214512
664,1.55965505498e+18,-4.410254002,-5.549929142,3.33043623
665,1.55965505504e+18,-9.809344292,-2.640885115,0.962498486
666,1.55965505509e+18,-15.11505699,2.01597929,-1.683175206
667,1.55965505514e+18,-16.65457535,0.7087053657,0.9050358534
668,1.55965505519e+18,-14.76788712,1.245022893,0.07422251999
669,1.55965505524e+18,-10.13496494,2.241041183,0.2466102988
670,1.55965505529e+18,-10.01285744,2.308080912,-1.975276709
671,1.55965505534e+18,-10.04158878,0.313650012,-2.468497276
672,1.55965505539e+18,-7.874769688,-0.4740664065,-2.288926601
673,1.55965505544e+18,-10.9418354,-4.412648678,-0.8092648983
674,1.5596550555e+18,-9.21795845,-6.023995399,0.950527072
675,1.55965505555e+18,-12.09108734,-11.18365765,-6.12694931
676,1.5596550556e+18,-7.71914196,-6.873962879,3.265790939
677,1.55965505565e+18,-13.92270756,29.53816795,-10.18045616
678,1.5596550557e+18,-1.9944309,9.658504486,-1.218685865
679,1.55965505575e+18,-1.515576005,8.968953133,0.6153286099
680,1.5596550558e+18,-2.300898075,9.447808266,-0.591385901
681,1.55965505586e+18,2.097384691,7.276201248,8.693612099
682,1.55965505591e+18,3.344801903,5.253038883,9.639349937
683,1.55965505596e+18,3.900273561,7.216344357,8.609811783
684,1.55965505601e+18,5.746259689,8.241093636,8.427846909
685,1.55965505606e+18,7.151699066,9.58907032,5.013611317
686,1.55965505611e+18,12.07432747,14.18128967,-1.410227895
687,1.55965505616e+18,14.29621506,13.71919441,-5.013611317
688,1.55965505621e+18,-7.072687626,-3.790137053,17.28426933
689,1.55965505627e+18,-20.79188156,-7.553936958,-27.44317818
690,1.55965505632e+18,18.18930626,-30.25884438,14.47099686
691,1.55965505637e+18,-1.9944309,-21.20609283,-2.578634024
692,1.55965505642e+18,5.774991035,-2.628913641,6.900300026
693,1.55965505647e+18,1.769369125,-2.123721838,3.684788942
694,1.55965505652e+18,-6.93621397,-3.64887476,4.43180275
695,1.55965505657e+18,-4.436591148,-8.332076073,7.127756119
696,1.55965505663e+18,-0.2322446555,-7.953781128,9.601041794
697,1.55965505668e+18,-0.6584255695,-8.739103317,13.06316376
698,1.55965505673e+18,-2.525959969,-8.468549728,9.012050629
699,1.55965505678e+18,-6.644112587,-7.86519289,6.44778204
700,1.55965505683e+18,-9.210775375,-5.679219723,3.804502726
701,1.55965505688e+18,-9.545973778,-5.367964268,3.007209063
702,1.55965505693e+18,-9.486116409,-5.413455486,2.54511404
703,1.55965505698e+18,-9.081484795,-5.729499817,2.880312681
704,1.55965505703e+18,-9.347249031,-6.1939888,2.988054991
705,1.55965505709e+18,-9.85483551,-6.158074856,2.138087511
706,1.55965505714e+18,-10.59945488,-6.368771076,0.8068706393
707,1.55965505719e+18,-9.751881599,-5.322473049,0.962498486
708,1.55965505724e+18,-8.049551964,-4.831646442,1.316851139
709,1.55965505729e+18,-7.376760483,-5.485283375,2.870735407
710,1.55965505734e+18,-6.004841328,-5.195576191,3.584229469
711,1.5596550574e+18,-5.566689014,-4.398283005,4.886714935
712,1.55965505745e+18,-6.505244732,-3.620143414,4.946571827
713,1.5596550575e+18,-8.028003693,-2.808484316,4.194769382
714,1.55965505755e+18,-8.983319283,-2.449343204,2.293715239
715,1.5596550576e+18,-10.75987053,-3.969707727,1.266571403
716,1.55965505765e+18,-9.572310448,-3.603383541,1.376708031
717,1.5596550577e+18,-8.470944405,-2.897072554,1.917814136
718,1.55965505775e+18,-8.18602562,-1.901054144,0.2513988614
719,1.5596550578e+18,-7.36239481,-0.986441195,0.6775797606
720,1.55965505785e+18,-8.506858826,-2.810878515,0.9170072675
721,1.5596550579e+18,-9.052753448,-4.53715086,-0.5554717779
722,1.55965505795e+18,-8.305739403,-3.775771379,0.1532335877
723,1.55965505801e+18,-7.609005451,-3.272973776,0.7206767201
724,1.55965505806e+18,-10.03201103,-3.459727049,0.2370332032
725,1.55965505811e+18,-12.78782177,-1.812466025,0.8882759809
726,1.55965505816e+18,-13.63778973,1.508393168,1.446141958
727,1.55965505821e+18,-12.81894779,1.778946161,0.7182824612
728,1.55965505826e+18,-15.2323761,-0.01915419847,0.7972934842
729,1.55965505831e+18,-12.6010685,-0.8667274714,1.898659945
730,1.55965505836e+18,-10.72156239,-2.971295118,-2.054287672
731,1.55965505841e+18,-11.52603912,-4.877137661,-4.333637238
732,1.55965505846e+18,-2.683982134,-7.242681503,-8.588263512
733,1.55965505851e+18,0.8906702399,-5.456552505,-1.201925993
734,1.55965505856e+18,-12.46459484,19.06800461,-7.154093266
735,1.55965505862e+18,-10.12778282,4.862771988,5.607391834
736,1.55965505867e+18,-0.7446194887,8.087860107,10.6449461
737,1.55965505872e+18,1.213897347,7.489291668,6.584255695
738,1.55965505877e+18,3.332830429,6.016812801,7.534782887
739,1.55965505882e+18,2.018373728,5.873156071,8.504464149
740,1.55965505887e+18,3.919427872,7.879558563,10.92268181
741,1.55965505893e+18,9.67047596,12.96739197,11.92588329
742,1.55965505898e+18,22.16380119,22.91560364,11.52843285
743,1.55965505903e+18,20.13824463,19.55883026,8.269824982
744,1.55965505908e+18,-5.552323341,-6.174834728,20.59794617
745,1.55965505913e+18,-20.94032669,-28.59243011,-10.53241444
746,1.55965505918e+18,2.724684715,-18.21564293,20.94032669
747,1.55965505923e+18,-0.1268965602,-7.089447498,3.11734581
748,1.55965505928e+18,2.490045786,0.2083019018,1.671203852
749,1.55965505933e+18,1.740637779,3.866753817,3.232270956
750,1.55965505938e+18,2.080624819,1.443747759,5.49246645
751,1.55965505944e+18,3.969707727,3.023969173,6.727912426
752,1.55965505949e+18,3.146077156,3.313676357,8.217150688
753,1.55965505954e+18,0.1508393139,1.022355318,8.964164734
754,1.55965505959e+18,-6.510033131,-4.348002911,9.052753448
755,1.55965505964e+18,-14.34649467,-6.730306625,6.72312355
756,1.55965505969e+18,-17.01611137,-3.972101927,1.553884387
757,1.55965505974e+18,-17.26032639,-1.946545362,1.288119793
758,1.55965505979e+18,-16.06797791,-0.6177229285,0.1532335877
759,1.55965505984e+18,-14.20283794,-0.5267404318,1.235445857
760,1.5596550599e+18,-11.10704041,-0.8547561169,1.534730196
761,1.55965505995e+18,-10.23073673,-1.527547359,2.001613855
762,1.55965506e+18,-11.17647457,-3.033546209,1.793311834
763,1.55965506005e+18,-11.16210938,-3.943370581,1.197137356
764,1.5596550601e+18,-10.14214802,-3.462121487,1.819648862
765,1.55965506015e+18,-8.827691078,-1.948939681,2.288926601
766,1.5596550602e+18,-11.57153034,-0.4405465722,3.071854591
767,1.55965506025e+18,-15.2706852,1.814860344,4.271386147
768,1.55965506031e+18,-16.63781548,1.563461423,4.197163582
769,1.55965506036e+18,-12.07432747,2.205127001,4.541939259
770,1.55965506041e+18,-10.67846584,2.537931204,1.362342358
771,1.55965506046e+18,-7.831672668,2.423006058,2.061470509
772,1.55965506051e+18,-4.740664005,3.687183142,2.932986736
773,1.55965506056e+18,-1.992036581,2.552296877,3.306493521
774,1.55965506061e+18,-0.5315290093,0.907430172,3.035940409
775,1.55965506066e+18,0.5578660369,-1.731060743,2.549902678
776,1.55965506072e+18,-4.015198708,-9.505270958,-1.249811411
777,1.55965506077e+18,-5.767807961,-6.268211365,-5.616968632
778,1.55965506082e+18,-14.58352757,-50.25343323,-0.5602602959
779,1.55965506087e+18,0.8236305118,46.71469498,23.21010017
780,1.55965506092e+18,-2.147664547,5.607391834,17.55961227
781,1.55965506097e+18,-8.456578255,6.373559475,15.87404156
782,1.55965506102e+18,-4.228289127,5.765413761,12.14615631
783,1.55965506107e+18,-2.427794695,5.073468208,14.05439281
784,1.55965506112e+18,-2.408640385,4.115758419,13.18287754
785,1.55965506117e+18,-0.9553156495,3.66802907,11.85884285
786,1.55965506122e+18,-2.743839025,4.230683804,15.05519962
787,1.55965506128e+18,4.70953846,6.572284222,15.10069084
788,1.55965506133e+18,18.63703537,12.44304657,8.810931206
789,1.55965506138e+18,23.96908569,14.60986519,4.28335762
790,1.55965506143e+18,-0.634482801,-7.905895233,12.56754875
791,1.55965506148e+18,-17.05681419,-9.512454033,-11.63617516
792,1.55965506153e+18,0.277735889,-11.53561592,7.922655106
793,1.55965506158e+18,-0.1771763414,-7.67843914,7.999272346
794,1.55965506163e+18,2.128510237,-1.381496549,3.045517445
795,1.55965506168e+18,0.3016786277,0.9936240315,3.759011507
796,1.55965506174e+18,0.7972934842,-0.7374366522,5.193181992
797,1.55965506179e+18,2.485257149,-0.6392713785,5.791750908
798,1.55965506184e+18,1.980065227,-2.554691315,6.08624649
799,1.55965506189e+18,0.3256213665,-4.386311531,5.801327705
800,1.55965506194e+18,-3.787742853,-10.3097477,7.024802208
801,1.55965506199e+18,-5.399089813,-13.37681293,5.305713177
802,1.55965506204e+18,-7.989695072,-17.70087433,5.724710941
803,1.55965506209e+18,-8.748680115,-17.08315086,5.645699978
804,1.55965506215e+18,-9.383162498,-14.5524025,4.336031914
805,1.5596550622e+18,-10.66888809,-12.85725594,3.340013266
806,1.55965506225e+18,-11.37759399,-9.016839027,3.141288519
807,1.5596550623e+18,-9.014444351,-7.070293427,4.094210148
808,1.55965506235e+18,-9.301757812,-9.431048393,6.280182838
809,1.5596550624e+18,-9.038387299,-10.62579155,6.457359314
810,1.55965506245e+18,-9.308940887,-9.012050629,4.635315895
811,1.5596550625e+18,-12.76387882,-8.820508003,2.825244188
812,1.55965506255e+18,-12.88119888,-10.22834206,2.983266354
813,1.55965506261e+18,-16.25473213,-12.42868042,1.199531674
814,1.55965506266e+18,-15.90995598,-7.439012051,-4.498842239
815,1.55965506271e+18,-9.976943016,-4.38870573,-2.542719841
816,1.55965506276e+18,-5.650488377,-2.578634024,-0.7661679387
817,1.55965506281e+18,-2.006402254,-1.185166001,0.7948992252
818,1.55965506286e+18,0.4333637357,-1.264177084,2.114144564
819,1.55965506291e+18,-1.386285067,-9.004867554,9.742303848
820,1.55965506297e+18,-1.845985889,-10.14214802,1.673598051
821,1.55965506302e+18,-3.687183142,-8.432636261,-7.817307472
822,1.55965506307e+18,-15.9458704,-15.38560963,-33.8430748
823,1.55965506312e+18,-1.692752242,15.50053501,31.19740105
824,1.55965506317e+18,-30.98191643,1.156434774,-2.626519442
825,1.55965506322e+18,-17.02808189,4.860377789,8.358413696
826,1.55965506327e+18,-22.65702248,2.901860952,3.62732625
827,1.55965506332e+18,-15.22998238,3.505218267,6.435810566
828,1.55965506337e+18,-13.38639069,4.328848839,6.0216012
829,1.55965506343e+18,-10.05834866,4.778972626,3.600989342
830,1.55965506348e+18,-5.248250484,4.292934895,5.894704342
831,1.55965506353e+18,-6.141314983,3.193962574,8.468549728
832,1.55965506358e+18,-8.707977295,3.739857197,8.435029984
833,1.55965506363e+18,-5.724710941,4.383917332,10.45579815
834,1.55965506368e+18,-1.075029373,6.514821529,11.91870022
835,1.55965506373e+18,9.81413269,15.70165443,15.27547359
836,1.55965506378e+18,17.24356651,15.9027729,10.24270725
837,1.55965506383e+18,-7.110996246,-1.800494671,12.62022209
838,1.55965506388e+18,-13.56835556,-7.89152956,-6.708757877
839,1.55965506394e+18,6.210748672,-18.31859589,7.960963726
840,1.55965506399e+18,0.8667274714,-13.34089947,3.905062199
841,1.55965506404e+18,1.841197371,-0.2561874092,0.1101366431
842,1.55965506409e+18,2.288926601,4.723904133,-0.3711125851
843,1.55965506414e+18,-2.597788095,-0.2561874092,3.720703125
844,1.55965506419e+18,1.446141958,-2.001613855,4.893897533
845,1.55965506424e+18,0.5746259689,-4.491659641,6.191594601
846,1.55965506429e+18,-0.9792584181,-7.33605814,5.190787792
847,1.55965506435e+18,-2.377514839,-9.924268723,2.624125242
848,1.5596550644e+18,-5.406272411,-15.43349552,2.889889717
849,1.55965506445e+18,-7.448588848,-19.71206474,6.158074856
850,1.5596550645e+18,-7.50605154,-19.44630051,7.237892628
851,1.55965506455e+18,-8.897125244,-16.58992958,5.399089813
852,1.5596550646e+18,-9.98891449,-10.93465328,1.934574008
853,1.55965506465e+18,-10.26904488,-9.012050629,-0.1819648892
854,1.55965506471e+18,-14.55958557,-8.05194664,-2.944957972
855,1.55965506476e+18,-15.27786732,-8.236305237,-2.478074312
856,1.55965506481e+18,-16.14698982,-8.262641907,-2.442160368
857,1.55965506486e+18,-14.91154385,-8.202785492,-2.195549965
858,1.55965506491e+18,-14.1693182,-9.402317047,-1.596981287
859,1.55965506496e+18,-13.93946838,-11.64335823,-1.343188167
860,1.55965506501e+18,-15.51968956,-13.19484806,-3.818868399
861,1.55965506506e+18,-13.55638409,-10.8293047,-2.444554567
862,1.55965506511e+18,-8.583475113,-7.537177086,-1.494027495
863,1.55965506517e+18,-3.232270956,-2.176395893,0.1508393139
864,1.55965506522e+18,-0.4189980924,0.4166038036,1.300091267
865,1.55965506527e+18,-0.8332076073,0.7087053657,0.3926610649
866,1.55965506532e+18,-2.530748367,-1.285725594,-0.299284339
867,1.55965506537e+18,-1.731060743,-8.061523438,5.49246645
868,1.55965506542e+18,-8.765439987,-14.77267551,-7.427040577
869,1.55965506547e+18,-5.514014721,-24.87412071,58.47537231
870,1.55965506552e+18,-5.600208759,26.43039894,-31.20937157
871,1.55965506557e+18,-14.70084763,13.07752895,-3.421418667
872,1.55965506563e+18,-13.32174492,10.61382008,8.336864471
873,1.55965506568e+18,-19.35052872,10.5970602,4.929811954
874,1.55965506573e+18,-14.12143326,8.451789856,9.507665634
875,1.55965506578e+18,-12.10066509,6.414262295,5.935407162
876,1.55965506583e+18,-5.830059052,3.823656797,2.506805658
877,1.55965506588e+18,-2.892283916,3.749434233,-0.1867534369
878,1.55965506593e+18,7.280989647,-5.77020216,10.45819283
879,1.55965506598e+18,-4.383917332,4.508419514,11.45421028
880,1.55965506603e+18,1.087000728,4.450956821,14.25072384
881,1.55965506608e+18,7.412674904,5.631334305,13.54920101
882,1.55965506614e+18,12.32093811,8.846845627,15.05041122
883,1.55965506619e+18,13.66652107,12.86443901,7.862798691
884,1.55965506624e+18,9.964971542,10.07032013,2.430188894
885,1.55965506629e+18,-14.33212948,-2.971295118,14.95942879
886,1.55965506634e+18,2.909043789,-6.220325947,-18.50295639
887,1.55965506639e+18,13.69525146,-26.63630676,14.58352757
888,1.55965506644e+18,-4.606584549,-9.296969414,-0.5650488734
889,1.55965506649e+18,4.022381783,2.686376333,1.213897347
890,1.55965506654e+18,-1.910631299,1.980065227,0.3112557232
891,1.55965506659e+18,-3.723097324,-2.683982134,6.16765213
892,1.55965506665e+18,0.6560313106,-3.826051235,6.251451492
893,1.5596550667e+18,4.661653042,-2.806090117,9.026415825
894,1.55965506675e+18,1.764580488,-5.830059052,8.480521202
895,1.5596550668e+18,-6.481301785,-14.18368435,8.401510239
896,1.55965506685e+18,-11.94982529,-16.53486252,10.02004051
897,1.5596550669e+18,-16.1254406,-14.66253853,8.456578255
898,1.55965506695e+18,-15.66334534,-9.917086601,5.111776829
899,1.559655067e+18,-13.8197546,-4.42940855,1.587404251
900,1.55965506705e+18,-12.19164753,-1.793311834,2.33441782
901,1.5596550671e+18,-10.01525116,-1.599375606,1.604164124
902,1.55965506715e+18,-8.743891716,-2.90664959,1.429382086
903,1.55965506721e+18,-9.057541847,-4.867560863,1.391073704
904,1.55965506726e+18,-12.71599388,-7.805335999,0.6153286099
905,1.55965506731e+18,-13.02724934,-9.301757812,0.2178790122
906,1.55965506736e+18,-12.04559612,-9.555550575,0.9194015265
907,1.55965506741e+18,-8.624177933,-7.479714394,1.637683988
908,1.55965506746e+18,-6.373559475,-5.66485405,3.617749214
909,1.55965506751e+18,-7.01761961,-4.759818554,4.953754425
910,1.55965506756e+18,-7.659285069,-3.598595142,5.154873848
911,1.55965506762e+18,-7.180429935,-1.920208454,5.358386993
912,1.55965506767e+18,-6.739883423,1.606558442,5.205153465
913,1.55965506772e+18,-9.541185379,2.209915638,6.287365437
914,1.55965506777e+18,-12.18925285,4.764606953,5.406272411
915,1.55965506782e+18,-6.177228928,5.303318501,5.054314137
916,1.55965506788e+18,-3.572257996,5.080651283,2.88510108
917,1.55965506793e+18,-2.073441982,4.082238674,0.5123748183
918,1.55965506798e+18,-3.54113245,4.000833035,-2.094990492
919,1.55965506803e+18,-4.963331699,1.54670155,1.065452337
920,1.55965506808e+18,-4.192375183,-3.296916485,0.2657645047
921,1.55965506813e+18,-2.370332003,-3.208328247,-1.347976685
922,1.55965506818e+18,-2.600182533,-7.723930359,-7.182824612
923,1.55965506824e+18,-2.243435383,-15.09829712,-10.29777622
924,1.55965506829e+18,1.733454943,-18.2515564,7.060716629
925,1.55965506834e+18,-13.37920761,-3.320859194,7.635342598
926,1.55965506839e+18,-29.50464821,6.656084061,-12.24671555
927,1.55965506844e+18,-3.205934048,-1.376708031,4.575459003
928,1.5596550685e+18,-24.34259224,-14.82056141,6.079063892
929,1.55965506855e+18,-18.90758896,-7.154093266,-6.727912426
930,1.5596550686e+18,-9.541185379,-12.2610817,-3.064671755
931,1.55965506865e+18,-11.04000092,-8.221940041,-1.233051538
932,1.5596550687e+18,-15.7327795,-8.372778893,0.5315290093
933,1.55965506875e+18,-12.3736124,-4.951360226,-0.612934351
934,1.5596550688e+18,-9.862017632,-4.673624516,0.07422251999
935,1.55965506885e+18,-10.48213482,-1.333611012,1.072635174
936,1.55965506891e+18,-8.317710876,-1.88668859,3.007209063
937,1.55965506896e+18,-8.576292038,0.44533512,1.793311834
938,1.55965506901e+18,-5.897099018,1.652049661,1.92978549
939,1.55965506906e+18,-7.101418972,2.0351336,2.250618219
940,1.55965506911e+18,-7.180429935,3.30888772,3.466909885
941,1.55965506916e+18,1.891477108,0.7470137477,2.33441782
942,1.55965506921e+18,-5.70316267,3.507612705,7.415069103
943,1.55965506926e+18,-2.652856588,3.512401104,10.29059315
944,1.55965506931e+18,-2.387091875,4.898686409,9.069513321
945,1.55965506936e+18,0.9050358534,6.270605564,13.69525146
946,1.55965506941e+18,6.208354473,10.11341667,13.92989063
947,1.55965506947e+18,16.14938354,15.23477077,15.02886295
948,1.55965506952e+18,17.75115395,17.24117279,6.55313015
949,1.55965506957e+18,-3.481275558,-6.122160912,18.32099152
950,1.55965506962e+18,-11.39914227,-14.78464699,-10.00327969
951,1.55965506967e+18,-0.5027977228,-19.51334,19.56361961
952,1.55965506972e+18,-0.1316851079,-7.024802208,4.122941017
953,1.55965506977e+18,0.9217957854,-1.144463301,-1.731060743
954,1.55965506982e+18,-0.7829278708,-0.2561874092,1.877111435
955,1.55965506988e+18,0.01915419847,-1.711906433,3.749434233
956,1.55965506993e+18,1.077423692,0.02394274808,5.710345268
957,1.55965506998e+18,-0.984046936,2.45892024,8.05194664
958,1.55965507003e+18,-3.737462997,0.5650488734,11.50927925
959,1.55965507008e+18,-9.885960579,-3.624932051,11.91151714
960,1.55965507013e+18,-15.91235065,-1.987248063,6.962551117
961,1.55965507018e+18,-15.69686604,-0.8212362528,9.194015503
962,1.55965507023e+18,-10.21637058,-0.2537931204,10.55396366
963,1.55965507028e+18,-9.016839027,-2.753416061,10.36481571
964,1.55965507034e+18,-7.513234138,-0.984046936,8.054340363
965,1.55965507039e+18,-8.11898613,-0.01197137404,6.749460697
966,1.55965507044e+18,-7.838855743,0.6871568561,5.257827282
967,1.55965507049e+18,-8.995290756,0.9170072675,5.265010357
968,1.55965507054e+18,-10.88197899,-1.685569525,5.061496735
969,1.55965507059e+18,-10.49410629,-0.3016786277,5.985687256
970,1.55965507064e+18,-9.991309166,-0.5219519138,7.144515991
971,1.55965507069e+18,-9.792584419,0.670396924,6.675238132
972,1.55965507074e+18,-12.16291618,3.64648056,1.218685865
973,1.5596550708e+18,-9.88117218,8.193208694,-0.7565908432
974,1.55965507085e+18,-8.140534401,8.851634026,1.177983165
975,1.5596550709e+18,-5.38711834,8.32968235,2.004008055
976,1.55965507095e+18,-3.505218267,4.740664005,4.972908974
977,1.559655071e+18,-5.765413761,1.240234375,1.192348838
978,1.55965507105e+18,-3.064671755,0.2394274771,-1.479661822
979,1.55965507111e+18,-1.355159521,-1.97288239,-0.29689008
980,1.55965507116e+18,-6.332856655,-7.858009815,0.8044763207
981,1.55965507121e+18,-6.205960274,1.024749637,-4.158855438
982,1.55965507126e+18,-6.670449734,-3.311282158,26.2125206
983,1.55965507131e+18,0.7494080067,20.95229912,21.55565643
984,1.55965507136e+18,-2.138087511,8.846845627,14.99773693
985,1.55965507141e+18,-10.43424988,7.975329399,15.96981335
986,1.55965507147e+18,-5.444581032,8.956981659,11.98813438
987,1.55965507152e+18,-8.576292038,6.402290821,8.923461914
988,1.55965507157e+18,-4.321666241,4.395888329,9.730332375
989,1.55965507162e+18,-3.076643229,3.624932051,5.837242126
990,1.55965507167e+18,-3.591412306,4.000833035,6.93860817
991,1.55965507172e+18,-0.668002665,4.39109993,7.838855743
992,1.55965507177e+18,-1.867534399,3.912245035,10.96098995
993,1.55965507182e+18,0.3782954216,5.753442287,13.72398281
994,1.55965507187e+18,5.106987953,9.706390381,13.44864178
995,1.55965507193e+18,16.36247444,16.84611702,14.99294853
996,1.55965507198e+18,19.52052307,14.34649467,9.976943016
997,1.55965507203e+18,-1.903448462,-3.804502726,18.15818024
998,1.55965507208e+18,-27.72570229,-24.28034019,-12.85725594
999,1.55965507213e+18,-3.261002302,-17.20046997,10.95380688
1000,1.55965507218e+18,-1.180377483,-8.877970695,2.559479713
1001,1.55965507223e+18,3.833234072,1.434170604,1.640078187
1002,1.55965507228e+18,0.5435003638,2.956929445,4.867560863
1003,1.55965507233e+18,2.983266354,1.695146561,6.289760113
1004,1.55965507238e+18,3.517189741,1.491633177,6.759037971
1005,1.55965507243e+18,0.0,-0.2873129845,7.589851379
1006,1.55965507249e+18,-3.32804203,-3.665634632,6.818894863
1007,1.55965507254e+18,-8.854028702,-7.793364525,9.438231468
1008,1.55965507259e+18,-11.86123753,-9.622590065,10.34805584
1009,1.55965507264e+18,-13.31456184,-8.334470749,7.513234138
1010,1.55965507269e+18,-13.34329319,-5.669642925,4.795732498
1011,1.55965507274e+18,-13.44385338,-3.442967176,3.13889432
1012,1.55965507279e+18,-12.04559612,-2.157241583,2.592999697
1013,1.55965507285e+18,-10.52523232,-1.795706153,3.495641232
1014,1.5596550729e+18,-11.79659176,-4.297723293,4.266597748
1015,1.55965507295e+18,-10.86282444,-4.640104771,4.21871233
1016,1.559655073e+18,-9.601041794,-4.221106529,4.21631813
1017,1.55965507305e+18,-10.58508873,-4.462928295,5.023188591
1018,1.5596550731e+18,-10.43424988,-2.679193497,6.284971237
1019,1.55965507315e+18,-12.75909042,0.2681587934,3.591412306
1020,1.5596550732e+18,-12.17967606,1.055875182,3.639297724
1021,1.55965507325e+18,-11.46857643,1.139674783,1.577827096
1022,1.55965507331e+18,-8.535589218,2.449343204,3.715914488
1023,1.55965507336e+18,-7.221132755,2.67440486,4.580247879
1024,1.55965507341e+18,-10.19961071,1.884294271,3.253819466
1025,1.55965507346e+18,-8.59305191,3.423812866,4.810098171
1026,1.55965507351e+18,-6.998465061,2.535537004,3.742251635
1027,1.55965507356e+18,-7.812518597,0.5004034638,4.716721535
1028,1.55965507361e+18,-3.021574736,-0.5818088055,2.243435383
1029,1.55965507366e+18,-1.113337755,-6.08864069,-0.1532335877
1030,1.55965507371e+18,-5.700768471,-7.920260906,-6.957762718
1031,1.55965507377e+18,-2.123721838,6.23469162,5.518803596
1032,1.55965507382e+18,20.99539566,6.842837334,18.88843346
1033,1.55965507387e+18,4.199557781,11.07591534,18.12705421
1034,1.55965507392e+18,-6.756643295,5.830059052,10.70959091
1035,1.55965507397e+18,-0.8786988258,6.071880817,14.22199249
1036,1.55965507402e+18,-5.226701736,6.416656494,11.83729458
1037,1.55965507407e+18,-2.985660791,5.281770229,11.34167957
1038,1.55965507413e+18,-1.915419817,4.367157459,10.71677399
1039,1.55965507418e+18,0.4022381604,4.85319519,11.47575951
1040,1.55965507423e+18,0.9146129489,5.758230686,13.95622826
1041,1.55965507428e+18,3.778165579,7.575485706,14.6649332
1042,1.55965507433e+18,14.27227211,11.12380123,14.83492661
1043,1.55965507438e+18,27.41923523,18.77829742,8.277008057
1044,1.55965507443e+18,5.45176363,-0.01436564885,8.597841263
1045,1.55965507448e+18,-21.68494606,-14.68169308,22.18535042
1046,1.55965507453e+18,-10.61621475,-14.83253288,2.027950764
1047,1.55965507458e+18,-2.083019018,-11.5332222,10.24510193
1048,1.55965507464e+18,0.8044763207,-3.110162973,2.901860952
1049,1.55965507469e+18,0.5027977228,0.8954587579,2.621730804
1050,1.55965507474e+18,-0.5722316504,0.04070267081,5.691191196
1051,1.55965507479e+18,-0.4980091453,-1.237840056,7.170853138
1052,1.55965507484e+18,-1.438959122,-0.7398309112,7.642525196
1053,1.55965507489e+18,-3.962524891,-1.934574008,7.12296772
1054,1.55965507494e+18,-7.834067345,-3.469304085,10.25946712
1055,1.55965507499e+18,-10.18045616,-4.582642078,9.0335989
1056,1.55965507505e+18,-14.13340378,-5.303318501,6.926637173
1057,1.5596550751e+18,-13.26428223,-3.311282158,4.649681568
1058,1.55965507515e+18,-13.81257153,-2.092596292,3.9864676
1059,1.5596550752e+18,-14.31776333,-1.637683988,2.360754967
1060,1.55965507525e+18,-15.21082783,-2.521171331,1.486844659
1061,1.5596550753e+18,-13.4414587,-2.004008055,1.412622094
1062,1.55965507535e+18,-11.65293503,-2.236252785,1.261782765
1063,1.5596550754e+18,-10.73353386,-2.631308079,1.154040456
1064,1.55965507545e+18,-10.04398251,-2.739050388,0.670396924
1065,1.55965507551e+18,-9.656110764,-3.019180536,1.304879785
1066,1.55965507556e+18,-9.138946533,-2.389486313,0.9816526771
1067,1.55965507561e+18,-10.64733982,-1.036720991,0.928978622
1068,1.55965507566e+18,-11.44463348,1.494027495,0.5315290093
1069,1.55965507571e+18,-12.92908382,2.365543604,1.106154919
1070,1.55965507576e+18,-12.17009926,3.684788942,2.877918243
1071,1.55965507581e+18,-12.48135471,3.981678963,1.108549237
1072,1.55965507586e+18,-11.07352066,3.548315287,-0.1963305324
1073,1.55965507591e+18,-6.974522591,4.829252243,-1.40065074
1074,1.55965507597e+18,-5.205153465,7.376760483,-4.767001152
1075,1.55965507602e+18,-1.108549237,5.988081455,-1.194743156
1076,1.55965507607e+18,1.192348838,4.300117493,1.570644259
1077,1.55965507612e+18,-3.481275558,-3.550709486,0.6536370516
1078,1.55965507617e+18,-3.20353961,-11.35843945,-3.624932051
1079,1.55965507622e+18,-21.01215553,-46.64765549,-60.80979156
1080,1.55965507627e+18,-5.300924301,18.85491371,-8.174054146
1081,1.55965507632e+18,-17.32736588,0.3495641351,23.74881172
1082,1.55965507637e+18,-18.56760025,1.283331275,12.43586349
1083,1.55965507642e+18,-18.38563538,0.1987248063,4.192375183
1084,1.55965507647e+18,-19.37926102,2.509200096,0.5770202279
1085,1.55965507653e+18,-14.57395077,0.9984126091,3.981678963
1086,1.55965507658e+18,-11.97616291,2.67440486,1.245022893
1087,1.55965507663e+18,-9.2035923,1.82443738,3.818868399
1088,1.55965507668e+18,-10.27383327,1.424593568,1.532335877
1089,1.55965507673e+18,-7.158881664,2.37512064,0.9361614585
1090,1.55965507678e+18,-2.765387297,3.866753817,5.200365067
1091,1.55965507683e+18,-6.835654736,2.092596292,9.294574738
1092,1.55965507688e+18,-4.594613552,5.59781456,9.735121727
1093,1.55965507694e+18,0.7374366522,7.371972084,11.4853363
1094,1.55965507699e+18,7.175641537,10.57311726,13.11823177
1095,1.55965507704e+18,17.13821983,12.723176,8.133351326
1096,1.55965507709e+18,10.47255802,3.392687321,9.873989105
1097,1.55965507714e+18,-23.94035339,-7.075081825,12.76866722
1098,1.55965507719e+18,-1.711906433,-10.36002731,-6.517216206
1099,1.55965507724e+18,0.1580221355,-15.84531021,9.028810501
1100,1.55965507729e+18,0.6153286099,-2.164424419,2.842004299
1101,1.55965507734e+18,-1.956122518,0.7518022656,1.405439258
1102,1.5596550774e+18,-1.965699673,0.3519583941,4.115758419
1103,1.55965507745e+18,-0.4405465722,-0.5099805593,6.984099388
1104,1.5596550775e+18,-0.3088614643,-2.406246185,10.39354706
1105,1.55965507755e+18,-3.193962574,-4.048718929,8.88515377
1106,1.5596550776e+18,-7.120573044,-6.756643295,7.266623974
1107,1.55965507765e+18,-11.78701496,-7.04395628,5.446975231
1108,1.55965507771e+18,-13.56835556,-7.417463303,4.577853203
1109,1.55965507776e+18,-14.1693182,-6.052726746,3.498035431
1110,1.55965507781e+18,-14.48775673,-4.204346657,2.774964571
1111,1.55965507786e+18,-12.99851799,-1.204320192,1.71908927
1112,1.55965507791e+18,-12.75430202,-1.228263021,2.633702278
1113,1.55965507796e+18,-12.19164753,-2.640885115,1.450930476
1114,1.55965507801e+18,-10.9753561,-3.73267436,1.240234375
1115,1.55965507806e+18,-10.24989033,-5.138113976,2.229069948
1116,1.55965507812e+18,-10.78620815,-5.444581032,1.173194647
1117,1.55965507817e+18,-11.88996887,-6.191594601,0.9960182905
1118,1.55965507822e+18,-9.67047596,-5.578660488,0.9577099085
1119,1.55965507827e+18,-7.817307472,-3.809291124,2.157241583
1120,1.55965507832e+18,-7.316903591,-1.913025618,3.32804203
1121,1.55965507837e+18,-10.05116558,-0.2178790122,6.038361073
1122,1.55965507842e+18,-12.46220016,0.8715160489,7.300143719
1123,1.55965507848e+18,-12.78782177,2.528354168,6.761432171
1124,1.55965507853e+18,-12.99851799,2.303292274,5.037554264
1125,1.55965507858e+18,-10.86282444,2.415823221,3.677606106
1126,1.55965507863e+18,-8.877970695,1.388679385,4.419831276
1127,1.55965507868e+18,-7.647313595,-0.1364736706,3.660846233
1128,1.55965507873e+18,-4.625739098,1.256994247,2.106961727
1129,1.55965507878e+18,-0.08619388938,0.9170072675,-0.299284339
1130,1.55965507883e+18,-3.407052994,-3.567469358,-3.186779737
1131,1.55965507888e+18,-2.231464148,-11.99531651,-4.395888329
1132,1.55965507894e+18,-14.01847935,-7.769421577,-10.52523232
1133,1.55965507899e+18,3.014391899,7.182824612,-8.832479477
1134,1.55965507904e+18,-2.305686712,9.713572502,17.43271446
1135,1.55965507909e+18,-18.7471714,15.60348892,0.2944957912
1136,1.55965507914e+18,-10.2474966,13.0583744,7.324086666
1137,1.55965507919e+18,-16.05361176,9.684841156,7.415069103
1138,1.55965507924e+18,-8.128562927,8.035185814,8.904308319
1139,1.55965507929e+18,-8.571503639,6.076669693,7.065505028
1140,1.55965507934e+18,-5.363175392,5.011217117,7.405491829
1141,1.55965507939e+18,-5.820482254,5.267404556,7.913078308
1142,1.55965507944e+18,-4.163643837,6.081458092,9.646533012
1143,1.5596550795e+18,-4.458139896,8.408693314,10.63297462
1144,1.55965507955e+18,1.022355318,12.05996227,10.6449461
1145,1.5596550796e+18,11.01605797,19.49897385,7.659285069
1146,1.55965507965e+18,12.57712555,19.72882462,1.302485466
1147,1.5596550797e+18,-6.158074856,-2.377514839,12.47177792
1148,1.55965507975e+18,-24.7759552,-13.75510883,2.897072554
1149,1.55965507981e+18,0.924190104,-19.45827103,19.8245945
1150,1.55965507986e+18,2.300898075,-9.454991341,8.449396133
1151,1.55965507991e+18,-2.16203022,-6.742278099,5.640911579
1152,1.55965507996e+18,-2.456526041,-4.692778587,7.462954521
1153,1.55965508001e+18,-3.818868399,-0.8882759809,13.69285774
1154,1.55965508006e+18,0.9170072675,9.572310448,9.773429871
1155,1.55965508011e+18,7.599428177,10.39594078,1.388679385
1156,1.55965508016e+18,9.557945251,12.14615631,-2.1213274
1157,1.55965508021e+18,4.103786945,5.681613922,3.11734581
1158,1.55965508027e+18,-10.13496494,-4.980091572,10.99211597
1159,1.55965508032e+18,-27.97470665,-5.348809719,6.253845692
1160,1.55965508037e+18,-15.80460835,2.147664547,1.692752242
1161,1.55965508042e+18,-5.011217117,3.366350412,4.170826912
1162,1.55965508047e+18,2.178790092,4.977697372,4.012804508
1163,1.55965508052e+18,-0.9792584181,2.724684715,2.363149166
1164,1.55965508057e+18,-11.43745041,-3.426207304,5.921041489
1165,1.55965508062e+18,-13.92989063,-3.974496126,5.265010357
1166,1.55965508067e+18,-12.82852459,-2.9258039,4.884320736
1167,1.55965508072e+18,-7.108602047,-0.2154847383,5.205153465
1168,1.55965508077e+18,-7.182824612,1.575432777,4.857983589
1169,1.55965508082e+18,-12.18685913,-0.03351984918,5.547534943
1170,1.55965508087e+18,-12.46698856,3.354378939,4.769395351
1171,1.55965508093e+18,-12.06235695,3.917033672,6.098217964
1172,1.55965508098e+18,-12.28981304,3.351984739,3.543526649
1173,1.55965508103e+18,-11.4805479,3.596200705,3.533949614
1174,1.55965508108e+18,-11.42547894,2.796513081,3.962524891
1175,1.55965508113e+18,-11.85166073,3.22269392,3.445361376
1176,1.55965508118e+18,-10.27383327,2.581028223,3.818868399
1177,1.55965508123e+18,-9.538790703,2.547508478,4.972908974
1178,1.55965508128e+18,-8.865999222,3.33043623,3.579440832
1179,1.55965508133e+18,-4.630527496,4.611373425,2.535537004
1180,1.55965508138e+18,-0.4740664065,5.937801361,2.616942406
1181,1.55965508144e+18,1.743032098,4.92262888,0.610540092
1182,1.55965508149e+18,2.394274712,1.82204318,2.097384691
1183,1.55965508154e+18,-0.634482801,-4.470110893,1.0606637
1184,1.55965508159e+18,-7.934626579,-11.97855663,-0.8786988258
1185,1.55965508164e+18,-18.2802887,-61.15935516,44.06902313
1186,1.55965508169e+18,-2.978477955,62.80422211,19.66417885
1187,1.55965508174e+18,-3.680000305,10.78860188,8.138139725
1188,1.55965508179e+18,-15.57715225,11.09985828,6.601015568
1189,1.55965508184e+18,-16.28825188,10.41749001,9.002472878
1190,1.55965508189e+18,-15.3975811,8.047157288,9.261054993
1191,1.55965508195e+18,-9.560338974,7.405491829,2.578634024
1192,1.559655082e+18,-0.7685621977,4.2426548,3.854782343
1193,1.55965508205e+18,-6.148497581,4.051113129,8.736708641
1194,1.5596550821e+18,-2.145270348,3.560286522,9.067118645
1195,1.55965508215e+18,-1.659232497,4.21871233,11.82771778
1196,1.5596550822e+18,1.608952641,6.65847826,16.00812149
1197,1.55965508225e+18,11.65293503,13.53722954,14.46142006
1198,1.5596550823e+18,16.57077599,20.24359322,6.703969479
1199,1.55965508235e+18,6.131737709,-0.5985686779,8.01124382
1200,1.55965508241e+18,-17.08315086,-12.59867382,8.212362289
1201,1.55965508246e+18,-2.154847383,-15.02886295,7.130150318
1202,1.55965508251e+18,2.188367128,-15.48616982,6.72312355
1203,1.55965508256e+18,2.138087511,-2.202732801,1.867534399
1204,1.55965508261e+18,2.276955366,1.551490068,1.932179809
1205,1.55965508266e+18,-0.1915419847,-0.3759011328,5.435003757
1206,1.55965508271e+18,2.339206457,-0.9002473354,7.247469902
1207,1.55965508276e+18,2.60736537,-1.381496549,9.52203083
1208,1.55965508282e+18,0.7374366522,-0.9744698405,10.80536175
1209,1.55965508287e+18,-1.412622094,-1.235445857,11.26506329
1210,1.55965508292e+18,-8.102226257,-1.884294271,10.15411949
1211,1.55965508297e+18,-10.25467873,-1.477267504,6.205960274
1212,1.55965508302e+18,-13.36244774,-1.834014535,3.500429869
1213,1.55965508307e+18,-11.95461369,-0.241821751,2.679193497
1214,1.55965508312e+18,-12.7710619,-0.05985686928,2.437371731
1215,1.55965508317e+18,-15.37603283,-0.4932205975,1.544307232
1216,1.55965508322e+18,-14.46620846,-1.580221415,1.666415215
1217,1.55965508327e+18,-11.34407425,-1.915419817,2.722290516
1218,1.55965508333e+18,-10.94901848,-2.451737404,2.365543604
1219,1.55965508338e+18,-11.29139996,-3.304099321,1.783734679
1220,1.55965508343e+18,-9.529213905,-3.636903524,2.066259146
1221,1.55965508348e+18,-8.988107681,-4.118152618,2.442160368
1222,1.55965508353e+18,-8.444606781,-3.962524891,2.001613855
1223,1.55965508358e+18,-7.992089272,-3.517189741,2.083019018
1224,1.55965508363e+18,-7.369577885,-2.473285913,2.363149166
1225,1.55965508369e+18,-7.558725357,-2.073441982,2.423006058
1226,1.55965508374e+18,-8.116591454,-1.623318315,2.842004299
1227,1.55965508379e+18,-7.755055904,-0.5411061049,2.592999697
1228,1.55965508384e+18,-8.279402733,0.09816526622,2.844398499
1229,1.55965508389e+18,-9.708784103,0.5027977228,3.411841631
1230,1.55965508394e+18,-13.69046307,0.6416656375,2.257801056
1231,1.55965508399e+18,-12.88359261,1.9944309,2.35596633
1232,1.55965508404e+18,-11.02802944,3.165231228,3.890696526
1233,1.5596550841e+18,-12.36642933,2.308080912,4.364762783
1234,1.55965508415e+18,-14.41114044,1.881899953,3.981678963
1235,1.5596550842e+18,-12.10305882,2.861158371,4.060689926
1236,1.55965508425e+18,-12.00249958,4.589824677,3.88111949
1237,1.5596550843e+18,-10.55875206,6.007235527,3.261002302
1238,1.55965508435e+18,-5.312895775,6.349617004,3.73267436
1239,1.5596550844e+18,-1.867534399,6.227508545,4.170826912
1240,1.55965508445e+18,-3.895485163,3.474092722,3.282550812
1241,1.5596550845e+18,-0.313650012,0.9984126091,3.622537851
1242,1.55965508455e+18,-0.6225114465,-9.196409225,3.002420664
1243,1.55965508461e+18,-8.42305851,-11.62899303,-4.805309772
1244,1.55965508466e+18,-29.15987206,-52.88474274,4.613767624
1245,1.55965508471e+18,9.52203083,32.60284042,-24.82623482
1246,1.55965508476e+18,4.264203548,15.445467,7.518023014
1247,1.55965508481e+18,-10.07750225,15.47898674,-1.233051538
1248,1.55965508486e+18,-2.288926601,13.56835556,9.876383781
1249,1.55965508491e+18,1.383890867,11.17647457,9.833286285
1250,1.55965508496e+18,-2.621730804,8.169265747,8.88515377
1251,1.55965508502e+18,-0.5961744189,7.767027378,9.117398262
1252,1.55965508507e+18,-0.3040728867,7.587456703,8.344047546
1253,1.55965508512e+18,0.184359163,7.261835575,8.06391716
1254,1.55965508517e+18,1.58979845,6.900300026,7.407886028
1255,1.55965508522e+18,0.2346389294,7.656890869,10.8101511
1256,1.55965508527e+18,-0.3519583941,9.598648071,13.45821857
1257,1.55965508533e+18,8.614601135,15.42631245,13.35287094
1258,1.55965508538e+18,14.58352757,19.05124474,8.947404861
1259,1.55965508543e+18,9.237112045,8.049551964,16.57556534
1260,1.55965508548e+18,-28.19019127,-11.11182976,21.0863781
1261,1.55965508553e+18,-3.854782343,-5.825270653,-10.28101635
1262,1.55965508558e+18,5.34402132,-11.30097675,12.03123093
1263,1.55965508563e+18,0.4189980924,-2.645673752,4.805309772
1264,1.55965508568e+18,0.3615354896,1.798100352,-1.61134696
1265,1.55965508574e+18,-0.007182824425,3.996044636,1.656838179
1266,1.55965508579e+18,0.8020820618,3.153259993,5.403878212
1267,1.55965508584e+18,3.708731651,3.452544212,6.984099388
1268,1.55965508589e+18,2.023162127,3.158048391,7.087053299
1269,1.55965508594e+18,-1.450930476,1.738243461,9.435836792
1270,1.55965508599e+18,-4.328848839,-0.09577099234,9.064723969
1271,1.55965508604e+18,-11.67687798,-6.478907585,7.18761301
1272,1.55965508609e+18,-14.86126328,-3.816473961,5.842030525
1273,1.55965508614e+18,-13.52046967,-1.510787368,3.778165579
1274,1.5596550862e+18,-14.29621506,-0.29689008,4.494053841
1275,1.55965508625e+18,-13.62821198,3.419024467,7.925049782
1276,1.5596550863e+18,-16.09431458,-1.922602654,1.891477108
1277,1.55965508635e+18,-13.69525146,-0.3950553536,-0.8499675393
1278,1.5596550864e+18,-11.35604572,-1.31445682,1.304879785
1279,1.55965508645e+18,-9.086273193,-2.660039425,3.059883118
1280,1.5596550865e+18,-10.28580475,-3.54113245,2.288926601
1281,1.55965508655e+18,-9.256266594,-2.370332003,1.051086664
1282,1.5596550866e+18,-8.863605499,-1.869928598,1.118126392
1283,1.55965508665e+18,-8.07828331,-1.479661822,1.37910223
1284,1.55965508671e+18,-8.15968895,-1.798100352,2.298503876
1285,1.55965508676e+18,-6.926637173,-0.7709565163,2.717501879
1286,1.55965508681e+18,-6.72551775,0.7326480746,4.472505569
1287,1.55965508686e+18,-7.795758724,1.778946161,5.188393593
1288,1.55965508691e+18,-10.97296143,0.4597007632,5.470917702
1289,1.55965508696e+18,-11.4805479,0.9026415944,3.045517445
1290,1.55965508701e+18,-10.89395046,1.0175668,3.957736254
1291,1.55965508706e+18,-12.18925285,1.218685865,3.41423583
1292,1.55965508711e+18,-12.00249958,3.22508812,3.270579338
1293,1.55965508716e+18,-12.84528446,2.322446585,1.577827096
1294,1.55965508722e+18,-9.555550575,3.847599506,2.233858347
1295,1.55965508727e+18,-7.472531796,4.443774223,2.200338602
1296,1.55965508732e+18,-6.426233768,6.474119186,1.695146561
1297,1.55965508737e+18,-5.080651283,6.864386082,2.013585091
1298,1.55965508742e+18,-3.181991339,5.767807961,2.011190891
1299,1.55965508747e+18,-4.987274647,5.21473074,1.374313712
1300,1.55965508752e+18,-3.464515686,4.692778587,-0.8475732803
1301,1.55965508757e+18,-3.105374336,0.9816526771,1.12530911
1302,1.55965508762e+18,-3.13889432,-2.444554567,-3.275367975
1303,1.55965508767e+18,-6.442993641,-11.83729458,-4.209135056
1304,1.55965508772e+18,-6.680026531,-11.873209,-9.158101082
1305,1.55965508777e+18,-12.11503029,-8.492492676,-24.48385429
1306,1.55965508783e+18,-14.59549904,0.1460507661,-15.70883656
1307,1.55965508788e+18,-21.87170029,6.785374641,-21.87888336
1308,1.55965508793e+18,-25.8342247,0.5339232683,-9.184437752
1309,1.55965508798e+18,-19.95627975,3.699154615,-6.361588001
1310,1.55965508803e+18,-16.70006752,3.665634632,-4.474899769
1311,1.55965508808e+18,-15.20125103,3.96731329,0.7518022656
1312,1.55965508813e+18,-16.49655342,3.993650436,0.928978622
1313,1.55965508818e+18,-12.31614971,1.031932473,-2.425400496
1314,1.55965508823e+18,-8.849239349,-1.297696948,-4.252232075
1315,1.55965508829e+18,-7.273807049,0.4549122155,-7.431828976
1316,1.55965508834e+18,11.86363125,-0.2466102988,-10.4749527
1317,1.55965508839e+18,8.588263512,-2.533142805,7.910684109
1318,1.55965508844e+18,-3.014391899,4.781366825,9.407105446
1319,1.55965508849e+18,1.82443738,1.604164124,13.00091267
1320,1.55965508854e+18,1.075029373,4.041535854,13.95862198
1321,1.55965508859e+18,8.449396133,7.778998852,14.57873917
1322,1.55965508864e+18,15.89559078,15.26110744,10.95380688
1323,1.55965508869e+18,17.53566933,16.32177162,1.855562925
1324,1.55965508875e+18,-16.52289009,-3.234665155,20.63864899
1325,1.5596550888e+18,-0.8092648983,-13.24033928,-12.36164093
1326,1.55965508885e+18,6.984099388,-20.05923462,11.44942188
1327,1.5596550889e+18,-0.3998439014,-9.905115128,0.9768640995
1328,1.55965508895e+18,1.288119793,-0.7709565163,0.7350423932
1329,1.559655089e+18,-2.554691315,2.250618219,0.4022381604
1330,1.55965508905e+18,-3.804502726,-2.219492674,6.818894863
1331,1.5596550891e+18,-1.113337755,-1.139674783,8.284191132
1332,1.55965508915e+18,-1.525153041,-3.543526649,9.730332375
1333,1.5596550892e+18,-5.530774593,-3.340013266,7.529994488
1334,1.55965508926e+18,-11.68166637,-6.529187202,6.507638931
1335,1.55965508931e+18,-15.95305347,-5.231490612,0.1173194647
1336,1.55965508936e+18,-20.05923462,-0.7709565163,-5.432609558
1337,1.55965508941e+18,-15.03125763,3.232270956,-3.486064196
1338,1.55965508946e+18,-13.41033363,0.9960182905,-2.511594296
1339,1.55965508951e+18,-11.98573971,-1.043903828,-3.507612705
1340,1.55965508956e+18,-11.30337143,-3.711125851,-1.194743156
1341,1.55965508961e+18,-11.59786701,-5.652883053,-3.148471355
1342,1.55965508966e+18,-10.24031353,-5.449369431,-3.62732625
1343,1.55965508972e+18,-9.751881599,-4.405465603,-2.813272953
1344,1.55965508977e+18,-9.979337692,-4.288146019,-3.083826065
1345,1.55965508982e+18,-9.596253395,-3.335224867,-2.217098475
1346,1.55965508987e+18,-9.873989105,-2.602576733,-0.3232271075
1347,1.55965508992e+18,-9.002472878,-1.769369125,-0.3663240373
1348,1.55965508997e+18,-10.68325424,-0.4261809289,1.568249941
1349,1.55965509002e+18,-8.56671524,2.26977253,2.042316437
1350,1.55965509007e+18,-7.666468143,4.685595989,5.001639843
1351,1.55965509012e+18,-7.561120033,6.112583637,6.105400562
1352,1.55965509017e+18,-9.146129608,5.559505939,5.221913338
1353,1.55965509022e+18,-14.74633884,3.481275558,3.397475958
1354,1.55965509028e+18,-11.542799,4.38870573,4.611373425
1355,1.55965509033e+18,-8.473338127,5.844424725,4.010410309
1356,1.55965509038e+18,-8.01124382,7.151699066,2.456526041
1357,1.55965509043e+18,-5.53316927,10.21397591,2.104567528
1358,1.55965509048e+18,-6.110189438,6.392713547,1.201925993
1359,1.55965509053e+18,-3.402264595,2.169213057,2.305686712
1360,1.55965509058e+18,-2.106961727,-5.763019562,0.5291347504
1361,1.55965509063e+18,-21.04088783,-15.51729488,-34.89176559
1362,1.55965509068e+18,38.13361359,15.78784847,-35.39216995
1363,1.55965509074e+18,13.33850479,2.343995094,-2.609759569
1364,1.55965509079e+18,-6.179623127,1.000806928,7.920260906
1365,1.55965509084e+18,1.419804931,7.587456703,4.022381783
1366,1.55965509089e+18,5.971321583,6.08864069,5.514014721
1367,1.55965509094e+18,4.307300568,8.456578255,5.071074009
1368,1.55965509099e+18,6.498061657,6.483695984,6.347222328
1369,1.55965509104e+18,4.254626274,4.683201313,8.703188896
1370,1.55965509109e+18,2.219492674,5.815693378,9.421471596
1371,1.55965509115e+18,3.792531252,7.585062504,11.29618835
1372,1.5596550912e+18,4.465322495,6.656084061,11.43505669
1373,1.55965509125e+18,4.541939259,6.165257454,11.53082752
1374,1.5596550913e+18,4.338426113,6.280182838,11.19084072
1375,1.55965509135e+18,5.202759266,6.579467297,12.85246754
1376,1.5596550914e+18,11.87560272,10.81733322,15.17012501
1377,1.55965509145e+18,27.88133049,19.86529732,5.334444046
1378,1.5596550915e+18,13.72158909,5.300924301,13.56835556
1379,1.55965509155e+18,-13.72637749,-10.24270725,4.486870766
1380,1.5596550916e+18,-7.922655106,-26.42321587,11.75588894
1381,1.55965509165e+18,-2.018373728,-11.77504349,3.852388144
1382,1.5596550917e+18,1.802888989,-4.929811954,0.7039167881
1383,1.55965509176e+18,2.423006058,2.061470509,2.130904675
1384,1.55965509181e+18,0.8236305118,0.4381522834,5.461340904
1385,1.55965509186e+18,0.7302538157,-0.8260248303,7.211555958
1386,1.55965509191e+18,-1.40065074,-1.18756032,8.480521202
1387,1.55965509196e+18,-5.018400192,-2.004008055,8.980924606
1388,1.55965509201e+18,-9.677659035,-5.260221958,5.985687256
1389,1.55965509206e+18,-16.54204559,-4.45574522,3.723097324
1390,1.55965509211e+18,-17.37046432,-5.600208759,3.0119977
1391,1.55965509216e+18,-15.45025539,-3.232270956,3.174808502
1392,1.55965509222e+18,-14.51169968,-2.063864946,2.286532402
1393,1.55965509227e+18,-13.31456184,-1.371919513,1.091789365
1394,1.55965509232e+18,-11.99531651,-0.7685621977,0.5842030644
1395,1.55965509237e+18,-10.66888809,-1.699935079,1.024749637
1396,1.55965509242e+18,-9.85483551,-2.499622822,0.610540092
1397,1.55965509247e+18,-10.14693642,-3.102980137,0.8906702399
1398,1.55965509252e+18,-10.66888809,-3.54113245,0.3782954216
1399,1.55965509257e+18,-11.37041092,-4.927417755,0.4381522834
1400,1.55965509262e+18,-10.2666502,-4.462928295,0.313650012
1401,1.55965509267e+18,-9.043175697,-3.600989342,0.5698373914
1402,1.55965509272e+18,-7.905895233,-2.485257149,1.54909575
1403,1.55965509277e+18,-7.503657341,-0.8308133483,1.525153041
1404,1.55965509282e+18,-7.261835575,0.1604164094,2.961717844
1405,1.55965509288e+18,-7.841249943,0.5626545548,3.387898922
1406,1.55965509293e+18,-8.545166969,1.134886265,3.490852594
1407,1.55965509298e+18,-9.579493523,0.9194015265,3.531555414
1408,1.55965509303e+18,-9.797372818,1.084606528,3.782954216
1409,1.55965509308e+18,-10.94423008,1.228263021,2.865947008
1410,1.55965509313e+18,-10.51326084,1.946545362,3.124528646
1411,1.55965509319e+18,-13.66173172,2.602576733,3.727885962
1412,1.55965509324e+18,-15.70883656,1.661626697,5.760625362
1413,1.55965509329e+18,-16.66415215,2.516382933,4.867560863
1414,1.55965509334e+18,-14.10467243,1.479661822,3.440572977
1415,1.55965509339e+18,-8.533195496,4.958543301,3.450150013
1416,1.55965509344e+18,-8.320104599,7.78618145,1.429382086
1417,1.55965509349e+18,-4.678412914,3.873936653,2.976083517
1418,1.55965509354e+18,-5.147690773,2.590605259,-0.4213923812
1419,1.55965509359e+18,1.637683988,0.2585816681,5.209941864
1420,1.55965509365e+18,2.667222023,-8.78219986,0.948132813
1421,1.5596550937e+18,-4.769395351,-11.68166637,-1.043903828
1422,1.55965509375e+18,1.29290843,6.974522591,-17.25793266
1423,1.5596550938e+18,8.087860107,10.63297462,13.81496525
1424,1.55965509385e+18,8.808537483,16.36008072,8.281796455
1425,1.5596550939e+18,-2.0351336,12.09827042,7.676044941
1426,1.55965509395e+18,-4.321666241,8.243488312,13.64497185
1427,1.55965509401e+18,-5.078257084,6.847625732,13.13499165
1428,1.55965509406e+18,-3.440572977,7.04395628,10.14693642
1429,1.55965509411e+18,-3.651269197,6.131737709,9.488511086
1430,1.55965509416e+18,-3.452544212,5.427821159,9.953000069
1431,1.55965509421e+18,-2.648067951,4.841223717,8.391933441
1432,1.55965509426e+18,-1.127703428,3.85957098,7.659285069
1433,1.55965509431e+18,-0.5243461728,3.787742853,7.206767082
1434,1.55965509437e+18,-0.3399870098,4.132518291,6.967339516
1435,1.55965509442e+18,1.163617611,3.395081758,7.597033978
1436,1.55965509447e+18,-0.3112557232,4.151672363,8.600234985
1437,1.55965509452e+18,-0.2106961906,4.489265442,10.01046276
1438,1.55965509457e+18,0.6536370516,4.829252243,11.7032156
1439,1.55965509462e+18,1.728666425,5.676825523,14.11185551
1440,1.55965509467e+18,9.627379417,8.772623062,17.33454895
1441,1.55965509472e+18,18.59872627,15.48377514,11.04478931
1442,1.55965509477e+18,16.82217407,17.9403019,6.34003973
1443,1.55965509483e+18,-7.369577885,-10.19003391,15.80939674
1444,1.55965509488e+18,-8.111803055,-15.24434757,-14.65775013
1445,1.55965509493e+18,-2.008796453,-18.32577896,10.36960411
1446,1.55965509498e+18,-0.907430172,-5.147690773,2.214704275
1447,1.55965509503e+18,-0.9026415944,-1.029538155,2.525959969
1448,1.55965509508e+18,0.06225114316,1.264177084,5.071074009
1449,1.55965509513e+18,-0.1149251908,0.964892745,6.744672298
1450,1.55965509518e+18,-1.455719113,0.8834874034,7.82688427
1451,1.55965509523e+18,-4.154066563,-0.2633702159,6.629746914
1452,1.55965509529e+18,-7.261835575,-2.308080912,6.775797844
1453,1.55965509534e+18,-12.07193375,-5.593026161,7.424646378
1454,1.55965509539e+18,-14.29860878,-5.909070015,9.24429512
1455,1.55965509544e+18,-14.54043102,-3.620143414,7.465348721
1456,1.55965509549e+18,-15.47180367,-0.9577099085,10.37678719
1457,1.55965509554e+18,-16.06319046,-4.266597748,1.245022893
1458,1.55965509559e+18,-11.05915546,1.450930476,2.595393896
1459,1.55965509564e+18,-9.136552811,-0.7278595567,1.333611012
1460,1.5596550957e+18,-11.52364445,-1.862745762,1.477267504
1461,1.55965509575e+18,-11.91870022,-2.695953369,0.3663240373
1462,1.5596550958e+18,-11.21478367,-2.959323645,0.629694283
1463,1.55965509585e+18,-10.50847244,-3.040729046,0.2513988614
1464,1.5596550959e+18,-10.63297462,-2.734261751,0.09098244458
1465,1.55965509595e+18,-9.021627426,-2.276955366,-0.2059076279
1466,1.559655096e+18,-8.221940041,-1.177983165,0.3615354896
1467,1.55965509605e+18,-8.456578255,-0.8810931444,2.274561167
1468,1.55965509611e+18,-7.039167881,1.118126392,3.277762175
1469,1.55965509616e+18,-7.367183685,1.97288239,4.843617916
1470,1.55965509621e+18,-8.746285439,2.966506481,4.625739098
1471,1.55965509626e+18,-11.23633194,4.570670605,3.227482557
1472,1.55965509631e+18,-13.94665051,4.881926537,1.534730196
1473,1.55965509636e+18,-11.3297081,5.288952827,1.850774407
1474,1.55965509641e+18,-13.1062603,5.897099018,1.494027495
1475,1.55965509647e+18,-8.775016785,5.619362831,0.1604164094
1476,1.55965509652e+18,-3.617749214,7.345634937,4.805309772
1477,1.55965509657e+18,-7.261835575,4.965725899,0.1723877788
1478,1.55965509662e+18,-10.9753561,3.979284763,-1.036720991
1479,1.55965509667e+18,-0.7326480746,5.262616158,-1.577827096
1480,1.55965509672e+18,7.755055904,4.319271564,4.091815472
1481,1.55965509677e+18,3.076643229,-9.725543976,0.5099805593
1482,1.55965509683e+18,-10.30735302,-13.42230415,-11.69603252
1483,1.55965509688e+18,-26.30589676,-38.69866562,-30.51024437
1484,1.55965509693e+18,1.628106833,18.94350243,16.59950638
1485,1.55965509698e+18,-28.81988525,-6.984099388,5.315289974
1486,1.55965509703e+18,-23.45431519,13.27385998,1.415016413
1487,1.55965509708e+18,-17.84692383,2.813272953,1.225868702
1488,1.55965509713e+18,-14.28903198,3.22508812,4.326454639
1489,1.55965509718e+18,-12.6010685,3.62732625,2.554691315
1490,1.55965509723e+18,-8.047157288,1.762186289,4.49644804
1491,1.55965509728e+18,-4.075055599,2.123721838,2.45892024
1492,1.55965509733e+18,-3.438178539,1.661626697,6.177228928
1493,1.55965509739e+18,-1.54909575,1.913025618,5.358386993
1494,1.55965509744e+18,-1.67599237,2.434977531,8.494887352
1495,1.55965509749e+18,-2.190761566,3.220299721,10.15890789
1496,1.55965509754e+18,0.8619389534,6.06230402,13.93228531
1497,1.55965509759e+18,11.21478367,10.53480911,16.271492
1498,1.55965509764e+18,20.11430359,14.47578526,10.50847244
1499,1.55965509769e+18,12.23474407,-1.489238977,9.081484795
1500,1.55965509774e+18,-26.12872124,-11.28661156,15.0528059
1501,1.5596550978e+18,-3.9864676,-9.581888199,0.1005595401
1502,1.55965509785e+18,1.534730196,-10.49650097,7.314509392
1503,1.5596550979e+18,1.975276709,-2.45892024,3.380716085
1504,1.55965509795e+18,0.464489311,0.7637736797,2.643279314
1505,1.559655098e+18,-1.788523316,-0.3208328187,5.55711174
1506,1.55965509805e+18,-0.5698373914,-1.601769805,7.661679268
1507,1.5596550981e+18,-1.786128998,-2.69116497,9.771035194
1508,1.55965509815e+18,-4.400677204,-3.249030828,9.703995705
1509,1.5596550982e+18,-8.05194664,-4.769395351,8.236305237
1510,1.55965509825e+18,-10.9897213,-6.629746914,9.201197624
1511,1.55965509831e+18,-13.90594769,-6.12934351,4.577853203
1512,1.55965509836e+18,-15.00492001,-3.696760416,5.327261448
1513,1.55965509841e+18,-14.78225231,2.88510108,17.82298088
1514,1.55965509846e+18,-10.36721039,-3.141288519,0.1388679445
1515,1.55965509851e+18,-11.6649065,1.898659945,2.382303476
1516,1.55965509856e+18,-9.0335989,-3.543526649,2.236252785
1517,1.55965509861e+18,-11.12619495,-4.079844475,2.700742006
1518,1.55965509866e+18,-10.43903828,-4.043930054,2.212309837
1519,1.55965509871e+18,-9.581888199,-4.053507328,1.558672905
1520,1.55965509877e+18,-8.760651588,-3.340013266,1.594586968
1521,1.55965509882e+18,-8.341653824,-2.073441982,1.537124395
1522,1.55965509887e+18,-7.733507633,-0.4309694767,1.956122518
1523,1.55965509892e+18,-8.128562927,0.2705530524,1.855562925
1524,1.55965509897e+18,-7.855615616,0.6440598965,2.506805658
1525,1.55965509902e+18,-7.130150318,0.9720755816,3.126922846
1526,1.55965509907e+18,-8.008849144,0.5315290093,4.357580185
1527,1.55965509912e+18,-10.17087936,0.4597007632,3.469304085
1528,1.55965509917e+18,-11.27224541,0.2083019018,4.055901527
1529,1.55965509922e+18,-10.48213482,0.668002665,3.87872529
1530,1.55965509927e+18,-10.70240879,1.46290195,3.634509087
1531,1.55965509933e+18,-11.24590874,2.030344963,2.736656189
1532,1.55965509938e+18,-13.87721634,3.227482557,1.077423692
1533,1.55965509943e+18,-15.01449776,3.359167576,2.710319042
1534,1.55965509948e+18,-15.21561623,3.301704884,5.288952827
1535,1.55965509953e+18,-12.59388542,3.507612705,6.598621368
1536,1.55965509958e+18,-10.1062336,3.684788942,10.16130257
1537,1.55965509963e+18,-5.839636326,4.805309772,5.518803596
1538,1.55965509969e+18,-3.73267436,1.623318315,5.327261448
1539,1.55965509974e+18,-7.209161282,-4.417437077,-1.443747759
1540,1.55965509979e+18,-4.915446281,-7.61379385,2.662433624
1541,1.55965509984e+18,-5.616968632,-10.52044392,-1.467690468
1542,1.55965509989e+18,-2.075836182,-5.042342663,-9.723150253
1543,1.55965509994e+18,0.5554717779,4.539545059,-21.88606644
1544,1.5596551e+18,-6.306519985,6.510033131,-6.589044094
1545,1.55965510005e+18,-18.23958588,15.25871372,-15.64179707
1546,1.5596551001e+18,-7.161275864,18.31380844,-0.5889915824
1547,1.55965510015e+18,-14.63620186,15.13421154,-0.4884320498
1548,1.5596551002e+18,-8.018425941,12.90274715,5.640911579
1549,1.55965510025e+18,-6.378347874,9.766246796,6.881145954
1550,1.5596551003e+18,-3.787742853,7.288172722,7.989695072
1551,1.55965510035e+18,-2.928198099,7.99687767,5.935407162
1552,1.5596551004e+18,-1.805283189,7.953781128,5.367964268
1553,1.55965510045e+18,1.18756032,6.629746914,7.503657341
1554,1.55965510051e+18,-1.687963724,8.095043182,7.14930439
1555,1.55965510056e+18,-1.297696948,10.08468533,8.348835945
1556,1.55965510061e+18,0.7518022656,12.03601933,7.946598053
1557,1.55965510066e+18,7.498868465,16.64739227,4.60419035
1558,1.55965510071e+18,15.87404156,24.03612518,-2.889889717
1559,1.55965510076e+18,1.78134048,9.62977314,14.80140686
1560,1.55965510081e+18,-29.39451218,-5.518803596,6.893116951
1561,1.55965510086e+18,1.345582485,-16.106287,-0.964892745
1562,1.55965510091e+18,4.280963421,-18.94350243,8.401510239
1563,1.55965510096e+18,1.67599237,-6.007235527,3.833234072
1564,1.55965510101e+18,0.5530774593,0.7374366522,1.331216812
1565,1.55965510106e+18,-2.389486313,-0.3806896806,5.688796997
1566,1.55965510112e+18,-1.558672905,-2.418217659,9.416683197
1567,1.55965510117e+18,-0.7230709791,-3.658451796,9.241900444
1568,1.55965510122e+18,-4.321666241,-5.059102535,10.42946148
1569,1.55965510127e+18,-6.40468502,-5.365570068,8.710371971
1570,1.55965510132e+18,-8.727131844,-6.581861496,8.219545364
1571,1.55965510137e+18,-10.51565456,-7.829278469,7.843644142
1572,1.55965510142e+18,-13.89637089,-6.668055534,5.260221958
1573,1.55965510148e+18,-14.47578526,-2.937775135,2.123721838
1574,1.55965510153e+18,-12.10305882,-2.703136206,1.031932473
1575,1.55965510158e+18,-11.20520592,0.01197137404,0.3256213665
1576,1.55965510163e+18,-10.27862167,-3.478881359,0.2849186957
1577,1.55965510168e+18,-9.031204224,-5.734288216,1.249811411
1578,1.55965510173e+18,-7.913078308,-7.884346962,1.175588965
1579,1.55965510178e+18,-8.480521202,-8.794171333,1.403045058
1580,1.55965510183e+18,-8.291373253,-7.405491829,0.01197137404
1581,1.55965510189e+18,-9.615407944,-6.313702583,0.7302538157
1582,1.55965510194e+18,-9.435836792,-3.536343813,0.8164477348
1583,1.55965510199e+18,-9.103033066,-3.0981915,1.199531674
1584,1.55965510204e+18,-8.997684479,-0.0574625954,2.305686712
1585,1.55965510209e+18,-9.466962814,1.771763325,2.138087511
1586,1.55965510214e+18,-11.37998772,3.383110285,2.387091875
1587,1.55965510219e+18,-11.26506329,3.926610708,2.947352171
1588,1.55965510224e+18,-13.09428883,3.921822071,3.342407703
1589,1.5596551023e+18,-11.19802284,4.331243038,1.869928598
1590,1.55965510235e+18,-6.648900986,5.724710941,3.581835032
1591,1.5596551024e+18,-2.384697676,6.016812801,2.494834423
1592,1.55965510245e+18,-3.814079762,4.357580185,3.785348415
1593,1.5596551025e+18,-5.758230686,3.502824068,-0.2298503816
1594,1.55965510255e+18,-5.008822918,2.185972929,2.612153769
1595,1.5596551026e+18,-3.191568375,0.3759011328,-1.077423692
1596,1.55965510266e+18,-6.356799603,-4.948966026,-1.12291491
1597,1.55965510271e+18,-13.37202454,-14.85886955,-8.640937805
1598,1.55965510276e+18,-14.51648808,-9.469356537,-14.15016365
1599,1.55965510281e+18,-0.2753416002,16.106287,11.57631874
1600,1.55965510286e+18,-18.32817459,4.726298332,3.201145411
1601,1.55965510291e+18,-9.833286285,11.93067169,10.96338463
1602,1.55965510296e+18,-14.94027519,12.0575676,8.640937805
1603,1.55965510302e+18,-8.279402733,7.422251701,-0.591385901
1604,1.55965510307e+18,6.557918549,3.711125851,5.70316267
1605,1.55965510312e+18,-6.816500187,4.039141655,5.099805355
1606,1.55965510317e+18,-4.163643837,5.423032284,9.818921089
1607,1.55965510322e+18,-4.158855438,5.791750908,9.634561539
1608,1.55965510327e+18,-4.60179615,5.619362831,11.04718399
1609,1.55965510332e+18,0.8308133483,7.984906673,13.33371639
1610,1.55965510337e+18,10.42946148,13.40075588,15.83812809
1611,1.55965510342e+18,25.18298149,19.8245945,7.211555958
1612,1.55965510347e+18,6.603409767,0.481249243,10.19721603
1613,1.55965510352e+18,-27.86935806,-13.2858305,2.973689318
1614,1.55965510357e+18,-1.618529797,-17.93551254,9.933846474
1615,1.55965510363e+18,-2.928198099,-11.39435387,6.603409767
1616,1.55965510368e+18,1.393467903,-2.231464148,0.4333637357
1617,1.55965510373e+18,0.9960182905,1.436564922,0.8164477348
1618,1.55965510378e+18,0.2490045726,1.438959122,4.647287369
1619,1.55965510383e+18,1.491633177,-0.632088542,7.50605154
1620,1.55965510388e+18,1.704723716,-1.110943556,10.2666502
1621,1.55965510393e+18,-0.943344295,-0.335198462,9.150918007
1622,1.55965510398e+18,-4.28575182,-2.145270348,9.172467232
1623,1.55965510403e+18,-6.943397045,-3.081431627,8.954587936
1624,1.55965510408e+18,-10.40312386,-3.9864676,7.130150318
1625,1.55965510414e+18,-13.30977345,-5.097411156,5.959350109
1626,1.55965510419e+18,-13.95383358,-4.257020473,4.120546818
1627,1.55965510424e+18,-13.51328659,-2.384697676,2.932986736
1628,1.55965510429e+18,-12.16530991,-1.161223292,2.320052385
1629,1.55965510434e+18,-11.88039207,-1.259388566,2.490045786
1630,1.55965510439e+18,-10.95859623,-2.202732801,2.262589693
1631,1.55965510445e+18,-10.28580475,-3.351984739,2.660039425
1632,1.5596551045e+18,-9.885960579,-4.319271564,2.229069948
1633,1.55965510455e+18,-10.27862167,-4.771789551,1.889082789
1634,1.5596551046e+18,-10.04398251,-4.925023079,1.027143836
1635,1.55965510465e+18,-8.418270111,-4.194769382,0.9098244309
1636,1.5596551047e+18,-6.895511627,-3.136499882,1.192348838
1637,1.55965510475e+18,-6.866780281,-2.743839025,1.000806928
1638,1.5596551048e+18,-6.756643295,-2.178790092,1.446141958
1639,1.55965510485e+18,-7.568302631,-1.362342358,1.889082789
1640,1.5596551049e+18,-8.813325882,-1.711906433,2.600182533
1641,1.55965510495e+18,-9.660899162,-0.5099805593,2.58821106
1642,1.55965510501e+18,-11.20281219,-0.3878725171,2.964112282
1643,1.55965510506e+18,-12.49811459,1.087000728,3.981678963
1644,1.55965510511e+18,-13.7862339,2.071047783,4.869955063
1645,1.55965510516e+18,-16.40796471,2.56666255,6.378347874
1646,1.55965510521e+18,-13.60187531,3.256213665,7.22831583
1647,1.55965510526e+18,-15.65616322,2.873129845,5.221913338
1648,1.55965510531e+18,-14.63859653,3.861965179,-1.625712633
1649,1.55965510537e+18,-11.18605232,4.745452881,-3.682394743
1650,1.55965510542e+18,-4.905869007,5.367964268,-1.75979197
1651,1.55965510547e+18,-2.343995094,3.620143414,0.7996878028
1652,1.55965510552e+18,0.6081457734,0.313650012,1.647261024
1653,1.55965510557e+18,3.0119977,-8.602629662,5.154873848
1654,1.55965510562e+18,-7.139727592,-13.95862198,-1.580221415
1655,1.55965510568e+18,2.221887112,-11.3249197,-72.5297699
1656,1.55965510573e+18,2.365543604,51.66366196,12.89795876
1657,1.55965510578e+18,-3.239453793,12.53402901,12.88598728
1658,1.55965510583e+18,-16.91794586,13.85806274,-0.1508393139
1659,1.55965510588e+18,-3.019180536,12.63937664,10.07750225
1660,1.55965510593e+18,-6.002447128,7.541965485,11.98334503
1661,1.55965510598e+18,-2.988054991,6.818894863,9.967366219
1662,1.55965510603e+18,-2.652856588,7.173247337,9.296969414
1663,1.55965510609e+18,-2.37272644,5.98329258,9.735121727
1664,1.55965510614e+18,-0.7805336118,6.258634567,10.33847904
1665,1.55965510619e+18,0.9553156495,6.945791245,11.33928585
1666,1.55965510624e+18,2.14287591,9.105426788,12.12939644
1667,1.55965510629e+18,8.214756966,14.08073044,13.50849819
1668,1.55965510634e+18,18.38324165,20.66977501,4.546727657
1669,1.55965510639e+18,16.37444496,9.605830193,5.418243885
1670,1.55965510644e+18,-29.44000244,-18.0767746,26.49743843
1671,1.55965510649e+18,-10.53002071,-17.13821983,3.52197814
1672,1.55965510654e+18,-0.5961744189,-16.31219482,8.054340363
1673,1.55965510659e+18,3.706337452,-4.331243038,2.681587696
1674,1.55965510664e+18,1.735849261,-0.3735068738,2.442160368
1675,1.55965510669e+18,1.915419817,-0.1005595401,5.013611317
1676,1.55965510675e+18,3.756617069,-0.4692778587,8.28897953
1677,1.5596551068e+18,4.156461239,-0.1699935049,10.41749001
1678,1.55965510685e+18,-0.1388679445,-1.941756845,9.517242432
1679,1.5596551069e+18,-4.544333458,-4.60179615,8.995290756
1680,1.55965510695e+18,-9.069513321,-5.858790398,9.002472878
1681,1.559655107e+18,-11.85166073,-6.481301785,6.385530949
1682,1.55965510705e+18,-13.20681953,-6.608198643,5.650488377
1683,1.5596551071e+18,-11.94743156,-4.498842239,4.182797909
1684,1.55965510715e+18,-11.56913567,-3.713520288,3.533949614
1685,1.55965510721e+18,-10.16848469,-2.46131444,3.196356773
1686,1.55965510726e+18,-10.56354046,-2.37272644,2.513988495
1687,1.55965510731e+18,-11.30337143,-3.531555414,2.473285913
1688,1.55965510736e+18,-11.18126297,-4.489265442,2.542719841
1689,1.55965510741e+18,-10.30256462,-4.419831276,2.516382933
1690,1.55965510746e+18,-10.49650097,-4.647287369,1.642472506
1691,1.55965510751e+18,-10.5970602,-3.737462997,1.513181686
1692,1.55965510756e+18,-8.348835945,-2.099778891,1.855562925
1693,1.55965510762e+18,-7.252258301,-1.161223292,2.276955366
1694,1.55965510767e+18,-6.701575279,-0.05267404765,3.083826065
1695,1.55965510772e+18,-7.391126156,0.6440598965,3.366350412
1696,1.55965510777e+18,-8.676852226,1.158828974,4.941783428
1697,1.55965510782e+18,-10.84367085,1.417410731,5.38472414
1698,1.55965510787e+18,-11.89236259,2.128510237,4.558699131
1699,1.55965510792e+18,-13.02964306,3.392687321,2.806090117
1700,1.55965510797e+18,-12.36164093,4.21631813,4.075055599
1701,1.55965510802e+18,-13.59229851,3.105374336,3.019180536
1702,1.55965510807e+18,-11.60026169,3.050306082,3.323253393
1703,1.55965510812e+18,-10.68325424,3.639297724,3.196356773
1704,1.55965510818e+18,-7.752661705,4.846012115,4.395888329
1705,1.55965510823e+18,-6.433416367,5.413455486,3.227482557
1706,1.55965510828e+18,-1.503604531,5.06867981,3.004814863
1707,1.55965510833e+18,0.3639297783,1.096577883,1.881899953
1708,1.55965510838e+18,-2.956929445,-9.359220505,4.70714426
1709,1.55965510843e+18,-7.805335999,-8.533195496,0.09098244458
1710,1.55965510848e+18,-7.192401409,-17.18610382,-58.53283691
1711,1.55965510853e+18,7.439012051,49.35079193,5.095016956
1712,1.55965510859e+18,7.338452339,12.03123093,3.332830429
1713,1.55965510864e+18,-6.612987041,15.30181026,-2.14287591
1714,1.55965510869e+18,-1.733454943,12.81176472,7.245075703
1715,1.55965510874e+18,-1.783734679,12.06475067,7.551542759
1716,1.55965510879e+18,0.22266756,9.488511086,6.117372036
1717,1.55965510884e+18,-2.494834423,9.349642754,6.55313015
1718,1.55965510889e+18,-2.188367128,10.31214142,7.802941799
1719,1.55965510894e+18,-1.324033976,9.984126091,7.242681503
1720,1.55965510899e+18,-0.3399870098,9.763853073,6.818894863
1721,1.55965510905e+18,0.907430172,13.36963081,9.035993576
1722,1.5596551091e+18,1.175588965,18.28507614,7.154093266
1723,1.55965510915e+18,6.924242973,24.13668442,0.1939362586
1724,1.5596551092e+18,11.07352066,25.53015137,-0.5267404318
1725,1.55965510925e+18,-9.88117218,1.968093872,16.91555214
1726,1.5596551093e+18,-24.55807686,-12.03123093,-26.88052368
1727,1.55965510935e+18,0.004788549617,-18.31141281,11.84926605
1728,1.5596551094e+18,-1.326428294,-10.54678059,3.969707727
1729,1.55965510945e+18,2.399063349,0.5602602959,3.363956213
1730,1.5596551095e+18,0.4309694767,3.146077156,3.079037428
1731,1.55965510956e+18,-2.389486313,-1.067846537,7.110996246
1732,1.55965510961e+18,0.1197137386,-1.182771802,8.901913643
1733,1.55965510966e+18,-1.63289547,-2.272166729,9.141341209
1734,1.55965510971e+18,-4.139701366,-3.241847992,8.686429024
1735,1.55965510976e+18,-6.538764477,-4.965725899,8.681640625
1736,1.55965510981e+18,-10.1062336,-6.323279858,9.984126091
1737,1.55965510986e+18,-13.19484806,-7.125361919,6.095823765
1738,1.55965510991e+18,-14.01608467,-5.830059052,3.804502726
1739,1.55965510996e+18,-14.33212948,-4.142095566,1.18756032
1740,1.55965511001e+18,-12.87640953,-2.542719841,0.313650012
1741,1.55965511007e+18,-12.52923965,-2.916226625,0.2801301479
1742,1.55965511012e+18,-12.06235695,-2.923409462,0.3064671755
1743,1.55965511017e+18,-10.96817303,-2.710319042,0.4094209969
1744,1.55965511022e+18,-10.63297462,-3.605777979,0.4477293789
1745,1.55965511027e+18,-10.69283104,-4.829252243,0.6775797606
1746,1.55965511032e+18,-9.838075638,-5.485283375,1.175588965
1747,1.55965511037e+18,-8.645726204,-5.470917702,1.496421814
1748,1.55965511042e+18,-8.042368889,-5.466129303,1.86514008
1749,1.55965511047e+18,-7.494080067,-4.520390987,1.944151163
1750,1.55965511052e+18,-6.708757877,-3.0957973,2.466103077
1751,1.55965511058e+18,-7.448588848,-2.327235222,3.122134447
1752,1.55965511063e+18,-7.86519289,-1.139674783,3.66802907
1753,1.55965511068e+18,-8.176448822,-0.04788549617,4.328848839
1754,1.55965511073e+18,-8.894730568,0.6225114465,3.363956213
1755,1.55965511078e+18,-10.01046276,0.4501236677,2.387091875
1756,1.55965511083e+18,-11.28900528,1.03911531,2.154847383
1757,1.55965511088e+18,-11.70082092,2.111750364,1.941756845
1758,1.55965511093e+18,-11.69842625,2.978477955,3.071854591
1759,1.55965511098e+18,-14.84210968,4.565882206,1.486844659
1760,1.55965511103e+18,-9.01923275,4.597007751,2.26977253
1761,1.55965511109e+18,-5.231490612,7.29535532,4.39109993
1762,1.55965511114e+18,-4.295329094,6.706363678,0.8834874034
1763,1.55965511119e+18,-3.96731329,4.173221111,3.016786337
1764,1.55965511124e+18,-4.223500729,2.516382933,-0.4692778587
1765,1.55965511129e+18,-3.0119977,-2.932986736,1.321639657
1766,1.55965511134e+18,-9.385557175,-19.85093307,-7.72153616
1767,1.55965511139e+18,-6.493273258,-8.039975166,-6.969734192
1768,1.55965511144e+18,-12.96499825,-9.58907032,-24.90045738
1769,1.55965511149e+18,-16.33613777,20.30584526,-28.17582512
1770,1.55965511155e+18,-17.93311882,8.425453186,0.950527072
1771,1.5596551116e+18,-15.23955917,6.074275017,0.3208328187
1772,1.55965511165e+18,-13.99214172,5.054314137,-1.752609134
1773,1.5596551117e+18,-14.90196609,4.206740856,1.678386688
1774,1.55965511175e+18,-14.12382698,4.348002911,1.917814136
1775,1.5596551118e+18,-9.529213905,3.747040033,-0.9553156495
1776,1.55965511185e+18,-0.4094209969,3.567469358,0.8667274714
1777,1.55965511191e+18,2.408640385,0.9337671995,12.17967606
1778,1.55965511196e+18,-3.057488918,3.565075159,7.484503269
1779,1.55965511201e+18,-4.541939259,3.134105682,7.807730198
1780,1.55965511206e+18,-3.445361376,4.280963421,8.703188896
1781,1.55965511211e+18,-1.599375606,5.104593754,9.196409225
1782,1.55965511216e+18,0.7709565163,8.121379852,12.30178356
1783,1.55965511221e+18,5.334444046,11.38477707,14.51888275
1784,1.55965511226e+18,13.97059345,15.17251968,6.696786404
1785,1.55965511231e+18,15.29941559,13.04400921,4.635315895
1786,1.55965511236e+18,-6.031178474,-7.070293427,12.70641613
1787,1.55965511242e+18,-16.35289764,-3.921822071,-2.995237827
1788,1.55965511247e+18,9.64413929,-9.713572502,-0.4860377908
1789,1.55965511252e+18,1.019961119,-18.6106987,11.07352066
1790,1.55965511257e+18,0.3711125851,-3.940976381,2.731867552
1791,1.55965511262e+18,0.06703969836,-0.8164477348,1.58979845
1792,1.55965511267e+18,-2.669616461,-2.875524044,5.478100777
1793,1.55965511272e+18,-0.5818088055,-4.479688168,7.525205612
1794,1.55965511277e+18,1.393467903,-5.636122704,8.777411461
1795,1.55965511282e+18,-1.098972082,-7.410280704,9.747093201
1796,1.55965511288e+18,-3.885908127,-9.012050629,8.01124382
1797,1.55965511293e+18,-8.882759094,-12.45022869,9.265843391
1798,1.55965511298e+18,-12.99851799,-11.73194695,5.013611317
1799,1.55965511303e+18,-14.62183666,-6.773403645,1.120520592
1800,1.55965511308e+18,-13.13020325,-3.354378939,1.077423692
1801,1.55965511313e+18,-10.20679379,-1.146857619,6.241874218
1802,1.55965511318e+18,-11.01605797,-1.601769805,0.8020820618
1803,1.55965511323e+18,-10.5922718,-2.26977253,0.3950553536
1804,1.55965511329e+18,-11.52843285,-5.631334305,0.3208328187
1805,1.55965511334e+18,-13.33611107,-7.01761961,0.6201171875
1806,1.55965511339e+18,-11.58829021,-6.636929989,-0.1532335877
1807,1.55965511344e+18,-9.720755577,-5.74386549,0.3280156553
1808,1.55965511349e+18,-8.126168251,-5.207547665,0.483643502
1809,1.55965511354e+18,-7.462954521,-4.802915096,1.106154919
1810,1.55965511359e+18,-6.845231533,-3.708731651,1.33600533
1811,1.55965511364e+18,-6.517216206,-2.832427025,1.12291491
1812,1.55965511369e+18,-7.302538395,-2.217098475,2.068653345
1813,1.55965511375e+18,-7.685622215,-0.9888355136,2.044710636
1814,1.5596551138e+18,-8.32968235,-0.2442160249,2.856369734
1815,1.55965511385e+18,-9.273026466,1.161223292,2.736656189
1816,1.5596551139e+18,-9.632167816,2.636096478,1.58979845
1817,1.55965511395e+18,-10.49410629,2.102173328,1.295302629
1818,1.559655114e+18,-11.95940304,2.741444588,0.6584255695
1819,1.55965511405e+18,-14.39198589,2.102173328,0.3471698463
1820,1.5596551141e+18,-12.0575676,4.357580185,1.738243461
1821,1.55965511416e+18,-11.38956547,5.054314137,1.838803053
1822,1.55965511421e+18,-11.50449085,4.802915096,1.664021015
1823,1.55965511426e+18,-8.42305851,5.614574432,2.308080912
1824,1.55965511431e+18,-6.067092419,5.830059052,2.621730804
1825,1.55965511436e+18,-3.672817469,5.858790398,3.423812866
1826,1.55965511441e+18,-1.465296149,3.395081758,1.350371003
1827,1.55965511446e+18,-2.523565531,-2.123721838,3.141288519
1828,1.55965511451e+18,-4.606584549,-9.081484795,-2.1213274
1829,1.55965511456e+18,-9.148524284,-7.558725357,-2.039922237
1830,1.55965511461e+18,-1.577827096,-23.26995659,-6.431022167
1831,1.55965511466e+18,-2.542719841,23.72008133,-5.485283375
1832,1.55965511472e+18,-1.367130876,16.21402931,12.99133492
1833,1.55965511477e+18,-2.813272953,11.72476387,12.51726913
1834,1.55965511482e+18,-4.573064804,9.610619545,10.91549873
1835,1.55965511487e+18,-5.27937603,8.28897953,9.320911407
1836,1.55965511492e+18,-3.598595142,6.929031372,8.277008057
1837,1.55965511497e+18,-2.69355917,5.566689014,8.60741806
1838,1.55965511502e+18,-2.145270348,4.905869007,9.608224869
1839,1.55965511507e+18,0.2944957912,4.594613552,8.265036583
1840,1.55965511512e+18,-0.3567469418,5.339232922,10.14933109
1841,1.55965511517e+18,1.417410731,6.888328552,11.37759399
1842,1.55965511522e+18,9.342460632,10.98253822,14.57634544
1843,1.55965511528e+18,20.84695053,20.37048912,6.840443134
1844,1.55965511533e+18,16.28825188,10.28819847,11.43026829
1845,1.55965511538e+18,-22.72166824,-13.79341698,25.87014008
1846,1.55965511543e+18,-13.75989723,-14.28663731,0.1723877788
1847,1.55965511548e+18,-5.70555687,-13.19724274,4.857983589
1848,1.55965511553e+18,1.963305354,-5.784567833,4.266597748
1849,1.55965511558e+18,2.731867552,-1.889082789,5.145296574
1850,1.55965511563e+18,1.850774407,-0.4213923812,6.294548512
1851,1.55965511568e+18,2.554691315,-1.053480864,8.114197731
1852,1.55965511574e+18,0.629694283,-1.573038578,8.219545364
1853,1.55965511579e+18,-2.707924843,-3.725491524,9.356825829
1854,1.55965511584e+18,-5.300924301,-4.70953846,9.749486923
1855,1.55965511589e+18,-8.631361008,-7.391126156,10.35763264
1856,1.55965511594e+18,-10.64255142,-6.253845692,7.036773682
1857,1.55965511599e+18,-12.89556408,-5.774991035,5.169239521
1858,1.55965511604e+18,-13.77186871,-3.988861799,2.509200096
1859,1.5596551161e+18,-13.46061325,-1.898659945,1.544307232
1860,1.55965511615e+18,-13.10865498,-1.474873304,1.209108829
1861,1.5596551162e+18,-11.99052811,-1.968093872,1.857957244
1862,1.55965511625e+18,-10.87719059,-2.853975534,1.592192769
1863,1.5596551163e+18,-10.59466648,-3.749434233,1.774157643
1864,1.55965511635e+18,-10.44382668,-4.156461239,1.158828974
1865,1.5596551164e+18,-10.71916866,-4.913052082,1.149251938
1866,1.55965511645e+18,-10.71437931,-5.121353626,1.63289547
1867,1.55965511651e+18,-10.62579155,-5.351204395,2.695953369
1868,1.55965511656e+18,-8.403904915,-4.235472202,3.543526649
1869,1.55965511661e+18,-6.61777544,-2.427794695,5.80851078
1870,1.55965511666e+18,-5.080651283,0.1077423692,6.986494064
1871,1.55965511671e+18,-6.601015568,2.257801056,7.518023014
1872,1.55965511676e+18,-8.03758049,3.711125851,5.367964268
1873,1.55965511681e+18,-8.705583572,4.158855438,5.77020216
1874,1.55965511686e+18,-5.739076614,5.525986195,5.185999393
1875,1.55965511691e+18,-0.5243461728,5.712739468,4.716721535
1876,1.55965511696e+18,2.358360767,4.666441441,5.985687256
1877,1.55965511702e+18,-3.023969173,-0.7278595567,0.3663240373
1878,1.55965511707e+18,-9.967366219,-4.996851444,-7.398309231
1879,1.55965511712e+18,-11.81814003,-14.82534981,-11.59307861
1880,1.55965511717e+18,-8.731920242,-11.37759399,-3.960130453
1881,1.55965511722e+18,-4.592218876,-31.64991951,22.22126389
1882,1.55965511727e+18,-9.933846474,16.36726189,13.87242794
1883,1.55965511732e+18,-21.37608528,-1.932179809,0.2753416002
1884,1.55965511737e+18,-18.10790062,4.611373425,1.869928598
1885,1.55965511742e+18,-17.83255959,2.762993097,-1.170800328
1886,1.55965511747e+18,-16.73358727,0.4956148863,-1.12291491
1887,1.55965511752e+18,-13.4414587,0.5794144869,-0.2753416002
1888,1.55965511758e+18,-12.58191395,0.1316851079,1.221080184
1889,1.55965511763e+18,-11.67687798,0.7613793612,0.9984126091
1890,1.55965511768e+18,-9.004867554,0.6560313106,0.648848474
1891,1.55965511773e+18,-5.944984436,1.000806928,1.522758722
1892,1.55965511778e+18,-3.653663397,2.406246185,4.486870766
1893,1.55965511783e+18,-2.202732801,1.625712633,8.971347809
1894,1.55965511788e+18,-4.608979225,2.839609861,6.531581879
1895,1.55965511793e+18,-3.320859194,2.892283916,6.921848297
1896,1.55965511798e+18,-3.981678963,2.133298874,6.960156918
1897,1.55965511804e+18,-2.399063349,4.484476566,7.429434776
1898,1.55965511809e+18,-0.6249057055,4.613767624,7.44140625
1899,1.55965511814e+18,0.5746259689,4.987274647,9.445414543
1900,1.55965511819e+18,2.214704275,6.55313015,12.46459484
1901,1.55965511824e+18,9.141341209,9.687235832,15.90516758
1902,1.55965511829e+18,21.13905144,16.57556534,15.07674885
1903,1.55965511835e+18,16.90597534,6.845231533,8.968953133
1904,1.5596551184e+18,-20.13345718,-7.757450581,20.85652733
1905,1.55965511845e+18,-3.895485163,-14.43987179,-3.062277555
1906,1.5596551185e+18,-0.7182824612,-14.99534321,8.344047546
1907,1.55965511855e+18,0.6392713785,-5.600208759,3.545921087
1908,1.5596551186e+18,2.411034822,0.483643502,3.153259993
1909,1.55965511866e+18,-0.6919454336,0.2298503816,3.747040033
1910,1.55965511871e+18,1.331216812,-0.7110996246,6.313702583
1911,1.55965511876e+18,2.303292274,-0.612934351,9.304151535
1912,1.55965511881e+18,0.1556278616,-1.529941559,10.6401577
1913,1.55965511886e+18,-3.189173937,-3.397475958,10.5970602
1914,1.55965511891e+18,-9.864412308,-6.859597206,9.471751213
1915,1.55965511896e+18,-11.68884945,-4.43180275,9.407105446
1916,1.55965511901e+18,-13.00809479,-4.39109993,7.283383846
1917,1.55965511906e+18,-11.39195919,-2.178790092,6.577073097
1918,1.55965511912e+18,-11.8684206,-2.308080912,3.639297724
1919,1.55965511917e+18,-11.43505669,-0.7709565163,2.509200096
1920,1.55965511922e+18,-10.76944828,-1.333611012,2.37512064
1921,1.55965511927e+18,-9.802161217,-1.642472506,2.391880512
1922,1.55965511932e+18,-10.14214802,-2.935380936,2.190761566
1923,1.55965511937e+18,-9.433443069,-3.620143414,2.135693073
1924,1.55965511942e+18,-8.58108139,-3.505218267,2.880312681
1925,1.55965511947e+18,-8.724737167,-3.608172178,2.755810261
1926,1.55965511953e+18,-8.751074791,-2.284138203,4.419831276
1927,1.55965511958e+18,-9.581888199,-0.5051919818,4.85558939
1928,1.55965511963e+18,-10.99211597,1.580221415,4.280963421
1929,1.55965511968e+18,-12.87640953,3.64887476,5.248250484
1930,1.55965511973e+18,-11.66730118,2.75820446,9.107821465
1931,1.55965511978e+18,-10.00567436,2.724684715,11.37519932
1932,1.55965511983e+18,-9.256266594,2.399063349,9.909903526
1933,1.55965511989e+18,-7.453377247,3.035940409,6.325674057
1934,1.55965511994e+18,-4.618556023,3.383110285,3.047911882
1935,1.55965511999e+18,-5.260221958,1.649655342,-0.3878725171
1936,1.55965512004e+18,-3.320859194,-0.06464541703,-0.6775797606
1937,1.55965512009e+18,-0.5243461728,-3.361561775,0.5195576549
1938,1.55965512014e+18,-4.091815472,-6.859597206,-0.02154847234
1939,1.55965512019e+18,-3.885908127,-8.686429024,-1.968093872
1940,1.55965512024e+18,-12.9506321,-11.38477707,-12.83810139
1941,1.5596551203e+18,-5.006428719,2.415823221,-13.57553864
1942,1.55965512035e+18,-28.91805077,1.479661822,-13.07992363
1943,1.5596551204e+18,-16.1541729,4.058295727,-2.415823221
1944,1.55965512045e+18,-26.03055573,6.991282463,-5.573871613
1945,1.5596551205e+18,-18.51971626,10.2570734,-4.616161823
1946,1.55965512055e+18,-14.42790031,6.644112587,-0.2059076279
1947,1.5596551206e+18,-10.29538155,5.631334305,2.528354168
1948,1.55965512066e+18,-8.482915878,4.03195858,0.8427847624
1949,1.55965512071e+18,-5.315289974,3.143682718,0.907430172
1950,1.55965512076e+18,-0.1173194647,3.548315287,0.2178790122
1951,1.55965512081e+18,-1.841197371,3.184385538,9.873989105
1952,1.55965512086e+18,-1.501210332,7.154093266,6.246663094
1953,1.55965512091e+18,2.116539001,12.0575676,11.29139996
1954,1.55965512096e+18,6.114977837,15.27547359,7.54914856
1955,1.55965512101e+18,14.24114609,23.46389389,-1.757397652
1956,1.55965512106e+18,6.16765213,11.55716419,6.854808807
1957,1.55965512111e+18,-22.85095787,-6.112583637,10.68325424
1958,1.55965512116e+18,-1.604164124,-27.66823959,-7.515628815
1959,1.55965512122e+18,10.19003391,-27.7759819,1.936968327
1960,1.55965512127e+18,2.751021862,-8.75586319,2.849187136
1961,1.55965512132e+18,-0.1819648892,-6.378347874,2.351177931
1962,1.55965512137e+18,-0.1125309169,2.083019018,3.742251635
1963,1.55965512142e+18,-2.688770533,-3.490852594,7.82449007
1964,1.55965512147e+18,-0.3974496126,-7.252258301,10.9849329
1965,1.55965512152e+18,-0.967287004,-7.625765324,13.66652107
1966,1.55965512157e+18,-4.939388752,-9.31133461,10.56593513
1967,1.55965512163e+18,-10.02722263,-8.571503639,8.79656601
1968,1.55965512168e+18,-12.68007946,-5.909070015,5.751048088
1969,1.55965512173e+18,-13.11823177,-4.819674969,5.609786034
1970,1.55965512178e+18,-11.91151714,-3.483669758,2.746233225
1971,1.55965512183e+18,-10.8293047,-3.921822071,4.223500729
1972,1.55965512188e+18,-8.959376335,-3.723097324,3.205934048
1973,1.55965512193e+18,-10.29777622,-5.34402132,3.275367975
1974,1.55965512198e+18,-12.74711895,-5.66245985,1.726272106
1975,1.55965512203e+18,-11.09506989,-4.446168423,2.049499273
1976,1.55965512209e+18,-11.97616291,-3.047911882,2.178790092
1977,1.55965512214e+18,-13.33611107,0.7709565163,2.308080912
1978,1.55965512219e+18,-12.42149734,3.304099321,0.7350423932
1979,1.55965512224e+18,-12.50529766,4.443774223,0.8332076073
1980,1.55965512229e+18,-9.998491287,5.650488377,0.2083019018
1981,1.55965512234e+18,-6.572284222,7.087053299,-0.8523618579
1982,1.55965512239e+18,-3.088614464,3.790137053,1.510787368
1983,1.55965512244e+18,-1.556278586,0.04788549617,0.2681587934
1984,1.55965512249e+18,0.2178790122,-2.396669149,-2.988054991
1985,1.55965512254e+18,0.9720755816,-10.70480251,-11.32731438
1986,1.55965512259e+18,-5.085439682,-14.77507019,-11.82292938
1987,1.55965512265e+18,-2.434977531,-39.72820282,28.79833794
1988,1.5596551227e+18,-11.05676079,5.181210518,6.651295185
1989,1.55965512275e+18,-18.33056831,-6.727912426,9.371191978
1990,1.5596551228e+18,-26.91883087,-7.946598053,3.43578434
1991,1.55965512285e+18,-22.80546761,-6.12694931,6.988888264
1992,1.5596551229e+18,-21.61551285,-3.550709486,3.069460392
1993,1.55965512295e+18,-19.41996384,-3.170019865,3.696760416
1994,1.559655123e+18,-15.14378834,-1.723877907,4.051113129
1995,1.55965512305e+18,-11.71518707,-2.341600657,2.490045786
1996,1.55965512311e+18,-7.134938717,-1.407833576,1.596981287
1997,1.55965512316e+18,-5.889915943,-0.7063110471,2.667222023
1998,1.55965512321e+18,-6.0216012,-0.1101366431,5.789356709
1999,1.55965512326e+18,-6.653689861,0.004788549617,5.976109982
2000,1.55965512331e+18,-4.261809349,1.680780888,8.609811783
2001,1.55965512336e+18,-3.119740009,4.156461239,10.50607777
2002,1.55965512341e+18,6.782980442,9.251478195,8.818114281
2003,1.55965512346e+18,20.31063271,12.44783497,7.048745155
2004,1.55965512351e+18,19.93233871,8.832479477,8.28897953
