,Time (s),Acceleration x (m/s^2),Acceleration y (m/s^2),Acceleration z (m/s^2)
0,1.55965472005e+18,-0.2729473412,2.039922237,12.70162773
1,1.5596547201e+18,0.8284190893,2.46131444,10.99211597
2,1.55965472016e+18,-2.051893473,1.620923996,11.29618835
3,1.55965472021e+18,-2.600182533,0.4118152559,9.565128326
4,1.55965472026e+18,-2.853975534,-2.679193497,12.60825157
5,1.55965472031e+18,-11.542799,-5.643305779,5.19797039
6,1.55965472036e+18,-6.838048935,5.351204395,3.890696526
7,1.55965472042e+18,0.7972934842,2.427794695,0.6249057055
8,1.55965472047e+18,7.599428177,2.0375278,-11.47815323
9,1.55965472052e+18,-1.606558442,-0.5650488734,6.433416367
10,1.55965472057e+18,-3.869148016,-1.61134696,9.557945251
11,1.55965472062e+18,-9.220352173,-30.55573463,10.65691757
12,1.55965472068e+18,-5.640911579,-19.95388603,19.93473244
13,1.55965472073e+18,-3.141288519,-6.754249096,12.50290298
14,1.55965472078e+18,-6.996070862,-5.205153465,13.16372299
15,1.55965472083e+18,-8.322499275,-3.672817469,12.2227726
16,1.55965472088e+18,-9.996097565,-5.001639843,10.63057995
17,1.55965472094e+18,-9.067118645,-1.814860344,8.219545364
18,1.55965472099e+18,-5.209941864,0.8834874034,7.812518597
19,1.55965472104e+18,-3.548315287,-0.6656084061,1.659232497
20,1.55965472109e+18,-6.014418125,-2.171607256,0.184359163
21,1.55965472114e+18,-4.383917332,-9.359220505,5.016005516
22,1.5596547212e+18,-9.021627426,-5.425426483,-11.60744381
23,1.55965472125e+18,4.292934895,-4.944177628,-15.91474438
24,1.5596547213e+18,1.35755384,-3.062277555,3.033546209
25,1.55965472135e+18,-13.45821857,-18.1055069,4.11336422
26,1.5596547214e+18,5.281770229,-21.30904579,22.53012657
27,1.55965472146e+18,-2.123721838,-12.69683933,18.25873947
28,1.55965472151e+18,-7.534782887,-9.816526413,10.44382668
29,1.55965472156e+18,-8.243488312,-9.407105446,12.13179016
30,1.55965472161e+18,-9.28499794,-8.387145042,9.443019867
31,1.55965472166e+18,-8.461367607,1.46290195,15.43349552
32,1.55965472172e+18,-13.2810421,-1.302485466,3.356773376
33,1.55965472177e+18,-10.2666502,-1.980065227,0.3902668059
34,1.55965472182e+18,-3.577046633,0.7110996246,-3.430995703
35,1.55965472187e+18,-5.219519138,-0.2609759569,1.460507631
36,1.55965472192e+18,-0.2130904645,1.465296149,-6.778192043
37,1.55965472198e+18,10.80536175,4.910657406,-9.117398262
38,1.55965472203e+18,-3.73267436,2.69116497,4.21631813
39,1.55965472208e+18,-0.01436564885,2.382303476,1.965699673
40,1.55965472213e+18,4.726298332,-0.8379961848,11.60505009
41,1.55965472218e+18,-8.947404861,-24.54371071,14.90914917
42,1.55965472224e+18,-12.9410553,-17.27469254,18.11508369
43,1.55965472229e+18,-12.87640953,-8.624177933,7.920260906
44,1.55965472234e+18,-12.12700176,-5.087833881,9.00726223
45,1.55965472239e+18,-7.963357925,-3.823656797,8.188420296
46,1.55965472244e+18,-7.302538395,-1.54909575,7.106207848
47,1.5596547225e+18,-10.18045616,0.9601042271,5.166844845
48,1.55965472255e+18,-11.7175808,-3.574652195,0.2106961906
49,1.5596547226e+18,-4.721509933,-0.967287004,0.0287312977
50,1.55965472265e+18,-3.232270956,-5.549929142,-0.09098244458
51,1.5596547227e+18,-0.6823683381,-6.170046329,5.839636326
52,1.55965472276e+18,-2.078230619,-8.502069473,-14.22917557
53,1.55965472281e+18,6.524398804,-8.1453228,-12.2227726
54,1.55965472286e+18,-4.379128456,-11.30097675,7.367183685
55,1.55965472291e+18,-4.582642078,-14.59310532,9.364008904
56,1.55965472296e+18,-5.236279011,-24.4742775,29.59563065
57,1.55965472302e+18,-3.701548815,-12.01447105,23.09517479
58,1.55965472307e+18,-8.751074791,-5.815693378,9.2035923
59,1.55965472312e+18,-6.507638931,-6.378347874,8.937828064
60,1.55965472317e+18,-4.058295727,-2.243435383,9.265843391
61,1.55965472322e+18,-2.834821463,-0.3519583941,6.794951916
62,1.55965472327e+18,-6.153286457,-2.825244188,4.467716694
63,1.55965472333e+18,-6.907482624,-4.288146019,-3.735068798
64,1.55965472338e+18,-0.2825244367,-3.105374336,-2.33441782
65,1.55965472343e+18,-4.288146019,-5.269798756,-15.27547359
66,1.55965472348e+18,8.978530884,3.596200705,-4.723904133
67,1.55965472353e+18,-2.367937803,-1.92978549,-0.09098244458
68,1.55965472359e+18,-2.686376333,-17.30342484,13.1158371
69,1.55965472364e+18,-5.205153465,-25.3098793,28.87016487
70,1.55965472369e+18,-7.328875065,-11.08309841,18.00255203
71,1.55965472374e+18,-12.74233055,-3.359167576,11.52125072
72,1.55965472379e+18,-11.30097675,-6.040755272,11.47575951
73,1.55965472385e+18,-8.676852226,-6.454965115,8.964164734
74,1.5596547239e+18,-4.891503334,-1.113337755,9.316123009
75,1.55965472395e+18,-7.099024773,-2.753416061,4.333637238
76,1.559654724e+18,-6.174834728,-2.317657948,3.019180536
77,1.55965472405e+18,-6.589044094,-3.038334846,-0.4046324492
78,1.55965472411e+18,-9.929058075,-1.86514008,-7.858009815
79,1.55965472416e+18,8.691217422,0.1125309169,0.1508393139
80,1.55965472421e+18,2.45892024,2.712713242,-16.01530457
81,1.55965472426e+18,2.853975534,3.265790939,-1.211503029
82,1.55965472431e+18,-2.767781734,-3.193962574,5.075862408
83,1.55965472437e+18,2.214704275,-32.66987991,22.04408836
84,1.55965472442e+18,-2.406246185,-22.17816734,23.26277351
85,1.55965472447e+18,-12.66331959,-9.986519814,8.336864471
86,1.55965472452e+18,-13.08471203,-4.106181145,8.174054146
87,1.55965472457e+18,-10.23552513,-7.201978683,10.19961071
88,1.55965472463e+18,-8.394327164,-4.206740856,4.575459003
89,1.55965472468e+18,-6.29933691,-1.359948039,2.880312681
90,1.55965472473e+18,-3.162837029,-0.2513988614,3.069460392
91,1.55965472478e+18,-2.130904675,-0.5147690773,3.689577579
92,1.55965472483e+18,-8.233911514,-1.848380208,15.09590244
93,1.55965472489e+18,-5.839636326,-0.1652049571,-11.67448425
94,1.55965472494e+18,4.182797909,-1.383890867,-7.61379385
95,1.55965472499e+18,1.31445682,2.200338602,-1.118126392
96,1.55965472504e+18,-2.50201726,-0.6033572555,-2.736656189
97,1.55965472509e+18,4.45574522,-18.54844666,16.75034714
98,1.55965472515e+18,-5.06867981,-23.5429039,29.22691345
99,1.5596547252e+18,-8.806142807,-9.651321411,16.01769829
100,1.55965472525e+18,-11.98095131,-6.122160912,10.8293047
101,1.5596547253e+18,-9.593858719,-5.772596359,9.004867554
102,1.55965472535e+18,-6.296942711,-5.727105141,5.782173634
103,1.55965472541e+18,-5.600208759,-4.012804508,4.790944099
104,1.55965472546e+18,-2.427794695,0.8691217303,6.727912426
105,1.55965472551e+18,-3.943370581,0.7470137477,7.034379482
106,1.55965472556e+18,-5.341627121,0.7278595567,3.663240433
107,1.55965472561e+18,-5.248250484,2.133298874,5.911464691
108,1.55965472567e+18,2.0351336,-1.443747759,-8.107014656
109,1.55965472572e+18,-0.4525179267,-3.423812866,-0.5171633363
110,1.55965472577e+18,2.897072554,2.554691315,-9.500482559
111,1.55965472582e+18,-4.695172787,-4.264203548,11.23633194
112,1.55965472587e+18,-2.762993097,-23.52135658,10.36002731
113,1.55965472593e+18,-2.43976593,-21.86691093,23.8733139
114,1.55965472598e+18,-8.564320564,-11.57631874,11.67687798
115,1.55965472603e+18,-10.30016994,-6.55313015,12.28502369
116,1.55965472608e+18,-9.433443069,-7.987300873,11.26745701
117,1.55965472613e+18,-9.550762177,-8.765439987,7.618582249
118,1.55965472619e+18,-4.290540695,-5.312895775,6.802134514
119,1.55965472624e+18,-2.233858347,-0.4189980924,2.79890728
120,1.55965472629e+18,-5.619362831,1.869928598,4.355185986
121,1.55965472634e+18,-2.861158371,1.910631299,-5.38711834
122,1.55965472639e+18,-0.4692778587,3.062277555,-2.949746609
123,1.55965472645e+18,6.241874218,0.03591412306,-8.130957603
124,1.5596547265e+18,4.877137661,3.433390141,-8.183630943
125,1.55965472655e+18,-0.5219519138,-1.132491946,-3.960130453
126,1.5596547266e+18,-6.653689861,-11.43984509,19.23560333
127,1.55965472665e+18,-3.332830429,-25.01298904,26.65067291
128,1.55965472671e+18,-10.52044392,-18.96505165,17.13103676
129,1.55965472676e+18,-13.23076248,-6.548341751,7.465348721
130,1.55965472681e+18,-11.34646797,-4.580247879,8.286584854
131,1.55965472686e+18,-9.684841156,-6.648900986,9.21795845
132,1.55965472691e+18,-8.937828064,-4.745452881,6.756643295
133,1.55965472697e+18,-6.572284222,-2.466103077,4.326454639
134,1.55965472702e+18,-6.567495823,0.4189980924,2.578634024
135,1.55965472707e+18,-4.295329094,-0.464489311,-0.2801301479
136,1.55965472712e+18,-1.429382086,0.632088542,0.3184385598
137,1.55965472717e+18,-1.352765322,0.9313728809,-2.020767927
138,1.55965472723e+18,3.677606106,-1.089395046,-2.274561167
139,1.55965472728e+18,1.240234375,1.08221221,-7.204372883
140,1.55965472733e+18,-2.616942406,-0.2705530524,6.091034889
141,1.55965472738e+18,-2.643279314,-6.256239891,15.16294193
142,1.55965472743e+18,-5.02797699,-18.03607178,26.31068611
143,1.55965472749e+18,-11.58589554,-7.977723598,19.53967667
144,1.55965472754e+18,-13.08231735,-3.735068798,11.3344965
145,1.55965472759e+18,-10.03201103,-4.829252243,10.85803604
146,1.55965472764e+18,-7.704776287,-2.985660791,6.258634567
147,1.55965472769e+18,-5.612180233,-1.338399649,4.450956821
148,1.55965472775e+18,-3.782954216,-0.2513988614,5.674431324
149,1.5596547278e+18,-5.389512539,2.43976593,4.92023468
150,1.55965472785e+18,-6.814105988,1.070240855,2.068653345
151,1.5596547279e+18,-6.203566074,0.2729473412,3.792531252
152,1.55965472795e+18,-5.178816319,-2.37272644,0.4309694767
153,1.55965472801e+18,3.251425266,-4.506025314,-9.2035923
154,1.55965472806e+18,3.77337718,-5.109382629,1.561067224
155,1.55965472811e+18,0.5506832004,0.07422251999,-2.317657948
156,1.55965472816e+18,3.071854591,-10.28819847,10.0966568
157,1.55965472821e+18,-4.422225475,-31.71216965,31.88934708
158,1.55965472827e+18,-9.641744614,-15.79263687,17.18849945
159,1.55965472832e+18,-10.41749001,-3.852388144,9.658504486
160,1.55965472837e+18,-9.591464996,-7.139727592,10.67128277
161,1.55965472842e+18,-7.884346962,-4.913052082,8.605023384
162,1.55965472847e+18,-7.063110828,-2.45892024,6.603409767
163,1.55965472853e+18,-4.012804508,-0.8332076073,7.82449007
164,1.55965472858e+18,-6.598621368,-0.102953814,6.143709183
165,1.55965472863e+18,-6.177228928,0.1795706153,3.062277555
166,1.55965472868e+18,-4.472505569,0.462095052,2.128510237
167,1.55965472873e+18,-2.681587696,-0.3375927508,-0.1053480953
168,1.55965472879e+18,1.216291547,-0.9002473354,-6.280182838
169,1.55965472884e+18,5.540351868,0.2753416002,-4.304905891
170,1.55965472889e+18,0.4357580245,2.181184292,-4.364762783
171,1.55965472894e+18,-4.225894928,-7.031985283,18.50295639
172,1.55965472899e+18,-5.236279011,-19.35771179,18.30183601
173,1.55965472905e+18,-11.72715759,-10.11102295,17.46144676
174,1.5596547291e+18,-10.83409309,-6.919454098,11.13577175
175,1.55965472915e+18,-8.865999222,-5.370358467,10.06313705
176,1.5596547292e+18,-9.129369736,-4.917840481,8.217150688
177,1.55965472925e+18,-7.862798691,-5.099805355,5.789356709
178,1.55965472931e+18,-5.473312378,-2.67201066,7.029590607
179,1.55965472936e+18,-6.598621368,-4.616161823,6.06230402
180,1.55965472941e+18,-3.091008663,-2.645673752,3.809291124
181,1.55965472946e+18,-7.357606411,-0.646454215,4.862771988
182,1.55965472951e+18,7.388731956,3.234665155,-8.480521202
183,1.55965472957e+18,-1.668809533,0.6727912426,-0.4788549542
184,1.55965472962e+18,-1.321639657,-0.3950553536,9.785401344
185,1.55965472967e+18,-6.605803967,-2.305686712,6.533976078
186,1.55965472972e+18,-8.889942169,-11.07352066,16.83893394
187,1.55965472977e+18,-9.086273193,-7.180429935,15.97699547
188,1.55965472983e+18,-10.50368404,-7.664073467,12.28741837
189,1.55965472988e+18,-8.444606781,-5.497254848,10.20918751
190,1.55965472993e+18,-8.444606781,-4.041535854,8.008849144
191,1.55965472998e+18,-6.907482624,-2.784541607,5.822876453
192,1.55965473003e+18,-6.160469055,-0.629694283,6.636929989
193,1.55965473009e+18,-3.919427872,4.771789551,5.928224564
194,1.55965473014e+18,-3.215511084,3.574652195,5.777385235
195,1.55965473019e+18,-8.140534401,-1.934574008,4.338426113
196,1.55965473024e+18,-8.892336845,-9.859623909,-3.778165579
197,1.55965473029e+18,6.232297421,-5.700768471,-7.783787251
198,1.55965473035e+18,3.701548815,1.874717116,-11.81574631
199,1.5596547304e+18,0.4764606953,-0.3088614643,1.726272106
200,1.55965473045e+18,-0.07901106775,-32.00905991,12.80458164
201,1.5596547305e+18,-4.125335693,-17.67214203,18.7950573
202,1.55965473055e+18,-7.242681503,-7.977723598,10.96338463
203,1.55965473061e+18,-8.296162605,-5.53316927,10.1014452
204,1.55965473066e+18,-11.12380123,-6.081458092,10.70959091
205,1.55965473071e+18,-10.11581135,-6.773403645,7.482108593
206,1.55965473076e+18,-7.22831583,-4.38870573,7.764633179
207,1.55965473081e+18,-4.64249897,-1.673598051,6.612987041
208,1.55965473087e+18,-8.28897953,-4.182797909,3.816473961
209,1.55965473092e+18,-3.313676357,-3.119740009,1.46290195
210,1.55965473097e+18,-1.29290843,-0.29689008,-2.880312681
211,1.55965473102e+18,2.221887112,1.185166001,-12.08869362
212,1.55965473107e+18,9.251478195,4.479688168,-7.367183685
213,1.55965473113e+18,-4.376734257,-3.696760416,5.925830364
214,1.55965473118e+18,-4.60419035,-21.42875862,16.04882431
215,1.55965473123e+18,-2.305686712,-18.31859589,24.11274147
216,1.55965473128e+18,-4.652075768,-8.518829346,16.20445251
217,1.55965473133e+18,-8.933039665,-6.677632332,10.26425648
218,1.55965473139e+18,-8.56671524,-4.539545059,9.107821465
219,1.55965473144e+18,-9.526819229,-5.985687256,8.164477348
220,1.55965473149e+18,-7.156487465,-5.791750908,8.07828331
221,1.55965473154e+18,-5.712739468,-3.785348415,4.477293968
222,1.55965473159e+18,-4.328848839,-2.478074312,5.444581032
223,1.55965473165e+18,-5.952167034,-0.4285751879,6.186806202
224,1.5596547317e+18,0.984046936,0.5387118459,-11.7175808
225,1.55965473175e+18,4.793338299,3.071854591,-4.968120098
226,1.5596547318e+18,1.472478986,-1.228263021,-1.968093872
227,1.55965473185e+18,-6.016812801,-5.820482254,11.13577175
228,1.55965473191e+18,-2.241041183,-19.84614372,13.64976025
229,1.55965473196e+18,-9.313729286,-24.44794083,21.15581131
230,1.55965473201e+18,-10.05356026,-8.442213058,12.00728798
231,1.55965473206e+18,-12.01447105,-6.237085819,8.324893951
232,1.55965473211e+18,-9.871595383,-6.914665699,8.863605499
233,1.55965473217e+18,-9.663292885,-4.841223717,7.642525196
234,1.55965473222e+18,-14.8876009,-4.743058205,0.5123748183
235,1.55965473227e+18,-7.319298267,-4.103786945,-1.71908927
236,1.55965473232e+18,-2.959323645,-1.300091267,0.8619389534
237,1.55965473237e+18,-3.991255999,0.4884320498,0.3639297783
238,1.55965473243e+18,0.6416656375,-0.8499675393,1.879505754
239,1.55965473248e+18,9.014444351,1.649655342,0.1556278616
240,1.55965473253e+18,10.84845924,-0.1460507661,-7.601822376
241,1.55965473258e+18,1.723877907,-5.449369431,1.699935079
242,1.55965473263e+18,-10.12778282,-16.30740547,15.16533661
243,1.55965473269e+18,3.292127848,-19.9897995,12.83810139
244,1.55965473274e+18,-9.869200706,-20.79667091,18.45267677
245,1.55965473279e+18,-10.46298122,-6.93860817,10.02243423
246,1.55965473284e+18,-13.03922081,-7.695199013,11.19323444
247,1.55965473289e+18,-9.747093201,-7.494080067,9.380768776
248,1.55965473295e+18,-7.175641537,-3.766194344,3.893090725
249,1.559654733e+18,-4.592218876,-2.420611858,4.168432236
250,1.55965473305e+18,-3.526766777,-3.340013266,4.764606953
251,1.5596547331e+18,-5.552323341,-6.974522591,-0.9696813226
252,1.55965473315e+18,-1.331216812,-2.77735877,2.185972929
253,1.55965473321e+18,-4.300117493,-3.612960577,-12.49811459
254,1.55965473326e+18,4.173221111,0.0837996155,-6.059909344
255,1.55965473331e+18,1.735849261,0.2921015322,2.224281311
256,1.55965473336e+18,-7.120573044,-3.397475958,10.50607777
257,1.55965473341e+18,-1.596981287,-15.17491341,12.21559048
258,1.55965473347e+18,-11.4805479,-19.88684654,20.07120514
259,1.55965473352e+18,-11.89475727,-9.931451797,11.94024849
260,1.55965473357e+18,-10.4749527,-7.874769688,8.602629662
261,1.55965473362e+18,-10.53241444,-9.871595383,10.6449461
262,1.55965473367e+18,-11.06633854,-9.261054993,3.723097324
263,1.55965473373e+18,-7.541965485,-4.89629221,1.987248063
264,1.55965473378e+18,-3.54113245,1.577827096,2.54511404
265,1.55965473383e+18,-3.703943014,2.423006058,1.793311834
266,1.55965473388e+18,-3.782954216,2.051893473,1.369525194
267,1.55965473393e+18,-0.4094209969,0.5746259689,3.20353961
268,1.55965473399e+18,5.614574432,2.648067951,-11.28661156
269,1.55965473404e+18,4.35039711,0.7518022656,1.491633177
270,1.55965473409e+18,0.03591412306,-2.128510237,5.250644684
271,1.55965473414e+18,1.687963724,-5.217124939,3.550709486
272,1.55965473419e+18,-6.644112587,-36.91492844,17.65298843
273,1.55965473425e+18,-8.571503639,-22.07521439,20.02092552
274,1.5596547343e+18,-9.167677879,-13.1014719,9.296969414
275,1.55965473435e+18,-11.23154354,-6.148497581,8.540378571
276,1.5596547344e+18,-11.4949131,-5.09262228,6.160469055
277,1.55965473445e+18,-10.16369629,-4.862771988,2.834821463
278,1.55965473451e+18,-6.65847826,-2.561874151,3.577046633
279,1.55965473456e+18,-6.337645531,-0.1652049571,1.395862222
280,1.55965473461e+18,-6.838048935,-0.4549122155,-0.9337671995
281,1.55965473466e+18,-3.296916485,-1.115732074,3.342407703
282,1.55965473471e+18,7.067899227,2.657644987,-5.308107376
283,1.55965473477e+18,9.445414543,0.7087053657,-4.972908974
284,1.55965473482e+18,4.826858044,1.0175668,-1.300091267
285,1.55965473487e+18,-9.093455315,-10.97056675,13.61863518
286,1.55965473492e+18,-3.600989342,-16.31458855,13.96101665
287,1.55965473497e+18,-13.63778973,-24.35695839,20.71526527
288,1.55965473503e+18,-6.993676662,-8.056735039,11.14774323
289,1.55965473508e+18,-7.884346962,-6.919454098,9.292180061
290,1.55965473513e+18,-7.345634937,-4.793338299,7.54675436
291,1.55965473518e+18,-10.36481571,-1.465296149,5.324867249
292,1.55965473523e+18,-7.82688427,-2.899466753,4.898686409
293,1.55965473528e+18,-2.214704275,-2.921015263,6.004841328
294,1.55965473534e+18,-3.806896925,-5.480494976,1.079817891
295,1.55965473539e+18,-1.446141958,0.3759011328,7.355212212
296,1.55965473544e+18,2.0351336,0.2298503816,-15.62743187
297,1.55965473549e+18,0.4764606953,1.721483588,-2.030344963
298,1.55965473554e+18,1.015172482,-1.977671027,10.83169937
299,1.5596547356e+18,-3.996044636,-8.59305191,8.636149406
300,1.55965473565e+18,-21.05525208,-26.22449112,13.53483582
301,1.5596547357e+18,-15.49335194,-8.413481712,9.320911407
302,1.55965473575e+18,-10.36721039,-10.2714386,12.43586349
303,1.5596547358e+18,-11.46139336,-5.889915943,7.170853138
304,1.55965473586e+18,-10.02243423,-5.45176363,6.526793003
305,1.55965473591e+18,-8.854028702,-4.884320736,1.857957244
306,1.55965473596e+18,-5.365570068,-3.579440832,2.023162127
307,1.55965473601e+18,-4.783761024,-3.040729046,1.288119793
308,1.55965473606e+18,-5.413455486,-3.026363373,0.8715160489
309,1.55965473612e+18,-4.450956821,0.4357580245,8.142929077
310,1.55965473617e+18,3.87872529,4.419831276,-9.73751545
311,1.55965473622e+18,12.30178356,5.056708336,-8.447001457
312,1.55965473627e+18,6.237085819,1.721483588,6.27539444
313,1.55965473632e+18,-9.2035923,-8.248276711,15.71601963
314,1.55965473638e+18,-2.394274712,-19.8054409,13.01767254
315,1.55965473643e+18,-12.74233055,-21.56762695,14.87323475
316,1.55965473648e+18,-9.790189743,-8.542772293,5.95695591
317,1.55965473653e+18,-9.586676598,-7.688016415,7.752661705
318,1.55965473658e+18,-7.173247337,-6.246663094,6.304125786
319,1.55965473664e+18,-5.825270653,-5.224307537,7.740690231
320,1.55965473669e+18,-5.62175703,-4.958543301,10.31453609
321,1.55965473674e+18,-4.223500729,-4.685595989,3.402264595
322,1.55965473679e+18,-8.906702042,3.007209063,-2.518777132
323,1.55965473684e+18,2.571451187,2.023162127,-13.50610447
324,1.5596547369e+18,10.55875206,2.33441782,5.966532707
325,1.55965473695e+18,1.063058019,1.793311834,-8.739103317
326,1.559654737e+18,-4.120546818,-2.956929445,6.500456333
327,1.55965473705e+18,-7.805335999,-14.47578526,15.15097141
328,1.5596547371e+18,-3.634509087,-22.10155106,23.71529198
329,1.55965473716e+18,-10.41749001,-13.06316376,14.12382698
330,1.55965473721e+18,-9.634561539,-5.188393593,6.988888264
331,1.55965473726e+18,-9.890748978,-6.778192043,7.012830734
332,1.55965473731e+18,-7.855615616,-4.613767624,5.442186832
333,1.55965473736e+18,-7.309720993,-1.173194647,5.183605194
334,1.55965473742e+18,-6.131737709,2.018373728,2.26737833
335,1.55965473747e+18,-5.372752666,2.542719841,1.0606637
336,1.55965473752e+18,-4.410254002,0.3447755575,1.007989645
337,1.55965473757e+18,-4.060689926,-2.609759569,4.28335762
338,1.55965473762e+18,3.270579338,-5.899493217,-4.28575182
339,1.55965473768e+18,3.37113905,-2.116539001,-11.708004
340,1.55965473773e+18,0.9720755816,-8.425453186,8.023215294
341,1.55965473778e+18,5.437397957,-22.06324196,11.13337803
342,1.55965473783e+18,-9.924268723,-24.33061981,17.58115959
343,1.55965473788e+18,-8.933039665,-10.12059975,13.91552544
344,1.55965473794e+18,-9.883566856,-7.417463303,12.02883625
345,1.55965473799e+18,-12.50050831,-7.575485706,9.402317047
346,1.55965473804e+18,-10.9945097,-6.799740314,3.519583941
347,1.55965473809e+18,-8.95219326,-6.217931747,4.491659641
348,1.55965473814e+18,-7.099024773,-10.78141975,-1.455719113
349,1.5596547382e+18,-4.70714426,-5.382329941,-0.8308133483
350,1.55965473825e+18,-2.490045786,1.723877907,-2.382303476
351,1.5596547383e+18,9.294574738,3.390293121,-9.996097565
352,1.55965473835e+18,12.7710619,6.265817165,-4.800520897
353,1.5596547384e+18,8.190814018,2.90664959,-3.747040033
354,1.55965473846e+18,-9.490905762,-9.110215187,18.96505165
355,1.55965473851e+18,-2.518777132,-24.72806931,13.0966835
356,1.55965473856e+18,-9.01923275,-25.29551315,19.4941864
357,1.55965473861e+18,-5.789356709,-10.23791885,8.557138443
358,1.55965473866e+18,-6.919454098,-6.517216206,8.990502357
359,1.55965473872e+18,-7.905895233,-5.23867321,7.221132755
360,1.55965473877e+18,-5.688796997,-8.365595818,5.643305779
361,1.55965473882e+18,-2.343995094,-4.970514297,5.803721905
362,1.55965473887e+18,-2.559479713,-3.217905283,3.557892323
363,1.55965473892e+18,-4.28575182,1.793311834,4.051113129
364,1.55965473898e+18,2.818061352,-0.241821751,-18.42155075
365,1.55965473903e+18,-0.8786988258,-0.6009629965,3.275367975
366,1.55965473908e+18,2.67201066,-0.8212362528,-4.625739098
367,1.55965473913e+18,-8.413481712,-6.917059898,11.19084072
368,1.55965473918e+18,1.836408734,-22.56125069,7.151699066
369,1.55965473924e+18,-7.561120033,-24.80708122,20.73920822
370,1.55965473929e+18,-7.034379482,-10.47734642,9.809344292
371,1.55965473934e+18,-7.498868465,-7.039167881,9.500482559
372,1.55965473939e+18,-8.375173569,-8.808537483,9.632167816
373,1.55965473944e+18,-6.605803967,-6.581861496,8.537983894
374,1.5596547395e+18,-7.443800449,-4.144489765,4.972908974
375,1.55965473955e+18,-6.44778204,-0.8691217303,5.480494976
376,1.5596547396e+18,-3.873936653,-0.6608198285,-0.2897072434
377,1.55965473965e+18,-1.03911531,0.9409499764,-2.9258039
378,1.5596547397e+18,2.485257149,1.053480864,-1.956122518
379,1.55965473976e+18,3.232270956,4.632921696,-5.248250484
380,1.55965473981e+18,4.034353256,1.29290843,-6.847625732
381,1.55965473986e+18,-1.721483588,-2.487651587,6.083852291
382,1.55965473991e+18,-12.55557728,-24.11274147,9.938634872
383,1.55965473996e+18,-7.161275864,-31.26444054,23.09517479
384,1.55965474002e+18,-6.732700825,-14.29142666,12.62261677
385,1.55965474007e+18,-8.487704277,-8.221940041,8.758256912
386,1.55965474012e+18,-8.722343445,-7.19000721,8.322499275
387,1.55965474017e+18,-9.567522049,-8.281796455,5.293741703
388,1.55965474022e+18,-9.986519814,-5.217124939,4.517996788
389,1.55965474028e+18,-7.649707794,-2.846792698,1.08221221
390,1.55965474033e+18,-7.168458939,-0.948132813,-0.9744698405
391,1.55965474038e+18,-0.06943397224,2.300898075,0.6871568561
392,1.55965474043e+18,4.60179615,1.877111435,-0.1412622184
393,1.55965474048e+18,6.469330311,4.64249897,-9.00726223
394,1.55965474054e+18,6.960156918,1.247417212,-0.1604164094
395,1.55965474059e+18,-1.240234375,2.552296877,5.760625362
396,1.55965474064e+18,2.916226625,-1.321639657,-3.938581944
397,1.55965474069e+18,-13.03922081,-37.88940048,15.05041122
398,1.55965474074e+18,-9.239506721,-22.8150444,20.61949539
399,1.55965474079e+18,-10.937047,-14.43508244,7.458166122
400,1.55965474085e+18,-12.41431522,-6.612987041,8.269824982
401,1.5596547409e+18,-10.32650757,-6.519610405,6.179623127
402,1.55965474095e+18,-7.625765324,-2.066259146,4.869955063
403,1.559654741e+18,-9.802161217,-0.3926610649,3.969707727
404,1.55965474105e+18,-1.527547359,-0.1053480953,0.1819648892
405,1.55965474111e+18,-2.856369734,6.06230402,0.1125309169
406,1.55965474116e+18,-5.408666611,3.991255999,-3.052700281
407,1.55965474121e+18,-7.304932594,2.157241583,0.1867534369
408,1.55965474126e+18,1.213897347,2.174001455,-6.895511627
409,1.55965474131e+18,9.426259995,1.508393168,-1.295302629
410,1.55965474137e+18,2.988054991,0.1316851079,1.067846537
411,1.55965474142e+18,-0.8978530765,-4.764606953,8.913885117
412,1.55965474147e+18,-12.10066509,-30.92206001,22.33140182
413,1.55965474152e+18,-18.90519333,-16.76471138,16.17093277
414,1.55965474157e+18,-18.15818024,-4.359974384,4.891503334
415,1.55965474163e+18,-11.77264881,-3.426207304,9.055147171
416,1.55965474168e+18,-9.601041794,-2.645673752,6.198777676
417,1.55965474173e+18,-8.731920242,-0.8140534163,4.977697372
418,1.55965474178e+18,-8.698400497,4.743058205,2.705530643
419,1.55965474183e+18,-3.536343813,3.146077156,3.0957973
420,1.55965474189e+18,-2.712713242,-0.464489311,2.449343204
421,1.55965474194e+18,-12.79739857,-8.008849144,13.10865498
422,1.55965474199e+18,-3.134105682,-0.6249057055,-2.710319042
423,1.55965474204e+18,3.974496126,-6.158074856,-9.095849991
424,1.55965474209e+18,-2.231464148,-6.148497581,3.220299721
425,1.55965474215e+18,4.034353256,2.935380936,-4.690384388
426,1.5596547422e+18,-1.405439258,-8.6888237,14.71042442
427,1.55965474225e+18,1.901054144,-30.23490143,19.10391808
428,1.5596547423e+18,-11.67208958,-18.97462845,17.49496651
429,1.55965474235e+18,-13.48216152,-0.8810931444,11.91391182
430,1.55965474241e+18,-15.36406136,-6.431022167,9.110215187
431,1.55965474246e+18,-12.60825157,-5.528380394,7.915472507
432,1.55965474251e+18,-10.14693642,-6.045543671,2.719896078
433,1.55965474256e+18,-4.345608711,-2.846792698,3.059883118
434,1.55965474261e+18,-3.318464994,-1.735849261,3.447755814
435,1.55965474267e+18,-4.319271564,-1.731060743,2.181184292
436,1.55965474272e+18,-2.952140808,-1.486844659,2.150058746
437,1.55965474277e+18,-9.900326729,2.411034822,-1.075029373
438,1.55965474282e+18,10.89873886,1.170800328,-20.16697693
439,1.55965474287e+18,10.67367744,1.350371003,13.66652107
440,1.55965474293e+18,-2.564268351,-0.1221080124,0.8140534163
441,1.55965474298e+18,-1.046298146,-5.944984436,4.525179386
442,1.55965474303e+18,-3.572257996,-30.08406258,25.59240341
443,1.55965474308e+18,-12.11503029,-20.76075745,19.59474564
444,1.55965474313e+18,-13.33611107,-4.716721535,5.38472414
445,1.55965474319e+18,-17.09512138,-2.166818619,7.419857502
446,1.55965474324e+18,-11.60265541,-3.529160976,5.245856285
447,1.55965474329e+18,-8.341653824,-2.367937803,4.75024128
448,1.55965474334e+18,-6.814105988,-0.6153286099,4.685595989
449,1.55965474339e+18,-6.272999763,0.7302538157,2.054287672
450,1.55965474345e+18,-4.252232075,2.066259146,2.279349566
451,1.5596547435e+18,-2.379909277,-0.6249057055,1.182771802
452,1.55965474355e+18,-3.03115201,-0.8499675393,0.9912297726
453,1.5596547436e+18,0.8188419938,-4.247443676,0.3256213665
454,1.55965474365e+18,4.340820312,-0.2681587934,-4.958543301
455,1.55965474371e+18,-3.938581944,-3.54113245,6.280182838
456,1.55965474376e+18,-6.706363678,-4.685595989,5.262616158
457,1.55965474381e+18,-2.205127001,-18.95786858,17.98100471
458,1.55965474386e+18,-10.52523232,-16.75274086,24.49822044
459,1.55965474391e+18,-11.50927925,-6.881145954,16.25951958
460,1.55965474397e+18,-15.12224007,-0.9313728809,12.34009266
461,1.55965474402e+18,-8.087860107,-3.842811108,9.138946533
462,1.55965474407e+18,-5.868367672,-3.050306082,8.085466385
463,1.55965474412e+18,-5.159662247,-5.499649048,8.305739403
464,1.55965474417e+18,-5.758230686,-12.26347542,6.263422966
465,1.55965474423e+18,-8.43742466,-10.14454269,13.1158371
466,1.55965474428e+18,-2.35357213,3.670423269,-0.7948992252
467,1.55965474433e+18,2.719896078,1.819648862,-18.12226677
468,1.55965474438e+18,12.27544689,5.578660488,-10.56114578
469,1.55965474443e+18,5.779779434,-5.111776829,4.958543301
470,1.55965474449e+18,-6.790163517,-5.19797039,18.3688755
471,1.55965474454e+18,-7.829278469,-16.63542175,2.624125242
472,1.55965474459e+18,-11.90912247,-21.29707527,19.75755501
473,1.55965474464e+18,-8.997684479,-14.67690468,11.47575951
474,1.55965474469e+18,-8.05194664,-7.130150318,10.56354046
475,1.55965474475e+18,-8.585869789,-6.794951916,9.064723969
476,1.5596547448e+18,-8.020820618,-6.047938347,8.624177933
477,1.55965474485e+18,-8.92585659,-10.85324764,4.43180275
478,1.5596547449e+18,-7.376760483,-7.051139355,2.339206457
479,1.55965474495e+18,-5.004034519,-2.755810261,4.027170181
480,1.55965474501e+18,-4.597007751,3.821262598,-7.551542759
481,1.55965474506e+18,17.05681419,5.32007885,-8.257853508
482,1.55965474511e+18,6.610592842,1.975276709,-8.861210823
483,1.55965474516e+18,3.174808502,0.5578660369,-1.901054144
484,1.55965474521e+18,-2.24822402,-12.78303337,6.691998005
485,1.55965474527e+18,2.79890728,-38.98358154,24.39526558
486,1.55965474532e+18,-6.69918108,-24.55089378,8.341653824
487,1.55965474537e+18,-8.526012421,-10.82691097,7.44140625
488,1.55965474542e+18,-10.02961731,-5.164450645,6.988888264
489,1.55965474547e+18,-9.826104164,-7.920260906,8.147717476
490,1.55965474553e+18,-5.818087578,-6.59143877,6.411868095
491,1.55965474558e+18,-6.004841328,-4.209135056,6.052726746
492,1.55965474563e+18,-4.343214512,-1.936968327,2.241041183
493,1.55965474568e+18,-3.440572977,0.612934351,2.815667152
494,1.55965474573e+18,-2.078230619,0.9984126091,-5.437397957
495,1.55965474579e+18,4.819674969,4.003227711,-5.34402132
496,1.55965474584e+18,1.869928598,3.940976381,-4.64249897
497,1.55965474589e+18,-0.01675992459,3.658451796,-5.643305779
498,1.55965474594e+18,-2.442160368,-9.081484795,10.59466648
499,1.55965474599e+18,-4.367157459,-23.52853775,20.15979385
500,1.55965474605e+18,-5.856396198,-18.4167614,21.23482323
501,1.5596547461e+18,-8.839662552,-10.15172482,10.87719059
502,1.55965474615e+18,-8.128562927,-7.051139355,14.13340378
503,1.5596547462e+18,-10.85085297,-6.97691679,7.726325035
504,1.55965474625e+18,-9.457385063,-6.057515144,5.995264053
505,1.55965474631e+18,-5.312895775,-3.155654192,3.021574736
506,1.55965474636e+18,-4.929811954,1.656838179,1.97288239
507,1.55965474641e+18,-3.600989342,2.339206457,1.544307232
508,1.55965474646e+18,-3.292127848,0.9696813226,-1.168406129
509,1.55965474651e+18,2.152452946,0.3639297783,5.880339146
510,1.55965474657e+18,8.940221786,1.9944309,-12.35685253
511,1.55965474662e+18,8.99289608,-2.918621063,-10.70959091
512,1.55965474667e+18,-7.666468143,-27.72330856,7.776604652
513,1.55965474672e+18,7.419857502,-39.43370438,32.30355453
514,1.55965474677e+18,-2.114144564,-17.1932869,13.23315716
515,1.55965474683e+18,-7.29535532,-8.79656601,10.57072353
516,1.55965474688e+18,-10.36721039,-6.256239891,7.917866707
517,1.55965474693e+18,-8.863605499,-8.181237221,7.862798691
518,1.55965474698e+18,-8.303344727,-5.973715782,3.624932051
519,1.55965474703e+18,-4.771789551,-0.4022381604,1.905842781
520,1.55965474709e+18,-5.430215359,0.06464541703,1.089395046
521,1.55965474714e+18,-2.382303476,-0.07661679387,1.127703428
522,1.55965474719e+18,-0.924190104,-2.071047783,1.88668859
523,1.55965474724e+18,2.67440486,1.711906433,-7.000859737
524,1.55965474729e+18,10.65931129,1.273754239,-13.58990383
525,1.55965474735e+18,-0.9122186899,-6.308914185,9.826104164
526,1.5596547474e+18,-1.225868702,-22.83180428,7.489291668
527,1.55965474745e+18,-1.82204318,-31.64991951,21.77353477
528,1.5596547475e+18,-4.197163582,-13.85566807,8.789382935
529,1.55965474755e+18,-8.786988258,-7.656890869,8.111803055
530,1.55965474761e+18,-9.763853073,-5.121353626,9.823709488
531,1.55965474766e+18,-8.96655941,-6.313702583,6.759037971
532,1.55965474771e+18,-7.108602047,-7.338452339,4.345608711
533,1.55965474776e+18,-6.009629726,-10.55156898,1.771763325
534,1.55965474781e+18,-4.292934895,-3.766194344,-2.624125242
535,1.55965474787e+18,-5.944984436,0.6416656375,18.49098396
536,1.55965474792e+18,13.94425678,9.86680603,-9.579493523
537,1.55965474797e+18,9.012050629,6.44778204,-8.236305237
538,1.55965474802e+18,2.396669149,2.808484316,4.585036278
539,1.55965474807e+18,6.567495823,-18.23719215,11.20760059
540,1.55965474812e+18,-0.8236305118,-46.54949188,16.60908508
541,1.55965474818e+18,-3.543526649,-18.35211563,1.103760719
542,1.55965474823e+18,-10.32171917,-8.114197731,1.106154919
543,1.55965474828e+18,-4.575459003,-11.69603252,8.813325882
544,1.55965474833e+18,-3.533949614,-8.188420296,8.408693314
545,1.55965474838e+18,-4.458139896,-3.869148016,4.649681568
546,1.55965474844e+18,-4.901080608,2.363149166,2.051893473
547,1.55965474849e+18,-3.670423269,0.1388679445,1.738243461
548,1.55965474854e+18,-4.711932659,-0.05506832153,14.85647488
549,1.55965474859e+18,0.004788549617,1.71669507,-16.36726189
550,1.55965474864e+18,14.29860878,4.453351021,-4.948966026
551,1.5596547487e+18,-7.707170486,-4.295329094,2.437371731
552,1.55965474875e+18,-3.45733285,-3.876330853,3.969707727
553,1.5596547488e+18,-2.976083517,-32.44242477,23.90443993
554,1.55965474885e+18,-3.984073162,-14.03284454,21.12229156
555,1.5596547489e+18,-6.80452919,-9.423865318,9.718361855
556,1.55965474896e+18,-7.355212212,-3.984073162,9.689630508
557,1.55965474901e+18,-8.739103317,-6.373559475,6.799740314
558,1.55965474906e+18,-9.009655952,-12.81655312,5.123748302
559,1.55965474911e+18,-7.075081825,-11.93306541,2.518777132
560,1.55965474916e+18,-2.592999697,-3.505218267,0.4860377908
561,1.55965474922e+18,-0.9912297726,5.298530102,4.13730669
562,1.55965474927e+18,13.25709915,6.143709183,-19.63305283
563,1.55965474932e+18,6.0216012,2.444554567,-4.867560863
564,1.55965474937e+18,3.696760416,0.5746259689,-1.16601181
565,1.55965474942e+18,-9.706390381,-14.74633884,17.54763985
566,1.55965474948e+18,-1.407833576,-28.73369217,18.92434883
567,1.55965474953e+18,-8.035185814,-19.97543526,14.154953
568,1.55965474958e+18,-7.046350956,-9.526819229,8.490098
569,1.55965474963e+18,-8.420664787,-7.905895233,6.964945316
570,1.55965474968e+18,-8.502069473,-7.50605154,4.087027073
571,1.55965474974e+18,-5.609786034,-5.530774593,4.49644804
572,1.55965474979e+18,-2.561874151,-1.376708031,3.802108288
573,1.55965474984e+18,-1.556278586,0.962498486,2.348783493
574,1.55965474989e+18,-9.524425507,-0.6991282701,15.54123783
575,1.55965474994e+18,11.07112694,4.180403709,-13.8341198
576,1.55965475e+18,-0.9146129489,-3.974496126,-1.39825654
577,1.55965475005e+18,-6.423839092,-4.027170181,4.692778587
578,1.5596547501e+18,5.77020216,-18.0480442,9.665687561
579,1.55965475015e+18,-0.6536370516,-19.54925346,24.24921608
580,1.5596547502e+18,-2.652856588,-9.079090118,14.22678089
581,1.55965475026e+18,-7.216344357,-7.54675436,10.36002731
582,1.55965475031e+18,-8.150111198,-8.3153162,9.258660316
583,1.55965475036e+18,-6.744672298,-6.23469162,8.552350044
584,1.55965475041e+18,-7.477320194,-3.569863796,5.925830364
585,1.55965475046e+18,-7.242681503,-2.516382933,1.460507631
586,1.55965475052e+18,-3.057488918,-2.868341208,0.7996878028
587,1.55965475057e+18,-5.751048088,-4.980091572,8.676852226
588,1.55965475062e+18,0.1963305324,-0.2753416002,-0.5578660369
589,1.55965475067e+18,10.56114578,1.616135478,-8.600234985
590,1.55965475072e+18,6.177228928,0.6823683381,1.917814136
591,1.55965475078e+18,-3.517189741,-3.919427872,12.69683933
592,1.55965475083e+18,0.04549122229,-14.46860313,4.597007751
593,1.55965475088e+18,-16.08234406,-26.32505226,23.95711327
594,1.55965475093e+18,-7.525205612,-6.361588001,13.83651447
595,1.55965475098e+18,-10.88197899,-3.917033672,7.44140625
596,1.55965475104e+18,-9.84046936,-4.472505569,7.484503269
597,1.55965475109e+18,-6.737489223,-2.576239586,5.964138508
598,1.55965475114e+18,-7.987300873,-2.67201066,7.2546525
599,1.55965475119e+18,-5.952167034,-4.628133297,4.11097002
600,1.55965475124e+18,-4.786155224,-3.529160976,2.389486313
601,1.5596547513e+18,-5.312895775,-2.741444588,-2.123721838
602,1.55965475135e+18,-3.143682718,0.481249243,-0.4980091453
603,1.5596547514e+18,4.903474808,2.640885115,-5.796539307
604,1.55965475145e+18,7.671256542,4.355185986,-4.290540695
605,1.5596547515e+18,-5.444581032,-3.809291124,5.528380394
606,1.55965475156e+18,-0.2825244367,-9.198803902,11.11422348
607,1.55965475161e+18,-24.77835083,-32.69861221,21.58917618
608,1.55965475166e+18,-10.84606457,-4.826858044,12.8931694
609,1.55965475171e+18,-12.30896664,-6.091034889,8.456578255
610,1.55965475176e+18,-8.909096718,-4.85319519,8.265036583
611,1.55965475182e+18,-10.93225861,-5.382329941,7.235498428
612,1.55965475187e+18,-11.18126297,-5.221913338,5.607391834
613,1.55965475192e+18,-8.490098,-7.429434776,4.857983589
614,1.55965475197e+18,-3.469304085,-3.663240433,1.604164124
615,1.55965475202e+18,-2.827638626,1.266571403,-1.668809533
616,1.55965475208e+18,0.06943397224,5.097411156,3.586623669
617,1.55965475213e+18,6.16765213,6.840443134,-14.39677429
618,1.55965475218e+18,5.135719299,1.738243461,1.529941559
619,1.55965475223e+18,-4.508419514,-1.82204318,5.243461609
620,1.55965475228e+18,-2.837215662,-3.282550812,12.86922741
621,1.55965475234e+18,-6.29933691,-19.01054192,16.14220047
622,1.55965475239e+18,-18.97941589,-16.36247444,18.73041153
623,1.55965475244e+18,-12.227561,-5.540351868,8.107014656
624,1.55965475249e+18,-9.701601982,-3.603383541,8.631361008
625,1.55965475254e+18,-7.841249943,-2.14048171,6.895511627
626,1.55965475259e+18,-10.21158218,-1.410227895,2.657644987
627,1.55965475265e+18,-9.821314812,0.5004034638,2.032739401
628,1.5596547527e+18,-6.624958515,1.637683988,0.9912297726
629,1.55965475275e+18,-4.70953846,1.271359921,2.595393896
630,1.5596547528e+18,-8.849239349,-0.634482801,12.72557068
631,1.55965475285e+18,-5.679219723,-3.22269392,-7.0822649
632,1.55965475291e+18,8.497281075,-4.185192585,-8.844450951
633,1.55965475296e+18,-0.648848474,-2.351177931,3.660846233
634,1.55965475301e+18,2.399063349,2.377514839,-5.061496735
635,1.55965475306e+18,5.796539307,-17.55961227,12.1988306
636,1.55965475311e+18,-7.266623974,-21.30425644,26.88531113
637,1.55965475317e+18,-7.889135361,-10.19482231,18.81181717
638,1.55965475322e+18,-8.684034348,-5.727105141,13.18527126
639,1.55965475327e+18,-7.735901833,-4.625739098,10.42946148
640,1.55965475332e+18,-6.694392204,-5.863578796,7.649707794
641,1.55965475337e+18,-6.136526108,-4.683201313,6.759037971
642,1.55965475343e+18,-7.688016415,-5.035160065,2.317657948
643,1.55965475348e+18,-4.678412914,-4.525179386,1.692752242
644,1.55965475353e+18,-2.736656189,-3.514795303,-1.08221221
645,1.55965475358e+18,-1.594586968,0.08140534163,2.406246185
646,1.55965475363e+18,3.962524891,0.06703969836,-7.199584484
647,1.55965475369e+18,1.910631299,0.689551115,-1.295302629
648,1.55965475374e+18,-1.343188167,-1.173194647,7.070293427
649,1.55965475379e+18,1.08221221,-6.636929989,10.25946712
650,1.55965475384e+18,-16.4654274,-30.72572899,21.16778374
651,1.55965475389e+18,-8.834874153,-8.612206459,17.14779663
652,1.55965475395e+18,-9.433443069,-5.008822918,10.49410629
653,1.559654754e+18,-9.457385063,-4.156461239,8.250671387
654,1.55965475405e+18,-8.413481712,-3.579440832,7.158881664
655,1.5596547541e+18,-6.51242733,-4.714327335,4.513207912
656,1.55965475415e+18,-5.55711174,-8.135746002,6.239480019
657,1.55965475421e+18,-3.474092722,-6.354405403,5.648094177
658,1.55965475426e+18,-2.712713242,-1.984853864,2.913832426
659,1.55965475431e+18,-2.329629421,2.039922237,-0.3998439014
660,1.55965475436e+18,-0.7829278708,2.997632027,-3.112557173
661,1.55965475441e+18,0.316044271,0.3543526828,1.355159521
662,1.55965475447e+18,-0.8284190893,-1.690358043,-0.8475732803
663,1.55965475452e+18,-3.002420664,-5.140508175,13.4893446
664,1.55965475457e+18,-1.46290195,-15.25871372,11.4853363
665,1.55965475462e+18,-15.56518078,-16.32416534,21.55086708
666,1.55965475467e+18,-10.87479591,-3.282550812,12.61782837
667,1.55965475473e+18,-12.09108734,-5.758230686,9.890748978
668,1.55965475478e+18,-8.636149406,-3.751828671,6.952973843
669,1.55965475483e+18,-7.503657341,-3.579440832,4.427014351
670,1.55965475488e+18,-6.919454098,-3.842811108,2.813272953
671,1.55965475493e+18,-6.198777676,-5.296135902,5.020794392
672,1.55965475499e+18,-5.616968632,-5.930618763,3.87872529
673,1.55965475504e+18,-4.752635479,-7.175641537,11.84926605
674,1.55965475509e+18,-4.130124092,4.276175022,-1.369525194
675,1.55965475514e+18,14.62423038,2.564268351,-16.37444496
676,1.55965475519e+18,4.075055599,-0.4525179267,-0.9577099085
677,1.55965475525e+18,-1.903448462,-0.3399870098,4.510813713
678,1.5596547553e+18,-0.2633702159,-19.91557693,8.241093636
679,1.55965475535e+18,-1.137280583,-32.32031631,22.8437767
680,1.5596547554e+18,-6.428627968,-16.73119164,8.126168251
681,1.55965475545e+18,-8.722343445,-7.587456703,7.051139355
682,1.55965475551e+18,-8.047157288,-5.755836487,8.236305237
683,1.55965475556e+18,-8.039975166,-5.473312378,7.130150318
684,1.55965475561e+18,-3.363956213,-0.9194015265,7.587456703
685,1.55965475566e+18,-2.202732801,4.304905891,9.739910126
686,1.55965475571e+18,-1.077423692,5.286558628,10.95620155
687,1.55965475577e+18,-5.684008598,0.986441195,5.011217117
688,1.55965475582e+18,-5.049525738,-0.1292908341,-0.04788549617
689,1.55965475587e+18,-4.798126698,-0.6727912426,-3.440572977
690,1.55965475592e+18,1.446141958,-6.629746914,2.645673752
691,1.55965475597e+18,-0.1819648892,-4.893897533,-5.796539307
692,1.55965475603e+18,-4.161249638,-2.942563772,-2.619336605
693,1.55965475608e+18,-2.645673752,-7.051139355,5.904281616
694,1.55965475613e+18,7.963357925,-27.51979446,21.464674
695,1.55965475618e+18,-5.207547665,-21.30904579,21.70410156
696,1.55965475623e+18,-8.820508003,-10.73114014,13.57793236
697,1.55965475629e+18,-13.70482922,-2.537931204,13.66173172
698,1.55965475634e+18,-13.61863518,-4.187586784,8.590658188
699,1.55965475639e+18,-10.02004051,-3.701548815,2.655250788
700,1.55965475644e+18,-6.363982677,-3.830839634,2.959323645
701,1.55965475649e+18,-9.660899162,-7.259441376,4.134912491
702,1.55965475655e+18,-5.104593754,-9.438231468,0.02633702382
703,1.5596547566e+18,-6.701575279,-8.291373253,7.695199013
704,1.55965475665e+18,8.27461338,2.748627424,-9.500482559
705,1.5596547567e+18,9.098244667,5.403878212,-13.18766594
706,1.55965475675e+18,2.506805658,-0.9816526771,-3.708731651
707,1.55965475681e+18,3.567469358,-5.585843086,16.35289764
708,1.55965475686e+18,-4.695172787,-31.92047119,14.85408115
709,1.55965475691e+18,-7.197190285,-23.07362556,19.42475128
710,1.55965475696e+18,-4.470110893,-10.73114014,9.076695442
711,1.55965475701e+18,-7.788576126,-6.354405403,9.39274025
712,1.55965475707e+18,-9.354432106,-4.134912491,6.775797844
713,1.55965475712e+18,-9.057541847,-1.987248063,6.282577038
714,1.55965475717e+18,-5.300924301,0.7302538157,5.487678051
715,1.55965475722e+18,-0.3519583941,-0.2346389294,5.437397957
716,1.55965475727e+18,-4.364762783,-7.326480865,15.97460175
717,1.55965475733e+18,3.174808502,-2.078230619,-4.506025314
718,1.55965475738e+18,0.1268965602,-0.7302538157,-14.94266891
719,1.55965475743e+18,2.830032825,2.822849989,-5.837242126
720,1.55965475748e+18,-1.678386688,-7.182824612,10.68325424
721,1.55965475753e+18,-12.61064529,-27.74964523,18.62266922
722,1.55965475759e+18,3.488458395,-22.82701683,22.3481617
723,1.55965475764e+18,-4.292934895,-10.81733322,15.15097141
724,1.55965475769e+18,-6.754249096,-7.594639778,7.860404015
725,1.55965475774e+18,-10.18045616,-7.601822376,10.06074238
726,1.55965475779e+18,-7.142121792,-6.256239891,3.102980137
727,1.55965475785e+18,-4.970514297,-2.703136206,3.711125851
728,1.5596547579e+18,-2.341600657,1.539518714,4.022381783
729,1.55965475795e+18,-5.116565228,3.32804203,2.37272644
730,1.559654758e+18,-12.36164093,1.075029373,5.796539307
731,1.55965475805e+18,-0.4070267081,2.044710636,-11.4853363
732,1.55965475811e+18,6.979310989,-2.099778891,3.102980137
733,1.55965475816e+18,4.398283005,1.386285067,-9.134158134
734,1.55965475821e+18,3.356773376,-3.548315287,3.912245035
735,1.55965475826e+18,-1.395862222,-37.28125381,14.48296833
736,1.55965475831e+18,-6.028783798,-26.78954124,20.77272797
737,1.55965475837e+18,-7.556331158,-10.43903828,10.23791885
738,1.55965475842e+18,-8.243488312,-3.320859194,8.166871071
739,1.55965475847e+18,-6.945791245,-6.648900986,10.50128937
740,1.55965475852e+18,-8.202785492,-6.392713547,8.521224022
741,1.55965475857e+18,-6.797346115,-3.998438835,5.583448887
742,1.55965475863e+18,-6.541158676,-0.1245022863,2.892283916
743,1.55965475868e+18,-5.449369431,3.356773376,3.41423583
744,1.55965475873e+18,-4.568276405,1.699935079,6.356799603
745,1.55965475878e+18,-1.539518714,0.1580221355,-0.8547561169
746,1.55965475883e+18,3.617749214,-3.54113245,-5.083045483
747,1.55965475889e+18,-0.08619388938,-2.456526041,-1.939362645
748,1.55965475894e+18,3.234665155,0.1077423692,-3.062277555
749,1.55965475899e+18,3.289733648,-16.3002224,2.298503876
750,1.55965475904e+18,-13.52765274,-37.80799484,21.98423195
751,1.55965475909e+18,-10.6545229,-13.67849159,15.27547359
752,1.55965475915e+18,-10.27383327,-6.153286457,11.84687138
753,1.5596547592e+18,-7.647313595,-5.195576191,10.52044392
754,1.55965475925e+18,-9.028810501,-6.191594601,8.391933441
755,1.5596547593e+18,-7.587456703,-7.673650742,5.219519138
756,1.55965475935e+18,-4.620950222,-4.972908974,2.868341208
757,1.55965475941e+18,-2.662433624,-1.012778282,2.059076309
758,1.55965475946e+18,-2.664827824,2.257801056,-4.369551659
759,1.55965475951e+18,4.527573586,-1.134886265,-8.772623062
760,1.55965475956e+18,5.74386549,2.789330244,-12.13179016
761,1.55965475961e+18,2.044710636,-2.897072554,3.744645834
762,1.55965475967e+18,-4.441379547,-25.43677521,6.59143877
763,1.55965475972e+18,0.8978530765,-32.63396454,22.23563004
764,1.55965475977e+18,-5.614574432,-14.75831032,10.18045616
765,1.55965475982e+18,-6.361588001,-4.944177628,8.025609016
766,1.55965475987e+18,-7.000859737,-9.519637108,12.01447105
767,1.55965475993e+18,-8.602629662,-6.505244732,9.646533012
768,1.55965475998e+18,-8.91149044,-5.581054688,3.656057596
769,1.55965476003e+18,-2.935380936,-4.49644804,4.484476566
770,1.55965476008e+18,-0.2442160249,-0.5004034638,3.234665155
771,1.55965476013e+18,-0.1077423692,1.027143836,1.024749637
772,1.55965476019e+18,4.194769382,4.103786945,-9.182044029
773,1.55965476024e+18,3.356773376,1.642472506,-8.71516037
774,1.55965476029e+18,-3.866753817,-2.238646984,12.30417824
775,1.55965476034e+18,-8.250671387,-14.54282475,3.227482557
776,1.55965476039e+18,-12.02644253,-22.70730209,25.04650879
777,1.55965476045e+18,-7.963357925,-9.081484795,14.01368999
778,1.5596547605e+18,-10.6545229,-5.217124939,10.66888809
779,1.55965476055e+18,-10.6497345,-6.639324188,7.896318436
780,1.5596547606e+18,-8.37038517,-5.085439682,4.723904133
781,1.55965476065e+18,-9.220352173,-5.348809719,3.814079762
782,1.55965476071e+18,-3.119740009,-2.997632027,1.71908927
783,1.55965476076e+18,-4.470110893,-2.772570133,-3.057488918
784,1.55965476081e+18,-4.486870766,4.065478802,3.34959054
785,1.55965476086e+18,7.257047176,4.058295727,-16.3289547
786,1.55965476091e+18,14.34888935,0.1747820675,-4.884320736
787,1.55965476097e+18,0.926584363,-9.919480324,4.11097002
788,1.55965476102e+18,-7.558725357,-36.13679123,24.68018532
789,1.55965476107e+18,-10.51086617,-20.18613052,16.56598663
790,1.55965476112e+18,-7.977723598,-4.003227711,10.72395706
791,1.55965476117e+18,-11.59068394,-5.071074009,9.294574738
792,1.55965476123e+18,-9.517242432,-6.057515144,9.641744614
793,1.55965476128e+18,-9.409500122,-5.23867321,3.481275558
794,1.55965476133e+18,-4.939388752,-4.692778587,1.680780888
795,1.55965476138e+18,-0.7781392932,-1.077423692,2.487651587
796,1.55965476143e+18,-0.1747820675,0.689551115,4.003227711
797,1.55965476149e+18,-5.502043724,-1.053480864,-6.349617004
798,1.55965476154e+18,0.646454215,1.381496549,-10.12538815
799,1.55965476159e+18,2.679193497,-0.8236305118,-3.579440832
800,1.55965476164e+18,-0.3830839694,-1.40065074,2.573845387
801,1.55965476169e+18,1.201925993,-14.52845955,8.097437859
802,1.55965476175e+18,-9.519637108,-21.10792732,27.76640511
803,1.5596547618e+18,-7.242681503,-4.513207912,19.32658577
804,1.55965476185e+18,-15.03365135,-3.052700281,11.8684206
805,1.5596547619e+18,-12.04559612,-3.335224867,9.67047596
806,1.55965476195e+18,-9.038387299,-4.793338299,3.584229469
807,1.55965476201e+18,-7.688016415,-4.850800991,0.1580221355
808,1.55965476206e+18,-10.30016994,-13.61384678,-4.822069645
809,1.55965476211e+18,-5.731894016,-9.811738014,-1.573038578
810,1.55965476216e+18,-2.418217659,-1.467690468,2.90425539
811,1.55965476221e+18,-1.537124395,8.32968235,7.709564686
812,1.55965476227e+18,14.54521942,5.042342663,-10.00327969
813,1.55965476232e+18,4.929811954,0.313650012,-0.3112557232
814,1.55965476237e+18,1.106154919,0.1915419847,3.612960577
815,1.55965476242e+18,-2.602576733,-37.87982178,14.77267551
816,1.55965476247e+18,-8.253065109,-24.79271507,19.17814064
817,1.55965476253e+18,-6.325674057,-10.08708,9.184437752
818,1.55965476258e+18,-2.810878515,-4.857983589,11.74870682
819,1.55965476263e+18,-4.292934895,-4.292934895,12.81894779
820,1.55965476268e+18,-6.081458092,-2.032739401,7.953781128
821,1.55965476273e+18,-7.922655106,-0.5746259689,4.400677204
822,1.55965476278e+18,-2.657644987,-1.110943556,4.771789551
823,1.55965476284e+18,-10.14454269,-6.047938347,8.602629662
824,1.55965476289e+18,0.984046936,-5.300924301,-11.07112694
825,1.55965476294e+18,2.801301479,-0.5315290093,-10.85803604
826,1.55965476299e+18,-3.632114887,0.4213923812,2.997632027
827,1.55965476304e+18,1.762186289,-1.668809533,7.424646378
828,1.5596547631e+18,-4.616161823,-27.4359951,16.56359291
829,1.55965476315e+18,-8.703188896,-19.30503845,22.22126389
830,1.5596547632e+18,-12.79739857,-6.150891781,12.74233055
831,1.55965476325e+18,-13.25709915,-4.223500729,9.349642754
832,1.5596547633e+18,-9.505270958,-3.950553417,9.450202942
833,1.55965476336e+18,-12.61303997,-4.405465603,-0.1316851079
834,1.55965476341e+18,-7.422251701,-5.339232922,-1.209108829
835,1.55965476346e+18,-0.8140534163,-1.110943556,1.18756032
836,1.55965476351e+18,3.249030828,1.046298146,1.48445034
837,1.55965476356e+18,-6.998465061,-9.2035923,32.07849503
838,1.55965476362e+18,-1.664021015,1.467690468,-17.06399727
839,1.55965476367e+18,11.57153034,2.432583094,3.79492569
840,1.55965476372e+18,-2.320052385,0.4740664065,-1.510787368
841,1.55965476377e+18,0.9577099085,-11.77504349,9.708784103
842,1.55965476382e+18,-10.27383327,-30.88614464,30.37376976
843,1.55965476388e+18,-2.650462151,-8.571503639,15.34969616
844,1.55965476393e+18,-5.995264053,-4.419831276,12.1988306
845,1.55965476398e+18,-5.02797699,-4.60419035,12.32333279
846,1.55965476403e+18,-6.064698219,-5.712739468,9.368797302
847,1.55965476408e+18,-7.819701672,-6.028783798,7.379155159
848,1.55965476414e+18,-2.736656189,-4.506025314,3.612960577
849,1.55965476419e+18,-3.600989342,-3.919427872,4.664047241
850,1.55965476424e+18,-0.2537931204,2.197944164,9.071907043
851,1.55965476429e+18,7.067899227,0.05267404765,-16.34810829
852,1.55965476434e+18,5.300924301,0.7829278708,-3.184385538
853,1.5596547644e+18,-6.754249096,-1.443747759,13.25470543
854,1.55965476445e+18,2.988054991,-6.533976078,-0.8068706393
855,1.5596547645e+18,-17.04963112,-25.59000969,24.75440788
856,1.55965476455e+18,-5.411061287,-4.958543301,19.06082153
857,1.5596547646e+18,-14.0089016,-7.053533554,10.70001411
858,1.55965476466e+18,-10.36481571,-4.087027073,9.727938652
859,1.55965476471e+18,-11.80377483,-2.90425539,5.655277252
860,1.55965476476e+18,-10.31453609,-2.059076309,4.151672363
861,1.55965476481e+18,-7.661679268,-0.2657645047,5.051919937
862,1.55965476486e+18,-3.311282158,1.177983165,4.462928295
863,1.55965476492e+18,-2.094990492,-2.578634024,1.098972082
864,1.55965476497e+18,-14.37283134,-17.60270882,27.9507637
865,1.55965476502e+18,-0.1149251908,-6.222720146,-15.7902422
866,1.55965476507e+18,2.947352171,0.06464541703,-15.28744507
867,1.55965476512e+18,0.8978530765,1.606558442,2.564268351
868,1.55965476518e+18,-8.37038517,-7.800547123,13.59708691
869,1.55965476523e+18,3.744645834,-27.75682831,22.96827888
870,1.55965476528e+18,-0.7996878028,-13.64018345,24.43357468
871,1.55965476533e+18,-2.755810261,-2.880312681,15.80460835
872,1.55965476538e+18,-10.74790001,-3.423812866,12.66331959
873,1.55965476544e+18,-9.421471596,-6.000052452,10.13257122
874,1.55965476549e+18,-8.854028702,-6.356799603,4.410254002
875,1.55965476554e+18,-5.710345268,-4.549122334,5.221913338
876,1.55965476559e+18,-6.668055534,-4.417437077,2.660039425
877,1.55965476564e+18,-2.276955366,-1.347976685,3.802108288
878,1.5596547657e+18,-5.382329941,6.80452919,-3.938581944
879,1.55965476575e+18,6.747066498,-0.06943397224,-13.75271416
880,1.5596547658e+18,4.697566986,1.692752242,3.507612705
881,1.55965476585e+18,-0.1795706153,1.204320192,-0.8643332124
882,1.5596547659e+18,-1.620923996,-2.298503876,8.609811783
883,1.55965476596e+18,-4.393494129,-21.01215553,13.0583744
884,1.55965476601e+18,-15.66813469,-30.2803936,16.26909637
885,1.55965476606e+18,-7.992089272,-9.194015503,10.4749527
886,1.55965476611e+18,-8.353624344,-7.575485706,9.07430172
887,1.55965476616e+18,-8.334470749,-6.612987041,9.035993576
888,1.55965476622e+18,-8.154899597,-4.118152618,10.08947372
889,1.55965476627e+18,-6.390319347,-1.127703428,6.304125786
890,1.55965476632e+18,-6.531581879,4.065478802,4.532361984
891,1.55965476637e+18,-5.511620522,1.407833576,2.877918243
892,1.55965476642e+18,-4.910657406,-0.924190104,2.135693073
893,1.55965476648e+18,0.634482801,-2.437371731,-4.865166187
894,1.55965476653e+18,-1.711906433,-2.683982134,2.37512064
895,1.55965476658e+18,8.650514603,1.956122518,-3.567469358
896,1.55965476663e+18,-4.367157459,-7.051139355,-0.6632141471
897,1.55965476668e+18,-5.791750908,-14.23875237,10.41509533
898,1.55965476674e+18,0.4788549542,-26.87334061,27.32346344
899,1.55965476679e+18,-4.515602112,-15.2706852,21.48382759
900,1.55965476684e+18,-9.890748978,-5.923435688,9.785401344
901,1.55965476689e+18,-11.91870022,-6.421444893,7.738296032
902,1.55965476694e+18,-9.553156853,-6.440599442,3.615355015
903,1.559654767e+18,-5.044736862,-2.681587696,2.746233225
904,1.55965476705e+18,-5.497254848,-2.569056988,-0.4309694767
905,1.5596547671e+18,-8.317710876,-3.83802247,-1.709512234
906,1.55965476715e+18,0.05506832153,-4.443774223,-1.35755384
907,1.5596547672e+18,5.70316267,-4.343214512,12.38558388
908,1.55965476726e+18,5.118959427,2.729473352,-21.63227272
909,1.55965476731e+18,-2.229069948,-1.345582485,6.929031372
910,1.55965476736e+18,-0.1149251908,-8.820508003,10.52523232
911,1.55965476741e+18,-4.666441441,-30.74009514,15.26589584
912,1.55965476746e+18,-3.818868399,-16.56359291,19.64262962
913,1.55965476752e+18,-2.382303476,-11.13816643,11.76546669
914,1.55965476757e+18,-8.38235569,-7.137333393,11.86123753
915,1.55965476762e+18,-11.97376823,-6.545947552,7.237892628
916,1.55965476767e+18,-10.12778282,-7.156487465,6.246663094
917,1.55965476772e+18,-11.52843285,-6.610592842,1.577827096
918,1.55965476778e+18,-4.549122334,-6.893116951,-2.063864946
919,1.55965476783e+18,-3.088614464,-2.880312681,-1.331216812
920,1.55965476788e+18,-0.4788549542,0.05267404765,-2.695953369
921,1.55965476793e+18,9.967366219,6.177228928,-13.46300697
922,1.55965476798e+18,5.054314137,-0.1388679445,-7.963357925
923,1.55965476804e+18,-0.2442160249,-4.359974384,7.800547123
924,1.55965476809e+18,-3.567469358,-18.19648933,14.63141346
925,1.55965476814e+18,-4.448562622,-26.42082214,22.70490837
926,1.55965476819e+18,-6.217931747,-16.70724869,12.71599388
927,1.55965476824e+18,-7.731113434,-9.785401344,8.363202095
928,1.5596547683e+18,-8.602629662,-5.839636326,9.615407944
929,1.55965476835e+18,-10.85324764,-4.929811954,7.963357925
930,1.5596547684e+18,-9.871595383,-5.497254848,5.660065651
931,1.55965476845e+18,-3.718308687,-6.368771076,4.38870573
932,1.5596547685e+18,-1.613741279,-2.336812258,4.199557781
933,1.55965476856e+18,-1.975276709,-0.9936240315,12.54121113
934,1.55965476861e+18,-2.238646984,-0.1412622184,-15.90516758
935,1.55965476866e+18,6.306519985,1.465296149,-2.751021862
936,1.55965476871e+18,-0.7230709791,-0.3998439014,1.910631299
937,1.55965476876e+18,-1.872322917,-3.399870157,12.33530426
938,1.55965476882e+18,-5.49007225,-23.77754402,19.46784782
939,1.55965476887e+18,-14.10227871,-11.36562252,19.49179077
940,1.55965476892e+18,-12.2610817,-4.017592907,10.83888245
941,1.55965476897e+18,-9.773429871,-4.618556023,9.972154617
942,1.55965476902e+18,-10.36960411,-5.420638084,6.806923389
943,1.55965476908e+18,-9.759063721,-5.439792156,2.954535007
944,1.55965476913e+18,-9.823709488,-5.753442287,2.099778891
945,1.55965476918e+18,-4.965725899,-4.395888329,0.6081457734
946,1.55965476923e+18,-1.209108829,-1.29290843,1.429382086
947,1.55965476928e+18,0.4213923812,-1.340793848,-1.774157643
948,1.55965476934e+18,-4.38870573,0.2849186957,7.173247337
949,1.55965476939e+18,6.93860817,1.798100352,-12.33051491
950,1.55965476944e+18,-2.071047783,-3.452544212,15.2227993
951,1.55965476949e+18,-4.903474808,1.055875182,8.997684479
952,1.55965476954e+18,-5.961744308,-21.88127708,23.64346313
953,1.55965476959e+18,-11.44463348,-10.93944168,19.09913063
954,1.55965476965e+18,-10.32650757,-0.5099805593,10.88437366
955,1.5596547697e+18,-12.52923965,-4.841223717,7.486897469
956,1.55965476975e+18,-10.86043072,-4.544333458,8.025609016
957,1.5596547698e+18,-7.568302631,-3.464515686,2.485257149
958,1.55965476985e+18,-6.272999763,-2.442160368,3.979284763
959,1.55965476991e+18,-5.059102535,-2.049499273,2.262589693
960,1.55965476996e+18,-9.098244667,-3.007209063,3.445361376
961,1.55965477001e+18,-7.283383846,0.05506832153,3.787742853
962,1.55965477006e+18,12.68247414,-1.86514008,-13.14696312
963,1.55965477011e+18,4.697566986,0.2370332032,1.197137356
964,1.55965477017e+18,-1.795706153,0.3543526828,-0.2035133541
965,1.55965477022e+18,5.341627121,-12.15573311,6.249057293
966,1.55965477027e+18,-6.057515144,-36.60367203,32.8829689
967,1.55965477032e+18,-8.681640625,-15.61785412,17.28905869
968,1.55965477037e+18,-11.873209,-1.810071707,8.18602562
969,1.55965477043e+18,-11.72715759,-2.858764172,8.92585659
970,1.55965477048e+18,-10.40312386,-4.838829517,7.326480865
971,1.55965477053e+18,-9.560338974,-3.723097324,4.544333458
972,1.55965477058e+18,-5.403878212,-3.478881359,2.552296877
973,1.55965477063e+18,-2.245829821,-2.604970932,3.533949614
974,1.55965477069e+18,-1.879505754,-2.803695917,2.877918243
975,1.55965477074e+18,0.2609759569,-1.31445682,-0.8403904438
976,1.55965477079e+18,-1.168406129,1.877111435,5.909070015
977,1.55965477084e+18,7.599428177,1.31445682,-9.929058075
978,1.55965477089e+18,-1.309668303,-1.312062621,4.513207912
979,1.55965477095e+18,-10.15651417,-7.589851379,13.14456844
980,1.559654771e+18,-8.253065109,-17.0089283,11.5332222
981,1.55965477105e+18,-8.461367607,-14.69126987,23.54051018
982,1.5596547711e+18,-5.183605194,-4.027170181,12.82373619
983,1.55965477115e+18,-9.775823593,-3.033546209,9.689630508
984,1.55965477121e+18,-6.996070862,-4.168432236,9.615407944
985,1.55965477126e+18,-5.923435688,-3.636903524,9.201197624
986,1.55965477131e+18,-5.118959427,-0.9960182905,6.703969479
987,1.55965477136e+18,-5.779779434,-2.094990492,9.454991341
988,1.55965477141e+18,-3.802108288,-1.252205729,6.423839092
989,1.55965477147e+18,-2.059076309,-0.2106961906,1.592192769
990,1.55965477152e+18,0.3447755575,-0.1771763414,-0.0837996155
991,1.55965477157e+18,-0.6536370516,0.4285751879,-1.343188167
992,1.55965477162e+18,5.521197796,2.202732801,-9.234718323
993,1.55965477167e+18,-4.120546818,-2.114144564,8.846845627
994,1.55965477173e+18,-5.691191196,-1.350371003,6.466936111
995,1.55965477178e+18,-8.38235569,-14.87084103,11.22436047
996,1.55965477183e+18,-14.94266891,-14.49254513,20.60033989
997,1.55965477188e+18,-10.58030033,-7.431828976,11.43745041
998,1.55965477193e+18,-8.470944405,-3.890696526,10.61621475
999,1.55965477199e+18,-9.10063839,-6.40707922,8.60741806
1000,1.55965477204e+18,-7.237892628,-6.067092419,8.035185814
1001,1.55965477209e+18,-6.083852291,-6.332856655,6.706363678
1002,1.55965477214e+18,-4.843617916,-4.154066563,6.960156918
1003,1.55965477219e+18,-4.156461239,-2.54511404,2.250618219
1004,1.55965477225e+18,-8.236305237,-1.436564922,3.469304085
1005,1.5596547723e+18,1.987248063,3.079037428,-3.442967176
1006,1.55965477235e+18,4.944177628,1.211503029,-5.727105141
1007,1.5596547724e+18,-1.381496549,-1.369525194,8.736708641
1008,1.55965477245e+18,-6.792557716,-2.214704275,6.713546753
1009,1.55965477251e+18,-8.940221786,-12.97696972,11.11422348
1010,1.55965477256e+18,-13.09428883,-8.384750366,16.74795151
1011,1.55965477261e+18,-11.27464008,-4.400677204,11.55237579
1012,1.55965477266e+18,-8.964164734,-3.426207304,8.324893951
1013,1.55965477271e+18,-9.596253395,-4.331243038,6.330462456
1014,1.55965477277e+18,-7.743084908,-3.543526649,3.277762175
1015,1.55965477282e+18,-7.302538395,-3.033546209,4.532361984
1016,1.55965477287e+18,-5.499649048,-2.360754967,6.107795238
1017,1.55965477292e+18,-3.553103924,-3.428601503,3.756617069
1018,1.55965477297e+18,-2.451737404,-3.871542454,3.847599506
1019,1.55965477303e+18,-4.003227711,0.6560313106,1.374313712
1020,1.55965477308e+18,5.655277252,1.652049661,-5.63851738
1021,1.55965477313e+18,-3.234665155,-2.633702278,2.063864946
1022,1.55965477318e+18,-7.113390446,-8.786988258,13.22597408
1023,1.55965477323e+18,-2.513988495,-22.21887016,14.23156929
1024,1.55965477329e+18,-6.861991405,-12.51966286,14.8780241
1025,1.55965477334e+18,-6.581861496,-6.962551117,9.124581337
1026,1.55965477339e+18,-7.929838181,-6.979310989,7.18761301
1027,1.55965477344e+18,-7.168458939,-7.518023014,6.636929989
1028,1.55965477349e+18,-6.08624649,-7.427040577,7.386337757
1029,1.55965477355e+18,-3.083826065,-3.88111949,6.38074255
1030,1.5596547736e+18,-2.423006058,-1.316851139,4.802915096
1031,1.55965477365e+18,-2.059076309,1.553884387,3.979284763
1032,1.5596547737e+18,-1.302485466,1.75979197,0.08858817071
1033,1.55965477375e+18,0.7925049663,-0.7661679387,0.3088614643
1034,1.55965477381e+18,-9.21795845,-1.625712633,13.3193512
1035,1.55965477386e+18,-0.09098244458,1.702329397,5.992869854
1036,1.55965477391e+18,-1.405439258,-8.300951004,3.510006905
1037,1.55965477396e+18,-10.13975334,-15.28744507,17.94987869
1038,1.55965477401e+18,-7.503657341,-6.191594601,16.87484932
1039,1.55965477407e+18,-9.335277557,-1.604164124,9.258660316
1040,1.55965477412e+18,-9.136552811,-3.41423583,9.21795845
1041,1.55965477417e+18,-8.15968895,-4.144489765,6.890722752
1042,1.55965477422e+18,-6.517216206,-3.419024467,5.739076614
1043,1.55965477427e+18,-5.834847927,-1.913025618,4.249837875
1044,1.55965477433e+18,-5.001639843,0.2274561077,4.582642078
1045,1.55965477438e+18,-4.443774223,-0.8667274714,4.199557781
1046,1.55965477443e+18,-3.802108288,-2.061470509,1.40065074
1047,1.55965477448e+18,-1.177983165,-4.592218876,-4.187586784
1048,1.55965477453e+18,-3.579440832,-3.227482557,-5.856396198
1049,1.55965477459e+18,1.450930476,0.3591412306,4.575459003
1050,1.55965477464e+18,4.936994553,-15.01449776,4.865166187
1051,1.55965477469e+18,-1.97288239,-25.86535072,17.14061356
1052,1.55965477474e+18,-8.595446587,-13.08950043,8.92585659
1053,1.55965477479e+18,-8.214756966,-4.312088966,8.10461998
1054,1.55965477485e+18,-10.30256462,-9.210775375,11.58350182
1055,1.5596547749e+18,-10.83888245,-8.083071709,8.324893951
1056,1.55965477495e+18,-10.89873886,-6.9122715,4.225894928
1057,1.559654775e+18,-6.727912426,-10.2714386,-0.5387118459
1058,1.55965477505e+18,-1.352765322,-8.004060745,-0.9696813226
1059,1.55965477511e+18,0.9720755816,-4.125335693,1.817254543
1060,1.55965477516e+18,7.795758724,4.0726614,-9.055147171
1061,1.55965477521e+18,8.353624344,21.06482887,7.611399651
1062,1.55965477526e+18,5.099805355,4.558699131,2.932986736
1063,1.55965477531e+18,-6.138920784,-18.7950573,7.120573044
1064,1.55965477537e+18,1.288119793,-35.8135643,11.89475727
1065,1.55965477542e+18,-3.505218267,-15.75672245,5.734288216
1066,1.55965477547e+18,-7.034379482,-8.667274475,3.313676357
1067,1.55965477552e+18,-5.212336063,-9.828497887,6.031178474
1068,1.55965477557e+18,-7.620976925,-10.33368969,8.413481712
1069,1.55965477563e+18,-7.539571285,-4.223500729,3.45733285
1070,1.55965477568e+18,-7.33366394,1.565855742,-1.151646137
1071,1.55965477573e+18,-1.144463301,-1.175588965,2.698347807
1072,1.55965477578e+18,3.404658794,8.384750366,12.5436058
1073,1.55965477583e+18,2.418217659,7.767027378,10.91549873
1074,1.55965477589e+18,-0.9026415944,3.174808502,4.266597748
1075,1.55965477594e+18,-3.112557173,-13.08471203,-7.008042336
1076,1.55965477599e+18,2.427794695,-3.167625666,1.97288239
1077,1.55965477604e+18,-9.440625191,-10.87240219,-0.7709565163
1078,1.55965477609e+18,-4.386311531,-14.19326115,3.24424243
1079,1.55965477615e+18,-0.3447755575,-25.9994297,21.60354233
1080,1.5596547762e+18,-2.628913641,-10.76226521,15.31378174
1081,1.55965477625e+18,-6.541158676,-5.863578796,9.591464996
1082,1.5596547763e+18,-9.871595383,-8.865999222,9.615407944
1083,1.55965477635e+18,-8.248276711,-9.486116409,9.708784103
1084,1.55965477641e+18,-10.75029373,-5.98089838,3.263396502
1085,1.55965477646e+18,-10.81254482,-9.818921089,0.1077423692
1086,1.55965477651e+18,-5.363175392,-7.235498428,-1.575432777
1087,1.55965477656e+18,-2.401457548,-4.628133297,-1.592192769
1088,1.55965477661e+18,6.941002846,0.4237866402,-7.587456703
1089,1.55965477667e+18,0.6249057055,5.042342663,3.577046633
1090,1.55965477672e+18,4.187586784,3.974496126,-5.303318501
1091,1.55965477677e+18,2.403851986,-3.861965179,11.52364445
1092,1.55965477682e+18,-8.432636261,-29.94280052,9.000079155
1093,1.55965477687e+18,-5.123748302,-27.2899437,18.63942909
1094,1.55965477693e+18,-4.189980984,-14.99294853,6.225114346
1095,1.55965477698e+18,-5.375146866,-9.483722687,4.977697372
1096,1.55965477703e+18,-4.355185986,-6.505244732,6.349617004
1097,1.55965477708e+18,-5.365570068,-7.233104229,5.949772835
1098,1.55965477713e+18,-1.54909575,-5.02558279,3.897879362
1099,1.55965477719e+18,-3.433390141,-2.43976593,4.563488007
1100,1.55965477724e+18,-2.399063349,0.05506832153,3.64648056
1101,1.55965477729e+18,-1.836408734,1.970488191,0.984046936
1102,1.55965477734e+18,-0.6919454336,2.430188894,-5.542746067
1103,1.55965477739e+18,4.687990189,3.73267436,9.035993576
1104,1.55965477745e+18,-0.7398309112,0.1364736706,-1.541913033
1105,1.5596547775e+18,-4.448562622,-7.946598053,3.718308687
1106,1.55965477755e+18,-3.933793545,-27.4359951,11.52125072
1107,1.5596547776e+18,-5.992869854,-19.66178513,11.98573971
1108,1.55965477765e+18,-3.584229469,-10.68804264,8.854028702
1109,1.55965477771e+18,-7.611399651,-9.58907032,6.34003973
1110,1.55965477776e+18,-6.227508545,-9.026415825,6.857203007
1111,1.55965477781e+18,-4.45574522,-6.244268894,4.00562191
1112,1.55965477786e+18,-2.217098475,-3.43578434,2.18357873
1113,1.55965477791e+18,-0.9313728809,-0.7302538157,2.755810261
1114,1.55965477797e+18,-1.029538155,-0.7901107073,1.510787368
1115,1.55965477802e+18,-0.09816526622,0.4142095447,-0.1723877788
1116,1.55965477807e+18,3.198751211,1.278542757,-5.482889175
1117,1.55965477812e+18,1.007989645,-0.6632141471,16.16374969
1118,1.55965477817e+18,-1.664021015,-5.712739468,1.831620216
1119,1.55965477823e+18,-15.41434097,-24.2707634,4.723904133
1120,1.55965477828e+18,-7.371972084,-7.680833817,9.093455315
1121,1.55965477833e+18,-2.260195494,-8.458972931,16.33853149
1122,1.55965477838e+18,-4.407859802,-11.1453495,16.4654274
1123,1.55965477843e+18,-10.07510853,-9.10063839,8.494887352
1124,1.55965477849e+18,-10.91789341,-6.624958515,3.040729046
1125,1.55965477854e+18,-7.558725357,-8.231516838,-2.736656189
1126,1.55965477859e+18,-3.656057596,-8.719948769,-1.592192769
1127,1.55965477864e+18,1.216291547,-9.129369736,-4.53475666
1128,1.55965477869e+18,2.58581686,-6.586649895,-6.347222328
1129,1.55965477875e+18,8.200390816,-2.887495518,-18.52689934
1130,1.5596547788e+18,14.98097706,22.57561684,-1.802888989
1131,1.55965477885e+18,0.8571503758,-13.4462471,11.708004
1132,1.5596547789e+18,5.894704342,-28.97551346,11.81095791
1133,1.55965477895e+18,-5.157268047,-15.72080803,7.589851379
1134,1.55965477901e+18,-7.601822376,-12.29460144,9.256266594
1135,1.55965477906e+18,-9.117398262,-11.24830341,6.529187202
1136,1.55965477911e+18,-8.346442223,-7.556331158,5.854001999
1137,1.55965477916e+18,-6.122160912,-3.984073162,-0.5315290093
1138,1.55965477921e+18,-3.682394743,-9.864412308,-5.406272411
1139,1.55965477927e+18,0.5482889414,-7.874769688,-6.601015568
1140,1.55965477932e+18,5.724710941,-2.935380936,-8.054340363
1141,1.55965477937e+18,6.771008968,21.57720375,4.448562622
1142,1.55965477942e+18,1.78134048,-1.151646137,9.960183144
1143,1.55965477947e+18,1.134886265,-8.408693314,11.65293503
1144,1.55965477953e+18,4.872349262,-44.2892952,12.23953247
1145,1.55965477958e+18,-1.810071707,-17.95945549,3.375927448
1146,1.55965477963e+18,-5.648094177,-13.88679409,1.359948039
1147,1.55965477968e+18,-4.39109993,-9.981731415,5.796539307
1148,1.55965477973e+18,-3.0957973,-6.454965115,8.961771011
1149,1.55965477979e+18,-3.004814863,-7.752661705,7.209161282
1150,1.55965477984e+18,-4.333637238,-6.826077461,4.369551659
1151,1.55965477989e+18,-4.28575182,-3.383110285,2.604970932
1152,1.55965477994e+18,-3.24424243,-3.050306082,-4.886714935
1153,1.55965477999e+18,6.615381241,1.731060743,-12.07193375
1154,1.55965478005e+18,-4.869955063,5.949772835,3.114951611
1155,1.5596547801e+18,0.3016786277,1.534730196,-5.722316742
1156,1.55965478015e+18,2.432583094,-5.250644684,14.06397057
1157,1.5596547802e+18,0.009577099234,-37.11604691,16.61387253
1158,1.55965478025e+18,-6.579467297,-22.91081619,13.22597408
1159,1.55965478031e+18,-6.294548512,-11.09746361,5.485283375
1160,1.55965478036e+18,-6.421444893,-8.277008057,7.635342598
1161,1.55965478041e+18,-7.889135361,-5.880339146,6.44778204
1162,1.55965478046e+18,-8.241093636,-5.142902374,5.595420361
1163,1.55965478051e+18,-5.973715782,-4.565882206,5.55711174
1164,1.55965478057e+18,-4.498842239,-3.366350412,4.764606953
1165,1.55965478062e+18,-5.837242126,-3.253819466,0.9050358534
1166,1.55965478067e+18,-4.929811954,-2.152452946,-1.999219418
1167,1.55965478072e+18,1.903448462,2.657644987,-3.41423583
1168,1.55965478077e+18,5.21473074,6.172440529,-6.696786404
1169,1.55965478083e+18,-3.03115201,-1.661626697,4.946571827
1170,1.55965478088e+18,0.3878725171,-5.233884811,9.131764412
1171,1.55965478093e+18,-7.565908432,-34.22855377,16.76950073
1172,1.55965478098e+18,-7.800547123,-17.44947433,13.49652672
1173,1.55965478103e+18,-8.061523438,-11.67208958,8.353624344
1174,1.55965478109e+18,-8.588263512,-8.528407097,7.620976925
1175,1.55965478114e+18,-8.221940041,-5.786962032,5.794145107
1176,1.55965478119e+18,-9.897932053,-5.334444046,3.665634632
1177,1.55965478124e+18,-7.031985283,1.256994247,3.258608103
1178,1.55965478129e+18,-9.27063179,-0.3950553536,0.8691217303
1179,1.55965478135e+18,-7.139727592,-5.719922543,0.5818088055
1180,1.5596547814e+18,-7.841249943,-0.07661679387,4.300117493
1181,1.55965478145e+18,2.231464148,0.0287312977,-6.189200401
1182,1.5596547815e+18,8.535589218,0.3591412306,-8.854028702
1183,1.55965478155e+18,-0.5123748183,-2.332023621,-2.533142805
1184,1.55965478161e+18,-1.237840056,-4.975303173,0.464489311
1185,1.55965478166e+18,1.151646137,-30.03378296,10.67607117
1186,1.55965478171e+18,2.499622822,-32.28679657,16.61387253
1187,1.55965478176e+18,-4.573064804,-16.90836906,9.160495758
1188,1.55965478181e+18,-10.78381348,-4.87953186,7.386337757
1189,1.55965478187e+18,-17.29384613,-4.348002911,2.731867552
1190,1.55965478192e+18,-9.787795067,-5.626545906,5.190787792
1191,1.55965478197e+18,-8.588263512,-3.071854591,4.903474808
1192,1.55965478202e+18,-8.238699913,1.479661822,1.309668303
1193,1.55965478207e+18,-7.460560322,-2.209915638,2.080624819
1194,1.55965478213e+18,-5.075862408,-2.710319042,2.842004299
1195,1.55965478218e+18,-2.406246185,-0.6416656375,2.48046875
1196,1.55965478223e+18,-0.7853221297,1.233051538,3.241847992
1197,1.55965478228e+18,3.069460392,1.087000728,-0.6823683381
1198,1.55965478233e+18,4.929811954,-1.790917516,-7.23071003
1199,1.55965478239e+18,-4.671230316,-6.737489223,5.763019562
1200,1.55965478244e+18,-3.517189741,-4.549122334,2.662433624
1201,1.55965478249e+18,1.29290843,-21.65860939,9.299363136
1202,1.55965478254e+18,-6.363982677,-26.70095253,24.30188942
1203,1.55965478259e+18,-9.435836792,-13.56356716,16.20684624
1204,1.55965478265e+18,-15.03365135,-2.485257149,12.09108734
1205,1.5596547827e+18,-11.09746361,-4.125335693,10.66170597
1206,1.55965478275e+18,-6.984099388,-4.28335762,7.096630573
1207,1.5596547828e+18,-5.717528343,-3.586623669,5.202759266
1208,1.55965478285e+18,-6.359193802,-4.984879971,2.923409462
1209,1.55965478291e+18,-5.839636326,-5.830059052,1.726272106
1210,1.55965478296e+18,-1.381496549,-2.983266354,-2.774964571
1211,1.55965478301e+18,-1.731060743,0.7613793612,9.677659035
1212,1.55965478306e+18,1.386285067,-0.2585816681,-10.13496494
1213,1.55965478311e+18,4.355185986,0.5770202279,-2.35357213
1214,1.55965478317e+18,0.8595446348,-1.948939681,4.261809349
1215,1.55965478322e+18,-3.751828671,-2.971295118,1.374313712
1216,1.55965478327e+18,-3.237059593,-20.84455681,13.29301357
1217,1.55965478332e+18,-6.567495823,-23.0281353,25.11115456
1218,1.55965478337e+18,-4.637710094,-6.251451492,18.19648933
1219,1.55965478343e+18,-8.379961967,-2.322446585,12.49811459
1220,1.55965478348e+18,-13.46540165,-6.510033131,8.600234985
1221,1.55965478353e+18,-10.30256462,-3.181991339,5.739076614
1222,1.55965478358e+18,-6.677632332,-3.914639235,6.859597206
1223,1.55965478363e+18,-0.9217957854,-4.065478802,6.354405403
1224,1.55965478369e+18,-2.648067951,-7.810124397,5.806116581
1225,1.55965478374e+18,-2.528354168,-4.953754425,2.858764172
1226,1.55965478379e+18,-1.237840056,0.8763045669,5.006428719
1227,1.55965478384e+18,1.541913033,1.699935079,-3.433390141
1228,1.55965478389e+18,2.949746609,2.377514839,-7.606611252
1229,1.55965478395e+18,-0.5602602959,-0.3088614643,-1.498816013
1230,1.559654784e+18,-4.28335762,-2.875524044,5.480494976
1231,1.55965478405e+18,-12.83331299,-9.189227104,10.50368404
1232,1.5596547841e+18,-10.91549873,-23.33460236,15.37363815
1233,1.55965478415e+18,-13.29061985,-13.98256493,13.03203773
1234,1.55965478421e+18,-11.39435387,-8.492492676,7.872375488
1235,1.55965478426e+18,-10.99690437,-5.164450645,8.542772293
1236,1.55965478431e+18,-10.77902508,-6.112583637,8.418270111
1237,1.55965478436e+18,-9.790189743,-6.495667458,6.859597206
1238,1.55965478441e+18,-4.28335762,-2.456526041,5.626545906
1239,1.55965478447e+18,-3.811685562,-3.148471355,6.907482624
1240,1.55965478452e+18,-10.28580475,-7.417463303,11.68406105
1241,1.55965478457e+18,-2.358360767,-1.23065722,0.3304099143
1242,1.55965478462e+18,-0.6727912426,-0.07901106775,-7.61379385
1243,1.55965478467e+18,3.701548815,4.498842239,-9.253871918
1244,1.55965478472e+18,0.4094209969,0.4237866402,-0.481249243
1245,1.55965478478e+18,-5.38472414,-0.8858816624,0.07661679387
1246,1.55965478483e+18,-2.686376333,-5.243461609,9.402317047
1247,1.55965478488e+18,1.33600533,-28.04653549,12.71599388
1248,1.55965478493e+18,-5.188393593,-21.61311913,17.59552574
1249,1.55965478498e+18,-6.189200401,-11.23633194,10.50607777
1250,1.55965478504e+18,-7.872375488,-6.560312748,8.559532166
1251,1.55965478509e+18,-12.95781517,-9.265843391,9.794978142
1252,1.55965478514e+18,-11.09028053,-8.394327164,5.389512539
1253,1.55965478519e+18,-10.18285084,-1.316851139,1.879505754
1254,1.55965478524e+18,-8.722343445,-0.04788549617,1.170800328
1255,1.5596547853e+18,-4.201952457,0.05267404765,1.534730196
1256,1.55965478535e+18,-3.670423269,-0.1795706153,-2.712713242
1257,1.5596547854e+18,-1.127703428,-1.144463301,-5.293741703
1258,1.55965478545e+18,6.399896622,-1.733454943,-17.79903984
1259,1.5596547855e+18,3.624932051,-4.32406044,14.52606487
1260,1.55965478556e+18,5.952167034,-1.350371003,4.326454639
1261,1.55965478561e+18,-5.693585396,-13.04879761,7.992089272
1262,1.55965478566e+18,-3.869148016,-20.02092552,16.51810265
1263,1.55965478571e+18,-11.77504349,-21.40960503,17.65059471
1264,1.55965478576e+18,-5.401484013,-6.998465061,16.63542175
1265,1.55965478582e+18,-7.544359684,-11.25309181,13.19005966
1266,1.55965478587e+18,-8.698400497,-8.47812748,7.86758709
1267,1.55965478592e+18,-8.928250313,-5.097411156,3.981678963
1268,1.55965478597e+18,-8.221940041,-8.18602562,-1.077423692
1269,1.55965478602e+18,-5.463735104,-0.4405465722,2.296109438
1270,1.55965478607e+18,-6.689603806,12.66571331,-5.152479172
1271,1.55965478613e+18,-3.0096035,5.973715782,1.340793848
1272,1.55965478618e+18,-0.924190104,3.567469358,-1.587404251
1273,1.55965478623e+18,-0.5961744189,-4.077449799,-3.984073162
1274,1.55965478628e+18,-0.3711125851,-10.24031353,-8.004060745
1275,1.55965478633e+18,2.24822402,-3.208328247,0.8020820618
1276,1.55965478639e+18,-2.264983892,-4.376734257,11.16929245
1277,1.55965478644e+18,-1.829225898,-11.42547894,7.788576126
1278,1.55965478649e+18,6.294548512,-26.55011368,28.28117371
1279,1.55965478654e+18,-3.210722446,-11.90912247,24.15583801
1280,1.55965478659e+18,-9.49569416,-2.79890728,13.4893446
1281,1.55965478665e+18,-11.95221996,-8.071100235,10.39833546
1282,1.5596547867e+18,-6.577073097,-7.604216576,7.000859737
1283,1.55965478675e+18,-5.640911579,-7.340846539,3.208328247
1284,1.5596547868e+18,-5.23867321,-9.194015503,2.604970932
1285,1.55965478685e+18,-2.992843628,-8.260248184,2.085413456
1286,1.55965478691e+18,-4.874743462,-3.493247032,5.341627121
1287,1.55965478696e+18,-4.453351021,4.206740856,3.883513689
1288,1.55965478701e+18,4.482082367,-0.8954587579,-9.792584419
1289,1.55965478706e+18,7.067899227,1.86514008,3.545921087
1290,1.55965478711e+18,-0.8092648983,-2.473285913,7.896318436
1291,1.55965478717e+18,-0.4142095447,-2.363149166,3.924216509
1292,1.55965478722e+18,-1.714300752,-28.23807716,23.50699043
1293,1.55965478727e+18,-7.218738556,-16.82217407,19.01293564
1294,1.55965478732e+18,-7.594639778,-7.872375488,12.44544029
1295,1.55965478737e+18,-9.912297249,-3.524372578,9.751881599
1296,1.55965478743e+18,-9.208380699,-3.998438835,7.326480865
1297,1.55965478748e+18,-9.081484795,-5.889915943,6.885934353
1298,1.55965478753e+18,-7.300143719,-7.29535532,4.936994553
1299,1.55965478758e+18,-7.704776287,-7.233104229,3.174808502
1300,1.55965478763e+18,-6.684815407,-3.210722446,6.220325947
1301,1.55965478769e+18,-7.422251701,2.604970932,-1.407833576
1302,1.55965478774e+18,0.2705530524,1.750214934,-3.845205307
1303,1.55965478779e+18,21.56283951,4.975303173,-6.921848297
1304,1.55965478784e+18,0.5004034638,-1.544307232,0.9337671995
1305,1.55965478789e+18,-6.031178474,-0.1867534369,1.072635174
1306,1.55965478795e+18,-2.147664547,-6.55313015,5.023188591
1307,1.559654788e+18,-3.663240433,-31.28120041,23.25559044
1308,1.55965478805e+18,-6.759037971,-19.52052307,21.50298119
1309,1.5596547881e+18,-9.423865318,-9.680052757,10.02243423
1310,1.55965478815e+18,-11.09028053,-3.840416908,8.226728439
1311,1.55965478821e+18,-8.197997093,-4.848406315,5.863578796
1312,1.55965478826e+18,-7.970541,-5.286558628,7.65449667
1313,1.55965478831e+18,-6.08864069,0.009577099234,5.006428719
1314,1.55965478836e+18,-2.073441982,1.90823698,4.788549423
1315,1.55965478841e+18,-7.726325035,-5.19797039,7.022408009
1316,1.55965478847e+18,-3.917033672,-2.873129845,3.94576478
1317,1.55965478852e+18,-3.438178539,-1.225868702,-5.554717541
1318,1.55965478857e+18,0.7110996246,-2.90664959,-5.889915943
1319,1.55965478862e+18,4.254626274,0.9409499764,-4.587430477
1320,1.55965478867e+18,-0.5027977228,-4.934600353,-3.299310684
1321,1.55965478873e+18,2.592999697,-22.61631966,15.64898014
1322,1.55965478878e+18,-2.26977253,-24.81905174,25.97548676
1323,1.55965478883e+18,-3.902667999,-11.71997547,20.59555244
1324,1.55965478888e+18,-5.162056446,-5.018400192,15.72080803
1325,1.55965478893e+18,-10.54678059,-6.72551775,10.87000751
1326,1.55965478899e+18,-9.227535248,-6.440599442,6.529187202
1327,1.55965478904e+18,-6.881145954,-7.324086666,4.048718929
1328,1.55965478909e+18,-3.050306082,-3.703943014,4.290540695
1329,1.55965478914e+18,-1.005595446,-3.33043623,4.812492371
1330,1.55965478919e+18,-1.295302629,-4.067873001,3.991255999
1331,1.55965478925e+18,0.7326480746,-3.833234072,5.303318501
1332,1.5596547893e+18,-5.413455486,0.6799740195,-6.12694931
1333,1.55965478935e+18,6.519610405,3.761405706,-13.40315056
1334,1.5596547894e+18,2.748627424,1.532335877,-6.30173111
1335,1.55965478945e+18,1.37910223,-13.2666769,19.3002491
1336,1.55965478951e+18,3.402264595,-29.10959244,15.9027729
1337,1.55965478956e+18,-6.047938347,-21.57002258,18.85730934
1338,1.55965478961e+18,-6.000052452,-6.97691679,13.4414587
1339,1.55965478966e+18,-7.338452339,-6.488484859,10.51804924
1340,1.55965478971e+18,-9.316123009,-8.217150688,8.07828331
1341,1.55965478977e+18,-7.948992252,-6.687209606,6.30173111
1342,1.55965478982e+18,-4.620950222,-8.059128761,5.032765865
1343,1.55965478987e+18,7.058321953,-0.3591412306,-0.4549122155
1344,1.55965478992e+18,7.307326794,5.253038883,5.061496735
1345,1.55965478997e+18,-6.907482624,-4.836435318,17.49496651
1346,1.55965479003e+18,-2.842004299,-0.8020820618,-4.582642078
1347,1.55965479008e+18,-1.960911036,-2.892283916,-14.90436077
1348,1.55965479013e+18,1.180377483,-2.655250788,4.228289127
1349,1.55965479018e+18,-11.10704041,-4.010410309,-2.109356165
1350,1.55965479023e+18,-0.9002473354,-19.91557693,9.744698524
1351,1.55965479029e+18,1.185166001,-24.57962608,26.86615753
1352,1.55965479034e+18,-1.043903828,-8.17165947,16.93709946
1353,1.55965479039e+18,-4.501236439,-5.312895775,13.84609127
1354,1.55965479044e+18,-11.14774323,-8.05194664,10.99211597
1355,1.55965479049e+18,-10.25467873,-7.862798691,8.964164734
1356,1.55965479055e+18,-8.250671387,-6.708757877,3.160442829
1357,1.5596547906e+18,-6.119766235,-3.778165579,0.2657645047
1358,1.55965479065e+18,-3.407052994,-4.098998547,2.310475111
1359,1.5596547907e+18,-2.657644987,-3.354378939,1.561067224
1360,1.55965479075e+18,-6.651295185,0.313650012,-5.157268047
1361,1.55965479081e+18,10.95859623,5.545140266,-13.00809479
1362,1.55965479086e+18,3.294522047,0.09577099234,1.015172482
1363,1.55965479091e+18,-1.297696948,-0.59378016,9.093455315
1364,1.55965479096e+18,-9.878777504,-25.57085419,12.78782177
1365,1.55965479101e+18,-8.068706512,-29.26282692,22.37689209
1366,1.55965479107e+18,-6.105400562,-9.433443069,11.89475727
1367,1.55965479112e+18,-7.680833817,-3.708731651,7.271412373
1368,1.55965479117e+18,-8.791776657,-6.1939888,5.947378635
1369,1.55965479122e+18,-6.797346115,-6.730306625,7.053533554
1370,1.55965479127e+18,-5.961744308,-4.515602112,4.802915096
1371,1.55965479133e+18,-5.825270653,-1.774157643,4.551516533
1372,1.55965479138e+18,-8.245882034,-2.636096478,5.645699978
1373,1.55965479143e+18,-2.413429022,1.446141958,0.3806896806
1374,1.55965479148e+18,5.832453251,-1.338399649,-9.258660316
1375,1.55965479153e+18,1.826831698,-1.137280583,1.043903828
1376,1.55965479159e+18,3.567469358,1.608952641,-1.769369125
1377,1.55965479164e+18,-4.139701366,-4.829252243,8.794171333
1378,1.55965479169e+18,-3.897879362,-18.30183601,20.59555244
1379,1.55965479174e+18,-4.211529255,-30.30673027,21.53171349
1380,1.55965479179e+18,-8.389538765,-8.846845627,9.062330246
1381,1.55965479184e+18,-10.94423008,-5.712739468,5.116565228
1382,1.5596547919e+18,-8.96655941,-8.901913643,6.033572674
1383,1.55965479195e+18,-7.137333393,-3.830839634,5.054314137
1384,1.559654792e+18,-10.68564892,-0.7996878028,0.9720755816
1385,1.55965479205e+18,-7.168458939,-1.54909575,-0.04549122229
1386,1.5596547921e+18,-6.821289062,-3.584229469,1.168406129
1387,1.55965479216e+18,-4.987274647,-3.663240433,-0.277735889
1388,1.55965479221e+18,4.678412914,-0.2609759569,3.64648056
1389,1.55965479226e+18,5.135719299,1.585009933,-0.1316851079
1390,1.55965479231e+18,5.98089838,0.646454215,-5.154873848
1391,1.55965479236e+18,-1.54670155,-5.458946705,15.27547359
1392,1.55965479242e+18,2.133298874,-9.079090118,8.569109917
1393,1.55965479247e+18,-13.45821857,-25.93478394,16.30501175
1394,1.55965479252e+18,-9.409500122,-8.528407097,13.97059345
1395,1.55965479257e+18,-12.85964966,-5.624151707,7.695199013
1396,1.55965479262e+18,-9.347249031,-6.524398804,8.772623062
1397,1.55965479268e+18,-7.44140625,-7.259441376,6.368771076
1398,1.55965479273e+18,-5.607391834,-6.572284222,5.832453251
1399,1.55965479278e+18,-4.300117493,-9.093455315,4.558699131
1400,1.55965479283e+18,-4.676018715,-11.8827858,4.168432236
1401,1.55965479288e+18,-4.21871233,-2.964112282,9.684841156
1402,1.55965479294e+18,3.057488918,3.761405706,-8.533195496
1403,1.55965479299e+18,2.389486313,5.408666611,0.7733507752
1404,1.55965479304e+18,6.356799603,3.715914488,-3.586623669
1405,1.55965479309e+18,0.5435003638,1.527547359,1.608952641
1406,1.55965479314e+18,-3.933793545,-18.48140717,12.86922741
1407,1.5596547932e+18,-1.374313712,-38.59331512,24.02654839
1408,1.55965479325e+18,-8.509252548,-16.92033958,10.19961071
1409,1.5596547933e+18,-8.74149704,-4.022381783,6.981705189
1410,1.55965479335e+18,-10.71198559,-7.139727592,6.098217964
1411,1.5596547934e+18,-8.928250313,-8.660092354,6.823683262
1412,1.55965479346e+18,-6.665660858,-11.37041092,7.120573044
1413,1.55965479351e+18,2.274561167,-6.701575279,2.406246185
1414,1.55965479356e+18,1.410227895,-3.663240433,4.28575182
1415,1.55965479361e+18,-4.211529255,1.637683988,11.07352066
1416,1.55965479366e+18,-5.004034519,4.443774223,-2.126116037
1417,1.55965479372e+18,3.253819466,3.905062199,-14.25551224
1418,1.55965479377e+18,0.5770202279,1.860351562,-0.6416656375
1419,1.55965479382e+18,-0.7302538157,1.939362645,-3.960130453
1420,1.55965479387e+18,-4.917840481,-8.729525566,4.795732498
1421,1.55965479392e+18,3.742251635,-31.41527939,12.2131958
1422,1.55965479398e+18,-6.914665699,-27.98428345,13.47497845
1423,1.55965479403e+18,-7.764633179,-11.1501379,8.008849144
1424,1.55965479408e+18,-9.086273193,-6.256239891,3.629720688
1425,1.55965479413e+18,-7.980117798,-7.788576126,7.197190285
1426,1.55965479418e+18,-7.728719234,-7.213950157,5.964138508
1427,1.55965479424e+18,-9.555550575,-3.917033672,6.143709183
1428,1.55965479429e+18,-6.802134514,2.293715239,3.059883118
1429,1.55965479434e+18,-7.185218811,0.6751855016,3.158048391
1430,1.55965479439e+18,-5.17163372,2.332023621,0.5889915824
1431,1.55965479444e+18,-1.199531674,2.217098475,0.1987248063
1432,1.5596547945e+18,-0.9409499764,2.154847383,0.6727912426
1433,1.55965479455e+18,-0.2154847383,1.393467903,-6.598621368
1434,1.5596547946e+18,-0.3495641351,0.5171633363,1.58979845
1435,1.55965479465e+18,1.151646137,-2.343995094,0.5075862408
1436,1.5596547947e+18,2.190761566,-10.2570734,6.373559475
1437,1.55965479476e+18,1.405439258,-24.4263916,14.67211628
1438,1.55965479481e+18,-6.385530949,-20.73920822,19.87248039
1439,1.55965479486e+18,-4.884320736,-10.51326084,15.63461494
1440,1.55965479491e+18,-3.234665155,-9.016839027,13.8197546
1441,1.55965479496e+18,-5.55711174,-9.071907043,11.37759399
1442,1.55965479502e+18,-4.848406315,-6.038361073,10.53480911
1443,1.55965479507e+18,-5.679219723,0.1364736706,6.08864069
1444,1.55965479512e+18,-5.772596359,1.189954638,3.806896925
1445,1.55965479517e+18,-3.433390141,1.096577883,1.71669507
1446,1.55965479522e+18,-2.590605259,-1.573038578,2.324840784
1447,1.55965479528e+18,-2.382303476,-1.067846537,3.069460392
1448,1.55965479533e+18,1.690358043,-2.930592299,2.37272644
1449,1.55965479538e+18,-0.6177229285,-5.260221958,-1.63289547
1450,1.55965479543e+18,0.1412622184,-3.936187744,-0.7613793612
1451,1.55965479548e+18,-2.315263748,-4.893897533,-1.503604531
1452,1.55965479554e+18,-3.186779737,-16.36486816,7.099024773
1453,1.55965479559e+18,-8.561926842,-23.90683365,19.55164719
1454,1.55965479564e+18,-6.608198643,-15.90995598,18.44309807
1455,1.55965479569e+18,-7.369577885,-9.28499794,13.45343018
1456,1.55965479574e+18,-10.56114578,-7.462954521,10.29059315
1457,1.5596547958e+18,-9.505270958,-10.55156898,10.47016335
1458,1.55965479585e+18,-8.068706512,-12.70881081,7.496474266
1459,1.5596547959e+18,-5.037554264,-11.77025509,4.249837875
1460,1.55965479595e+18,-2.506805658,-8.482915878,1.683175206
1461,1.559654796e+18,-2.296109438,-3.361561775,0.6751855016
1462,1.55965479606e+18,-2.837215662,-1.860351562,0.007182824425
1463,1.55965479611e+18,-0.3902668059,-0.09816526622,-4.395888329
1464,1.55965479616e+18,9.342460632,2.150058746,-3.160442829
1465,1.55965479621e+18,1.16601181,-0.7733507752,4.230683804
1466,1.55965479626e+18,0.8308133483,-4.673624516,2.114144564
1467,1.55965479632e+18,3.919427872,-34.21657944,9.397528648
1468,1.55965479637e+18,-1.78134048,-25.42240906,13.61384678
1469,1.55965479642e+18,-5.798933506,-13.92989063,6.651295185
1470,1.55965479647e+18,-7.752661705,-8.801354408,7.707170486
1471,1.55965479652e+18,-9.761458397,-6.802134514,9.024022102
1472,1.55965479658e+18,-8.614601135,-5.588237286,6.227508545
1473,1.55965479663e+18,-3.94576478,-3.320859194,7.110996246
1474,1.55965479668e+18,0.6656084061,0.299284339,4.568276405
1475,1.55965479673e+18,-0.5818088055,-1.82204318,4.096604347
1476,1.55965479678e+18,-4.857983589,-3.282550812,0.7182824612
1477,1.55965479684e+18,-4.094210148,-3.395081758,2.104567528
1478,1.55965479689e+18,-0.03351984918,1.405439258,-7.003253937
1479,1.55965479694e+18,-3.296916485,1.429382086,-0.4549122155
1480,1.55965479699e+18,-1.110943556,-2.853975534,5.042342663
1481,1.55965479704e+18,1.273754239,-27.61317062,8.087860107
1482,1.5596547971e+18,-3.313676357,-23.50459671,15.32575321
1483,1.55965479715e+18,-6.964945316,-11.75588894,10.85803604
1484,1.5596547972e+18,-7.812518597,-9.081484795,11.74391747
1485,1.55965479725e+18,-7.436617374,-8.717555046,7.987300873
1486,1.5596547973e+18,-7.053533554,-8.083071709,5.959350109
1487,1.55965479736e+18,-9.009655952,-9.790189743,3.890696526
1488,1.55965479741e+18,-2.286532402,-7.103813171,2.054287672
1489,1.55965479746e+18,-0.3423812985,-1.898659945,0.5985686779
1490,1.55965479751e+18,1.101366401,3.067065954,-5.569083214
1491,1.55965479756e+18,-3.122134447,6.519610405,-5.099805355
1492,1.55965479762e+18,13.60905838,6.538764477,-11.09506989
1493,1.55965479767e+18,3.715914488,-1.297696948,4.680807114
1494,1.55965479772e+18,-3.368744612,-18.74238396,8.777411461
1495,1.55965479777e+18,-4.331243038,-42.98680878,13.4510355
1496,1.55965479782e+18,-6.059909344,-16.95146561,9.53639698
1497,1.55965479788e+18,-5.525986195,-7.853221416,8.600234985
1498,1.55965479793e+18,-6.323279858,-8.662486076,8.75586319
1499,1.55965479798e+18,-7.934626579,-6.972128391,5.38711834
1500,1.55965479803e+18,-8.415876389,-5.791750908,4.759818554
1501,1.55965479808e+18,-4.541939259,-4.245049,3.56268096
1502,1.55965479814e+18,-4.331243038,-5.281770229,5.736682415
1503,1.55965479819e+18,-4.151672363,0.1963305324,1.836408734
1504,1.55965479824e+18,1.429382086,1.980065227,-11.8684206
1505,1.55965479829e+18,7.963357925,3.380716085,6.644112587
1506,1.55965479834e+18,5.370358467,3.845205307,-8.236305237
1507,1.5596547984e+18,0.5578660369,-2.772570133,4.917840481
1508,1.55965479845e+18,-1.630501151,-17.98339844,14.8828125
1509,1.5596547985e+18,-7.225921154,-35.44484329,17.95945549
1510,1.55965479855e+18,-10.63536835,-17.39201164,10.07271385
1511,1.5596547986e+18,-8.863605499,-4.065478802,8.710371971
1512,1.55965479866e+18,-6.857203007,-8.296162605,9.105426788
1513,1.55965479871e+18,-6.359193802,-7.029590607,7.398309231
1514,1.55965479876e+18,-9.984126091,-7.699987888,3.62732625
1515,1.55965479881e+18,-9.239506721,-7.858009815,2.456526041
1516,1.55965479886e+18,-4.568276405,-5.296135902,0.670396924
1517,1.55965479892e+18,-4.860377789,-2.068653345,0.2250618339
1518,1.55965479897e+18,1.156434774,2.039922237,-8.535589218
1519,1.55965479902e+18,5.832453251,5.293741703,-1.652049661
1520,1.55965479907e+18,10.68085957,3.306493521,-7.886741161
1521,1.55965479912e+18,-12.95542145,-7.783787251,8.918673515
1522,1.55965479918e+18,-2.14287591,0.5123748183,7.412674904
1523,1.55965479923e+18,-3.026363373,-16.54683304,13.96580505
1524,1.55965479928e+18,-13.43906403,-18.03367805,17.25314522
1525,1.55965479933e+18,-16.20205688,-10.35284424,8.573898315
1526,1.55965479938e+18,-9.996097565,-6.342433929,9.596253395
1527,1.55965479944e+18,-11.26506329,-7.925049782,8.547560692
1528,1.55965479949e+18,-8.693612099,-8.248276711,1.836408734
1529,1.55965479954e+18,-6.72312355,-9.026415825,2.734261751
1530,1.55965479959e+18,-4.498842239,-10.05116558,1.999219418
1531,1.55965479964e+18,-1.326428294,-1.261782765,-11.74152374
1532,1.5596547997e+18,4.996851444,3.184385538,-18.40239525
1533,1.55965479975e+18,14.8971777,10.65691757,-13.08471203
1534,1.5596547998e+18,3.014391899,3.778165579,-8.772623062
1535,1.55965479985e+18,-3.201145411,-1.410227895,10.35044956
1536,1.5596547999e+18,-0.964892745,-45.89824677,2.054287672
1537,1.55965479996e+18,-6.76382637,-31.47992516,12.28981304
1538,1.55965480001e+18,-4.467716694,-12.62261677,1.460507631
1539,1.55965480006e+18,-1.434170604,-8.454184532,2.901860952
1540,1.55965480011e+18,-3.799714088,-8.988107681,9.323306084
1541,1.55965480016e+18,-7.616188049,-9.103033066,8.669669151
1542,1.55965480022e+18,-12.6058569,5.023188591,7.695199013
1543,1.55965480027e+18,-11.08070374,3.129317284,8.150111198
1544,1.55965480032e+18,-5.293741703,-0.3567469418,1.290514112
1545,1.55965480037e+18,-8.856422424,-7.836461544,0.07182824612
1546,1.55965480042e+18,0.8332076073,-4.314483166,-10.76226521
1547,1.55965480048e+18,3.790137053,-6.651295185,-1.901054144
1548,1.55965480053e+18,-1.261782765,-3.050306082,-2.176395893
1549,1.55965480058e+18,1.256994247,-4.149278164,-1.276148438
1550,1.55965480063e+18,2.523565531,-27.19177818,12.75430202
1551,1.55965480068e+18,-3.052700281,-24.01696968,18.62985229
1552,1.55965480074e+18,-6.876357079,-15.04083443,14.01129627
1553,1.55965480079e+18,-10.13496494,-7.647313595,13.82693672
1554,1.55965480084e+18,-10.42467213,-4.386311531,9.067118645
1555,1.55965480089e+18,-8.087860107,-2.683982134,8.949799538
1556,1.55965480094e+18,-16.71922112,-6.727912426,1.841197371
1557,1.559654801e+18,-6.715940952,-4.400677204,-1.901054144
1558,1.55965480105e+18,1.197137356,-3.464515686,-0.3974496126
1559,1.5596548011e+18,-1.194743156,-10.13735962,12.91232395
1560,1.55965480115e+18,5.485283375,-5.861184597,-12.15094471
1561,1.5596548012e+18,4.66883564,-6.426233768,-10.03201103
1562,1.55965480126e+18,1.098972082,-8.497281075,1.544307232
1563,1.55965480131e+18,-1.120520592,-12.9458437,-4.328848839
1564,1.55965480136e+18,-0.2370332032,-33.91250992,11.82771778
1565,1.55965480141e+18,-4.884320736,-29.06888962,10.65691757
1566,1.55965480146e+18,-12.52684593,-16.74316406,3.785348415
1567,1.55965480152e+18,-19.12786102,-2.571451187,2.46131444
1568,1.55965480157e+18,-13.2762537,-8.856422424,6.991282463
1569,1.55965480162e+18,-10.8101511,-2.614548206,6.452570438
1570,1.55965480167e+18,-8.403904915,-6.83086586,4.697566986
1571,1.55965480172e+18,-4.168432236,-10.69043732,1.149251938
1572,1.55965480178e+18,-5.521197796,-10.32411289,-1.513181686
1573,1.55965480183e+18,2.087807655,-3.770982742,-2.69355917
1574,1.55965480188e+18,2.583422422,3.241847992,-11.90433407
1575,1.55965480193e+18,0.2106961906,5.324867249,-8.844450951
1576,1.55965480198e+18,1.477267504,-1.156434774,2.195549965
1577,1.55965480204e+18,-4.245049,-6.421444893,14.69845295
1578,1.55965480209e+18,-15.27786732,-44.92377853,21.38087463
1579,1.55965480214e+18,-11.98573971,-18.25395203,12.72796535
1580,1.55965480219e+18,-7.587456703,-10.39833546,5.813299179
1581,1.55965480224e+18,-5.190787792,-7.704776287,5.425426483
1582,1.5596548023e+18,-2.973689318,-7.352818012,10.02004051
1583,1.55965480235e+18,-5.051919937,-9.205986977,10.05834866
1584,1.5596548024e+18,-4.989668846,-6.821289062,5.463735104
1585,1.55965480245e+18,4.721509933,3.146077156,-2.106961727
1586,1.5596548025e+18,3.471698523,-1.975276709,-9.560338974
1587,1.55965480256e+18,1.304879785,6.76622057,-7.580274105
1588,1.55965480261e+18,4.288146019,-0.1508393139,6.462147713
1589,1.55965480266e+18,3.028757572,0.09816526622,1.307274103
1590,1.55965480271e+18,-12.2610817,-23.84937096,0.6775797606
1591,1.55965480276e+18,-13.18287754,-28.54693794,16.84611702
1592,1.55965480281e+18,-8.245882034,-19.27151871,11.41111374
1593,1.55965480287e+18,-7.580274105,-8.494887352,5.406272411
1594,1.55965480292e+18,-7.711959362,-7.371972084,5.446975231
1595,1.55965480297e+18,-7.75984478,-2.54511404,6.337645531
1596,1.55965480302e+18,-2.842004299,-6.347222328,3.047911882
1597,1.55965480307e+18,-0.2729473412,-8.547560692,-4.647287369
1598,1.55965480313e+18,-1.075029373,-2.217098475,-10.11820507
1599,1.55965480318e+18,9.62977314,3.076643229,-10.27862167
1600,1.55965480323e+18,8.978530884,3.802108288,-1.901054144
1601,1.55965480328e+18,-0.4908263385,-6.941002846,9.112609863
1602,1.55965480333e+18,-3.438178539,-42.62527466,13.9945364
1603,1.55965480339e+18,-4.699961662,-22.76237106,11.90912247
1604,1.55965480344e+18,-7.0846591,-10.84606457,5.51640892
1605,1.55965480349e+18,-7.893924236,-9.402317047,5.573871613
1606,1.55965480354e+18,-7.551542759,-6.179623127,4.975303173
1607,1.55965480359e+18,-5.499649048,-6.596227169,1.474873304
1608,1.55965480365e+18,2.473285913,-9.22992897,-2.655250788
1609,1.5596548037e+18,-25.11354828,-15.03365135,-16.84851265
1610,1.55965480375e+18,7.156487465,14.30818653,-8.190814018
1611,1.5596548038e+18,2.719896078,13.44385338,-6.72551775
1612,1.55965480385e+18,1.077423692,-0.2657645047,14.19804955
1613,1.55965480391e+18,-6.265817165,-58.00370026,6.174834728
1614,1.55965480396e+18,-8.707977295,-27.51979446,-4.723904133
1615,1.55965480401e+18,-1.087000728,-18.32817459,6.519610405
1616,1.55965480406e+18,-0.8858816624,-7.783787251,8.537983894
1617,1.55965480411e+18,-6.012023926,-0.7733507752,6.122160912
1618,1.55965480417e+18,-8.38235569,-0.1915419847,0.2059076279
1619,1.55965480422e+18,-0.5818088055,0.02154847234,4.422225475
1620,1.55965480427e+18,-7.110996246,-9.718361855,13.3241396
1621,1.55965480432e+18,6.457359314,11.56195259,-14.82056141
1622,1.55965480437e+18,5.573871613,-0.167599231,2.272166729
1623,1.55965480443e+18,-7.089447498,-11.95700836,12.25868702
1624,1.55965480448e+18,-12.13657856,-29.81111526,14.00650787
1625,1.55965480453e+18,-9.708784103,-14.53324795,12.28502369
1626,1.55965480458e+18,-7.151699066,-10.94662476,5.339232922
1627,1.55965480463e+18,-6.423839092,-7.846038342,3.847599506
1628,1.55965480469e+18,-3.30888772,-4.944177628,4.628133297
1629,1.55965480474e+18,0.102953814,-5.054314137,8.363202095
1630,1.55965480479e+18,3.493247032,-5.083045483,3.177202702
1631,1.55965480484e+18,2.202732801,0.6943396926,-21.00976181
1632,1.55965480489e+18,2.494834423,8.686429024,-11.72236919
1633,1.55965480495e+18,-2.628913641,-3.979284763,7.89152956
1634,1.559654805e+18,3.895485163,-14.85168648,3.75422287
1635,1.55965480505e+18,-11.77264881,-21.57959938,16.53725624
1636,1.5596548051e+18,-8.990502357,-13.08710575,9.296969414
1637,1.55965480515e+18,-6.864386082,-6.883540154,7.544359684
1638,1.55965480521e+18,-8.305739403,-5.236279011,6.232297421
1639,1.55965480526e+18,-4.38870573,-7.091842175,3.735068798
1640,1.55965480531e+18,-2.437371731,-6.016812801,5.913858891
1641,1.55965480536e+18,-2.468497276,-3.040729046,-0.1316851079
1642,1.55965480541e+18,-9.929058075,-6.038361073,11.40871906
1643,1.55965480547e+18,19.5037632,14.98576641,-7.795758724
1644,1.55965480552e+18,6.304125786,1.620923996,7.161275864
1645,1.55965480557e+18,2.712713242,-13.87721634,9.653716087
1646,1.55965480562e+18,-11.76067829,-27.42402458,13.14696312
1647,1.55965480567e+18,-13.79341698,-15.92432213,8.05194664
1648,1.55965480573e+18,-8.727131844,-8.523618698,7.699987888
1649,1.55965480578e+18,-8.791776657,-6.866780281,6.998465061
1650,1.55965480583e+18,-7.386337757,-1.568249941,4.0702672
1651,1.55965480588e+18,-8.039975166,-2.719896078,0.7398309112
1652,1.55965480593e+18,-2.894678354,-4.371945858,1.862745762
1653,1.55965480599e+18,0.3208328187,-3.246636629,2.48046875
1654,1.55965480604e+18,-3.227482557,-4.714327335,6.421444893
1655,1.55965480609e+18,2.190761566,-0.8691217303,-2.470891714
1656,1.55965480614e+18,1.491633177,-1.163617611,-5.339232922
1657,1.55965480619e+18,6.30173111,-1.714300752,-5.035160065
1658,1.55965480625e+18,-4.841223717,-22.30745888,12.09348202
1659,1.5596548063e+18,-7.853221416,-24.81187057,21.91240311
1660,1.55965480635e+18,-10.36960411,-16.82935715,9.646533012
1661,1.5596548064e+18,-8.868393898,-5.248250484,8.020820618
1662,1.55965480645e+18,-6.34003973,-5.844424725,6.256239891
1663,1.55965480651e+18,-7.453377247,-7.127756119,9.550762177
1664,1.55965480656e+18,-4.264203548,-8.066311836,2.767781734
1665,1.55965480661e+18,-2.964112282,-7.93223238,2.061470509
1666,1.55965480666e+18,-2.748627424,-2.930592299,2.475680113
1667,1.55965480671e+18,1.108549237,1.324033976,-4.539545059
1668,1.55965480677e+18,20.59076309,1.089395046,5.906675816
1669,1.55965480682e+18,-16.70006752,-0.9313728809,2.214704275
1670,1.55965480687e+18,-2.540325642,-2.652856588,8.111803055
1671,1.55965480692e+18,2.988054991,-38.15276718,5.487678051
1672,1.55965480697e+18,-4.273780346,-20.28668976,15.54602623
1673,1.55965480703e+18,-3.713520288,-11.99771118,7.146910191
1674,1.55965480708e+18,-5.49007225,-9.383162498,9.52203083
1675,1.55965480713e+18,-5.760625362,-7.252258301,11.57871342
1676,1.55965480718e+18,-9.155706406,-11.8875742,6.323279858
1677,1.55965480723e+18,-8.035185814,-12.47896004,3.241847992
1678,1.55965480729e+18,-4.367157459,-5.676825523,-1.300091267
1679,1.55965480734e+18,1.000806928,-0.1364736706,-5.437397957
1680,1.55965480739e+18,7.941809654,-1.527547359,0.9529213905
1681,1.55965480744e+18,5.497254848,1.288119793,-2.542719841
1682,1.55965480749e+18,0.591385901,-2.032739401,-6.483695984
1683,1.55965480755e+18,5.382329941,-6.957762718,-3.165231228
1684,1.5596548076e+18,-3.114951611,-35.78722382,12.66810799
1685,1.55965480765e+18,-7.869981289,-26.21970367,12.0479908
1686,1.5596548077e+18,-11.18126297,-15.55081463,4.424619675
1687,1.55965480775e+18,-12.51966286,-6.572284222,5.269798756
1688,1.55965480781e+18,-9.39274025,-6.296942711,6.383136749
1689,1.55965480786e+18,-7.453377247,-4.28335762,5.370358467
1690,1.55965480791e+18,-4.75024128,-4.953754425,6.684815407
1691,1.55965480796e+18,-1.403045058,-6.38074255,3.409447432
1692,1.55965480801e+18,-3.747040033,-7.01522541,4.836435318
1693,1.55965480807e+18,-6.232297421,-5.593026161,-2.193155766
1694,1.55965480812e+18,8.894730568,3.517189741,-15.46462059
1695,1.55965480817e+18,-1.776551962,4.60179615,-3.833234072
1696,1.55965480822e+18,0.3711125851,1.525153041,3.028757572
1697,1.55965480827e+18,-5.355992794,-12.02883625,13.46540165
1698,1.55965480833e+18,-6.426233768,-34.21897507,19.41996384
1699,1.55965480838e+18,-8.499675751,-17.96184921,10.43424988
1700,1.55965480843e+18,-7.40309763,-7.158881664,5.707951069
1701,1.55965480848e+18,-9.440625191,-4.848406315,3.955342054
1702,1.55965480853e+18,-5.497254848,-4.077449799,4.790944099
1703,1.55965480859e+18,-6.476513386,-4.352791786,5.909070015
1704,1.55965480864e+18,-9.024022102,-0.3567469418,3.675211906
1705,1.55965480869e+18,-9.878777504,1.259388566,-2.719896078
1706,1.55965480874e+18,-11.28421688,-0.6057515144,7.501263142
1707,1.55965480879e+18,-3.205934048,0.8188419938,-2.470891714
1708,1.55965480885e+18,7.316903591,-0.8092648983,-13.37681293
1709,1.5596548089e+18,4.462928295,-2.971295118,-5.030371189
1710,1.55965480895e+18,-2.624125242,-5.001639843,4.206740856
1711,1.559654809e+18,-0.4429408312,-28.56609344,1.118126392
1712,1.55965480905e+18,-1.850774407,-35.18386841,24.59638596
1713,1.55965480911e+18,-5.777385235,-14.12143326,8.061523438
1714,1.55965480916e+18,-9.450202942,-5.061496735,5.818087578
1715,1.55965480921e+18,-7.058321953,-7.965752125,11.26985168
1716,1.55965480926e+18,-7.731113434,-10.20439911,9.438231468
1717,1.55965480931e+18,-8.46376133,-8.039975166,5.255433083
1718,1.55965480937e+18,-5.712739468,-2.916226625,2.746233225
1719,1.55965480942e+18,-6.761432171,0.648848474,1.757397652
1720,1.55965480947e+18,-6.08624649,0.6727912426,0.4309694767
1721,1.55965480952e+18,10.02961731,0.3806896806,-12.61303997
1722,1.55965480957e+18,8.954587936,-1.879505754,6.493273258
1723,1.55965480963e+18,1.970488191,-3.246636629,-1.362342358
1724,1.55965480968e+18,5.521197796,-12.78303337,-2.463708878
1725,1.55965480973e+18,1.996825218,-39.23498154,14.15734673
1726,1.55965480978e+18,-1.40065074,-26.16942406,14.88520622
1727,1.55965480983e+18,-9.727938652,-15.9506588,6.641718388
1728,1.55965480989e+18,-13.93707371,-2.145270348,4.288146019
1729,1.55965480994e+18,-14.18128967,-7.86758709,5.648094177
1730,1.55965480999e+18,-9.613013268,-6.217931747,4.249837875
1731,1.55965481004e+18,-6.023995399,-1.817254543,4.965725899
1732,1.55965481009e+18,0.6656084061,-0.7637736797,3.950553417
1733,1.55965481015e+18,0.4261809289,-3.445361376,5.324867249
1734,1.5596548102e+18,0.464489311,-7.271412373,11.00887585
1735,1.55965481025e+18,3.028757572,-5.748653889,-4.913052082
1736,1.5596548103e+18,1.070240855,-6.720729351,-7.278595448
1737,1.55965481035e+18,-0.02633702382,-1.704723716,-3.112557173
1738,1.55965481041e+18,1.580221415,-13.31216812,4.757423878
1739,1.55965481046e+18,6.148497581,-29.77280807,18.37845421
1740,1.55965481051e+18,-3.720703125,-16.58035278,14.7223959
1741,1.55965481056e+18,-7.850827217,-8.023215294,13.75750351
1742,1.55965481061e+18,-10.46776962,-7.027196407,9.304151535
1743,1.55965481067e+18,-10.0966568,-9.112609863,10.12059975
1744,1.55965481072e+18,-5.660065651,-7.592245579,7.101418972
1745,1.55965481077e+18,-4.371945858,-9.076695442,3.545921087
1746,1.55965481082e+18,-6.715940952,-14.25790691,1.817254543
1747,1.55965481087e+18,-5.741470814,-8.798959732,-3.110162973
1748,1.55965481093e+18,-3.996044636,1.525153041,-4.570670605
1749,1.55965481098e+18,10.36002731,8.411087036,-6.469330311
1750,1.55965481103e+18,5.940196037,5.178816319,-4.367157459
1751,1.55965481108e+18,4.70714426,7.209161282,2.56666255
1752,1.55965481113e+18,2.370332003,-3.186779737,9.598648071
1753,1.55965481119e+18,0.4094209969,-63.49377441,19.92036629
1754,1.55965481124e+18,-3.368744612,-26.13111496,4.570670605
1755,1.55965481129e+18,-6.565101624,-11.46378803,0.2585816681
1756,1.55965481134e+18,-6.9122715,-9.466962814,5.123748302
1757,1.55965481139e+18,-8.78219986,-6.744672298,7.108602047
1758,1.55965481145e+18,-5.595420361,-7.300143719,3.026363373
1759,1.5596548115e+18,-1.958516836,-2.54511404,2.286532402
1760,1.55965481155e+18,-6.294548512,-0.3926610649,-4.498842239
1761,1.5596548116e+18,0.5004034638,2.542719841,-1.39825654
1762,1.55965481165e+18,3.055094719,2.504411459,-8.028003693
1763,1.55965481171e+18,-0.004788549617,5.430215359,-13.16372299
1764,1.55965481176e+18,-2.966506481,-3.481275558,3.988861799
1765,1.55965481181e+18,-4.992063046,-23.33699608,4.726298332
1766,1.55965481186e+18,0.6201171875,-36.49592972,23.44473839
1767,1.55965481191e+18,-4.74784708,-13.16132832,11.4949131
1768,1.55965481197e+18,-7.36000061,-8.18602562,8.296162605
1769,1.55965481202e+18,-8.96655941,-10.19721603,7.099024773
1770,1.55965481207e+18,-5.200365067,-10.95141315,4.051113129
1771,1.55965481212e+18,-6.890722752,-10.63776302,2.978477955
1772,1.55965481217e+18,-5.731894016,-7.965752125,0.2490045726
1773,1.55965481223e+18,-2.229069948,-3.940976381,0.5818088055
1774,1.55965481228e+18,1.517970204,2.997632027,-0.5961744189
1775,1.55965481233e+18,9.002472878,3.943370581,-3.45733285
1776,1.55965481238e+18,7.472531796,-0.4166038036,-9.387951851
1777,1.55965481243e+18,-3.569863796,-11.37519932,5.734288216
1778,1.55965481249e+18,0.5770202279,-28.49665833,6.232297421
1779,1.55965481254e+18,-4.989668846,-30.77121925,18.60351562
1780,1.55965481259e+18,-4.249837875,-13.51568127,10.83169937
1781,1.55965481264e+18,-5.834847927,-9.021627426,8.238699913
1782,1.55965481269e+18,-7.280989647,-6.454965115,7.841249943
1783,1.55965481275e+18,-7.235498428,-6.771008968,5.080651283
1784,1.5596548128e+18,-4.209135056,-5.008822918,3.229876757
1785,1.55965481285e+18,-1.347976685,-5.219519138,4.714327335
1786,1.5596548129e+18,0.2585816681,-4.56109333,2.655250788
1787,1.55965481295e+18,-5.430215359,-6.344828129,5.521197796
1788,1.55965481301e+18,4.381523132,0.4956148863,-15.89559078
1789,1.55965481306e+18,5.825270653,-1.831620216,-4.340820312
1790,1.55965481311e+18,-0.2657645047,-8.250671387,6.964945316
1791,1.55965481316e+18,4.249837875,-20.06641769,5.147690773
1792,1.55965481321e+18,-12.35206413,-36.6874733,15.27786732
1793,1.55965481327e+18,-8.384750366,-12.33769798,11.90672874
1794,1.55965481332e+18,-9.507665634,-8.696005821,8.516435623
1795,1.55965481337e+18,-10.26904488,-7.460560322,8.74149704
1796,1.55965481342e+18,-6.818894863,-9.998491287,6.474119186
1797,1.55965481347e+18,-5.389512539,-12.16291618,4.987274647
1798,1.55965481353e+18,-0.03351984918,-9.2035923,2.322446585
1799,1.55965481358e+18,1.807677507,-6.306519985,2.643279314
1800,1.55965481363e+18,0.7661679387,-2.423006058,-2.662433624
1801,1.55965481368e+18,-2.552296877,4.075055599,-11.55716419
1802,1.55965481373e+18,2.466103077,5.772596359,-8.497281075
1803,1.55965481378e+18,-3.215511084,-0.7302538157,5.482889175
1804,1.55965481384e+18,-11.55237579,-13.96341038,11.17408085
1805,1.55965481389e+18,-11.84208298,-30.10800552,14.13101006
1806,1.55965481394e+18,-6.320885658,-10.9897213,14.67211628
1807,1.55965481399e+18,-8.839662552,-5.882733345,9.720755577
1808,1.55965481404e+18,-11.21957207,-3.842811108,5.930618763
1809,1.5596548141e+18,-9.275420189,-4.654470444,2.516382933
1810,1.55965481415e+18,-7.412674904,-3.775771379,1.699935079
1811,1.5596548142e+18,-8.090254784,-10.35284424,-0.5554717779
1812,1.55965481425e+18,-4.699961662,-12.27065849,4.501236439
1813,1.5596548143e+18,-6.754249096,-6.627352715,10.36002731
1814,1.55965481436e+18,4.546727657,6.83086586,-8.67445755
1815,1.55965481441e+18,0.7302538157,3.107768774,0.1436564922
1816,1.55965481446e+18,1.283331275,3.768588543,1.259388566
1817,1.55965481451e+18,-0.4692778587,-3.064671755,7.307326794
1818,1.55965481456e+18,-6.040755272,-30.74727631,7.345634937
1819,1.55965481462e+18,-10.38875866,-23.22686005,16.22360611
1820,1.55965481467e+18,-6.919454098,-8.832479477,9.787795067
1821,1.55965481472e+18,-7.834067345,-3.929004908,8.624177933
1822,1.55965481477e+18,-7.36000061,-6.548341751,6.828471661
1823,1.55965481482e+18,-8.346442223,-8.516435623,5.207547665
1824,1.55965481488e+18,-8.291373253,-11.93306541,3.062277555
1825,1.55965481493e+18,-5.444581032,-11.16210938,0.09816526622
1826,1.55965481498e+18,-1.12530911,-2.499622822,-3.543526649
1827,1.55965481503e+18,7.060716629,8.320104599,-5.288952827
1828,1.55965481508e+18,10.73832226,8.590658188,-8.712765694
1829,1.55965481514e+18,6.270605564,1.362342358,-1.221080184
1830,1.55965481519e+18,3.567469358,-14.53803635,0.964892745
1831,1.55965481524e+18,-8.526012421,-37.65236664,22.90602684
1832,1.55965481529e+18,-6.950579643,-19.33137512,11.50688457
1833,1.55965481534e+18,-8.267431259,-7.731113434,7.50844574
1834,1.5596548154e+18,-5.940196037,-6.612987041,10.35044956
1835,1.55965481545e+18,-8.679245949,-7.273807049,5.707951069
1836,1.5596548155e+18,-5.351204395,-5.624151707,6.217931747
1837,1.55965481555e+18,-0.964892745,-2.164424419,7.616188049
1838,1.5596548156e+18,-0.7661679387,0.01436564885,8.985713005
1839,1.55965481566e+18,-1.723877907,-1.03911531,1.465296149
1840,1.55965481571e+18,-8.05194664,0.03591412306,-3.335224867
1841,1.55965481576e+18,5.940196037,-4.908263206,-10.29538155
1842,1.55965481581e+18,3.624932051,-6.567495823,-9.648927689
1843,1.55965481586e+18,-1.934574008,-7.199584484,5.535563469
1844,1.55965481592e+18,-1.438959122,-17.08315086,1.75979197
1845,1.55965481597e+18,8.954587936,-34.53501892,25.25241661
1846,1.55965481602e+18,-1.527547359,-14.04960442,12.11742496
1847,1.55965481607e+18,-7.0846591,-11.36083412,10.51086617
1848,1.55965481612e+18,-11.6649065,-11.20281219,12.47896004
1849,1.55965481618e+18,-9.706390381,-7.716747761,4.424619675
1850,1.55965481623e+18,-8.60741806,-7.635342598,4.015198708
1851,1.55965481628e+18,-2.430188894,-6.423839092,4.003227711
1852,1.55965481633e+18,3.550709486,-1.764580488,5.731894016
1853,1.55965481638e+18,-1.254600048,-2.413429022,6.033572674
1854,1.55965481644e+18,1.951334,0.3543526828,-10.39833546
1855,1.55965481649e+18,-0.5027977228,2.090201855,-3.689577579
1856,1.55965481654e+18,-1.573038578,2.478074312,-3.282550812
1857,1.55965481659e+18,-3.395081758,-1.984853864,9.996097565
1858,1.55965481664e+18,-3.689577579,-20.05444527,9.914691925
1859,1.5596548167e+18,-11.56195259,-17.52848625,21.14623451
1860,1.55965481675e+18,-10.4270668,-7.14930439,12.82373619
1861,1.5596548168e+18,-9.526819229,-4.398283005,10.13735962
1862,1.55965481685e+18,-9.282603264,-6.744672298,6.761432171
1863,1.5596548169e+18,-8.722343445,-5.933012962,1.426987767
1864,1.55965481696e+18,-7.118178844,-8.353624344,4.221106529
1865,1.55965481701e+18,-4.017592907,-12.53402901,2.049499273
1866,1.55965481706e+18,-4.125335693,-9.016839027,-0.3759011328
1867,1.55965481711e+18,3.804502726,7.034379482,-19.59235001
1868,1.55965481716e+18,-6.711152077,8.724737167,0.5578660369
1869,1.55965481722e+18,1.271359921,6.050332546,0.7996878028
1870,1.55965481727e+18,-1.628106833,3.438178539,8.401510239
1871,1.55965481732e+18,-6.93860817,-10.28341007,13.27385998
1872,1.55965481737e+18,-7.474925995,-33.25408173,23.39924812
1873,1.55965481742e+18,-6.043149471,-13.89158249,10.49171257
1874,1.55965481748e+18,-5.712739468,-4.886714935,6.428627968
1875,1.55965481753e+18,-6.778192043,-5.712739468,6.660872459
1876,1.55965481758e+18,-6.574678421,-6.469330311,5.19797039
1877,1.55965481763e+18,-5.312895775,-3.464515686,6.488484859
1878,1.55965481768e+18,-2.796513081,1.405439258,7.060716629
1879,1.55965481774e+18,-1.247417212,0.01675992459,6.0216012
1880,1.55965481779e+18,-12.36164093,-9.24429512,13.23076248
1881,1.55965481784e+18,-1.807677507,-9.098244667,-7.93223238
1882,1.55965481789e+18,6.59383297,-3.749434233,-13.99693012
1883,1.55965481794e+18,2.952140808,-6.502850533,10.16130257
1884,1.559654818e+18,-1.630501151,-13.15653992,7.496474266
1885,1.55965481805e+18,-1.903448462,-32.05215836,22.4942112
1886,1.5596548181e+18,-5.367964268,-12.57712555,15.610672
1887,1.55965481815e+18,-8.284191132,-9.783006668,10.4366436
1888,1.5596548182e+18,-6.292154312,-8.38235569,9.979337692
1889,1.55965481826e+18,-6.229903221,-8.523618698,4.168432236
1890,1.55965481831e+18,-5.365570068,-7.020013809,3.620143414
1891,1.55965481836e+18,-3.83802247,-6.691998005,4.491659641
1892,1.55965481841e+18,-3.014391899,-6.646506786,3.30888772
1893,1.55965481846e+18,-3.191568375,-7.249864101,6.555524349
1894,1.55965481852e+18,-1.108549237,7.324086666,-8.775016785
1895,1.55965481857e+18,16.271492,7.000859737,-4.484476566
1896,1.55965481862e+18,-0.1077423692,-0.670396924,5.55711174
1897,1.55965481867e+18,-0.4980091453,-5.114171028,5.540351868
1898,1.55965481872e+18,-1.359948039,-40.97322464,18.11987114
1899,1.55965481878e+18,-2.391880512,-19.58037949,10.33847904
1900,1.55965481883e+18,-4.886714935,-11.95940304,5.327261448
1901,1.55965481888e+18,-7.225921154,-8.01124382,6.071880817
1902,1.55965481893e+18,-7.108602047,-7.297749519,6.787769318
1903,1.55965481898e+18,-6.87156868,-8.480521202,5.650488377
1904,1.55965481904e+18,-4.314483166,-6.093429565,5.801327705
1905,1.55965481909e+18,-3.220299721,-5.116565228,3.883513689
1906,1.55965481914e+18,-3.96491909,-1.467690468,2.499622822
1907,1.55965481919e+18,1.436564922,3.373533249,0.8356019258
1908,1.55965481924e+18,2.197944164,5.547534943,-9.395133972
1909,1.5596548193e+18,2.463708878,6.703969479,-8.696005821
1910,1.55965481935e+18,4.597007751,2.722290516,1.237840056
1911,1.5596548194e+18,-0.6584255695,-23.57402992,3.363956213
1912,1.55965481945e+18,-7.144515991,-42.44330978,22.73603439
1913,1.5596548195e+18,-4.944177628,-16.74555779,6.560312748
1914,1.55965481956e+18,-6.713546753,-9.938634872,7.707170486
1915,1.55965481961e+18,-5.355992794,-7.379155159,6.249057293
1916,1.55965481966e+18,-6.612987041,-4.273780346,5.317684174
1917,1.55965481971e+18,-4.60179615,-2.166818619,1.812466025
1918,1.55965481976e+18,-3.263396502,1.0606637,1.745426297
1919,1.55965481981e+18,-2.159635782,1.582615614,-0.1652049571
1920,1.55965481987e+18,-7.099024773,-0.04788549617,14.84210968
1921,1.55965481992e+18,6.323279858,9.289786339,-15.29462719
1922,1.55965481997e+18,0.5411061049,0.4764606953,-1.570644259
1923,1.55965482002e+18,-1.755003452,-5.631334305,4.723904133
1924,1.55965482007e+18,-6.170046329,-34.77444839,17.93790627
1925,1.55965482013e+18,-5.260221958,-19.88684654,18.43831062
1926,1.55965482018e+18,-6.124555111,-9.208380699,11.85166073
1927,1.55965482023e+18,-5.056708336,-8.415876389,7.221132755
1928,1.55965482028e+18,-4.980091572,-8.214756966,7.637736797
1929,1.55965482033e+18,-5.952167034,-5.51640892,5.420638084
1930,1.55965482039e+18,-5.401484013,-1.616135478,1.177983165
1931,1.55965482044e+18,-4.625739098,1.388679385,1.194743156
1932,1.55965482049e+18,-9.687235832,-3.639297724,10.75987053
1933,1.55965482054e+18,7.063110828,5.791750908,-15.18927956
1934,1.55965482059e+18,12.75190735,3.603383541,-4.2426548
1935,1.55965482065e+18,-0.3950553536,-2.276955366,4.127729893
1936,1.5596548207e+18,-3.488458395,-21.57481003,2.604970932
1937,1.55965482075e+18,-0.3878725171,-39.26131821,26.41363907
1938,1.5596548208e+18,-4.836435318,-14.98337173,7.381549358
1939,1.55965482085e+18,-8.3153162,-5.973715782,6.624958515
1940,1.55965482091e+18,-9.375980377,-6.387925148,7.664073467
1941,1.55965482096e+18,-6.498061657,-4.043930054,8.473338127
1942,1.55965482101e+18,-9.043175697,-11.3680172,1.515576005
1943,1.55965482106e+18,-2.22667551,-9.304151535,2.253012657
1944,1.55965482111e+18,3.136499882,-3.9864676,3.957736254
1945,1.55965482117e+18,5.514014721,5.815693378,-5.042342663
1946,1.55965482122e+18,13.7814455,5.248250484,-14.42071724
1947,1.55965482127e+18,9.095849991,-5.545140266,7.039167881
1948,1.55965482132e+18,-2.736656189,-23.58600044,9.000079155
1949,1.55965482137e+18,-9.641744614,-29.90928078,-2.583422422
1950,1.55965482143e+18,-13.06076908,-17.55482292,4.711932659
1951,1.55965482148e+18,-4.383917332,-10.32171917,15.52447796
1952,1.55965482153e+18,0.1652049571,-12.80218697,11.79180336
1953,1.55965482158e+18,-3.653663397,-8.432636261,8.18602562
1954,1.55965482163e+18,-8.693612099,-12.45501709,6.368771076
1955,1.55965482169e+18,-0.2250618339,-6.878751755,4.422225475
1956,1.55965482174e+18,2.190761566,1.352765322,6.064698219
1957,1.55965482179e+18,-3.598595142,-9.581888199,-1.953728199
1958,1.55965482184e+18,-9.969759941,-9.153312683,-14.09030724
1959,1.55965482189e+18,4.520390987,-1.501210332,-14.96900654
1960,1.55965482195e+18,1.422199249,2.849187136,1.585009933
1961,1.559654822e+18,-4.946571827,3.43578434,-0.5650488734
1962,1.55965482205e+18,3.557892323,-12.68965626,9.402317047
1963,1.5596548221e+18,-8.686429024,-33.40013504,23.44473839
1964,1.55965482215e+18,-7.027196407,-10.50607777,11.30815983
1965,1.55965482221e+18,-6.69918108,-5.09262228,8.358413696
1966,1.55965482226e+18,-4.472505569,-8.286584854,8.277008057
1967,1.55965482231e+18,-7.551542759,-7.869981289,5.499649048
1968,1.55965482236e+18,-5.401484013,-8.99289608,6.490879059
1969,1.55965482241e+18,-0.004788549617,-6.244268894,5.181210518
1970,1.55965482247e+18,-8.976136208,-6.431022167,9.799766541
1971,1.55965482252e+18,10.24270725,4.644893169,-10.42946148
1972,1.55965482257e+18,5.643305779,6.289760113,-9.359220505
1973,1.55965482262e+18,0.09577099234,3.464515686,8.028003693
1974,1.55965482267e+18,-0.1245022863,1.201925993,-1.290514112
1975,1.55965482273e+18,-11.4949131,-25.44874763,-2.451737404
1976,1.55965482278e+18,-9.615407944,-28.10399818,13.86524582
1977,1.55965482283e+18,-9.85483551,-20.42795181,8.377567291
1978,1.55965482288e+18,-9.296969414,-10.96098995,3.811685562
1979,1.55965482293e+18,-9.943423271,-5.796539307,2.126116037
1980,1.55965482299e+18,-6.80452919,-6.06230402,3.957736254
1981,1.55965482304e+18,-3.167625666,-5.552323341,4.019987583
1982,1.55965482309e+18,0.3663240373,-4.000833035,3.682394743
1983,1.55965482314e+18,-7.345634937,0.1771763414,8.786988258
1984,1.55965482319e+18,4.21871233,5.837242126,-13.49173832
1985,1.55965482325e+18,2.099778891,3.751828671,-4.063084126
1986,1.5596548233e+18,-2.475680113,-2.360754967,4.824463844
1987,1.55965482335e+18,-2.171607256,-21.71846771,1.61134696
1988,1.5596548234e+18,-11.77264881,-31.24528694,13.74313736
1989,1.55965482345e+18,-5.722316742,-13.22597408,8.470944405
1990,1.55965482351e+18,-6.735095024,-7.846038342,4.295329094
1991,1.55965482356e+18,-8.631361008,-6.943397045,6.210748672
1992,1.55965482361e+18,-7.82688427,-6.629746914,6.249057293
1993,1.55965482366e+18,-5.023188591,-4.139701366,4.805309772
1994,1.55965482371e+18,-1.762186289,-0.4022381604,8.308133125
