,Time (s),Acceleration x (m/s^2),Acceleration y (m/s^2),Acceleration z (m/s^2)
0,1.55965562305e+18,-6.026389599,0.3711125851,6.720729351
1,1.5596556231e+18,-6.632141113,0.3016786277,5.681613922
2,1.55965562316e+18,-6.431022167,0.483643502,5.485283375
3,1.55965562321e+18,-7.324086666,0.948132813,5.729499817
4,1.55965562326e+18,-8.70079422,0.4261809289,6.165257454
5,1.55965562331e+18,-8.092648506,0.6991282701,6.567495823
6,1.55965562336e+18,-9.287391663,0.2106961906,6.095823765
7,1.55965562342e+18,-7.67843914,0.9026415944,6.560312748
8,1.55965562347e+18,-5.719922543,1.395862222,6.208354473
9,1.55965562352e+18,-2.521171331,1.78134048,2.619336605
10,1.55965562357e+18,3.129317284,2.741444588,1.843591571
11,1.55965562362e+18,4.676018715,3.232270956,7.065505028
12,1.55965562368e+18,3.689577579,2.928198099,9.507665634
13,1.55965562373e+18,0.9720755816,1.345582485,6.663266659
14,1.55965562378e+18,5.499649048,0.1556278616,7.755055904
15,1.55965562383e+18,8.099831581,-0.1221080124,13.25231075
16,1.55965562388e+18,14.24354076,2.961717844,13.02724934
17,1.55965562394e+18,13.78384018,2.715107679,12.27065849
18,1.55965562399e+18,9.847652435,3.979284763,8.095043182
19,1.55965562404e+18,6.162863255,3.208328247,4.563488007
20,1.55965562409e+18,3.634509087,3.205934048,2.253012657
21,1.55965562414e+18,0.2681587934,2.846792698,-2.245829821
22,1.5596556242e+18,-4.948966026,3.201145411,-5.755836487
23,1.55965562425e+18,-3.419024467,-0.4716721475,-2.279349566
24,1.5596556243e+18,1.027143836,-0.5435003638,2.181184292
25,1.55965562435e+18,5.684008598,-4.656864643,11.03281784
26,1.5596556244e+18,8.868393898,-11.4949131,13.92510223
27,1.55965562446e+18,7.977723598,-25.44156456,7.558725357
28,1.55965562451e+18,15.9506588,-14.70802975,14.14776993
29,1.55965562456e+18,8.193208694,-8.59305191,10.47016335
30,1.55965562461e+18,5.985687256,-5.102199554,8.047157288
31,1.55965562466e+18,7.769421577,-3.325647593,6.76382637
32,1.55965562472e+18,7.348029613,-3.155654192,7.635342598
33,1.55965562477e+18,9.213169098,0.9529213905,9.3783741
34,1.55965562482e+18,9.897932053,-0.4980091453,3.438178539
35,1.55965562487e+18,4.925023079,-1.750214934,-1.075029373
36,1.55965562492e+18,-0.8523618579,-1.65444386,-2.909043789
37,1.55965562498e+18,-4.338426113,1.041509509,9.701601982
38,1.55965562503e+18,-3.974496126,4.963331699,-5.813299179
39,1.55965562508e+18,2.054287672,-1.86514008,6.732700825
40,1.55965562513e+18,18.60830307,-30.6203804,10.40312386
41,1.55965562518e+18,12.48853779,-12.32572651,8.889942169
42,1.55965562524e+18,5.691191196,-1.422199249,7.50844574
43,1.55965562529e+18,6.924242973,8.935433388,10.29059315
44,1.55965562534e+18,9.900326729,7.130150318,8.74149704
45,1.55965562539e+18,12.22516727,1.268965602,10.14454269
46,1.55965562544e+18,14.35367775,-16.59471893,9.016839027
47,1.5596556255e+18,10.88676739,-6.919454098,7.582668304
48,1.55965562555e+18,6.694392204,2.047105074,4.810098171
49,1.5596556256e+18,8.947404861,-2.827638626,6.277788639
50,1.55965562565e+18,-15.20843315,8.691217422,-21.56044388
51,1.5596556257e+18,-4.008016109,1.903448462,-7.374366283
52,1.55965562576e+18,0.2585816681,-13.18766594,17.19568253
53,1.55965562581e+18,16.19487572,-35.96200943,14.51888275
54,1.55965562586e+18,11.00648117,-17.97142601,11.61462688
55,1.55965562591e+18,6.390319347,6.510033131,2.46131444
56,1.55965562596e+18,8.861210823,3.641691923,1.939362645
57,1.55965562601e+18,7.929838181,-7.889135361,5.581054688
58,1.55965562607e+18,6.823683262,-7.233104229,2.030344963
59,1.55965562612e+18,1.144463301,6.431022167,11.74870682
60,1.55965562617e+18,-12.96499825,-4.884320736,-0.8834874034
61,1.55965562622e+18,11.93067169,-16.55880547,16.74316406
62,1.55965562627e+18,4.029564381,-13.02964306,-6.438204765
63,1.55965562633e+18,-1.290514112,-4.843617916,1.175588965
64,1.55965562638e+18,5.746259689,-19.07997513,2.856369734
65,1.55965562643e+18,9.071907043,-17.84931946,8.578686714
66,1.55965562648e+18,8.07828331,-12.37121773,5.813299179
67,1.55965562653e+18,7.237892628,-2.253012657,4.510813713
68,1.55965562659e+18,5.408666611,10.08468533,5.248250484
69,1.55965562664e+18,8.75586319,7.915472507,3.687183142
70,1.55965562669e+18,7.788576126,-2.073441982,-3.962524891
71,1.55965562674e+18,20.97145271,-30.51503181,10.91549873
72,1.55965562679e+18,-19.02490807,18.65379524,-11.40153694
73,1.55965562685e+18,5.114171028,-25.98266983,17.57397652
74,1.5596556269e+18,19.52531052,-22.18535042,4.314483166
75,1.55965562695e+18,0.6943396926,-3.792531252,0.2561874092
76,1.559655627e+18,-2.35357213,-3.354378939,0.3687183261
77,1.55965562705e+18,-0.7757450342,-3.845205307,6.675238132
78,1.55965562711e+18,12.79979324,-17.01371765,6.605803967
79,1.55965562716e+18,15.60827732,-11.06394386,7.300143719
80,1.55965562721e+18,14.43747711,0.1915419847,2.595393896
81,1.55965562726e+18,5.456552505,1.491633177,0.8116591573
82,1.55965562731e+18,4.89629221,-13.58272076,23.69134903
83,1.55965562737e+18,-26.26758957,22.34337234,-19.17574692
84,1.55965562742e+18,-0.6081457734,-10.2618618,11.69363785
85,1.55965562747e+18,22.51097107,-43.63087082,14.4949398
86,1.55965562752e+18,7.788576126,-32.4065094,6.615381241
87,1.55965562757e+18,3.423812866,-15.02407455,3.488458395
88,1.55965562763e+18,4.865166187,-2.978477955,3.201145411
89,1.55965562768e+18,0.6656084061,2.521171331,2.106961727
90,1.55965562773e+18,5.861184597,-4.348002911,4.063084126
91,1.55965562778e+18,12.8931694,-10.50128937,7.024802208
92,1.55965562783e+18,16.44148445,-4.795732498,6.016812801
93,1.55965562789e+18,9.86680603,-2.794118643,6.644112587
94,1.55965562794e+18,4.094210148,4.489265442,3.000026226
95,1.55965562799e+18,-2.391880512,4.869955063,1.300091267
96,1.55965562804e+18,-1.16601181,3.129317284,2.686376333
97,1.55965562809e+18,-4.065478802,1.340793848,-0.3902668059
98,1.55965562815e+18,12.0479908,-16.67612457,6.778192043
99,1.5596556282e+18,4.671230316,-11.14774323,14.88520622
100,1.55965562825e+18,5.018400192,-35.86144638,-4.85319519
101,1.5596556283e+18,12.53881741,-15.88840771,8.312922478
102,1.55965562835e+18,7.778998852,0.2609759569,7.671256542
103,1.55965562841e+18,9.723150253,-1.063058019,9.062330246
104,1.55965562846e+18,13.3193512,-6.780586243,13.02964306
105,1.55965562851e+18,16.6689415,-19.60910988,6.684815407
106,1.55965562856e+18,7.623371124,-11.46857643,3.77337718
107,1.55965562861e+18,4.192375183,-2.336812258,6.739883423
108,1.55965562867e+18,-6.249057293,-0.1532335877,0.926584363
109,1.55965562872e+18,0.6871568561,1.364736676,-1.541913033
110,1.55965562877e+18,17.25793266,1.869928598,3.361561775
111,1.55965562882e+18,-15.43349552,-4.685595989,-8.15968895
112,1.55965562887e+18,-5.619362831,-0.1604164094,-4.541939259
113,1.55965562893e+18,22.25478363,-23.2029171,12.50769138
114,1.55965562898e+18,14.51169968,-28.12315178,4.122941017
115,1.55965562903e+18,5.542746067,-0.4668835998,4.163643837
116,1.55965562908e+18,4.925023079,-4.2426548,5.06867981
117,1.55965562913e+18,4.132518291,-7.522811413,6.885934353
118,1.55965562919e+18,14.15016365,-21.00018501,3.847599506
119,1.55965562924e+18,15.97460175,-10.2570734,6.284971237
120,1.55965562929e+18,12.12700176,0.1053480953,2.616942406
121,1.55965562934e+18,6.991282463,3.768588543,-0.241821751
122,1.55965562939e+18,3.565075159,0.7565908432,-4.726298332
123,1.55965562945e+18,-3.818868399,0.6081457734,0.9337671995
124,1.5596556295e+18,-20.92596245,9.119792938,-18.14142036
125,1.55965562955e+18,8.1453228,-15.69207668,12.8931694
126,1.5596556296e+18,23.41361427,-41.15279388,3.826051235
127,1.55965562965e+18,14.53803635,-13.90355396,3.96731329
128,1.55965562971e+18,6.270605564,-0.6919454336,4.824463844
129,1.55965562976e+18,1.297696948,-0.1125309169,4.649681568
130,1.55965562981e+18,7.800547123,-4.470110893,5.104593754
131,1.55965562986e+18,11.4949131,-10.61860847,9.263449669
132,1.55965562991e+18,12.82373619,-9.105426788,5.724710941
133,1.55965562997e+18,6.543552876,-1.103760719,4.158855438
134,1.55965563002e+18,-3.332830429,-0.1532335877,3.586623669
135,1.55965563007e+18,-3.797319889,-0.4860377908,-3.325647593
136,1.55965563012e+18,-2.130904675,1.661626697,-2.909043789
137,1.55965563017e+18,7.178035736,-2.475680113,5.782173634
138,1.55965563023e+18,6.835654736,-4.917840481,7.917866707
139,1.55965563028e+18,4.264203548,-14.4949398,8.743891716
140,1.55965563033e+18,9.49569416,-37.75771332,5.071074009
141,1.55965563038e+18,9.273026466,1.63289547,5.437397957
142,1.55965563043e+18,4.671230316,-2.875524044,3.241847992
143,1.55965563049e+18,4.257020473,-5.118959427,3.845205307
144,1.55965563054e+18,10.93944168,-16.69527817,3.871542454
145,1.55965563059e+18,15.62743187,-11.71997547,10.24510193
146,1.55965563064e+18,11.09985828,-6.414262295,6.586649895
147,1.55965563069e+18,7.039167881,-2.698347807,4.000833035
148,1.55965563075e+18,0.4094209969,2.394274712,0.2106961906
149,1.5596556308e+18,-6.948185444,4.017592907,-8.748680115
150,1.55965563085e+18,3.608172178,-4.515602112,7.142121792
151,1.5596556309e+18,-6.624958515,2.432583094,0.3112557232
152,1.55965563095e+18,4.374340057,-10.8101511,4.024775982
153,1.55965563101e+18,16.04403496,-34.33629608,9.627379417
154,1.55965563106e+18,10.84127617,-17.50693703,7.520417213
155,1.55965563111e+18,5.164450645,0.9960182905,6.105400562
156,1.55965563116e+18,3.524372578,-3.033546209,3.64648056
157,1.55965563121e+18,5.748653889,-9.447808266,3.462121487
158,1.55965563127e+18,18.0480442,-11.60265541,7.925049782
159,1.55965563132e+18,12.30178356,-9.859623909,3.974496126
160,1.55965563137e+18,10.90113354,-2.233858347,9.31133461
161,1.55965563142e+18,4.415042877,1.838803053,5.17402792
162,1.55965563147e+18,-3.826051235,5.324867249,0.2561874092
163,1.55965563153e+18,-6.028783798,3.047911882,-9.162889481
164,1.55965563158e+18,8.3153162,-5.401484013,-10.62339687
165,1.55965563163e+18,7.951386452,-2.901860952,-9.493299484
166,1.55965563168e+18,8.030397415,-11.22436047,-4.60419035
167,1.55965563173e+18,24.59399033,-22.94433594,9.220352173
168,1.55965563179e+18,2.909043789,-8.968953133,8.578686714
169,1.55965563184e+18,5.413455486,1.288119793,6.732700825
170,1.55965563189e+18,7.731113434,-10.57311726,4.517996788
171,1.55965563194e+18,12.00728798,-22.14225388,1.731060743
172,1.55965563199e+18,19.2810955,-9.457385063,1.161223292
173,1.55965563205e+18,5.990475655,-5.612180233,6.672843933
174,1.5596556321e+18,-1.541913033,-7.829278469,2.43976593
175,1.55965563215e+18,-2.059076309,2.358360767,-7.307326794
176,1.5596556322e+18,21.20848656,3.593806505,-0.646454215
177,1.55965563225e+18,-13.71201229,13.63300037,-1.163617611
178,1.55965563231e+18,1.711906433,-0.9026415944,5.408666611
179,1.55965563236e+18,21.52931976,-17.26511574,2.080624819
180,1.55965563241e+18,20.65301514,-37.87024307,-5.162056446
181,1.55965563246e+18,13.72158909,-13.69285774,-2.581028223
182,1.55965563251e+18,10.23313046,-3.241847992,5.844424725
183,1.55965563257e+18,6.979310989,-2.810878515,1.757397652
184,1.55965563262e+18,5.923435688,-12.18206978,-1.659232497
185,1.55965563267e+18,13.09907722,-13.494133,0.1077423692
186,1.55965563272e+18,7.371972084,-7.381549358,-0.9768640995
187,1.55965563277e+18,5.035160065,-0.6632141471,3.258608103
188,1.55965563283e+18,1.71669507,5.502043724,6.395108223
189,1.55965563288e+18,-3.921822071,7.944203854,1.419804931
190,1.55965563293e+18,7.616188049,-2.379909277,7.470137596
191,1.55965563298e+18,-3.488458395,18.47183037,-7.881952763
192,1.55965563303e+18,18.7759037,-30.55813026,3.536343813
193,1.55965563309e+18,17.36088753,-30.59404373,5.032765865
194,1.55965563314e+18,9.349642754,-14.00171947,2.58581686
195,1.55965563319e+18,5.166844845,-6.957762718,2.200338602
196,1.55965563324e+18,2.959323645,-2.640885115,4.486870766
197,1.55965563329e+18,6.308914185,-5.494860649,5.102199554
198,1.55965563335e+18,11.47815323,-11.08070374,3.644086361
199,1.5596556334e+18,11.21478367,-4.046324253,6.478907585
200,1.55965563345e+18,6.507638931,3.304099321,2.9258039
201,1.5596556335e+18,-0.03830839694,2.205127001,-0.4980091453
202,1.55965563355e+18,-6.253845692,6.76382637,-4.060689926
203,1.55965563361e+18,-5.308107376,9.323306084,-6.172440529
204,1.55965563366e+18,37.97080231,-7.077476501,17.37285805
205,1.55965563371e+18,21.73043823,-15.54842091,4.687990189
206,1.55965563376e+18,9.663292885,-34.34347916,-1.154040456
207,1.55965563381e+18,8.286584854,-16.09671021,3.567469358
208,1.55965563387e+18,8.377567291,-1.699935079,7.04395628
209,1.55965563392e+18,7.541965485,-2.212309837,6.232297421
210,1.55965563397e+18,11.46857643,-5.305713177,6.205960274
211,1.55965563402e+18,12.08390522,-7.544359684,5.408666611
212,1.55965563407e+18,9.656110764,-10.47734642,3.361561775
213,1.55965563413e+18,5.454157829,-3.387898922,-0.3064671755
214,1.55965563418e+18,2.059076309,1.924996972,3.074248791
215,1.55965563423e+18,-2.147664547,4.778972626,1.16601181
216,1.55965563428e+18,0.5027977228,3.253819466,2.873129845
217,1.55965563433e+18,-11.60265541,4.290540695,-9.799766541
218,1.55965563439e+18,0.5506832004,-6.703969479,3.517189741
219,1.55965563444e+18,20.77033424,-53.89512634,5.698374271
220,1.55965563449e+18,13.11344337,-14.57155609,5.281770229
221,1.55965563454e+18,4.245049,-1.596981287,4.625739098
222,1.55965563459e+18,2.209915638,-0.9720755816,5.217124939
223,1.55965563465e+18,6.162863255,-4.726298332,7.568302631
224,1.5596556347e+18,18.13423729,-8.269824982,10.2666502
225,1.55965563475e+18,14.04481602,-10.43424988,7.86519289
226,1.5596556348e+18,6.962551117,-2.858764172,10.90113354
227,1.55965563485e+18,1.649655342,-1.67599237,-0.8834874034
228,1.55965563491e+18,-1.295302629,-0.1364736706,-10.49650097
229,1.55965563496e+18,0.5674431324,3.526766777,-1.577827096
230,1.55965563501e+18,-13.89637089,5.078257084,-12.67768478
231,1.55965563506e+18,9.850046158,-13.4893446,-2.909043789
232,1.55965563511e+18,22.47984695,-31.44161606,7.690410614
233,1.55965563517e+18,10.05595398,-24.1342907,2.715107679
234,1.55965563522e+18,9.349642754,-4.302511692,8.918673515
235,1.55965563527e+18,5.080651283,3.600989342,8.470944405
236,1.55965563532e+18,2.964112282,-5.593026161,5.118959427
237,1.55965563537e+18,10.31214142,-18.55562973,4.312088966
238,1.55965563543e+18,16.87245369,-9.86680603,3.387898922
239,1.55965563548e+18,11.58829021,-8.719948769,-2.171607256
240,1.55965563553e+18,4.690384388,-6.974522591,-3.866753817
241,1.55965563558e+18,-5.624151707,5.868367672,-3.694365978
242,1.55965563563e+18,22.35055542,4.513207912,25.27635956
243,1.55965563569e+18,-16.40078163,13.84848595,-11.62899303
244,1.55965563574e+18,6.371165276,-20.94511604,0.8786988258
245,1.55965563579e+18,20.31542206,-33.8718071,9.579493523
246,1.55965563584e+18,7.115784645,-18.9219532,-5.305713177
247,1.55965563589e+18,1.575432777,-6.277788639,2.051893473
248,1.55965563595e+18,3.703943014,1.65444386,3.526766777
249,1.559655636e+18,4.515602112,-3.567469358,4.676018715
250,1.55965563605e+18,7.314509392,-8.367990494,1.470084786
251,1.5596556361e+18,19.30264282,-13.92270756,0.1005595401
252,1.55965563615e+18,13.47976685,-10.71916866,0.6584255695
253,1.55965563621e+18,5.897099018,-3.471698523,0.07901106775
254,1.55965563626e+18,-1.738243461,4.75024128,-3.759011507
255,1.55965563631e+18,5.633728504,0.2681587934,4.910657406
256,1.55965563636e+18,-8.174054146,11.05676079,-8.751074791
257,1.55965563641e+18,-4.240260601,-4.628133297,0.5099805593
258,1.55965563647e+18,23.98344994,-32.10243607,11.90194035
259,1.55965563652e+18,9.035993576,-25.55409431,1.963305354
260,1.55965563657e+18,9.191620827,-13.36963081,1.359948039
261,1.55965563662e+18,5.755836487,0.8906702399,4.477293968
262,1.55965563667e+18,-1.494027495,-4.221106529,-2.399063349
263,1.55965563673e+18,7.745479107,-8.684034348,4.755029678
264,1.55965563678e+18,17.48299408,-11.58589554,7.616188049
265,1.55965563683e+18,7.443800449,-8.736708641,6.179623127
266,1.55965563688e+18,4.66883564,-0.8427847624,2.669616461
267,1.55965563693e+18,1.596981287,4.721509933,2.695953369
268,1.55965563699e+18,4.666441441,2.181184292,8.111803055
269,1.55965563704e+18,10.22834206,1.924996972,3.059883118
270,1.55965563709e+18,-7.448588848,1.565855742,-2.648067951
271,1.55965563714e+18,2.061470509,-3.265790939,-0.1628106833
272,1.55965563719e+18,12.71599388,-19.80783463,5.425426483
273,1.55965563725e+18,17.36567497,-21.57959938,5.099805355
274,1.5596556373e+18,6.201171875,-11.45421028,3.871542454
275,1.55965563735e+18,3.038334846,-0.634482801,2.490045786
276,1.5596556374e+18,8.250671387,-5.075862408,7.503657341
277,1.55965563745e+18,11.54040432,-25.03453827,3.282550812
278,1.5596556375e+18,12.62501144,-14.95224571,6.72551775
279,1.55965563756e+18,7.709564686,-8.221940041,5.758230686
280,1.55965563761e+18,4.38870573,0.8236305118,-0.9385557175
281,1.55965563766e+18,-1.309668303,4.441379547,-6.773403645
282,1.55965563771e+18,3.055094719,6.136526108,-0.7757450342
283,1.55965563776e+18,-6.979310989,-1.922602654,-3.162837029
284,1.55965563782e+18,14.69366455,-19.17574692,30.33306694
285,1.55965563787e+18,4.280963421,-13.34089947,9.462174416
286,1.55965563792e+18,0.2490045726,-24.48864365,2.681587696
287,1.55965563797e+18,6.751854897,-18.55802345,5.892310143
288,1.55965563802e+18,11.14774323,3.581835032,1.118126392
289,1.55965563808e+18,0.5506832004,-6.457359314,3.186779737
290,1.55965563813e+18,10.6545229,-13.18527126,4.958543301
291,1.55965563818e+18,17.52848625,-10.69522572,10.77663136
292,1.55965563823e+18,3.75422287,-10.58030033,4.965725899
293,1.55965563828e+18,2.648067951,-4.597007751,3.071854591
294,1.55965563834e+18,-0.004788549617,2.238646984,-5.154873848
295,1.55965563839e+18,-5.475706577,2.77735877,-4.589824677
296,1.55965563844e+18,-10.67607117,9.342460632,-1.659232497
297,1.55965563849e+18,-9.213169098,2.645673752,-6.215537548
298,1.55965563854e+18,9.723150253,-19.15419769,5.157268047
299,1.5596556386e+18,22.47745132,-54.2399025,-2.875524044
300,1.55965563865e+18,-1.896265626,-13.06316376,-2.126116037
301,1.5596556387e+18,11.22196579,-1.072635174,7.470137596
302,1.55965563875e+18,2.320052385,-5.391906738,3.354378939
303,1.5596556388e+18,5.399089813,-8.485309601,4.577853203
304,1.55965563886e+18,10.51326084,-14.77267551,1.82443738
305,1.55965563891e+18,9.756669998,-5.509226322,8.554743767
306,1.55965563896e+18,11.23872566,-1.642472506,6.239480019
307,1.55965563901e+18,3.292127848,2.090201855,-2.176395893
308,1.55965563906e+18,-1.477267504,4.417437077,-4.441379547
309,1.55965563912e+18,12.32572651,0.08140534163,4.371945858
310,1.55965563917e+18,-9.581888199,-0.4525179267,-7.40070343
311,1.55965563922e+18,-0.4094209969,-4.608979225,5.272192955
312,1.55965563927e+18,16.04882431,-20.56921577,10.99690437
313,1.55965563932e+18,3.883513689,-28.85819435,2.456526041
314,1.55965563938e+18,10.83648777,-9.481328011,5.892310143
315,1.55965563943e+18,9.701601982,5.444581032,5.415849686
316,1.55965563948e+18,0.6871568561,-11.59307861,0.8954587579
317,1.55965563953e+18,5.183605194,-14.72000122,4.652075768
318,1.55965563958e+18,9.531607628,-9.529213905,8.425453186
319,1.55965563964e+18,10.03201103,0.002394274808,12.12221336
320,1.55965563969e+18,6.158074856,4.13730669,6.567495823
321,1.55965563974e+18,-0.1221080124,2.085413456,-4.532361984
322,1.55965563979e+18,-2.707924843,2.844398499,1.225868702
323,1.55965563984e+18,-11.82053471,3.261002302,-2.437371731
324,1.5596556399e+18,-3.64887476,1.096577883,0.4956148863
325,1.55965563995e+18,6.701575279,-18.22521973,14.22917557
326,1.55965564e+18,12.9410553,-25.44874763,15.4406786
327,1.55965564005e+18,11.26027489,-12.62022209,8.612206459
328,1.5596556401e+18,2.188367128,-6.61777544,7.503657341
329,1.55965564016e+18,7.297749519,-2.456526041,7.211555958
330,1.55965564021e+18,8.056735039,-5.624151707,6.751854897
331,1.55965564026e+18,10.56114578,-10.74311066,8.166871071
332,1.55965564031e+18,6.684815407,-3.706337452,8.537983894
333,1.55965564036e+18,3.639297724,3.181991339,9.158101082
334,1.55965564042e+18,1.015172482,1.86514008,6.9098773
335,1.55965564047e+18,-2.238646984,-1.745426297,0.7158881426
336,1.55965564052e+18,15.54123783,-2.978477955,1.649655342
337,1.55965564057e+18,-21.03130913,6.249057293,-11.73912907
338,1.55965564062e+18,0.0287312977,-8.724737167,14.320158
339,1.55965564068e+18,6.59143877,-38.02826691,8.391933441
340,1.55965564073e+18,18.0480442,-19.01772499,9.076695442
341,1.55965564078e+18,5.463735104,-14.37283134,3.699154615
342,1.55965564083e+18,-0.4716721475,-4.43180275,2.013585091
343,1.55965564088e+18,7.520417213,-4.783761024,4.213923454
344,1.55965564094e+18,12.19164753,-3.888302326,7.297749519
345,1.55965564099e+18,10.29059315,2.660039425,10.62339687
346,1.55965564104e+18,6.76382637,4.21631813,4.405465603
347,1.55965564109e+18,4.472505569,2.327235222,0.0287312977
348,1.55965564114e+18,5.51640892,-1.034326673,1.283331275
349,1.5596556412e+18,-23.23643684,11.92827702,-17.10470009
350,1.55965564125e+18,-9.493299484,22.99461555,-9.73751545
351,1.5596556413e+18,10.72395706,-27.80950165,11.98813438
352,1.55965564135e+18,23.94274902,-46.08260727,7.987300873
353,1.5596556414e+18,-7.264229774,-20.32260513,-1.307274103
354,1.55965564146e+18,2.794118643,-16.6689415,1.889082789
355,1.55965564151e+18,5.212336063,-4.206740856,9.071907043
356,1.55965564156e+18,9.095849991,-2.595393896,9.227535248
357,1.55965564161e+18,15.82855034,-7.264229774,7.000859737
358,1.55965564166e+18,14.29621506,-4.680807114,-1.388679385
359,1.55965564172e+18,11.52603912,-2.707924843,-0.3519583941
360,1.55965564177e+18,6.182017326,-0.06943397224,-2.667222023
361,1.55965564182e+18,-0.5291347504,2.463708878,-0.44533512
362,1.55965564187e+18,-2.648067951,3.229876757,-9.009655952
363,1.55965564192e+18,-8.906702042,8.466156006,-10.18763924
364,1.55965564198e+18,4.297723293,-10.2666502,4.565882206
365,1.55965564203e+18,31.40330887,-51.55831528,10.05356026
366,1.55965564208e+18,-0.8020820618,-21.80705452,-5.267404556
367,1.55965564213e+18,8.949799538,-7.93223238,1.206714511
368,1.55965564218e+18,-1.879505754,-0.1245022863,-1.812466025
369,1.55965564224e+18,0.316044271,-7.046350956,-0.6847625971
370,1.55965564229e+18,11.92588329,-11.94024849,2.145270348
371,1.55965564234e+18,13.45582485,-9.936240196,6.217931747
372,1.55965564239e+18,32.26285172,-14.78225231,16.34331894
373,1.55965564244e+18,-13.13020325,15.26350212,-14.72957897
374,1.5596556425e+18,-22.35055542,24.20851326,-11.55955887
375,1.55965564255e+18,5.796539307,10.64255142,4.245049
376,1.5596556426e+18,10.98732662,-28.93002319,16.53007317
377,1.55965564265e+18,13.37920761,-25.93717957,0.6919454336
378,1.5596556427e+18,-5.502043724,-22.4846344,-3.0981915
379,1.55965564276e+18,3.656057596,-14.87084103,3.20353961
380,1.55965564281e+18,7.443800449,-3.569863796,6.845231533
381,1.55965564286e+18,8.111803055,0.3495641351,8.868393898
382,1.55965564291e+18,12.39994907,-8.363202095,9.304151535
383,1.55965564296e+18,4.522785187,-10.88197899,5.741470814
384,1.55965564302e+18,0.1652049571,-5.904281616,7.810124397
385,1.55965564307e+18,-0.299284339,-2.645673752,-0.5458946824
386,1.55965564312e+18,3.081431627,9.021627426,-10.51086617
387,1.55965564317e+18,4.201952457,8.643332481,-10.30016994
388,1.55965564322e+18,8.813325882,6.045543671,2.33441782
389,1.55965564328e+18,-13.17329979,-3.984073162,-13.13738632
390,1.55965564333e+18,9.251478195,-17.82777023,10.32411289
391,1.55965564338e+18,19.6402359,-40.01311874,4.795732498
392,1.55965564343e+18,5.202759266,-13.38639069,5.193181992
393,1.55965564348e+18,5.700768471,-2.039922237,6.838048935
394,1.55965564354e+18,2.456526041,-7.352818012,3.548315287
395,1.55965564359e+18,5.66485405,-9.921875,6.80452919
396,1.55965564364e+18,10.13496494,-9.835680962,2.45892024
397,1.55965564369e+18,9.01923275,-9.184437752,7.352818012
398,1.55965564374e+18,6.993676662,2.262589693,-4.467716694
399,1.5596556438e+18,3.869148016,8.595446587,-5.253038883
400,1.55965564385e+18,-1.264177084,7.948992252,-2.652856588
401,1.5596556439e+18,18.91955948,6.186806202,18.43112755
402,1.55965564395e+18,-6.823683262,-1.199531674,-6.220325947
403,1.559655644e+18,6.715940952,-23.76557159,3.445361376
404,1.55965564406e+18,19.93951988,-33.88377762,-1.939362645
405,1.55965564411e+18,4.185192585,-20.46386719,1.12530911
406,1.55965564416e+18,6.921848297,0.6727912426,7.04156208
407,1.55965564421e+18,3.852388144,0.5219519138,4.192375183
408,1.55965564426e+18,9.383162498,-11.68406105,4.49644804
409,1.55965564432e+18,16.19008636,-15.19167328,4.022381783
410,1.55965564437e+18,10.35763264,-9.21795845,-0.6392713785
411,1.55965564442e+18,7.199584484,-7.0822649,-2.174001455
412,1.55965564447e+18,-0.3280156553,-1.204320192,-5.166844845
413,1.55965564452e+18,-3.644086361,4.573064804,-7.685622215
414,1.55965564458e+18,-0.5243461728,6.945791245,13.71680069
415,1.55965564463e+18,-16.95625496,2.806090117,4.793338299
416,1.55965564468e+18,1.913025618,-19.37447166,4.795732498
417,1.55965564473e+18,14.48057365,-45.32601547,-0.7637736797
418,1.55965564478e+18,4.857983589,-12.34966946,-0.2202732861
419,1.55965564484e+18,5.803721905,-2.152452946,7.345634937
420,1.55965564489e+18,6.30173111,-3.411841631,1.608952641
421,1.55965564494e+18,6.225114346,-8.576292038,4.118152618
422,1.55965564499e+18,14.39438057,-12.51726913,5.935407162
423,1.55965564504e+18,8.344047546,-9.58907032,4.046324253
424,1.5596556451e+18,6.289760113,-2.782147408,2.298503876
425,1.55965564515e+18,-1.003201127,5.858790398,-0.3112557232
426,1.5596556452e+18,2.310475111,6.155680656,3.565075159
427,1.55965564525e+18,-10.64733982,-7.738296032,4.53715086
428,1.5596556453e+18,-13.54680729,0.9002473354,-8.710371971
429,1.55965564536e+18,8.221940041,-16.7862606,9.368797302
430,1.55965564541e+18,24.03133583,-43.82241058,-10.00567436
431,1.55965564546e+18,10.33129597,-13.4893446,0.1508393139
432,1.55965564551e+18,11.5380106,0.2322446555,3.835628271
433,1.55965564556e+18,1.541913033,-2.767781734,-1.819648862
434,1.55965564562e+18,1.927391171,-6.522004604,0.3447755575
435,1.55965564567e+18,7.54914856,-14.62423038,5.23867321
436,1.55965564572e+18,8.480521202,-11.74631214,9.124581337
437,1.55965564577e+18,10.51086617,-4.85319519,9.876383781
438,1.55965564582e+18,4.970514297,5.858790398,5.236279011
439,1.55965564588e+18,-3.177202702,7.101418972,1.642472506
440,1.55965564593e+18,-7.884346962,2.166818619,-0.9553156495
441,1.55965564598e+18,-5.846818924,7.027196407,-9.883566856
442,1.55965564603e+18,-1.577827096,-0.9960182905,0.5602602959
443,1.55965564608e+18,11.48294163,-35.28442764,15.57954597
444,1.55965564614e+18,17.20046997,-28.49905396,8.018425941
445,1.55965564619e+18,7.46774292,-4.348002911,1.819648862
446,1.55965564624e+18,-1.338399649,-4.549122334,-2.18357873
447,1.55965564629e+18,0.3687183261,-9.026415825,0.004788549617
448,1.55965564634e+18,10.2714386,-13.66173172,3.284945011
449,1.5596556464e+18,10.75987053,-14.31297493,6.210748672
450,1.55965564645e+18,7.448588848,-2.260195494,3.782954216
451,1.5596556465e+18,-3.787742853,12.70402241,5.169239521
452,1.55965564655e+18,3.569863796,18.68970871,14.83253288
453,1.5596556466e+18,-1.568249941,3.079037428,7.886741161
454,1.55965564666e+18,0.3711125851,-17.82537651,1.800494671
455,1.55965564671e+18,10.01046276,-37.14956665,4.075055599
456,1.55965564676e+18,1.458113313,-22.26914978,-0.5746259689
457,1.55965564681e+18,3.727885962,-12.54121113,2.712713242
458,1.55965564686e+18,3.344801903,-8.561926842,7.767027378
459,1.55965564692e+18,5.087833881,0.7039167881,6.945791245
460,1.55965564697e+18,5.305713177,-12.47417164,9.598648071
461,1.55965564702e+18,3.495641232,-7.819701672,5.420638084
462,1.55965564707e+18,4.513207912,-0.04070267081,5.09262228
463,1.55965564712e+18,10.88676739,-3.691971779,10.45340347
464,1.55965564718e+18,1.290514112,1.913025618,0.8260248303
465,1.55965564723e+18,-5.430215359,-1.860351562,-8.47812748
466,1.55965564728e+18,-5.24106741,-2.363149166,-4.611373425
467,1.55965564733e+18,-4.326454639,-8.449396133,-0.4309694767
468,1.55965564738e+18,6.423839092,-29.11438179,16.04643059
469,1.55965564744e+18,10.78381348,-28.80312538,6.780586243
470,1.55965564749e+18,12.45022869,-12.18685913,6.29933691
471,1.55965564754e+18,5.020794392,0.8044763207,8.801354408
472,1.55965564759e+18,3.656057596,-6.55073595,5.784567833
473,1.55965564764e+18,7.960963726,-8.743891716,8.475732803
474,1.5596556477e+18,9.301757812,-2.411034822,8.095043182
475,1.55965564775e+18,13.86763954,4.606584549,8.238699913
476,1.5596556478e+18,7.324086666,2.956929445,3.067065954
477,1.55965564785e+18,-0.3495641351,2.760598898,1.786128998
478,1.5596556479e+18,0.0837996155,5.593026161,-0.2801301479
479,1.55965564796e+18,5.595420361,-4.843617916,6.375953674
480,1.55965564801e+18,-9.160495758,-8.729525566,-0.7087053657
481,1.55965564806e+18,-12.23713875,-6.392713547,-1.992036581
482,1.55965564811e+18,7.266623974,-20.36091232,10.19721603
483,1.55965564816e+18,7.261835575,-30.04335976,4.625739098
484,1.55965564822e+18,21.48143387,-9.040781975,6.80452919
485,1.55965564827e+18,9.349642754,-2.169213057,7.898712635
486,1.55965564832e+18,8.549955368,-8.025609016,9.565128326
487,1.55965564837e+18,10.11581135,-6.490879059,10.82691097
488,1.55965564842e+18,9.658504486,-4.158855438,10.61621475
489,1.55965564848e+18,8.475732803,2.154847383,10.73114014
490,1.55965564853e+18,4.482082367,1.063058019,5.724710941
491,1.55965564858e+18,-1.819648862,-2.279349566,6.076669693
492,1.55965564863e+18,-10.25467873,-0.9936240315,-5.633728504
493,1.55965564868e+18,-13.4845562,4.146883965,-1.970488191
494,1.55965564874e+18,-8.111803055,2.090201855,-3.96731329
495,1.55965564879e+18,6.320885658,-9.457385063,15.75911713
496,1.55965564884e+18,6.581861496,-30.51024437,5.66485405
497,1.55965564889e+18,19.40559769,-20.87089348,9.569916725
498,1.55965564894e+18,7.352818012,-6.117372036,5.430215359
499,1.559655649e+18,5.947378635,-5.071074009,3.512401104
500,1.55965564905e+18,10.56832886,-4.994457245,7.769421577
501,1.5596556491e+18,13.71440601,-9.96257782,6.861991405
502,1.55965564915e+18,10.9849329,-6.490879059,6.718335152
503,1.5596556492e+18,7.300143719,-17.40637779,30.39771271
504,1.55965564926e+18,-18.80942345,9.64413929,-8.528407097
505,1.55965564931e+18,-18.20845985,16.41275406,-8.58108139
506,1.55965564936e+18,4.043930054,-1.486844659,8.367990494
507,1.55965564941e+18,10.41030693,-20.3872509,7.292961121
508,1.55965564946e+18,10.69283104,-24.20611763,4.096604347
509,1.55965564952e+18,8.363202095,-20.54527283,1.247417212
510,1.55965564957e+18,3.742251635,-14.7223959,0.6536370516
511,1.55965564962e+18,3.445361376,-8.303344727,4.012804508
512,1.55965564967e+18,5.221913338,-0.8451790214,7.096630573
513,1.55965564972e+18,7.40309763,-6.536370277,6.890722752
514,1.55965564978e+18,11.48773098,-7.582668304,10.57311726
515,1.55965564983e+18,13.23555088,-2.190761566,8.068706512
516,1.55965564988e+18,10.2474966,-0.8571503758,-0.102953814
517,1.55965564993e+18,0.6249057055,1.601769805,-2.9258039
518,1.55965564998e+18,-3.20353961,0.950527072,-5.413455486
519,1.55965565004e+18,-4.800520897,5.741470814,-0.7805336118
520,1.55965565009e+18,-3.337619066,4.240260601,1.944151163
521,1.55965565014e+18,30.9986763,-12.86922741,22.26914978
522,1.55965565019e+18,10.09426212,-15.64419174,6.814105988
523,1.55965565024e+18,5.396695614,-34.1734848,8.243488312
524,1.5596556503e+18,5.676825523,-10.82212257,1.561067224
525,1.55965565035e+18,4.369551659,-1.628106833,5.540351868
526,1.5596556504e+18,6.854808807,-4.144489765,6.359193802
527,1.55965565045e+18,7.2546525,-12.31375504,8.190814018
528,1.5596556505e+18,17.43032074,-9.2035923,6.012023926
529,1.55965565056e+18,10.9849329,-6.179623127,5.511620522
530,1.55965565061e+18,6.450176239,-0.09577099234,2.650462151
531,1.55965565066e+18,-0.964892745,3.0957973,-0.6249057055
532,1.55965565071e+18,4.000833035,-2.434977531,3.028757572
533,1.55965565076e+18,12.13897324,0.167599231,4.316877365
534,1.55965565082e+18,-5.047131062,3.64648056,-8.054340363
535,1.55965565087e+18,2.992843628,-2.487651587,-2.193155766
536,1.55965565092e+18,9.457385063,-12.99612331,7.319298267
537,1.55965565097e+18,15.49814129,-15.13660526,4.711932659
538,1.55965565102e+18,-1.233051538,-16.12783432,0.07422251999
539,1.55965565108e+18,5.640911579,-1.46290195,3.749434233
540,1.55965565113e+18,8.071100235,-10.02961731,4.194769382
541,1.55965565118e+18,15.41912937,-16.81738663,5.741470814
542,1.55965565123e+18,14.83492661,-11.44702816,4.259414673
543,1.55965565128e+18,9.426259995,-4.460534096,5.17402792
544,1.55965565134e+18,3.486064196,2.14287591,2.138087511
545,1.55965565139e+18,-2.892283916,7.027196407,-2.298503876
546,1.55965565144e+18,-3.289733648,4.228289127,-3.505218267
547,1.55965565149e+18,2.229069948,-2.229069948,16.8341465
548,1.55965565154e+18,-2.612153769,-2.762993097,3.442967176
549,1.5596556516e+18,-6.59143877,-6.440599442,2.686376333
550,1.55965565165e+18,11.26506329,-29.69140244,1.036720991
551,1.5596556517e+18,11.89954567,-7.78618145,6.771008968
552,1.55965565175e+18,5.590631485,-6.392713547,2.830032825
553,1.5596556518e+18,2.408640385,-8.181237221,4.316877365
554,1.55965565186e+18,12.07193375,-21.70649529,4.570670605
555,1.55965565191e+18,12.91471863,-13.50849819,7.836461544
556,1.55965565196e+18,6.80452919,-6.93621397,-0.928978622
557,1.55965565201e+18,6.335251331,0.08858817071,0.3950553536
558,1.55965565206e+18,-2.408640385,7.965752125,0.2154847383
559,1.55965565212e+18,-1.448536277,-5.166844845,18.16296959
560,1.55965565217e+18,-6.217931747,13.67130947,-4.065478802
561,1.55965565222e+18,-3.160442829,-6.241874218,-3.13889432
562,1.55965565227e+18,14.65775013,-26.06886482,11.56913567
563,1.55965565232e+18,6.86917448,-35.09767532,-4.003227711
564,1.55965565238e+18,9.763853073,-0.3016786277,0.8978530765
565,1.55965565243e+18,2.185972929,-2.82045579,2.305686712
566,1.55965565248e+18,3.514795303,-4.343214512,4.343214512
567,1.55965565253e+18,6.40468502,-13.35765934,2.264983892
568,1.55965565258e+18,17.38004112,-13.29780197,5.55711174
569,1.55965565264e+18,7.166064739,-11.07831001,5.118959427
570,1.55965565269e+18,-1.225868702,-5.044736862,5.054314137
571,1.55965565274e+18,-2.631308079,6.864386082,-3.050306082
572,1.55965565279e+18,24.6394825,0.6560313106,5.087833881
573,1.55965565284e+18,-6.222720146,3.081431627,-5.231490612
574,1.5596556529e+18,-4.49644804,-1.936968327,-7.067899227
575,1.55965565295e+18,14.62901878,-16.84611702,13.88918781
576,1.559655653e+18,8.887548447,-49.68359756,2.789330244
577,1.55965565305e+18,10.5970602,0.2729473412,4.273780346
578,1.5596556531e+18,4.702355862,-4.508419514,4.170826912
579,1.55965565316e+18,4.130124092,-8.621783257,4.0702672
580,1.55965565321e+18,6.136526108,-18.93392563,1.333611012
581,1.55965565326e+18,11.38956547,-7.776604652,6.373559475
582,1.55965565331e+18,10.86282444,-7.850827217,2.339206457
583,1.55965565336e+18,4.441379547,-1.61134696,-0.7853221297
584,1.55965565342e+18,-5.004034519,7.33605814,-0.6943396926
585,1.55965565347e+18,11.43984509,20.65540886,35.9308815
586,1.55965565352e+18,-15.12224007,18.60351562,-10.49889469
587,1.55965565357e+18,14.16692448,-26.99065971,9.24429512
588,1.55965565362e+18,24.20851326,-34.50149918,8.164477348
589,1.55965565368e+18,0.1939362586,-17.1741333,-6.419050694
590,1.55965565373e+18,-0.5171633363,-9.294574738,1.565855742
591,1.55965565378e+18,2.825244188,0.03591412306,6.44778204
592,1.55965565383e+18,4.898686409,-4.836435318,8.245882034
593,1.55965565388e+18,6.641718388,-8.27461338,8.205180168
594,1.55965565393e+18,14.98576641,-4.695172787,8.717555046
595,1.55965565399e+18,14.27466679,-5.70555687,-0.7494080067
596,1.55965565404e+18,5.619362831,0.6033572555,-0.5746259689
597,1.55965565409e+18,2.272166729,1.252205729,1.747820616
598,1.55965565414e+18,-3.984073162,1.635289669,-1.934574008
599,1.55965565419e+18,-0.1508393139,1.659232497,-2.008796453
600,1.55965565425e+18,0.3974496126,-8.609811783,7.774210453
601,1.5596556543e+18,22.70730209,-4.817280769,-3.524372578
602,1.55965565435e+18,2.868341208,-12.86922741,2.063864946
603,1.5596556544e+18,9.071907043,-18.30183601,2.569056988
604,1.55965565445e+18,4.065478802,0.6799740195,4.331243038
605,1.55965565451e+18,5.375146866,-6.366376877,4.987274647
606,1.55965565456e+18,6.55313015,-8.224333763,6.572284222
607,1.55965565461e+18,14.18368435,-17.49736023,5.114171028
608,1.55965565466e+18,13.41751575,-10.3097477,7.757450581
609,1.55965565471e+18,8.233911514,-0.4597007632,6.392713547
610,1.55965565477e+18,8.075888634,5.813299179,6.361588001
611,1.55965565482e+18,3.85957098,7.697593689,-2.561874151
612,1.55965565487e+18,2.133298874,-0.6584255695,-11.07112694
613,1.55965565492e+18,8.277008057,-8.444606781,0.5051919818
614,1.55965565497e+18,-3.181991339,-4.860377789,-9.3783741
615,1.55965565503e+18,10.24031353,-3.234665155,-0.7446194887
616,1.55965565508e+18,21.98423195,-29.70576668,9.344854355
617,1.55965565513e+18,13.12541485,-9.335277557,3.110162973
618,1.55965565518e+18,-1.67599237,-1.386285067,3.931399345
619,1.55965565523e+18,5.760625362,-6.739883423,5.930618763
620,1.55965565529e+18,11.35843945,-22.70011902,3.45493865
621,1.55965565534e+18,12.392766,-15.50771809,2.293715239
622,1.55965565539e+18,8.978530884,-8.978530884,7.975329399
623,1.55965565544e+18,4.051113129,-1.37910223,5.854001999
624,1.55965565549e+18,4.522785187,8.889942169,0.3471698463
625,1.55965565555e+18,16.31458855,-7.328875065,8.940221786
626,1.5596556556e+18,-5.63851738,10.6449461,-17.62425613
627,1.55965565565e+18,6.423839092,6.002447128,-7.099024773
628,1.5596556557e+18,3.419024467,1.90823698,-4.81488657
629,1.55965565575e+18,9.457385063,-17.80143356,14.22678089
630,1.55965565581e+18,14.3393116,-37.42012024,0.2921015322
631,1.55965565586e+18,6.543552876,-10.49650097,-0.1436564922
632,1.55965565591e+18,0.591385901,-5.873156071,3.181991339
633,1.55965565596e+18,4.35039711,-9.431048393,5.796539307
634,1.55965565601e+18,6.531581879,-9.237112045,3.126922846
635,1.55965565607e+18,11.49251938,-2.50201726,7.0822649
636,1.55965565612e+18,9.622590065,0.3112557232,3.146077156
637,1.55965565617e+18,18.86449051,0.2849186957,0.1723877788
638,1.55965565622e+18,7.407886028,3.644086361,-2.384697676
639,1.55965565627e+18,3.577046633,5.590631485,-3.73267436
640,1.55965565633e+18,-10.15172482,16.79104996,0.4716721475
641,1.55965565638e+18,-4.611373425,10.84367085,-8.813325882
642,1.55965565643e+18,15.00013161,-11.90433407,5.061496735
643,1.55965565648e+18,14.26030064,-33.2899971,-3.023969173
644,1.55965565653e+18,6.9098773,-20.44471169,-2.190761566
645,1.55965565659e+18,10.05595398,-8.35601902,4.522785187
646,1.55965565664e+18,1.012778282,-3.426207304,1.92978549
647,1.55965565669e+18,3.960130453,-8.820508003,3.723097324
648,1.55965565674e+18,10.13496494,-10.90113354,-1.276148438
649,1.55965565679e+18,23.49741364,-5.559505939,-2.789330244
650,1.55965565685e+18,13.37681293,4.541939259,-1.685569525
651,1.5596556569e+18,5.672037125,4.436591148,1.67599237
652,1.55965565695e+18,-3.296916485,5.035160065,-1.805283189
653,1.559655657e+18,-3.014391899,5.423032284,-2.188367128
654,1.55965565705e+18,1.573038578,-5.411061287,11.61702156
655,1.55965565711e+18,-4.008016109,-4.300117493,-7.446194649
656,1.55965565716e+18,15.47419834,-31.75287247,3.026363373
657,1.55965565721e+18,11.90672874,-24.17259789,-3.723097324
658,1.55965565726e+18,8.097437859,-11.73194695,1.079817891
659,1.55965565731e+18,7.54914856,-2.521171331,5.751048088
660,1.55965565737e+18,5.846818924,-1.750214934,4.369551659
661,1.55965565742e+18,7.889135361,-9.847652435,4.17800951
662,1.55965565747e+18,12.11981869,-15.93868732,-0.5435003638
663,1.55965565752e+18,7.946598053,-10.08468533,2.370332003
664,1.55965565757e+18,9.794978142,-1.625712633,4.472505569
665,1.55965565763e+18,8.559532166,7.534782887,0.3423812985
666,1.55965565768e+18,-2.075836182,4.74784708,1.08221221
667,1.55965565773e+18,-9.17725563,-4.539545059,23.96190262
668,1.55965565778e+18,-24.82384109,8.95219326,-2.205127001
669,1.55965565783e+18,8.281796455,-15.60348892,3.284945011
670,1.55965565789e+18,18.18212318,-41.8519249,0.6656084061
671,1.55965565794e+18,14.20762634,-19.16138077,-0.1604164094
672,1.55965565799e+18,7.716747761,-3.742251635,3.234665155
673,1.55965565804e+18,3.790137053,-2.276955366,2.363149166
674,1.55965565809e+18,5.59781456,-6.469330311,5.473312378
675,1.55965565815e+18,10.56114578,-12.97218132,2.145270348
676,1.5596556582e+18,10.07271385,-5.63851738,8.810931206
677,1.55965565825e+18,9.234718323,1.077423692,2.875524044
678,1.5596556583e+18,8.293767929,1.855562925,4.616161823
679,1.55965565835e+18,-2.916226625,7.252258301,-4.491659641
680,1.55965565841e+18,4.438985348,8.293767929,3.974496126
681,1.55965565846e+18,-6.931425571,-0.1987248063,3.797319889
682,1.55965565851e+18,13.05598068,-22.49660683,-5.684008598
683,1.55965565856e+18,18.04564857,-31.40570259,6.026389599
684,1.55965565861e+18,7.266623974,-17.47341728,2.133298874
685,1.55965565867e+18,2.039922237,-4.989668846,4.687990189
686,1.55965565872e+18,4.03195858,-2.559479713,7.146910191
687,1.55965565877e+18,3.854782343,-7.798152924,7.771816254
688,1.55965565882e+18,13.50849819,-22.23084068,2.997632027
689,1.55965565887e+18,12.57473087,-12.0336256,5.897099018
690,1.55965565893e+18,5.698374271,-5.095016956,2.997632027
691,1.55965565898e+18,3.430995703,3.088614464,2.686376333
692,1.55965565903e+18,-1.091789365,4.101392746,1.103760719
693,1.55965565908e+18,-3.689577579,2.401457548,-4.968120098
694,1.55965565913e+18,0.1053480953,-4.994457245,6.476513386
695,1.55965565919e+18,-5.74386549,-11.44223976,-2.490045786
696,1.55965565924e+18,5.906675816,-18.00015831,4.75024128
697,1.55965565929e+18,15.09590244,-33.57970428,-1.913025618
698,1.55965565934e+18,6.043149471,-2.499622822,4.058295727
699,1.55965565939e+18,5.248250484,-4.091815472,4.376734257
700,1.55965565945e+18,5.006428719,-4.063084126,7.649707794
701,1.5596556595e+18,17.69608498,-17.84931946,8.403904915
702,1.55965565955e+18,16.0775547,-13.64257812,5.06867981
703,1.5596556596e+18,7.247469902,-3.96731329,0.1867534369
704,1.55965565965e+18,6.038361073,2.176395893,-1.802888989
705,1.55965565971e+18,-2.794118643,6.974522591,-2.387091875
706,1.55965565976e+18,-0.4501236677,4.201952457,0.651242733
707,1.55965565981e+18,6.141314983,-5.248250484,11.59307861
708,1.55965565986e+18,0.646454215,-11.72236919,4.506025314
709,1.55965565991e+18,2.013585091,-6.926637173,4.403071404
710,1.55965565997e+18,10.91310501,-17.50693703,3.519583941
711,1.55965566002e+18,9.000079155,-13.1158371,5.801327705
712,1.55965566007e+18,5.593026161,-3.440572977,1.156434774
713,1.55965566012e+18,5.1333251,-5.849213123,5.593026161
714,1.55965566017e+18,15.17730808,-17.5332737,4.685595989
715,1.55965566023e+18,14.26508904,-13.87482262,3.727885962
716,1.55965566028e+18,10.13017654,-5.473312378,6.093429565
717,1.55965566033e+18,3.311282158,3.000026226,4.939388752
718,1.55965566038e+18,-6.493273258,7.769421577,-3.409447432
719,1.55965566043e+18,2.729473352,5.827664852,-1.690358043
720,1.55965566049e+18,-0.481249243,0.4788549542,2.746233225
721,1.55965566054e+18,16.53486252,-17.145401,12.29938984
722,1.55965566059e+18,-4.939388752,1.467690468,-1.465296149
723,1.55965566064e+18,15.47659206,-32.97874069,5.375146866
724,1.55965566069e+18,11.18844604,-10.45340347,6.76622057
725,1.55965566075e+18,-0.09337671846,-3.196356773,1.630501151
726,1.5596556608e+18,2.77735877,-3.122134447,7.000859737
727,1.55965566085e+18,9.035993576,-16.19248009,6.284971237
728,1.5596556609e+18,14.09509563,-11.40632534,10.25946712
729,1.55965566095e+18,7.937020779,-7.992089272,2.806090117
730,1.55965566101e+18,1.120520592,-2.104567528,4.946571827
731,1.55965566106e+18,-1.383890867,7.010436535,-4.465322495
732,1.55965566111e+18,7.518023014,8.64812088,0.08858817071
733,1.55965566116e+18,5.17402792,2.683982134,-3.284945011
734,1.55965566121e+18,6.97691679,-5.942590237,13.70243454
735,1.55965566127e+18,7.699987888,-8.044763565,-2.597788095
736,1.55965566132e+18,9.261054993,-14.97379494,6.852414608
737,1.55965566137e+18,7.929838181,-19.57798576,-0.5051919818
738,1.55965566142e+18,3.972101927,2.983266354,4.472505569
739,1.55965566147e+18,3.598595142,-2.719896078,3.050306082
740,1.55965566153e+18,10.2618618,-7.977723598,7.249864101
741,1.55965566158e+18,14.80380154,-20.15261078,3.830839634
742,1.55965566163e+18,13.39836216,-10.14933109,5.509226322
743,1.55965566168e+18,8.023215294,-2.983266354,5.406272411
744,1.55965566173e+18,-0.7901107073,2.547508478,5.791750908
745,1.55965566179e+18,-7.743084908,2.648067951,2.14287591
746,1.55965566184e+18,0.9313728809,2.494834423,1.656838179
747,1.55965566189e+18,6.124555111,-1.503604531,-4.676018715
748,1.55965566194e+18,28.97790718,-5.360781193,8.291373253
749,1.55965566199e+18,-5.839636326,-3.325647593,-11.1405611
750,1.55965566205e+18,10.05595398,-10.00806904,3.442967176
751,1.5596556621e+18,4.371945858,-2.69355917,-3.284945011
752,1.55965566215e+18,0.08858817071,-7.534782887,5.011217117
753,1.5596556622e+18,4.869955063,-3.591412306,8.241093636
754,1.55965566225e+18,14.22438622,-28.54933357,8.344047546
755,1.5596556623e+18,16.55162239,-5.66485405,6.519610405
756,1.55965566236e+18,13.8293314,-6.996070862,3.399870157
757,1.55965566241e+18,7.858009815,-2.18357873,0.2585816681
758,1.55965566246e+18,0.924190104,7.649707794,-0.948132813
759,1.55965566251e+18,-3.567469358,6.330462456,-7.125361919
760,1.55965566256e+18,0.5961744189,5.842030525,-5.59781456
761,1.55965566262e+18,-0.1221080124,-2.712713242,-1.328822494
762,1.55965566267e+18,12.96978664,-35.42329407,34.54938507
763,1.55965566272e+18,24.15105057,-15.83573341,1.407833576
764,1.55965566277e+18,-2.511594296,-14.06397057,-11.77743816
765,1.55965566282e+18,7.33605814,0.8140534163,2.707924843
766,1.55965566288e+18,3.464515686,-5.063891411,1.446141958
767,1.55965566293e+18,1.094183564,-10.39354706,5.054314137
768,1.55965566298e+18,7.051139355,-13.76468563,4.048718929
769,1.55965566303e+18,13.71440601,-11.43026829,9.24429512
770,1.55965566308e+18,11.8684206,-0.3519583941,3.261002302
771,1.55965566314e+18,11.61462688,3.107768774,-1.242628574
772,1.55965566319e+18,2.45892024,4.903474808,-3.988861799
773,1.55965566324e+18,-0.4932205975,3.234665155,-8.138139725
774,1.55965566329e+18,13.37681293,1.015172482,23.54769325
775,1.55965566334e+18,-10.32411289,1.489238977,-13.75271416
776,1.5596556634e+18,14.53803635,-33.80237198,-4.764606953
777,1.55965566345e+18,10.64733982,-23.62191582,4.719115734
778,1.5596556635e+18,12.28981304,-11.25069714,13.82214832
779,1.55965566355e+18,11.92109394,-1.618529797,11.73434067
780,1.5596556636e+18,10.37678719,-2.35596633,7.431828976
781,1.55965566366e+18,8.181237221,-5.473312378,2.90664959
782,1.55965566371e+18,10.8149395,-4.956148624,-3.684788942
783,1.55965566376e+18,8.075888634,-3.553103924,-0.1723877788
784,1.55965566381e+18,10.40551853,-4.786155224,-1.154040456
785,1.55965566386e+18,16.70006752,-5.454157829,5.458946705
786,1.55965566392e+18,-4.336031914,-4.182797909,-15.88840771
787,1.55965566397e+18,3.538738251,-0.1532335877,-15.43349552
788,1.55965566402e+18,2.569056988,-3.105374336,-19.3289814
789,1.55965566407e+18,4.185192585,-5.080651283,-7.977723598
790,1.55965566412e+18,20.82061386,-15.29702187,9.960183144
791,1.55965566418e+18,14.70084763,-24.93637276,10.94662476
792,1.55965566423e+18,9.778218269,-10.69283104,-1.860351562
793,1.55965566428e+18,-4.436591148,-4.058295727,6.900300026
794,1.55965566433e+18,7.096630573,-9.771035194,9.483722687
795,1.55965566438e+18,14.85168648,-15.39039803,6.383136749
796,1.55965566444e+18,12.02165413,-3.699154615,2.434977531
797,1.55965566449e+18,6.098217964,2.011190891,2.516382933
798,1.55965566454e+18,5.873156071,-3.849993944,-11.02084732
799,1.55965566459e+18,2.964112282,7.075081825,-18.2324028
800,1.55965566464e+18,-5.427821159,20.3202095,-1.644866824
801,1.5596556647e+18,-6.878751755,12.17728138,-5.260221958
802,1.55965566475e+18,6.356799603,-21.21566963,16.09910393
803,1.5596556648e+18,13.25709915,-35.16231918,-0.6225114465
804,1.55965566485e+18,9.905115128,-18.71844101,1.08221221
805,1.5596556649e+18,10.11102295,-11.04000092,2.241041183
806,1.55965566496e+18,4.953754425,-2.640885115,3.866753817
807,1.55965566501e+18,8.109408379,-1.58979845,8.518829346
808,1.55965566506e+18,8.909096718,-4.508419514,8.825297356
809,1.55965566511e+18,11.58829021,-2.954535007,7.582668304
810,1.55965566516e+18,8.60741806,0.3687183261,0.07182824612
811,1.55965566522e+18,5.626545906,0.01197137404,-1.285725594
812,1.55965566527e+18,0.335198462,4.173221111,-3.050306082
813,1.55965566532e+18,-6.196382999,5.772596359,-3.265790939
814,1.55965566537e+18,-0.4381522834,-4.850800991,22.01296234
815,1.55965566542e+18,-2.533142805,13.01767254,1.817254543
816,1.55965566548e+18,9.912297249,-30.44080925,16.04403496
817,1.55965566553e+18,11.43984509,-28.42004204,7.795758724
818,1.55965566558e+18,8.712765694,-9.237112045,5.116565228
819,1.55965566563e+18,2.887495518,-6.330462456,0.2729473412
820,1.55965566568e+18,0.9912297726,-5.49246645,1.766974807
821,1.55965566574e+18,5.930618763,-6.864386082,8.18602562
822,1.55965566579e+18,12.57712555,-4.458139896,10.69043732
823,1.55965566584e+18,14.07354736,1.053480864,5.820482254
824,1.55965566589e+18,-0.3519583941,2.540325642,-0.7063110471
825,1.55965566594e+18,-1.834014535,9.665687561,-6.359193802
826,1.559655666e+18,-19.52770615,11.36322784,-12.72796535
827,1.55965566605e+18,3.502824068,0.4094209969,7.486897469
828,1.5596556661e+18,18.34253883,-28.8629837,3.102980137
829,1.55965566615e+18,14.67211628,-28.5038414,6.076669693
830,1.5596556662e+18,8.044763565,-14.40395737,1.771763325
831,1.55965566626e+18,6.280182838,-2.988054991,5.286558628
832,1.55965566631e+18,4.632921696,-0.7805336118,4.522785187
833,1.55965566636e+18,6.952973843,-2.748627424,6.332856655
834,1.55965566641e+18,4.92023468,-7.994483471,10.5922718
835,1.55965566646e+18,4.525179386,-11.58110714,8.394327164
836,1.55965566652e+18,11.93785381,-17.74397087,13.14696312
837,1.55965566657e+18,0.332804203,-2.171607256,-0.1412622184
838,1.55965566662e+18,-33.09845352,24.9315834,-14.58592224
839,1.55965566667e+18,7.518023014,-6.531581879,10.03680038
840,1.55965566672e+18,11.13098335,-50.77059555,-8.205180168
841,1.55965566678e+18,7.273807049,-22.99461555,5.868367672
842,1.55965566683e+18,1.39825654,-19.97303963,0.3256213665
843,1.55965566688e+18,2.509200096,-6.859597206,0.06225114316
844,1.55965566693e+18,6.352011204,1.520364523,6.881145954
845,1.55965566698e+18,8.183630943,2.58821106,5.19797039
846,1.55965566704e+18,8.468549728,-4.877137661,0.945738554
847,1.55965566709e+18,3.749434233,-1.470084786,52.69080734
848,1.55965566714e+18,-16.03206444,-9.735121727,-18.01452446
849,1.55965566719e+18,-8.798959732,28.80552101,-2.624125242
850,1.55965566724e+18,46.81764984,-4.00562191,13.8293314
851,1.5596556673e+18,-4.010410309,-5.305713177,-3.378321648
852,1.55965566735e+18,27.42881203,-26.193367,-2.755810261
853,1.5596556674e+18,4.834040642,-23.67698288,-6.924242973
854,1.55965566745e+18,8.789382935,-18.32577896,-5.695979595
855,1.5596556675e+18,8.197997093,-7.695199013,-2.456526041
856,1.55965566756e+18,8.080677032,-1.491633177,3.912245035
857,1.55965566761e+18,3.914639235,0.335198462,2.399063349
858,1.55965566766e+18,0.8068706393,-5.059102535,-0.1268965602
859,1.55965566771e+18,4.036747456,-5.66245985,1.16601181
860,1.55965566776e+18,7.589851379,0.9768640995,0.7733507752
861,1.55965566782e+18,13.53244114,5.887521744,5.145296574
862,1.55965566787e+18,8.681640625,3.153259993,3.969707727
863,1.55965566792e+18,7.790970325,-2.724684715,7.515628815
864,1.55965566797e+18,-6.466936111,-4.570670605,5.480494976
865,1.55965566802e+18,17.25314522,-36.31396484,-0.6991282701
866,1.55965566808e+18,8.178842545,-18.17972946,-5.842030525
867,1.55965566813e+18,1.862745762,-15.61785412,0.1388679445
868,1.55965566818e+18,7.429434776,-3.296916485,6.610592842
869,1.55965566823e+18,6.179623127,1.321639657,3.481275558
870,1.55965566828e+18,9.792584419,-7.01522541,3.361561775
871,1.55965566834e+18,8.616994858,-14.76070404,0.7422251701
872,1.55965566839e+18,8.734314919,-8.959376335,2.564268351
873,1.55965566844e+18,10.36721039,-4.438985348,2.705530643
874,1.55965566849e+18,3.849993944,0.6775797606,2.233858347
875,1.55965566854e+18,-1.156434774,5.411061287,1.058269501
876,1.5596556686e+18,1.913025618,9.469356537,1.185166001
877,1.55965566865e+18,1.405439258,-1.67599237,3.651269197
878,1.5596556687e+18,23.59078979,-10.06313705,1.192348838
879,1.55965566875e+18,5.91625309,-12.90753555,4.836435318
880,1.5596556688e+18,14.40156269,-29.58366013,3.263396502
881,1.55965566886e+18,2.801301479,-5.104593754,0.1508393139
882,1.55965566891e+18,0.4932205975,-5.303318501,1.63289547
883,1.55965566896e+18,0.3639297783,-5.037554264,4.905869007
884,1.55965566901e+18,4.008016109,-10.76465988,7.252258301
885,1.55965566906e+18,17.30821228,-10.26904488,4.635315895
886,1.55965566912e+18,13.74792576,-7.242681503,6.790163517
887,1.55965566917e+18,9.395133972,2.185972929,1.845985889
888,1.55965566922e+18,0.1005595401,7.802941799,-2.262589693
889,1.55965566927e+18,20.08557129,-2.434977531,2.339206457
890,1.55965566932e+18,-8.3153162,0.928978622,0.7613793612
891,1.55965566938e+18,-5.937801361,-4.549122334,-5.640911579
892,1.55965566943e+18,15.27307892,-18.52689934,6.074275017
893,1.55965566948e+18,12.55078888,-32.72973633,2.315263748
894,1.55965566953e+18,4.893897533,-13.57314396,1.956122518
895,1.55965566958e+18,5.176422119,3.665634632,10.3097477
896,1.55965566964e+18,5.17163372,-4.980091572,8.372778893
897,1.55965566969e+18,8.3153162,-8.724737167,5.736682415
898,1.55965566974e+18,17.55482292,-16.95146561,6.833260536
899,1.55965566979e+18,8.854028702,-9.493299484,4.249837875
900,1.55965566984e+18,7.410280704,-4.515602112,1.496421814
901,1.5596556699e+18,0.335198462,1.714300752,-2.370332003
902,1.55965566995e+18,-3.22508812,7.407886028,-2.770175934
903,1.55965567e+18,0.9146129489,1.067846537,1.592192769
904,1.55965567005e+18,4.048718929,-0.8595446348,-8.207573891
905,1.5596556701e+18,39.63961411,-15.63940334,7.158881664
906,1.55965567015e+18,3.739857197,-17.01371765,6.694392204
907,1.55965567021e+18,6.572284222,-28.15188408,3.663240433
908,1.55965567026e+18,8.379961967,-1.517970204,8.025609016
909,1.55965567031e+18,-2.640885115,-3.589017868,3.833234072
910,1.55965567036e+18,-1.745426297,-9.787795067,9.610619545
911,1.55965567041e+18,1.764580488,-17.12145996,3.531555414
912,1.55965567047e+18,16.61387253,-11.09267521,10.57790565
913,1.55965567052e+18,13.6641264,-4.740664005,-0.0287312977
914,1.55965567057e+18,8.739103317,0.4788549542,-8.961771011
915,1.55965567062e+18,5.528380394,5.382329941,-6.732700825
916,1.55965567067e+18,1.489238977,6.708757877,-8.751074791
917,1.55965567073e+18,13.24273396,-1.012778282,5.430215359
918,1.55965567078e+18,-3.193962574,-3.234665155,-7.620976925
919,1.55965567083e+18,4.678412914,-26.28434944,4.886714935
920,1.55965567088e+18,15.00731468,-28.26441383,5.70555687
921,1.55965567093e+18,-1.213897347,-13.80778313,-0.9194015265
922,1.55965567099e+18,5.406272411,1.268965602,5.952167034
923,1.55965567104e+18,8.696005821,0.7326480746,8.353624344
924,1.55965567109e+18,9.457385063,-12.0575676,8.291373253
925,1.55965567114e+18,14.79661846,-17.1837101,5.600208759
926,1.55965567119e+18,5.569083214,-13.13978004,4.118152618
927,1.55965567125e+18,3.196356773,-6.040755272,3.067065954
928,1.5596556713e+18,0.1268965602,0.1101366431,-0.6201171875
929,1.55965567135e+18,1.587404251,-4.501236439,-1.71669507
930,1.5596556714e+18,-3.636903524,-1.745426297,-0.5578660369
931,1.55965567145e+18,0.8547561169,1.266571403,0.481249243
932,1.55965567151e+18,-6.696786404,-17.15258408,3.023969173
933,1.55965567156e+18,7.132544518,-43.27891159,4.628133297
934,1.55965567161e+18,15.84531021,-19.55883026,1.845985889
935,1.55965567166e+18,6.150891781,-4.21871233,7.50844574
936,1.55965567171e+18,4.467716694,2.478074312,5.734288216
937,1.55965567177e+18,5.930618763,-6.220325947,5.423032284
938,1.55965567182e+18,9.112609863,-18.7567482,7.673650742
939,1.55965567187e+18,10.31692982,-10.17087936,10.30735302
940,1.55965567192e+18,7.716747761,-1.338399649,11.40153694
941,1.55965567197e+18,4.570670605,1.687963724,3.380716085
942,1.55965567203e+18,0.6584255695,0.2873129845,-3.241847992
943,1.55965567208e+18,-2.011190891,5.004034519,-11.40632534
944,1.55965567213e+18,-8.492492676,1.108549237,0.7494080067
945,1.55965567218e+18,-12.54599953,-5.169239521,-1.565855742
946,1.55965567223e+18,9.186832428,-30.57010078,16.74077034
947,1.55965567229e+18,18.57478333,-32.49270248,3.873936653
948,1.55965567234e+18,13.09428883,-8.480521202,4.925023079
949,1.55965567239e+18,0.5530774593,-4.850800991,-2.861158371
950,1.55965567244e+18,6.905088425,-4.369551659,-0.4381522834
951,1.55965567249e+18,16.27627945,-8.351230621,3.634509087
952,1.55965567255e+18,20.62907219,6.572284222,7.577879906
953,1.5596556726e+18,11.30337143,5.712739468,12.53642273
954,1.55965567265e+18,-3.375927448,1.970488191,9.186832428
955,1.5596556727e+18,-15.63461494,-3.531555414,-2.200338602
956,1.55965567275e+18,-28.4655323,9.885960579,-16.74795151
957,1.55965567281e+18,-13.73834896,7.0822649,-8.856422424
958,1.55965567286e+18,7.838855743,-12.90753555,11.62420464
959,1.55965567291e+18,27.27318382,-55.65252304,-1.091789365
960,1.55965567296e+18,16.60668945,-17.78467369,7.280989647
961,1.55965567301e+18,4.472505569,-6.945791245,-0.007182824425
962,1.55965567307e+18,7.427040577,0.2873129845,4.972908974
963,1.55965567312e+18,10.84367085,1.225868702,6.711152077
964,1.55965567317e+18,14.84689808,-4.546727657,7.185218811
965,1.55965567322e+18,15.97699547,-3.715914488,9.90750885
966,1.55965567327e+18,9.318517685,1.280937076,3.919427872
967,1.55965567333e+18,6.735095024,-0.3663240373,3.191568375
968,1.55965567338e+18,8.360807419,0.1508393139,1.714300752
969,1.55965567343e+18,-12.21559048,-3.56268096,-12.64655972
970,1.55965567348e+18,-8.873182297,0.9601042271,-10.75508213
971,1.55965567353e+18,-3.198751211,0.5267404318,-0.7182824612
972,1.55965567359e+18,20.47344398,-14.77028084,10.41988373
973,1.55965567364e+18,19.096735,-28.41046524,8.406298637
974,1.55965567369e+18,17.76312447,-15.24434757,5.446975231
975,1.55965567374e+18,10.10862827,1.807677507,7.328875065
976,1.55965567379e+18,5.411061287,-1.829225898,5.849213123
977,1.55965567385e+18,8.430241585,-15.45743847,6.65847826
978,1.5596556739e+18,15.7375679,-12.13657856,9.2035923
979,1.55965567395e+18,12.44783497,-9.411893845,4.424619675
980,1.559655674e+18,8.516435623,-1.443747759,1.041509509
981,1.55965567405e+18,-1.0606637,0.4094209969,-0.5506832004
982,1.55965567411e+18,-2.774964571,1.798100352,-1.264177084
983,1.55965567416e+18,8.502069473,1.987248063,11.01605797
984,1.55965567421e+18,-16.14938354,11.69842625,-14.68648148
985,1.55965567426e+18,6.730306625,-7.860404015,1.359948039
986,1.55965567431e+18,21.80945015,-28.89650345,17.19568253
987,1.55965567437e+18,10.65212822,-26.00421906,2.092596292
988,1.55965567442e+18,6.598621368,-0.08619388938,4.446168423
989,1.55965567447e+18,1.331216812,-4.245049,1.82204318
990,1.55965567452e+18,7.216344357,-9.569916725,7.40070343
991,1.55965567457e+18,16.31698227,-13.19245434,5.193181992
992,1.55965567463e+18,12.66571331,-10.45340347,5.561900616
993,1.55965567468e+18,7.862798691,-1.910631299,6.225114346
994,1.55965567473e+18,3.189173937,4.096604347,1.920208454
995,1.55965567478e+18,1.326428294,4.163643837,0.2537931204
996,1.55965567483e+18,8.147717476,-2.276955366,6.253845692
997,1.55965567489e+18,3.703943014,-6.574678421,-0.7278595567
998,1.55965567494e+18,-19.26672935,0.5219519138,-6.356799603
999,1.55965567499e+18,2.171607256,-9.387951851,4.132518291
1000,1.55965567504e+18,28.20695114,-46.63568497,7.417463303
1001,1.55965567509e+18,15.58194065,-4.740664005,0.9361614585
1002,1.55965567515e+18,-0.009577099234,-1.608952641,-1.240234375
1003,1.5596556752e+18,7.937020779,-7.343240738,6.9122715
1004,1.55965567525e+18,12.99612331,-19.79107475,3.85957098
1005,1.5596556753e+18,15.36884975,-11.42787361,6.519610405
1006,1.55965567535e+18,9.524425507,-7.022408009,5.909070015
1007,1.55965567541e+18,3.246636629,-2.624125242,3.22508812
1008,1.55965567546e+18,-1.458113313,2.444554567,-7.625765324
1009,1.55965567551e+18,8.17165947,3.375927448,-2.406246185
1010,1.55965567556e+18,-9.395133972,14.81577206,-1.316851139
1011,1.55965567561e+18,-4.788549423,-5.707951069,-5.640911579
1012,1.55965567567e+18,11.70082092,-27.52697754,8.832479477
1013,1.55965567572e+18,24.242033,-33.08409119,7.525205612
1014,1.55965567577e+18,-1.503604531,-13.4845562,2.870735407
1015,1.55965567582e+18,7.316903591,6.031178474,1.850774407
1016,1.55965567587e+18,0.5004034638,-5.341627121,2.025556564
1017,1.55965567593e+18,8.447001457,-13.28343678,4.529967785
1018,1.55965567598e+18,11.93785381,-15.97220707,2.358360767
1019,1.55965567603e+18,9.605830193,-12.3784008,3.500429869
1020,1.55965567608e+18,6.86917448,-2.288926601,4.21631813
1021,1.55965567613e+18,0.4189980924,8.509252548,1.395862222
1022,1.55965567619e+18,-14.89957237,5.636122704,0.5961744189
1023,1.55965567624e+18,-16.51331329,9.050358772,-6.002447128
1024,1.55965567629e+18,-5.166844845,-7.582668304,-3.004814863
1025,1.55965567634e+18,17.6984787,-43.27651596,-0.3399870098
1026,1.55965567639e+18,18.03607178,-27.90527344,5.169239521
1027,1.55965567645e+18,8.138139725,-12.49093151,0.2370332032
1028,1.5596556765e+18,2.686376333,-1.810071707,3.675211906
1029,1.55965567655e+18,4.53475666,-5.796539307,5.415849686
1030,1.5596556766e+18,5.164450645,-10.41988373,4.381523132
1031,1.55965567665e+18,9.526819229,-3.711125851,6.732700825
1032,1.55965567671e+18,11.7127924,-1.898659945,9.316123009
1033,1.55965567676e+18,8.734314919,-1.333611012,5.873156071
1034,1.55965567681e+18,-0.09337671846,1.381496549,7.175641537
1035,1.55965567686e+18,1.757397652,2.818061352,-10.55875206
1036,1.55965567691e+18,-8.827691078,-1.192348838,-7.963357925
1037,1.55965567696e+18,-7.836461544,-1.051086664,-4.38870573
1038,1.55965567702e+18,13.57553864,-19.69530487,4.539545059
1039,1.55965567707e+18,30.71375656,-24.96270943,-0.926584363
1040,1.55965567712e+18,9.871595383,-13.51089287,2.363149166
1041,1.55965567717e+18,8.248276711,2.24822402,5.212336063
1042,1.55965567722e+18,2.401457548,-4.654470444,7.118178844
1043,1.55965567728e+18,8.59305191,-6.914665699,8.803748131
1044,1.55965567733e+18,15.43110085,-13.33371639,7.9729352
1045,1.55965567738e+18,12.44304657,-2.834821463,3.395081758
1046,1.55965567743e+18,12.7758503,5.87555027,-2.762993097
1047,1.55965567748e+18,5.640911579,6.244268894,-2.26977253
1048,1.55965567754e+18,-1.783734679,1.046298146,-0.5027977228
1049,1.55965567759e+18,-11.44702816,-2.995237827,9.067118645
1050,1.55965567764e+18,2.150058746,-10.21158218,-5.609786034
1051,1.55965567769e+18,1.728666425,-14.10946178,4.259414673
1052,1.55965567774e+18,5.169239521,-28.74326897,3.076643229
1053,1.5596556778e+18,18.45267677,-22.59237671,9.141341209
1054,1.55965567785e+18,9.306546211,0.29689008,5.593026161
1055,1.5596556779e+18,7.65449667,-4.314483166,8.226728439
1056,1.55965567795e+18,6.454965115,-8.873182297,11.94982529
1057,1.559655678e+18,12.0479908,-14.22678089,8.46376133
1058,1.55965567806e+18,12.53163433,-8.28897953,7.881952763
1059,1.55965567811e+18,6.682421207,-2.966506481,6.713546753
1060,1.55965567816e+18,-1.826831698,-2.600182533,-0.44533512
1061,1.55965567821e+18,-2.511594296,2.662433624,-6.893116951
1062,1.55965567826e+18,1.328822494,3.191568375,-0.648848474
1063,1.55965567832e+18,-2.571451187,-2.327235222,12.17488766
1064,1.55965567837e+18,-3.759011507,-3.239453793,5.648094177
1065,1.55965567842e+18,3.488458395,-13.84369659,3.802108288
1066,1.55965567847e+18,6.500456333,-22.62829208,4.292934895
1067,1.55965567852e+18,9.454991341,-10.54917526,7.364789486
1068,1.55965567858e+18,6.708757877,-2.24822402,7.099024773
1069,1.55965567863e+18,4.544333458,-3.747040033,6.814105988
1070,1.55965567868e+18,12.93387222,-16.99695778,5.195576191
1071,1.55965567873e+18,20.41358757,-16.14459419,6.65847826
1072,1.55965567878e+18,12.64895344,-6.148497581,5.38711834
1073,1.55965567884e+18,9.505270958,0.8763045669,5.827664852
1074,1.55965567889e+18,3.150865555,7.355212212,0.7422251701
1075,1.55965567894e+18,-1.680780888,0.6536370516,-6.680026531
1076,1.55965567899e+18,-1.443747759,-1.264177084,-7.620976925
1077,1.55965567904e+18,28.6307373,-17.95945549,-1.010383964
1078,1.5596556791e+18,10.14693642,-14.59310532,-0.03591412306
1079,1.55965567915e+18,7.29535532,-28.53017807,2.830032825
1080,1.5596556792e+18,5.643305779,-10.56832886,8.111803055
1081,1.55965567925e+18,10.54199219,-0.6656084061,13.36244774
1082,1.5596556793e+18,5.729499817,-5.099805355,7.245075703
1083,1.55965567936e+18,7.053533554,-14.0089016,2.861158371
1084,1.55965567941e+18,12.15094471,-12.4262867,4.015198708
1085,1.55965567946e+18,9.488511086,-8.533195496,4.582642078
1086,1.55965567951e+18,8.657697678,1.422199249,5.506832123
1087,1.55965567956e+18,11.75588894,5.518803596,1.022355318
1088,1.55965567962e+18,5.245856285,13.01048946,6.002447128
1089,1.55965567967e+18,3.512401104,4.235472202,2.9258039
1090,1.55965567972e+18,3.507612705,2.207521439,-1.03911531
1091,1.55965567977e+18,8.233911514,-8.655303001,-14.38719749
1092,1.55965567982e+18,4.345608711,-21.48622131,3.428601503
1093,1.55965567988e+18,15.52926636,-5.169239521,3.533949614
1094,1.55965567993e+18,13.83172512,-9.045570374,2.77735877
1095,1.55965567998e+18,-9.292180061,-5.626545906,-0.2322446555
1096,1.55965568003e+18,9.122186661,-6.507638931,6.747066498
1097,1.55965568008e+18,9.502876282,-22.6785717,0.3423812985
1098,1.55965568014e+18,14.06157589,-18.79745102,3.210722446
1099,1.55965568019e+18,13.06555748,-10.31214142,6.426233768
1100,1.55965568024e+18,9.213169098,-8.686429024,8.56671524
1101,1.55965568029e+18,8.542772293,2.473285913,3.620143414
1102,1.55965568034e+18,1.364736676,7.778998852,-0.5004034638
1103,1.5596556804e+18,8.801354408,10.89634418,-17.80861664
1104,1.55965568045e+18,3.79492569,7.453377247,4.127729893
1105,1.5596556805e+18,2.238646984,3.246636629,-21.47664452
1106,1.55965568055e+18,5.880339146,2.727078915,0.8810931444
1107,1.5596556806e+18,11.23393726,-4.039141655,-1.053480864
1108,1.55965568066e+18,12.54121113,-18.58436012,1.661626697
1109,1.55965568071e+18,1.740637779,-29.64351654,2.743839025
1110,1.55965568076e+18,11.81814003,-2.434977531,5.099805355
1111,1.55965568081e+18,0.9122186899,-11.36083412,1.453324795
1112,1.55965568086e+18,10.82212257,-14.76070404,6.27539444
1113,1.55965568092e+18,12.80218697,-8.616994858,3.11734581
1114,1.55965568097e+18,6.835654736,-1.889082789,2.106961727
1115,1.55965568102e+18,9.258660316,2.401457548,-2.106961727
1116,1.55965568107e+18,3.519583941,5.284164429,-3.926610708
1117,1.55965568112e+18,-10.96098995,5.667248249,8.164477348
1118,1.55965568118e+18,-12.73035908,18.41436768,-3.780560017
1119,1.55965568123e+18,-0.2513988614,-2.971295118,-0.241821751
1120,1.55965568128e+18,31.29077721,-47.80169678,9.299363136
1121,1.55965568133e+18,13.21639729,-16.74555779,4.412648678
1122,1.55965568138e+18,3.600989342,-10.39115238,-2.549902678
1123,1.55965568144e+18,-0.4022381604,-15.42870712,-0.2537931204
1124,1.55965568149e+18,1.426987767,-14.63380718,2.743839025
1125,1.55965568154e+18,7.300143719,-4.383917332,6.715940952
1126,1.55965568159e+18,8.418270111,1.424593568,6.933819771
1127,1.55965568164e+18,10.4845295,8.528407097,3.816473961
1128,1.5596556817e+18,3.632114887,8.475732803,1.096577883
1129,1.55965568175e+18,-1.067846537,4.843617916,-0.2442160249
1130,1.5596556818e+18,10.53480911,-2.473285913,-15.99615002
1131,1.55965568185e+18,-6.033572674,3.002420664,-1.242628574
1132,1.5596556819e+18,4.515602112,-6.478907585,5.250644684
1133,1.55965568196e+18,26.75841522,-26.3777256,7.992089272
1134,1.55965568201e+18,11.04478931,-26.14787483,-2.066259146
1135,1.55965568206e+18,9.294574738,-7.316903591,2.46131444
1136,1.55965568211e+18,3.545921087,-2.997632027,3.316070557
1137,1.55965568216e+18,5.188393593,-4.721509933,5.023188591
1138,1.55965568222e+18,9.426259995,-11.73912907,1.422199249
1139,1.55965568227e+18,16.34571457,-8.609811783,9.014444351
1140,1.55965568232e+18,10.93944168,-1.932179809,-0.462095052
1141,1.55965568237e+18,5.188393593,8.923461914,-3.114951611
1142,1.55965568242e+18,-8.822902679,10.07750225,-3.79492569
1143,1.55965568248e+18,-14.26748371,-1.764580488,10.69283104
1144,1.55965568253e+18,-0.1268965602,3.249030828,-7.623371124
1145,1.55965568258e+18,-0.4022381604,-3.050306082,-1.446141958
1146,1.55965568263e+18,15.89559078,-19.70727539,10.42946148
1147,1.55965568268e+18,13.24033928,-23.73923492,2.533142805
1148,1.55965568274e+18,16.85569382,-9.469356537,7.180429935
1149,1.55965568279e+18,0.8116591573,-3.347196102,1.556278586
1150,1.55965568284e+18,7.23071003,-6.818894863,7.201978683
1151,1.55965568289e+18,13.59469223,-18.83097076,6.672843933
1152,1.55965568294e+18,11.54758739,-8.765439987,6.924242973
1153,1.559655683e+18,7.558725357,3.153259993,6.335251331
1154,1.55965568305e+18,7.381549358,7.163670063,-0.8619389534
1155,1.5596556831e+18,7.50605154,2.686376333,-3.035940409
1156,1.55965568315e+18,8.28897953,0.1412622184,-1.189954638
1157,1.5596556832e+18,-3.306493521,-5.760625362,2.648067951
1158,1.55965568326e+18,7.623371124,-5.573871613,14.94985199
1159,1.55965568331e+18,-3.498035431,-2.964112282,2.887495518
1160,1.55965568336e+18,3.632114887,-12.57233715,5.947378635
1161,1.55965568341e+18,3.459727049,-25.4846611,0.3016786277
1162,1.55965568346e+18,10.60424328,-6.65847826,5.106987953
1163,1.55965568352e+18,5.415849686,-7.024802208,2.825244188
1164,1.55965568357e+18,7.197190285,-16.25473213,-0.5602602959
1165,1.55965568362e+18,16.92991638,-10.84127617,7.206767082
1166,1.55965568367e+18,14.04960442,-7.522811413,4.197163582
1167,1.55965568372e+18,8.557138443,-0.4477293789,5.8516078
1168,1.55965568378e+18,3.912245035,4.185192585,8.59305191
1169,1.55965568383e+18,-1.352765322,6.502850533,1.733454943
1170,1.55965568388e+18,-2.262589693,3.869148016,-3.802108288
1171,1.55965568393e+18,29.38972282,-11.3344965,-1.709512234
1172,1.55965568398e+18,-7.324086666,8.413481712,-0.02394274808
1173,1.55965568404e+18,7.209161282,-18.84294319,6.131737709
1174,1.55965568409e+18,19.47742462,-25.29072571,6.378347874
1175,1.55965568414e+18,3.797319889,-1.819648862,4.21631813
1176,1.55965568419e+18,3.624932051,-7.807730198,3.375927448
1177,1.55965568424e+18,5.437397957,-8.399115562,7.439012051
1178,1.5596556843e+18,11.37998772,-12.13657856,5.679219723
1179,1.55965568435e+18,12.62740517,-8.123774529,6.59383297
1180,1.5596556844e+18,7.810124397,-0.9098244309,5.23867321
1181,1.55965568445e+18,3.076643229,3.323253393,4.479688168
1182,1.5596556845e+18,-0.1245022863,7.71914196,0.6440598965
1183,1.55965568456e+18,-1.707117915,5.085439682,-2.952140808
1184,1.55965568461e+18,-7.783787251,3.335224867,1.599375606
1185,1.55965568466e+18,19.70967102,-18.03607178,-12.36882401
1186,1.55965568471e+18,4.257020473,-17.96424294,1.170800328
1187,1.55965568476e+18,11.31773663,-27.14628792,4.252232075
1188,1.55965568482e+18,5.207547665,-5.901887417,3.0981915
1189,1.55965568487e+18,2.341600657,-1.170800328,4.348002911
1190,1.55965568492e+18,6.888328552,-7.345634937,7.680833817
1191,1.55965568497e+18,12.33051491,-17.45186996,4.843617916
1192,1.55965568502e+18,15.98417854,-9.931451797,5.389512539
1193,1.55965568508e+18,11.98573971,-3.162837029,2.916226625
1194,1.55965568513e+18,5.830059052,4.568276405,4.415042877
1195,1.55965568518e+18,5.446975231,8.233911514,0.962498486
1196,1.55965568523e+18,-0.0574625954,8.035185814,-3.524372578
1197,1.55965568528e+18,3.782954216,2.26737833,-5.461340904
1198,1.55965568534e+18,2.245829821,-7.810124397,-5.674431324
1199,1.55965568539e+18,30.51742744,-6.284971237,2.614548206
1200,1.55965568544e+18,3.806896925,-14.36325455,5.265010357
1201,1.55965568549e+18,11.13337803,-22.73842812,8.418270111
1202,1.55965568554e+18,-0.9122186899,0.1197137386,4.424619675
1203,1.5596556856e+18,6.890722752,-8.068706512,10.16609097
1204,1.55965568565e+18,13.31456184,-17.81579971,6.541158676
1205,1.5596556857e+18,16.03685188,-8.03758049,7.910684109
1206,1.55965568575e+18,13.07752895,-4.874743462,7.448588848
1207,1.5596556858e+18,5.976109982,-0.8499675393,6.548341751
1208,1.55965568586e+18,1.771763325,4.075055599,1.541913033
1209,1.55965568591e+18,-0.8619389534,5.312895775,-0.8595446348
1210,1.55965568596e+18,4.49644804,-2.923409462,-1.948939681
1211,1.55965568601e+18,0.2250618339,-3.179596901,-10.45340347
1212,1.55965568606e+18,10.24510193,-9.610619545,1.802888989
1213,1.55965568612e+18,17.1932869,-11.17886925,1.510787368
1214,1.55965568617e+18,5.616968632,-9.514847755,3.215511084
1215,1.55965568622e+18,7.048745155,-5.095016956,4.704750061
1216,1.55965568627e+18,4.096604347,-1.242628574,2.24822402
1217,1.55965568632e+18,11.05436707,-4.307300568,10.1062336
1218,1.55965568637e+18,16.07037163,-14.94745731,3.670423269
1219,1.55965568643e+18,15.9458704,-10.79099655,1.228263021
1220,1.55965568648e+18,9.900326729,-4.434196949,7.206767082
1221,1.55965568653e+18,3.430995703,2.676799297,6.761432171
1222,1.55965568658e+18,0.5818088055,11.35125732,6.284971237
1223,1.55965568663e+18,2.535537004,0.1508393139,4.108575344
1224,1.55965568669e+18,4.956148624,-5.930618763,-8.64812088
1225,1.55965568674e+18,8.794171333,-6.732700825,-17.04005432
1226,1.55965568679e+18,18.80463409,4.010410309,18.02170563
1227,1.55965568684e+18,1.48445034,-2.549902678,3.615355015
1228,1.55965568689e+18,7.146910191,-6.136526108,1.240234375
1229,1.55965568695e+18,6.749460697,-10.23073673,7.424646378
1230,1.559655687e+18,-5.121353626,-6.828471661,10.252285
1231,1.55965568705e+18,4.182797909,-14.35846615,7.326480865
1232,1.5596556871e+18,14.17650127,-10.49171257,12.4262867
1233,1.55965568715e+18,14.05918121,-5.571477413,5.798933506
1234,1.55965568721e+18,9.064723969,0.1245022863,2.430188894
1235,1.55965568726e+18,3.354378939,7.067899227,3.976890564
1236,1.55965568731e+18,-0.9912297726,6.703969479,2.736656189
1237,1.55965568736e+18,3.909850836,-3.998438835,0.9050358534
1238,1.55965568741e+18,14.64577866,-4.096604347,-1.666415215
1239,1.55965568747e+18,11.99292278,-10.53002071,12.54121113
1240,1.55965568752e+18,6.292154312,-6.522004604,-1.221080184
1241,1.55965568757e+18,-8.942616463,-6.294548512,4.618556023
1242,1.55965568762e+18,3.146077156,-9.991309166,0.5626545548
1243,1.55965568767e+18,5.415849686,-5.961744308,3.589017868
1244,1.55965568773e+18,-1.139674783,-17.74397087,4.671230316
1245,1.55965568778e+18,9.395133972,-12.73275375,10.47255802
1246,1.55965568783e+18,14.12143326,-14.29621506,10.606637
1247,1.55965568788e+18,12.00249958,-8.1453228,11.46378803
1248,1.55965568793e+18,7.616188049,-0.8858816624,4.49644804
1249,1.55965568799e+18,3.146077156,3.057488918,-2.478074312
1250,1.55965568804e+18,-5.873156071,5.892310143,-1.23065722
1251,1.55965568809e+18,-8.087860107,0.5435003638,-6.136526108
1252,1.55965568814e+18,44.83040237,-33.11281967,15.50292969
1253,1.55965568819e+18,-8.128562927,-7.503657341,0.7829278708
1254,1.55965568825e+18,7.257047176,-31.66428375,-0.2849186957
1255,1.5596556883e+18,10.37678719,-12.40952587,5.190787792
1256,1.55965568835e+18,2.789330244,-1.031932473,7.000859737
1257,1.5596556884e+18,-0.7877163887,-9.047964096,4.812492371
1258,1.55965568845e+18,5.255433083,-14.89957237,12.33769798
1259,1.55965568851e+18,5.269798756,-5.317684174,15.86207104
1260,1.55965568856e+18,6.852414608,-0.1987248063,14.87084103
1261,1.55965568861e+18,4.893897533,2.157241583,7.910684109
1262,1.55965568866e+18,0.7302538157,6.210748672,4.553910732
1263,1.55965568871e+18,-0.7278595567,2.944957972,3.390293121
1264,1.55965568877e+18,-3.179596901,2.995237827,2.150058746
1265,1.55965568882e+18,-13.10386562,-2.818061352,-8.073494911
1266,1.55965568887e+18,44.94771957,-30.35461617,9.268238068
1267,1.55965568892e+18,0.7158881426,-16.58753586,6.143709183
1268,1.55965568897e+18,-5.794145107,-27.55570793,-4.027170181
1269,1.55965568903e+18,20.17416,-7.793364525,3.294522047
1270,1.55965568908e+18,2.918621063,-11.50209618,6.87156868
1271,1.55965568913e+18,10.0822916,-19.69769859,7.434223175
1272,1.55965568918e+18,15.23477077,-5.030371189,12.0527792
1273,1.55965568923e+18,9.957788467,2.209915638,9.150918007
1274,1.55965568929e+18,5.176422119,5.712739468,2.157241583
1275,1.55965568934e+18,-0.2921015322,4.091815472,4.438985348
1276,1.55965568939e+18,-8.27461338,4.692778587,0.332804203
1277,1.55965568944e+18,-25.89647675,3.450150013,-5.722316742
1278,1.55965568949e+18,-15.72080803,2.813272953,1.884294271
1279,1.55965568955e+18,5.509226322,-21.30425644,12.28741837
1280,1.5596556896e+18,12.16291618,-42.58457184,5.911464691
1281,1.55965568965e+18,15.51729488,-15.17012501,5.111776829
1282,1.5596556897e+18,2.832427025,-5.32007885,1.692752242
1283,1.55965568975e+18,4.623344421,-1.862745762,6.34003973
1284,1.55965568981e+18,5.746259689,-5.643305779,9.768641472
1285,1.55965568986e+18,8.406298637,-7.436617374,7.12296772
1286,1.55965568991e+18,13.04161453,-2.296109438,5.865973473
1287,1.55965568996e+18,8.921068192,-2.401457548,-0.3112557232
1288,1.55965569001e+18,2.066259146,0.5219519138,3.423812866
1289,1.55965569007e+18,-3.268185139,4.757423878,-0.2083019018
1290,1.55965569012e+18,-7.807730198,8.825297356,1.798100352
1291,1.55965569017e+18,3.359167576,1.838803053,-3.907456398
1292,1.55965569022e+18,3.62732625,-5.336838722,-3.380716085
1293,1.55965569027e+18,15.99136162,-28.5325737,8.928250313
1294,1.55965569033e+18,9.560338974,-27.72330856,1.635289669
1295,1.55965569038e+18,4.685595989,-6.44778204,2.583422422
1296,1.55965569043e+18,-0.1604164094,-3.426207304,9.447808266
1297,1.55965569048e+18,3.720703125,-2.815667152,6.349617004
1298,1.55965569053e+18,9.205986977,-18.84054756,0.6775797606
1299,1.55965569059e+18,17.21722984,-14.57395077,3.624932051
1300,1.55965569064e+18,12.32093811,-4.422225475,2.640885115
1301,1.55965569069e+18,5.59781456,3.270579338,2.33441782
1302,1.55965569074e+18,-0.3759011328,7.130150318,2.846792698
1303,1.55965569079e+18,-1.18756032,4.101392746,0.7398309112
1304,1.55965569085e+18,8.74149704,-0.6225114465,17.71523857
1305,1.5596556909e+18,-5.988081455,2.786935806,-4.652075768
1306,1.55965569095e+18,5.554717541,-17.07357407,6.356799603
1307,1.559655691e+18,15.25631905,-41.57658386,6.471724987
1308,1.55965569105e+18,12.74472523,-8.348835945,3.155654192
1309,1.55965569111e+18,8.375173569,-3.421418667,2.415823221
1310,1.55965569116e+18,1.362342358,-6.522004604,-0.6368771195
1311,1.55965569121e+18,3.184385538,-14.57395077,5.822876453
1312,1.55965569126e+18,6.241874218,-12.28502369,7.563514233
1313,1.55965569131e+18,9.047964096,-7.963357925,8.652909279
1314,1.55965569137e+18,0.8763045669,-3.126922846,6.222720146
1315,1.55965569142e+18,-6.850020409,3.85957098,0.5387118459
1316,1.55965569147e+18,11.20999432,6.567495823,-8.102226257
1317,1.55965569152e+18,-7.769421577,-1.312062621,-0.1245022863
1318,1.55965569157e+18,-4.115758419,-0.9792584181,-6.028783798
1319,1.55965569163e+18,16.05840111,-16.85569382,7.989695072
1320,1.55965569168e+18,17.50693703,-33.18943787,-3.268185139
1321,1.55965569173e+18,3.253819466,-9.88117218,-3.167625666
1322,1.55965569178e+18,6.019207001,1.644866824,5.825270653
1323,1.55965569183e+18,4.599401951,-9.35203743,0.9409499764
1324,1.55965569189e+18,8.353624344,-19.16138077,3.320859194
1325,1.55965569194e+18,9.471751213,-13.77426338,6.375953674
1326,1.55965569199e+18,9.622590065,-7.233104229,4.266597748
1327,1.55965569204e+18,5.844424725,1.687963724,3.572257996
1328,1.55965569209e+18,-7.266623974,5.401484013,-2.638490915
1329,1.55965569215e+18,-1.491633177,-5.248250484,29.70337296
1330,1.5596556922e+18,-16.14698982,2.454131603,-6.842837334
1331,1.55965569225e+18,7.462954521,-8.384750366,6.646506786
1332,1.5596556923e+18,7.767027378,-26.29392624,7.36239481
1333,1.55965569235e+18,16.98737907,-28.14948845,8.411087036
1334,1.55965569241e+18,5.530774593,-8.743891716,3.390293121
1335,1.55965569246e+18,3.170019865,0.8786988258,5.803721905
1336,1.55965569251e+18,2.578634024,-5.856396198,4.917840481
1337,1.55965569256e+18,8.109408379,-16.26430893,8.241093636
1338,1.55965569261e+18,14.53803635,-16.2906456,9.038387299
1339,1.55965569267e+18,4.606584549,-8.956981659,5.104593754
1340,1.55965569272e+18,-3.852388144,-1.302485466,1.58979845
1341,1.55965569277e+18,-3.981678963,5.360781193,-4.556304932
1342,1.55965569282e+18,-2.54511404,6.701575279,-5.061496735
1343,1.55965569287e+18,-0.9816526771,5.260221958,0.3375927508
1344,1.55965569293e+18,36.84549332,-7.039167881,33.08169556
1345,1.55965569298e+18,9.49569416,-9.725543976,1.486844659
1346,1.55965569303e+18,17.145401,-21.50298119,11.04478931
1347,1.55965569308e+18,3.261002302,-14.98816013,0.07901106775
1348,1.55965569313e+18,7.216344357,1.838803053,6.873962879
1349,1.55965569319e+18,5.111776829,-7.072687626,4.913052082
1350,1.55965569324e+18,2.425400496,-8.753468513,5.365570068
1351,1.55965569329e+18,11.26266861,-11.13577175,5.001639843
1352,1.55965569334e+18,16.42712021,-7.039167881,5.499649048
1353,1.55965569339e+18,9.598648071,1.070240855,-0.462095052
1354,1.55965569345e+18,3.407052994,3.442967176,-0.3016786277
1355,1.5596556935e+18,-3.11734581,4.81488657,-0.8140534163
1356,1.55965569355e+18,-2.485257149,5.051919937,-1.757397652
1357,1.5596556936e+18,-5.700768471,6.064698219,6.531581879
1358,1.55965569365e+18,21.51016426,-15.00252628,-4.501236439
1359,1.55965569371e+18,10.87000751,-21.03130913,1.874717116
1360,1.55965569376e+18,8.367990494,-26.66264343,5.552323341
1361,1.55965569381e+18,8.367990494,-1.699935079,3.610566378
1362,1.55965569386e+18,1.264177084,1.209108829,1.857957244
1363,1.55965569391e+18,7.790970325,-6.205960274,7.266623974
1364,1.55965569397e+18,13.97059345,-25.22847366,3.486064196
1365,1.55965569402e+18,13.03203773,-16.00572777,6.354405403
1366,1.55965569407e+18,8.813325882,-4.738269806,5.185999393
1367,1.55965569412e+18,4.767001152,1.029538155,4.199557781
1368,1.55965569417e+18,-3.897879362,5.109382629,-0.3735068738
1369,1.55965569423e+18,-0.2513988614,3.397475958,0.3782954216
1370,1.55965569428e+18,-0.8260248303,0.2561874092,-1.656838179
1371,1.55965569433e+18,28.853405,-18.67055511,8.001666069
1372,1.55965569438e+18,7.561120033,3.320859194,2.751021862
1373,1.55965569443e+18,0.8763045669,-16.16853714,0.1963305324
1374,1.55965569449e+18,5.224307537,-17.72960472,10.11102295
1375,1.55965569454e+18,3.440572977,-4.630527496,5.353598595
1376,1.55965569459e+18,3.854782343,-7.501263142,7.886741161
1377,1.55965569464e+18,9.598648071,-21.17017746,6.957762718
1378,1.55965569469e+18,12.72796535,-9.490905762,10.80296803
1379,1.55965569475e+18,12.31854343,-4.687990189,10.16369629
1380,1.5596556948e+18,5.375146866,0.5315290093,2.940169573
1381,1.55965569485e+18,-0.8260248303,5.59781456,-1.915419817
1382,1.5596556949e+18,-3.114951611,5.918647289,-6.581861496
1383,1.55965569495e+18,-10.43903828,-2.60736537,6.555524349
1384,1.55965569501e+18,-1.333611012,5.229096413,0.2490045726
1385,1.55965569506e+18,4.568276405,-22.32661247,4.903474808
1386,1.55965569511e+18,6.292154312,-29.60042,7.778998852
1387,1.55965569516e+18,8.03758049,-7.398309231,7.326480865
1388,1.55965569521e+18,2.600182533,-0.462095052,5.351204395
1389,1.55965569527e+18,3.227482557,-5.581054688,7.75984478
1390,1.55965569532e+18,3.52197814,-14.95464039,6.706363678
1391,1.55965569537e+18,13.06076908,-13.24752235,10.37199879
1392,1.55965569542e+18,7.565908432,-8.736708641,7.929838181
1393,1.55965569547e+18,3.608172178,-2.042316437,4.410254002
1394,1.55965569553e+18,-1.656838179,-1.608952641,-2.971295118
1395,1.55965569558e+18,-11.94743156,5.885127544,-5.353598595
1396,1.55965569563e+18,-17.85889626,11.29139996,31.95638657
1397,1.55965569568e+18,-3.495641232,-5.868367672,-0.6009629965
1398,1.55965569573e+18,16.22599983,-53.17205429,-1.522758722
1399,1.55965569579e+18,10.52283764,-17.78227806,2.90425539
1400,1.55965569584e+18,7.99687767,-10.95380688,3.596200705
1401,1.55965569589e+18,4.187586784,2.245829821,10.8101511
1402,1.55965569594e+18,0.1412622184,-2.004008055,4.702355862
1403,1.55965569599e+18,4.465322495,-10.11820507,4.661653042
1404,1.55965569605e+18,13.50131607,-21.93873978,-0.6392713785
1405,1.5596556961e+18,12.28262997,-9.220352173,3.452544212
1406,1.55965569615e+18,5.253038883,-4.345608711,-0.009577099234
1407,1.5596556962e+18,-5.964138508,3.016786337,-0.9026415944
1408,1.55965569625e+18,-1.268965602,9.991309166,5.276981831
1409,1.55965569631e+18,-3.466909885,8.851634026,2.43976593
1410,1.55965569636e+18,0.4022381604,-17.79425049,8.870788574
1411,1.55965569641e+18,4.793338299,-36.92929459,4.101392746
1412,1.55965569646e+18,5.456552505,-24.35935211,2.166818619
1413,1.55965569651e+18,8.300951004,-11.03042412,5.147690773
1414,1.55965569657e+18,-1.553884387,-1.723877907,6.265817165
1415,1.55965569662e+18,2.068653345,-4.613767624,6.287365437
1416,1.55965569667e+18,2.54511404,-9.955394745,7.209161282
1417,1.55965569672e+18,3.505218267,-8.616994858,7.484503269
1418,1.55965569677e+18,11.00887585,-9.057541847,14.34170628
1419,1.55965569683e+18,-1.388679385,-2.236252785,7.455771923
1420,1.55965569688e+18,-12.34966946,-2.066259146,-0.1197137386
1421,1.55965569693e+18,-0.6751855016,3.857176781,-14.6697216
1422,1.55965569698e+18,-19.30743217,7.623371124,-12.85246754
1423,1.55965569703e+18,15.54602623,-22.96109581,14.7128191
1424,1.55965569709e+18,23.14545441,-24.1055584,-0.8116591573
1425,1.55965569714e+18,15.85488796,-12.96260357,6.258634567
1426,1.55965569719e+18,2.394274712,-7.024802208,3.993650436
1427,1.55965569724e+18,9.979337692,1.264177084,7.300143719
1428,1.55965569729e+18,7.206767082,-0.1316851079,7.269018173
1429,1.55965569735e+18,12.1988306,-6.735095024,7.968146324
1430,1.5596556974e+18,10.31932449,-3.847599506,4.510813713
1431,1.55965569745e+18,9.794978142,3.488458395,7.110996246
1432,1.5596556975e+18,3.818868399,6.756643295,6.9098773
1433,1.55965569755e+18,-1.946545362,5.298530102,4.745452881
1434,1.55965569761e+18,-2.717501879,-5.332049847,7.89152956
1435,1.55965569766e+18,3.495641232,-0.4022381604,-0.5075862408
1436,1.55965569771e+18,-5.001639843,3.998438835,3.735068798
1437,1.55965569776e+18,4.0702672,-5.104593754,9.593858719
1438,1.55965569781e+18,10.49889469,-20.30105591,8.516435623
1439,1.55965569787e+18,11.43745041,-26.9212265,0.4429408312
1440,1.55965569792e+18,11.85644913,-4.819674969,2.217098475
1441,1.55965569797e+18,0.7685621977,-4.003227711,0.3232271075
1442,1.55965569802e+18,9.569916725,-6.282577038,6.239480019
1443,1.55965569807e+18,12.09587669,-8.705583572,9.356825829
1444,1.55965569813e+18,13.47497845,-4.903474808,6.055120945
1445,1.55965569818e+18,8.253065109,0.5889915824,7.620976925
1446,1.55965569823e+18,2.449343204,6.423839092,1.185166001
1447,1.55965569828e+18,2.312869549,9.375980377,0.627300024
1448,1.55965569833e+18,-0.7326480746,1.247417212,2.703136206
1449,1.55965569839e+18,6.114977837,-4.767001152,16.71682739
1450,1.55965569844e+18,-5.74386549,3.294522047,-1.185166001
1451,1.55965569849e+18,-2.48046875,-2.830032825,2.423006058
1452,1.55965569854e+18,19.73840141,-20.27471924,15.35927296
1453,1.55965569859e+18,3.430995703,-12.96260357,-2.760598898
1454,1.55965569865e+18,12.79500484,-11.86123753,4.494053841
1455,1.5596556987e+18,4.592218876,-7.534782887,5.317684174
1456,1.55965569875e+18,11.82771778,-6.706363678,6.29933691
1457,1.5596556988e+18,17.65059471,-2.918621063,6.529187202
1458,1.55965569885e+18,8.863605499,1.434170604,4.101392746
1459,1.55965569891e+18,6.165257454,7.920260906,1.778946161
1460,1.55965569896e+18,2.14048171,10.0966568,2.075836182
1461,1.55965569901e+18,-0.6368771195,1.130097747,4.204346657
1462,1.55965569906e+18,11.79419804,-13.67609787,15.09350872
1463,1.55965569911e+18,-3.019180536,1.690358043,-0.5961744189
1464,1.55965569917e+18,-1.714300752,-6.960156918,2.868341208
1465,1.55965569922e+18,10.9753561,-21.17975426,8.312922478
1466,1.55965569927e+18,15.40955257,-14.97140026,4.087027073
1467,1.55965569932e+18,3.32804203,-9.344854355,1.233051538
1468,1.55965569937e+18,4.850800991,-6.244268894,6.261028767
1469,1.55965569943e+18,9.648927689,-14.79661846,9.751881599
1470,1.55965569948e+18,9.359220505,-9.950606346,6.610592842
1471,1.55965569953e+18,8.001666069,-4.094210148,6.684815407
1472,1.55965569958e+18,2.379909277,1.40065074,0.5698373914
1473,1.55965569963e+18,-4.563488007,7.690410614,-1.189954638
1474,1.55965569969e+18,-2.837215662,7.14930439,-2.664827824
1475,1.55965569974e+18,2.123721838,-10.9897213,43.17595673
1476,1.55965569979e+18,5.626545906,13.90355396,-1.053480864
1477,1.55965569984e+18,5.298530102,-25.1638279,20.13106346
1478,1.55965569989e+18,12.51487446,-19.22842026,-11.66969585
1479,1.55965569995e+18,1.091789365,-3.797319889,-1.596981287
1480,1.5596557e+18,-1.652049661,-7.723930359,-1.587404251
1481,1.55965570005e+18,0.29689008,-4.228289127,3.081431627
1482,1.5596557001e+18,8.123774529,-12.57712555,3.969707727
1483,1.55965570015e+18,16.04403496,-6.471724987,7.817307472
1484,1.55965570021e+18,10.61142635,-2.071047783,4.711932659
1485,1.55965570026e+18,2.887495518,1.12530911,1.829225898
1486,1.55965570031e+18,-4.35039711,7.429434776,0.1436564922
1487,1.55965570036e+18,-5.449369431,8.942616463,-2.413429022
1488,1.55965570041e+18,18.9602623,6.859597206,33.7856102
1489,1.55965570047e+18,5.504437923,-2.86355257,-3.909850836
1490,1.55965570052e+18,12.39037228,-29.14071846,3.917033672
1491,1.55965570057e+18,3.677606106,-25.53973007,3.914639235
1492,1.55965570062e+18,1.798100352,-7.905895233,6.732700825
1493,1.55965570067e+18,2.463708878,-1.637683988,9.706390381
1494,1.55965570073e+18,1.558672905,-4.716721535,5.633728504
1495,1.55965570078e+18,7.589851379,-16.57795906,6.634535313
1496,1.55965570083e+18,14.94745731,-13.32653332,9.905115128
1497,1.55965570088e+18,9.280209541,-8.765439987,3.991255999
1498,1.55965570093e+18,3.150865555,2.751021862,1.644866824
1499,1.55965570099e+18,-2.413429022,6.684815407,-0.5650488734
1500,1.55965570104e+18,0.4501236677,8.047157288,-5.590631485
1501,1.55965570109e+18,8.985713005,-10.90113354,5.351204395
1502,1.55965570114e+18,-5.858790398,-12.88359261,-4.304905891
1503,1.55965570119e+18,-6.416656494,-10.83409309,-3.306493521
1504,1.55965570125e+18,20.44710732,-21.09356117,11.1597147
1505,1.5596557013e+18,5.444581032,-18.71604538,4.989668846
1506,1.55965570135e+18,0.5147690773,-0.1795706153,5.684008598
1507,1.5596557014e+18,4.297723293,-4.450956821,8.870788574
1508,1.55965570145e+18,6.529187202,-13.65694332,6.921848297
1509,1.55965570151e+18,14.00171947,-12.59867382,8.233911514
1510,1.55965570156e+18,12.00728798,-11.06873226,6.500456333
1511,1.55965570161e+18,8.70079422,-2.24822402,2.193155766
1512,1.55965570166e+18,6.313702583,6.064698219,-2.583422422
1513,1.55965570171e+18,1.338399649,6.220325947,-2.133298874
1514,1.55965570177e+18,1.12530911,3.0981915,-1.790917516
1515,1.55965570182e+18,-1.678386688,1.733454943,1.472478986
1516,1.55965570187e+18,14.29860878,2.612153769,-7.862798691
1517,1.55965570192e+18,3.96731329,-3.993650436,0.7087053657
1518,1.55965570197e+18,6.792557716,-20.80864143,7.213950157
1519,1.55965570203e+18,9.490905762,-18.40000153,5.420638084
1520,1.55965570208e+18,8.032792091,-1.173194647,4.139701366
1521,1.55965570213e+18,5.707951069,-8.004060745,4.21631813
1522,1.55965570218e+18,6.711152077,-21.5819931,3.100585938
1523,1.55965570223e+18,12.95781517,-12.58430862,7.101418972
1524,1.55965570229e+18,7.04156208,-7.173247337,10.13017654
1525,1.55965570234e+18,4.913052082,1.391073704,8.38235569
1526,1.55965570239e+18,1.237840056,7.343240738,2.875524044
1527,1.55965570244e+18,1.958516836,6.246663094,-0.2154847383
1528,1.55965570249e+18,0.009577099234,-1.680780888,0.4884320498
1529,1.55965570254e+18,9.426259995,-6.153286457,19.57319641
1530,1.5596557026e+18,-4.735875607,6.881145954,-3.845205307
1531,1.55965570265e+18,3.557892323,-21.63227272,2.446948767
1532,1.5596557027e+18,24.56525993,-34.41291046,8.724737167
1533,1.55965570275e+18,1.869928598,1.565855742,1.206714511
1534,1.5596557028e+18,3.720703125,-8.561926842,5.303318501
1535,1.55965570286e+18,2.406246185,-9.05993557,8.071100235
1536,1.55965570291e+18,12.74951363,-14.30100346,3.749434233
1537,1.55965570296e+18,13.85087967,-9.385557175,4.163643837
1538,1.55965570301e+18,10.70001411,-0.8044763207,2.317657948
1539,1.55965570306e+18,6.828471661,2.339206457,1.084606528
1540,1.55965570312e+18,-0.2130904645,6.478907585,1.089395046
1541,1.55965570317e+18,24.80229187,5.312895775,14.23396397
1542,1.55965570322e+18,-17.85650063,15.84770489,-11.7127924
1543,1.55965570327e+18,-0.5554717779,-0.3280156553,0.8116591573
1544,1.55965570332e+18,18.62745857,-35.17189789,8.590658188
1545,1.55965570338e+18,13.68328094,-26.12393188,3.687183142
1546,1.55965570343e+18,8.221940041,-5.751048088,3.778165579
1547,1.55965570348e+18,3.155654192,-1.525153041,2.79890728
1548,1.55965570353e+18,5.372752666,-4.915446281,4.965725899
1549,1.55965570358e+18,10.16130257,-13.71680069,5.322473049
1550,1.55965570364e+18,15.36884975,-8.27461338,6.12934351
1551,1.55965570369e+18,10.57072353,-2.296109438,4.192375183
1552,1.55965570374e+18,8.887548447,3.337619066,3.071854591
1553,1.55965570379e+18,1.721483588,2.133298874,-2.506805658
1554,1.55965570384e+18,-8.60741806,0.3256213665,-2.844398499
1555,1.5596557039e+18,-8.485309601,8.78219986,4.075055599
1556,1.55965570395e+18,-15.78784847,4.225894928,-3.505218267
1557,1.559655704e+18,18.7471714,-43.99480057,-4.817280769
1558,1.55965570405e+18,22.28351593,-20.3202095,4.805309772
1559,1.5596557041e+18,2.868341208,-9.876383781,1.130097747
1560,1.55965570416e+18,1.743032098,-1.575432777,5.403878212
1561,1.55965570421e+18,0.7948992252,-5.391906738,4.166038036
1562,1.55965570426e+18,5.458946705,-11.1405611,4.673624516
1563,1.55965570431e+18,16.06797791,-8.32968235,0.634482801
1564,1.55965570436e+18,13.94425678,-8.217150688,8.18602562
1565,1.55965570442e+18,9.818921089,-1.769369125,4.024775982
1566,1.55965570447e+18,3.936187744,3.840416908,2.312869549
1567,1.55965570452e+18,-1.467690468,5.427821159,-6.572284222
1568,1.55965570457e+18,5.576265812,1.252205729,4.221106529
1569,1.55965570462e+18,-7.666468143,2.255406857,-2.944957972
1570,1.55965570468e+18,4.201952457,-8.516435623,4.019987583
1571,1.55965570473e+18,21.48861694,-28.8821373,7.18761301
1572,1.55965570478e+18,1.285725594,-24.89806366,3.720703125
1573,1.55965570483e+18,9.783006668,-5.49007225,8.545166969
1574,1.55965570488e+18,-1.170800328,-0.5770202279,4.204346657
1575,1.55965570494e+18,1.838803053,-7.304932594,4.271386147
1576,1.55965570499e+18,7.345634937,-13.58272076,7.247469902
1577,1.55965570504e+18,6.792557716,-10.72874546,9.273026466
1578,1.55965570509e+18,3.210722446,-4.956148624,6.450176239
1579,1.55965570514e+18,4.716721535,1.149251938,0.3902668059
1580,1.5596557052e+18,5.030371189,3.390293121,0.5698373914
1581,1.55965570525e+18,-2.138087511,3.196356773,3.545921087
1582,1.5596557053e+18,-17.64101601,3.205934048,-5.291347504
1583,1.55965570535e+18,0.4189980924,-20.01374245,3.407052994
1584,1.5596557054e+18,0.2849186957,-28.00822639,8.277008057
1585,1.55965570546e+18,6.258634567,-31.63076401,-2.145270348
1586,1.55965570551e+18,15.84052181,-10.36242104,6.031178474
1587,1.55965570556e+18,9.32570076,-4.206740856,6.51242733
1588,1.55965570561e+18,11.22914886,-4.532361984,7.070293427
1589,1.55965570566e+18,11.67927265,-5.858790398,8.873182297
1590,1.55965570572e+18,6.270605564,-12.01686573,4.328848839
1591,1.55965570577e+18,-2.707924843,-8.399115562,3.179596901
1592,1.55965570582e+18,-2.727078915,-1.917814136,8.631361008
1593,1.55965570587e+18,-10.67846584,-0.2825244367,-10.6545229
1594,1.55965570592e+18,-7.33605814,3.677606106,-4.89629221
1595,1.55965570598e+18,-2.736656189,-1.620923996,4.678412914
1596,1.55965570603e+18,5.442186832,-13.79581165,10.42467213
1597,1.55965570608e+18,6.251451492,-29.47112846,0.2609759569
1598,1.55965570613e+18,20.61231232,-20.38964462,1.494027495
1599,1.55965570618e+18,15.0480175,-12.9362669,3.062277555
1600,1.55965570624e+18,9.747093201,-5.899493217,3.821262598
1601,1.55965570629e+18,-0.9122186899,-4.486870766,1.618529797
1602,1.55965570634e+18,8.684034348,-2.90425539,6.287365437
1603,1.55965570639e+18,7.683228016,1.927391171,2.564268351
1604,1.55965570644e+18,5.700768471,4.776578426,14.53803635
1605,1.5596557065e+18,1.328822494,-4.108575344,12.27544689
1606,1.55965570655e+18,-6.670449734,-5.652883053,4.441379547
1607,1.5596557066e+18,-9.287391663,-5.760625362,-1.256994247
1608,1.55965570665e+18,5.739076614,-2.451737404,-0.2729473412
1609,1.5596557067e+18,-16.76950073,7.470137596,-1.041509509
1610,1.55965570676e+18,9.96257782,-22.9898262,9.483722687
1611,1.55965570681e+18,12.56276035,-27.56289101,6.026389599
1612,1.55965570686e+18,11.95940304,-16.26191521,1.664021015
1613,1.55965570691e+18,-5.880339146,-17.32257843,4.77418375
1614,1.55965570696e+18,4.506025314,-6.945791245,10.39115238
1615,1.55965570702e+18,6.919454098,-1.48445034,10.15651417
1616,1.55965570707e+18,9.478934288,-4.118152618,11.17886925
1617,1.55965570712e+18,13.92749691,-6.007235527,2.727078915
1618,1.55965570717e+18,7.937020779,2.454131603,2.789330244
1619,1.55965570722e+18,7.055927753,5.377541065,3.763799906
1620,1.55965570728e+18,2.33441782,3.914639235,-2.67440486
1621,1.55965570733e+18,1.903448462,7.199584484,-0.5482889414
1622,1.55965570738e+18,-5.401484013,-1.934574008,-13.68328094
1623,1.55965570743e+18,-3.450150013,1.956122518,-7.606611252
1624,1.55965570748e+18,41.17195129,-47.18157959,6.213143349
1625,1.55965570754e+18,-2.731867552,-19.42954063,10.2618618
1626,1.55965570759e+18,12.557971,-19.47742462,2.377514839
1627,1.55965570764e+18,1.802888989,-13.0918951,6.864386082
1628,1.55965570769e+18,4.53475666,-3.672817469,4.008016109
1629,1.55965570774e+18,8.157294273,-4.223500729,10.94662476
1630,1.5596557078e+18,11.63378143,-21.83099747,8.739103317
1631,1.55965570785e+18,16.56359291,-9.153312683,10.45819283
1632,1.5596557079e+18,7.992089272,-7.520417213,1.288119793
1633,1.55965570795e+18,-0.4932205975,0.5099805593,-5.444581032
1634,1.559655708e+18,13.78862858,2.645673752,15.49574661
1635,1.55965570806e+18,-12.68726254,33.3187294,-16.73837471
1636,1.55965570811e+18,-3.723097324,12.86922741,1.987248063
1637,1.55965570816e+18,13.13259697,-40.70985413,9.129369736
1638,1.55965570821e+18,14.68169308,-29.69858551,4.977697372
1639,1.55965570826e+18,5.02558279,-14.85408115,-0.7182824612
1640,1.55965570832e+18,5.751048088,-10.6545229,-0.7948992252
1641,1.55965570837e+18,3.720703125,-3.486064196,2.537931204
1642,1.55965570842e+18,1.245022893,-4.144489765,4.841223717
1643,1.55965570847e+18,3.239453793,-10.22594738,5.207547665
1644,1.55965570852e+18,6.799740314,-8.097437859,6.043149471
1645,1.55965570858e+18,13.36244774,-6.754249096,-0.9912297726
1646,1.55965570863e+18,1.118126392,3.019180536,-2.995237827
1647,1.55965570868e+18,-19.04645538,17.26750946,13.01048946
1648,1.55965570873e+18,19.44151115,23.0185585,-5.365570068
1649,1.55965570878e+18,-0.9313728809,0.6632141471,4.857983589
1650,1.55965570884e+18,4.091815472,-18.76153755,2.0351336
1651,1.55965570889e+18,14.74155045,-30.00265694,3.510006905
1652,1.55965570894e+18,10.21876526,-23.19094658,0.8188419938
1653,1.55965570899e+18,5.806116581,-12.0575676,0.4333637357
1654,1.55965570904e+18,4.051113129,0.01675992459,5.791750908
1655,1.5596557091e+18,-0.2490045726,-5.755836487,4.594613552
1656,1.55965570915e+18,7.020013809,-11.60744381,6.612987041
1657,1.5596557092e+18,13.4366703,-8.985713005,4.549122334
1658,1.55965570925e+18,12.08869362,-5.877944469,2.042316437
1659,1.5596557093e+18,7.553936958,-0.2944957912,-4.376734257
1660,1.55965570936e+18,-4.300117493,1.278542757,-0.8068706393
1661,1.55965570941e+18,-9.478934288,2.619336605,5.286558628
1662,1.55965570946e+18,3.002420664,8.219545364,-4.910657406
1663,1.55965570951e+18,-11.37998772,1.118126392,-5.887521744
1664,1.55965570956e+18,14.78464699,-25.83901405,12.87640953
1665,1.55965570962e+18,18.45267677,-31.32190323,6.107795238
1666,1.55965570967e+18,11.60983849,-12.51008606,3.045517445
1667,1.55965570972e+18,5.411061287,0.6632141471,1.968093872
1668,1.55965570977e+18,-0.7446194887,-3.478881359,1.841197371
1669,1.55965570982e+18,3.160442829,-4.826858044,5.011217117
1670,1.55965570988e+18,7.82449007,-22.18774414,4.807703972
1671,1.55965570993e+18,6.835654736,-13.20681953,5.104593754
1672,1.55965570998e+18,6.845231533,1.640078187,2.33441782
1673,1.55965571003e+18,7.767027378,11.94503689,0.1508393139
1674,1.55965571008e+18,7.75984478,10.89873886,1.326428294
1675,1.55965571014e+18,19.10870743,3.313676357,5.988081455
1676,1.55965571019e+18,-5.032765865,2.312869549,-1.247417212
1677,1.55965571024e+18,-0.2585816681,-5.315289974,0.3064671755
1678,1.55965571029e+18,15.28265572,-23.79190826,0.184359163
1679,1.55965571034e+18,15.70404816,-24.50779724,4.393494129
1680,1.5596557104e+18,8.456578255,-12.05517387,-1.168406129
1681,1.55965571045e+18,8.542772293,6.857203007,6.093429565
1682,1.5596557105e+18,5.8516078,-4.956148624,3.023969173
1683,1.55965571055e+18,8.514040947,-17.89480972,3.902667999
1684,1.5596557106e+18,14.10227871,-18.64182281,1.989642382
1685,1.55965571066e+18,5.628940105,-9.689630508,3.213116884
1686,1.55965571071e+18,6.505244732,-0.5291347504,3.478881359
1687,1.55965571076e+18,2.947352171,8.001666069,1.034326673
1688,1.55965571081e+18,1.771763325,5.985687256,1.448536277
1689,1.55965571086e+18,5.205153465,2.001613855,-0.2490045726
1690,1.55965571092e+18,-7.999272346,-4.92262888,-1.027143836
1691,1.55965571097e+18,8.01124382,-25.58522034,16.76471138
1692,1.55965571102e+18,9.754275322,-17.92354202,17.04963112
1693,1.55965571107e+18,-0.7733507752,-21.68734169,-2.025556564
1694,1.55965571112e+18,5.679219723,-4.992063046,5.739076614
1695,1.55965571118e+18,3.840416908,-4.592218876,1.668809533
1696,1.55965571123e+18,4.719115734,-10.19003391,4.307300568
1697,1.55965571128e+18,11.6553297,-20.77991104,2.087807655
1698,1.55965571133e+18,9.838075638,-10.41749001,6.198777676
1699,1.55965571138e+18,5.784567833,-5.626545906,6.656084061
1700,1.55965571144e+18,1.850774407,-2.169213057,5.276981831
1701,1.55965571149e+18,-3.629720688,5.106987953,-3.0981915
1702,1.55965571154e+18,7.264229774,9.926663399,2.832427025
1703,1.55965571159e+18,2.739050388,19.04166794,2.628913641
1704,1.55965571164e+18,-1.917814136,-9.356825829,3.026363373
1705,1.5596557117e+18,17.97142601,-38.48796844,2.068653345
1706,1.55965571175e+18,13.58750916,-24.28991699,2.997632027
1707,1.5596557118e+18,6.0216012,-6.943397045,-1.709512234
1708,1.55965571185e+18,3.778165579,3.059883118,4.692778587
1709,1.5596557119e+18,4.053507328,-4.506025314,1.503604531
1710,1.55965571196e+18,10.08468533,-12.12221336,4.331243038
1711,1.55965571201e+18,15.36166763,-15.83333969,3.189173937
1712,1.55965571206e+18,7.757450581,-10.1062336,2.832427025
1713,1.55965571211e+18,3.502824068,-0.09577099234,1.989642382
1714,1.55965571216e+18,-2.796513081,3.77337718,0.2561874092
1715,1.55965571222e+18,-4.472505569,1.903448462,-3.806896925
1716,1.55965571227e+18,16.9897747,0.1987248063,9.727938652
1717,1.55965571232e+18,-0.6009629965,0.3639297783,0.9792584181
1718,1.55965571237e+18,6.481301785,-18.4550705,1.084606528
1719,1.55965571242e+18,15.62503719,-30.24448013,8.090254784
1720,1.55965571248e+18,10.28580475,-14.29142666,0.6177229285
1721,1.55965571253e+18,7.446194649,3.148471355,6.205960274
1722,1.55965571258e+18,4.151672363,-0.7374366522,3.517189741
1723,1.55965571263e+18,5.628940105,-7.01761961,4.551516533
1724,1.55965571268e+18,15.445467,-23.10954094,3.057488918
1725,1.55965571274e+18,7.987300873,-16.38881111,5.506832123
1726,1.55965571279e+18,5.791750908,-5.964138508,7.558725357
1727,1.55965571284e+18,0.3184385598,-4.649681568,3.490852594
1728,1.55965571289e+18,-5.126142502,3.493247032,-3.0096035
1729,1.55965571294e+18,-2.741444588,3.64648056,-2.79890728
1730,1.559655713e+18,6.665660858,2.844398499,12.96739197
1731,1.55965571305e+18,1.467690468,-5.734288216,-1.019961119
1732,1.5596557131e+18,3.620143414,-22.76237106,4.539545059
1733,1.55965571315e+18,4.664047241,-32.9595871,2.293715239
1734,1.5596557132e+18,9.926663399,-9.251478195,3.634509087
1735,1.55965571326e+18,7.884346962,0.8930644989,8.547560692
1736,1.55965571331e+18,2.032739401,-5.62175703,4.826858044
1737,1.55965571336e+18,0.6799740195,-12.97936344,7.252258301
1738,1.55965571341e+18,10.83409309,-15.67771149,11.11182976
1739,1.55965571346e+18,3.596200705,-6.955368519,13.11823177
1740,1.55965571352e+18,1.556278586,2.176395893,6.596227169
1741,1.55965571357e+18,1.838803053,1.810071707,4.130124092
1742,1.55965571362e+18,7.685622215,7.034379482,-0.2106961906
1743,1.55965571367e+18,7.376760483,1.558672905,-0.2442160249
1744,1.55965571372e+18,-7.594639778,-3.184385538,-8.03758049
1745,1.55965571378e+18,2.434977531,-17.40398407,-0.05027977005
1746,1.55965571383e+18,8.595446587,-20.5333004,9.067118645
1747,1.55965571388e+18,1.412622094,-23.00179863,1.666415215
1748,1.55965571393e+18,14.25072384,-12.48374844,7.139727592
1749,1.55965571398e+18,6.866780281,-6.354405403,9.050358772
1750,1.55965571404e+18,6.522004604,-7.029590607,10.47255802
1751,1.55965571409e+18,9.689630508,-15.60348892,11.61941528
1752,1.55965571414e+18,4.60419035,-10.14214802,8.736708641
1753,1.55965571419e+18,5.044736862,-10.13735962,8.35601902
1754,1.55965571424e+18,0.1125309169,-6.110189438,2.50201726
1755,1.5596557143e+18,-1.019961119,3.196356773,1.606558442
1756,1.55965571435e+18,-7.893924236,5.200365067,1.565855742
1757,1.5596557144e+18,-18.72083473,11.06394386,-2.523565531
1758,1.55965571445e+18,-3.629720688,0.1197137386,1.97288239
1759,1.5596557145e+18,-6.162863255,-14.72478962,7.369577885
1760,1.55965571456e+18,17.19089317,-34.32192993,4.726298332
1761,1.55965571461e+18,16.87245369,-16.37684059,11.02802944
1762,1.55965571466e+18,10.29538155,-12.81894779,8.877970695
1763,1.55965571471e+18,14.96421719,-3.074248791,12.26587009
1764,1.55965571476e+18,7.637736797,0.7805336118,7.04395628
1765,1.55965571482e+18,2.69355917,-1.680780888,6.294548512
1766,1.55965571487e+18,0.4405465722,1.656838179,1.635289669
1767,1.55965571492e+18,-1.362342358,1.692752242,-0.7853221297
1768,1.55965571497e+18,2.008796453,17.1645565,-5.217124939
1769,1.55965571502e+18,-0.5195576549,2.734261751,2.719896078
1770,1.55965571508e+18,10.94662476,-22.8437767,7.994483471
1771,1.55965571513e+18,6.9122715,-19.93473244,-0.5363175869
1772,1.55965571518e+18,3.004814863,-11.58350182,1.980065227
1773,1.55965571523e+18,4.527573586,-10.41749001,11.84447765
1774,1.55965571528e+18,13.19963741,-18.07438087,10.68325424
1775,1.55965571534e+18,12.30896664,-9.811738014,11.04000092
1776,1.55965571539e+18,4.884320736,-2.360754967,9.713572502
1777,1.55965571544e+18,2.300898075,5.351204395,4.201952457
1778,1.55965571549e+18,-3.069460392,8.087860107,0.2657645047
1779,1.55965571554e+18,-0.8810931444,4.398283005,-0.1268965602
1780,1.5596557156e+18,-4.632921696,-3.404658794,0.6943396926
1781,1.55965571565e+18,36.18228149,-32.16708374,-7.75984478
1782,1.5596557157e+18,5.844424725,-4.632921696,3.514795303
1783,1.55965571575e+18,5.437397957,-14.97858334,13.79102325
1784,1.5596557158e+18,-0.5602602959,-37.11604691,-8.212362289
1785,1.55965571586e+18,8.830085754,2.178790092,3.948159218
1786,1.55965571591e+18,12.40473747,-7.04156208,8.825297356
1787,1.55965571596e+18,10.6545229,-26.39209175,2.128510237
1788,1.55965571601e+18,14.09988403,-12.17728138,3.076643229
1789,1.55965571606e+18,10.0918684,-5.731894016,1.932179809
1790,1.55965571612e+18,5.071074009,0.5985686779,2.628913641
1791,1.55965571617e+18,-5.461340904,5.104593754,-3.591412306
1792,1.55965571622e+18,-8.207573891,7.632947922,-0.1412622184
1793,1.55965571627e+18,-5.631334305,0.6057515144,8.126168251
1794,1.55965571632e+18,-10.01525116,-0.9768640995,-3.742251635
1795,1.55965571638e+18,16.47979355,-24.76398468,12.392766
1796,1.55965571643e+18,3.450150013,-41.38743591,-3.938581944
1797,1.55965571648e+18,8.46376133,-8.447001457,1.034326673
1798,1.55965571653e+18,2.221887112,-4.92262888,-0.4668835998
1799,1.55965571658e+18,3.253819466,-6.756643295,4.175615311
1800,1.55965571664e+18,6.198777676,-12.16530991,1.829225898
1801,1.55965571669e+18,16.82696342,-2.628913641,7.046350956
1802,1.55965571674e+18,11.02324104,-1.417410731,4.012804508
1803,1.55965571679e+18,5.013611317,0.01197137404,3.0981915
1804,1.55965571684e+18,-4.508419514,0.1005595401,0.7565908432
1805,1.5596557169e+18,-7.798152924,1.982459545,-8.217150688
1806,1.55965571695e+18,26.87573433,32.0569458,-28.30511665
1807,1.559655717e+18,-13.02724934,4.652075768,-6.579467297
1808,1.55965571705e+18,18.20845985,-30.02420616,4.307300568
1809,1.5596557171e+18,22.50378799,-23.10954094,9.184437752
1810,1.55965571716e+18,7.685622215,-11.8827858,-1.067846537
1811,1.55965571721e+18,-0.7925049663,-1.82204318,5.645699978
1812,1.55965571726e+18,3.430995703,-2.988054991,8.854028702
1813,1.55965571731e+18,7.273807049,-7.814912796,10.62100315
1814,1.55965571736e+18,17.57158279,-15.59630585,9.567522049
1815,1.55965571742e+18,13.06076908,-10.90831566,6.079063892
1816,1.55965571747e+18,5.751048088,-1.063058019,3.469304085
1817,1.55965571752e+18,0.8667274714,4.60179615,0.1316851079
1818,1.55965571757e+18,-2.801301479,3.572257996,-1.999219418
1819,1.55965571762e+18,-1.194743156,4.424619675,-1.953728199
1820,1.55965571768e+18,6.244268894,-3.0981915,8.499675751
1821,1.55965571773e+18,0.4573064744,-1.101366401,-2.272166729
1822,1.55965571778e+18,4.841223717,-5.758230686,5.877944469
1823,1.55965571783e+18,13.04879761,-27.40965843,5.933012962
1824,1.55965571788e+18,18.06001472,-3.466909885,2.980872154
1825,1.55965571794e+18,-4.917840481,-8.583475113,2.731867552
1826,1.55965571799e+18,4.956148624,-5.128536701,6.703969479
1827,1.55965571804e+18,10.4318552,-9.136552811,10.24989033
1828,1.55965571809e+18,16.58992958,-7.357606411,8.64812088
1829,1.55965571814e+18,9.974549294,-1.522758722,6.320885658
1830,1.5596557182e+18,4.699961662,5.566689014,1.027143836
1831,1.55965571825e+18,0.2585816681,9.301757812,-2.679193497
1832,1.5596557183e+18,-0.6608198285,4.874743462,-9.189227104
1833,1.55965571835e+18,13.01288319,-1.041509509,29.29155731
1834,1.5596557184e+18,3.96491909,3.299310684,2.276955366
1835,1.55965571846e+18,5.552323341,-12.74233055,5.207547665
1836,1.55965571851e+18,15.67771149,-22.53730965,7.649707794
1837,1.55965571856e+18,12.5962801,-11.4805479,3.737462997
1838,1.55965571861e+18,6.244268894,-1.424593568,2.839609861
1839,1.55965571866e+18,5.695979595,-6.363982677,4.132518291
1840,1.55965571872e+18,6.538764477,-19.56601334,2.087807655
1841,1.55965571877e+18,14.47817993,-10.83409309,4.697566986
1842,1.55965571882e+18,9.205986977,-8.257853508,5.377541065
1843,1.55965571887e+18,2.365543604,-1.03911531,4.628133297
1844,1.55965571892e+18,0.1795706153,7.063110828,-0.2921015322
1845,1.55965571897e+18,-6.361588001,4.649681568,-4.826858044
1846,1.55965571903e+18,-4.838829517,10.34087276,13.30737972
1847,1.55965571908e+18,-5.063891411,12.09827042,-2.928198099
1848,1.55965571913e+18,1.367130876,-18.13663101,7.33366394
1849,1.55965571918e+18,27.74006844,-47.60776138,0.8044763207
1850,1.55965571923e+18,6.442993641,-11.65293503,-1.565855742
1851,1.55965571929e+18,4.764606953,-2.116539001,5.739076614
1852,1.55965571934e+18,0.8379961848,-4.822069645,2.834821463
1853,1.55965571939e+18,4.862771988,-6.138920784,5.518803596
1854,1.55965571944e+18,12.62979984,-14.90436077,3.747040033
1855,1.55965571949e+18,16.6497879,-5.990475655,3.057488918
1856,1.55965571955e+18,11.85644913,0.2873129845,1.319245458
1857,1.5596557196e+18,-1.242628574,4.972908974,0.2657645047
1858,1.55965571965e+18,-14.76549244,11.21957207,6.842837334
1859,1.5596557197e+18,-1.58979845,5.370358467,-10.61142635
1860,1.55965571975e+18,-11.01366425,-0.5794144869,-2.875524044
1861,1.55965571981e+18,16.60429573,-30.68023682,1.75979197
1862,1.55965571986e+18,16.47261047,-30.48869514,6.644112587
1863,1.55965571991e+18,2.451737404,-14.31058025,-1.67599237
1864,1.55965571996e+18,3.598595142,-2.525959969,3.897879362
1865,1.55965572001e+18,6.596227169,-2.662433624,5.854001999
1866,1.55965572007e+18,9.454991341,-6.914665699,5.952167034
1867,1.55965572012e+18,9.926663399,-14.90436077,3.893090725
1868,1.55965572017e+18,14.56916237,-8.626572609,7.479714394
1869,1.55965572022e+18,7.946598053,-6.287365437,1.965699673
1870,1.55965572027e+18,-1.482056141,-0.5147690773,1.575432777
1871,1.55965572033e+18,-10.06792545,5.425426483,-4.460534096
1872,1.55965572038e+18,6.993676662,0.6249057055,11.44702816
1873,1.55965572043e+18,-3.77337718,5.114171028,3.023969173
1874,1.55965572048e+18,-1.271359921,-5.435003757,2.889889717
1875,1.55965572053e+18,26.33702278,-34.07052994,12.43586349
1876,1.55965572059e+18,11.18844604,-16.82696342,3.22269392
1877,1.55965572064e+18,6.261028767,-3.622537851,1.798100352
1878,1.55965572069e+18,0.5674431324,-1.738243461,1.496421814
1879,1.55965572074e+18,0.6392713785,-7.065505028,4.163643837
1880,1.55965572079e+18,3.550709486,-13.19005966,3.102980137
1881,1.55965572085e+18,12.11981869,-5.02558279,4.728692532
1882,1.5596557209e+18,12.79261017,-7.980117798,5.487678051
1883,1.55965572095e+18,8.736708641,2.490045786,2.9258039
1884,1.559655721e+18,3.023969173,6.493273258,1.704723716
1885,1.55965572105e+18,-3.550709486,7.690410614,-0.2609759569
1886,1.55965572111e+18,-12.5531826,-7.465348721,11.15253162
1887,1.55965572116e+18,-10.17087936,2.059076309,-6.677632332
1888,1.55965572121e+18,13.76229191,-32.88536453,3.529160976
1889,1.55965572126e+18,10.06792545,-28.57327461,6.957762718
1890,1.55965572131e+18,5.55711174,-12.41910362,0.1292908341
1891,1.55965572137e+18,4.793338299,0.29689008,5.509226322
1892,1.55965572142e+18,1.048692346,-9.581888199,1.331216812
1893,1.55965572147e+18,3.828445435,-8.906702042,0.02633702382
1894,1.55965572152e+18,7.869981289,-10.40791225,1.771763325
1895,1.55965572157e+18,9.050358772,-9.478934288,8.262641907
1896,1.55965572163e+18,8.590658188,0.2035133541,2.432583094
1897,1.55965572168e+18,-6.984099388,4.39109993,4.915446281
1898,1.55965572173e+18,-11.91630554,-2.789330244,-0.7565908432
1899,1.55965572178e+18,-8.15968895,2.042316437,-0.4932205975
1900,1.55965572183e+18,5.913858891,-10.20679379,7.948992252
1901,1.55965572189e+18,9.407105446,-37.86066818,0.8379961848
1902,1.55965572194e+18,-1.553884387,-22.97785568,-1.977671027
1903,1.55965572199e+18,5.427821159,-14.3297348,-1.218685865
1904,1.55965572204e+18,7.369577885,-7.635342598,2.128510237
1905,1.55965572209e+18,-2.298503876,-4.101392746,4.599401951
1906,1.55965572215e+18,3.275367975,-8.461367607,4.656864643
1907,1.5596557222e+18,4.996851444,-10.01764584,6.112583637
1908,1.55965572225e+18,5.001639843,-9.967366219,8.995290756
1909,1.5596557223e+18,0.9050358534,-5.590631485,7.884346962
1910,1.55965572235e+18,-4.012804508,-0.9313728809,-0.8403904438
1911,1.55965572241e+18,3.984073162,3.289733648,-6.105400562
1912,1.55965572246e+18,-6.691998005,8.626572609,2.628913641
1913,1.55965572251e+18,-6.081458092,3.30888772,0.462095052
1914,1.55965572256e+18,10.56114578,-36.39297867,3.263396502
1915,1.55965572261e+18,20.72005463,-25.61874008,7.477320194
1916,1.55965572267e+18,4.357580185,-14.97140026,5.159662247
1917,1.55965572272e+18,2.664827824,-9.624984741,4.517996788
1918,1.55965572277e+18,1.204320192,-0.2825244367,8.152505875
1919,1.55965572282e+18,-1.553884387,-5.286558628,7.771816254
1920,1.55965572287e+18,2.169213057,-11.69363785,5.121353626
1921,1.55965572293e+18,4.869955063,-12.68726254,4.877137661
1922,1.55965572298e+18,4.467716694,-0.6416656375,3.366350412
1923,1.55965572303e+18,7.532388687,6.917059898,0.9792584181
1924,1.55965572308e+18,4.189980984,1.12291491,-1.496421814
1925,1.55965572313e+18,-0.8284190893,14.8923893,-2.102173328
1926,1.55965572319e+18,-1.137280583,10.19961071,0.2801301479
1927,1.55965572324e+18,12.50050831,-15.94826412,13.94186211
1928,1.55965572329e+18,16.34331894,-25.92281342,-1.884294271
1929,1.55965572334e+18,21.66339874,-19.52770615,1.201925993
1930,1.55965572339e+18,4.381523132,-19.43911743,4.201952457
1931,1.55965572345e+18,1.800494671,-10.68804264,2.937775135
1932,1.5596557235e+18,4.245049,-3.340013266,5.899493217
1933,1.55965572355e+18,5.652883053,3.957736254,14.01608467
1934,1.5596557236e+18,6.835654736,-2.427794695,8.384750366
1935,1.55965572365e+18,13.2666769,-0.01675992459,7.589851379
1936,1.55965572371e+18,10.55875206,0.1508393139,4.77418375
1937,1.55965572376e+18,4.041535854,2.286532402,-0.5315290093
1938,1.55965572381e+18,-3.720703125,-0.5961744189,-0.9337671995
1939,1.55965572386e+18,-6.893116951,1.515576005,-0.9984126091
1940,1.55965572391e+18,3.37113905,-3.622537851,16.95385933
1941,1.55965572397e+18,-2.681587696,2.50201726,2.82045579
1942,1.55965572402e+18,2.60736537,-21.48382759,7.781393051
1943,1.55965572407e+18,2.396669149,-35.06175995,0.1245022863
1944,1.55965572412e+18,11.34407425,-17.07836151,5.542746067
1945,1.55965572417e+18,3.272973776,-7.872375488,1.170800328
1946,1.55965572423e+18,0.8834874034,-3.03115201,2.092596292
1947,1.55965572428e+18,4.728692532,-4.769395351,2.837215662
1948,1.55965572433e+18,15.59870052,-7.960963726,-8.995290756
1949,1.55965572438e+18,21.05046463,-8.193208694,2.475680113
1950,1.55965572443e+18,14.04242134,-3.940976381,9.806949615
1951,1.55965572449e+18,6.945791245,2.710319042,1.496421814
1952,1.55965572454e+18,2.916226625,5.011217117,-2.930592299
1953,1.55965572459e+18,-10.31692982,4.666441441,-6.026389599
1954,1.55965572464e+18,18.27310562,-11.77743816,11.27703476
1955,1.55965572469e+18,6.083852291,-2.346389294,7.9729352
1956,1.55965572475e+18,15.21082783,-29.48310089,4.867560863
1957,1.5596557248e+18,12.78303337,-26.75362587,3.426207304
1958,1.55965572485e+18,6.261028767,-2.454131603,1.534730196
1959,1.5596557249e+18,2.181184292,-5.535563469,2.868341208
1960,1.55965572495e+18,2.966506481,-10.01764584,1.78134048
1961,1.55965572501e+18,3.11734581,-13.34808159,1.355159521
1962,1.55965572506e+18,10.15651417,-4.486870766,3.201145411
1963,1.55965572511e+18,14.15734673,1.362342358,4.357580185
1964,1.55965572516e+18,7.951386452,5.236279011,3.282550812
1965,1.55965572521e+18,2.923409462,3.572257996,3.193962574
1966,1.55965572527e+18,3.261002302,-4.053507328,6.057515144
1967,1.55965572532e+18,2.830032825,-11.72236919,-7.925049782
1968,1.55965572537e+18,-9.744698524,2.0375278,-4.132518291
1969,1.55965572542e+18,5.209941864,-9.493299484,6.689603806
1970,1.55965572547e+18,16.07276726,-39.30202103,5.901887417
1971,1.55965572553e+18,20.61709976,-16.61866188,7.822095871
1972,1.55965572558e+18,0.5578660369,-3.179596901,1.036720991
1973,1.55965572563e+18,1.640078187,-5.973715782,1.556278586
1974,1.55965572568e+18,7.944203854,-13.81257153,3.696760416
1975,1.55965572573e+18,11.31773663,-9.004867554,6.162863255
1976,1.55965572579e+18,8.320104599,-6.378347874,1.630501151
1977,1.55965572584e+18,6.962551117,0.0574625954,5.650488377
1978,1.55965572589e+18,1.113337755,5.937801361,1.0175668
1979,1.55965572594e+18,0.7853221297,7.618582249,-0.3663240373
1980,1.55965572599e+18,20.26035309,1.027143836,10.87958431
1981,1.55965572605e+18,-4.807703972,2.913832426,1.745426297
1982,1.5596557261e+18,0.7853221297,-7.010436535,2.774964571
1983,1.55965572615e+18,13.00809479,-19.9706459,9.222746849
1984,1.5596557262e+18,12.89556408,-32.44242477,0.1101366431
1985,1.55965572625e+18,9.969759941,4.271386147,3.94576478
1986,1.55965572631e+18,1.61134696,-5.525986195,0.5099805593
1987,1.55965572636e+18,5.358386993,-8.549955368,3.577046633
1988,1.55965572641e+18,13.42948723,-17.76551819,1.405439258
1989,1.55965572646e+18,15.03843975,-14.72000122,2.822849989
1990,1.55965572651e+18,7.33366394,-4.764606953,4.0726614
1991,1.55965572657e+18,3.150865555,3.038334846,3.96731329
1992,1.55965572662e+18,-0.3998439014,5.911464691,0.4980091453
1993,1.55965572667e+18,2.255406857,4.654470444,3.213116884
1994,1.55965572672e+18,-2.705530643,0.7063110471,1.61134696
1995,1.55965572677e+18,9.471751213,-18.47183037,19.14941025
1996,1.55965572683e+18,-1.898659945,-2.985660791,5.288952827
1997,1.55965572688e+18,5.928224564,-16.78865433,3.251425266
1998,1.55965572693e+18,8.528407097,-14.38480282,4.175615311
1999,1.55965572698e+18,5.34402132,0.0287312977,0.4932205975
2000,1.55965572703e+18,3.277762175,-10.17087936,1.755003452
2001,1.55965572709e+18,13.39596748,-16.03445816,12.83331299
2002,1.55965572714e+18,5.767807961,-16.98498535,1.793311834
2003,1.55965572719e+18,5.930618763,-9.692024231,9.39274025
2004,1.55965572724e+18,4.051113129,-3.258608103,11.30337143
2005,1.55965572729e+18,0.6153286099,5.226701736,5.906675816
2006,1.55965572735e+18,1.374313712,3.517189741,7.005648136
2007,1.5596557274e+18,1.304879785,1.541913033,2.557085514
2008,1.55965572745e+18,3.373533249,-3.591412306,-7.999272346
2009,1.5596557275e+18,-2.861158371,-6.986494064,-3.849993944
2010,1.55965572755e+18,32.63636017,-18.55562973,5.178816319
2011,1.55965572761e+18,-0.670396924,-2.657644987,2.961717844
2012,1.55965572766e+18,2.528354168,-7.436617374,1.486844659
2013,1.55965572771e+18,1.970488191,-7.168458939,2.774964571
2014,1.55965572776e+18,4.652075768,-16.27388573,3.519583941
2015,1.55965572781e+18,15.09111404,-12.7662735,6.409473896
2016,1.55965572787e+18,12.43586349,-7.941809654,1.007989645
