,Time (s),Acceleration x (m/s^2),Acceleration y (m/s^2),Acceleration z (m/s^2)
0,1.55965655405e+18,-5.997658253,0.3567469418,5.554717541
1,1.5596565541e+18,-4.194769382,0.2394274771,5.87555027
2,1.55965655415e+18,2.770175934,2.245829821,4.419831276
3,1.5596565542e+18,5.684008598,2.190761566,4.486870766
4,1.55965655426e+18,8.851634026,2.930592299,5.370358467
5,1.55965655431e+18,9.761458397,2.894678354,3.548315287
6,1.55965655436e+18,8.554743767,1.393467903,1.640078187
7,1.55965655441e+18,1.355159521,-6.859597206,5.497254848
8,1.55965655446e+18,13.22836876,3.629720688,-0.6201171875
9,1.55965655451e+18,9.198803902,2.806090117,-6.023995399
10,1.55965655457e+18,12.99851799,2.892283916,-2.913832426
11,1.55965655462e+18,15.97460175,6.857203007,-5.016005516
12,1.55965655467e+18,23.27953339,3.644086361,2.106961727
13,1.55965655472e+18,19.97543526,4.671230316,2.882706881
14,1.55965655477e+18,13.9993248,2.746233225,1.132491946
15,1.55965655482e+18,7.951386452,1.448536277,-0.7901107073
16,1.55965655487e+18,3.969707727,1.106154919,1.836408734
17,1.55965655492e+18,0.05027977005,1.652049661,0.464489311
18,1.55965655497e+18,-0.1891477108,1.594586968,1.97288239
19,1.55965655502e+18,0.2035133541,1.834014535,2.030344963
20,1.55965655507e+18,-1.97288239,2.418217659,2.305686712
21,1.55965655513e+18,-4.089421272,3.701548815,7.470137596
22,1.55965655518e+18,-12.31375504,6.541158676,14.52367115
23,1.55965655523e+18,-22.35055542,8.868393898,17.47102356
24,1.55965655528e+18,-40.09692001,17.33694458,9.905115128
25,1.55965655533e+18,-33.42886353,5.138113976,-12.25868702
26,1.55965655538e+18,3.608172178,-0.7350423932,17.73199844
27,1.55965655543e+18,34.76965714,-66.21366882,-34.8247261
28,1.55965655548e+18,-1.204320192,-7.563514233,-18.29944229
29,1.55965655553e+18,8.844450951,-2.176395893,-12.73275375
30,1.55965655558e+18,-3.869148016,3.969707727,-0.8739103079
31,1.55965655564e+18,-5.291347504,9.941028595,-7.697593689
32,1.55965655569e+18,-2.513988495,1.283331275,-3.016786337
33,1.55965655574e+18,-4.987274647,-0.59378016,0.3591412306
34,1.55965655579e+18,-4.32406044,-3.672817469,-0.1221080124
35,1.55965655584e+18,-0.5818088055,-1.482056141,3.057488918
36,1.55965655589e+18,2.796513081,-2.956929445,2.523565531
37,1.55965655594e+18,7.374366283,-13.23794556,7.089447498
38,1.55965655599e+18,14.94745731,-30.37376976,11.89715195
39,1.55965655604e+18,20.52851295,-22.97067261,6.093429565
40,1.55965655609e+18,21.63706207,-17.5045433,11.84447765
41,1.55965655614e+18,15.91713905,-12.44065189,10.32171917
42,1.5596565562e+18,9.94821167,-9.004867554,7.776604652
43,1.55965655625e+18,9.17725563,-6.835654736,5.861184597
44,1.5596565563e+18,8.954587936,-7.283383846,5.231490612
45,1.55965655635e+18,7.577879906,-10.55396366,3.608172178
46,1.5596565564e+18,5.779779434,-13.2666769,2.561874151
47,1.55965655645e+18,3.20353961,-14.89478397,0.6416656375
48,1.5596565565e+18,1.391073704,-15.26829052,0.01675992459
49,1.55965655655e+18,0.06225114316,-11.3297081,-0.4261809289
50,1.55965655661e+18,0.6416656375,-9.828497887,0.612934351
51,1.55965655666e+18,-0.2370332032,-9.953000069,0.09816526622
52,1.55965655671e+18,-1.096577883,-8.624177933,1.958516836
53,1.55965655676e+18,-1.041509509,-7.556331158,2.837215662
54,1.55965655681e+18,0.967287004,-7.982511997,4.21871233
55,1.55965655686e+18,1.647261024,-9.330489159,4.084632874
56,1.55965655691e+18,4.168432236,-10.35523891,4.771789551
57,1.55965655696e+18,6.565101624,-9.768641472,5.648094177
58,1.55965655701e+18,10.71437931,-6.375953674,11.34886265
59,1.55965655706e+18,9.890748978,-7.020013809,6.069486618
60,1.55965655712e+18,4.917840481,-5.8516078,1.666415215
61,1.55965655717e+18,5.286558628,-2.645673752,5.169239521
62,1.55965655722e+18,6.012023926,-1.975276709,2.494834423
63,1.55965655727e+18,2.315263748,0.8547561169,-3.170019865
64,1.55965655732e+18,-1.309668303,4.204346657,-2.760598898
65,1.55965655737e+18,-2.633702278,4.106181145,-3.495641232
66,1.55965655743e+18,-1.130097747,7.000859737,4.980091572
67,1.55965655748e+18,15.83094501,5.930618763,15.97460175
68,1.55965655753e+18,12.15573311,8.727131844,16.88442612
69,1.55965655758e+18,13.51807594,12.6010685,11.68884945
70,1.55965655763e+18,7.810124397,7.101418972,1.800494671
71,1.55965655768e+18,3.409447432,6.308914185,3.538738251
72,1.55965655773e+18,0.943344295,2.059076309,3.450150013
73,1.55965655778e+18,-1.517970204,-1.798100352,-0.8332076073
74,1.55965655784e+18,-3.213116884,-4.903474808,-3.581835032
75,1.55965655789e+18,-0.05267404765,-5.739076614,-5.530774593
76,1.55965655794e+18,2.231464148,-11.19084072,-2.949746609
77,1.55965655799e+18,6.62016964,-16.39599419,0.8523618579
78,1.55965655804e+18,13.15414619,-24.71609879,10.45819283
79,1.55965655809e+18,8.047157288,-25.29790688,2.985660791
80,1.55965655814e+18,10.49171257,-18.10790062,7.965752125
81,1.55965655819e+18,13.38639069,-11.90433407,13.30737972
82,1.55965655825e+18,8.578686714,-8.719948769,13.53722954
83,1.5596565583e+18,2.35357213,-10.15172482,9.00726223
84,1.55965655835e+18,-1.470084786,-9.610619545,5.231490612
85,1.5596565584e+18,0.2035133541,-9.490905762,4.118152618
86,1.55965655845e+18,0.3926610649,-10.8293047,4.903474808
87,1.5596565585e+18,1.561067224,-16.54922676,3.756617069
88,1.55965655855e+18,4.762212753,-10.94662476,7.008042336
89,1.5596565586e+18,6.203566074,-9.33767128,7.960963726
90,1.55965655865e+18,5.288952827,-8.269824982,6.30173111
91,1.55965655871e+18,5.377541065,-4.549122334,5.480494976
92,1.55965655876e+18,5.420638084,-4.091815472,3.933793545
93,1.55965655881e+18,6.323279858,-3.313676357,3.715914488
94,1.55965655886e+18,5.681613922,-4.230683804,3.785348415
95,1.55965655891e+18,5.877944469,-4.652075768,3.852388144
96,1.55965655896e+18,7.470137596,-5.681613922,4.443774223
97,1.55965655901e+18,11.17168617,-2.557085514,8.775016785
98,1.55965655906e+18,11.35604572,0.4357580245,9.371191978
99,1.55965655911e+18,9.785401344,0.6919454336,5.521197796
100,1.55965655917e+18,8.499675751,0.002394274808,3.440572977
101,1.55965655922e+18,7.46774292,1.635289669,3.205934048
102,1.55965655927e+18,5.782173634,2.916226625,4.599401951
103,1.55965655932e+18,5.035160065,3.148471355,3.636903524
104,1.55965655937e+18,3.093403101,3.167625666,4.367157459
105,1.55965655942e+18,1.9944309,4.726298332,4.649681568
106,1.55965655947e+18,4.21871233,3.852388144,3.490852594
107,1.55965655952e+18,7.889135361,1.228263021,1.185166001
108,1.55965655957e+18,8.32968235,1.616135478,0.1412622184
109,1.55965655962e+18,16.00333214,-5.454157829,-9.660899162
110,1.55965655968e+18,4.477293968,3.301704884,5.432609558
111,1.55965655973e+18,4.259414673,5.530774593,0.9696813226
112,1.55965655978e+18,4.793338299,4.788549423,2.185972929
113,1.55965655983e+18,2.37512064,6.624958515,-2.384697676
114,1.55965655988e+18,8.238699913,6.232297421,-4.568276405
115,1.55965655993e+18,8.875576973,1.766974807,-1.268965602
116,1.55965655998e+18,14.86844635,-3.847599506,-3.73267436
117,1.55965656003e+18,15.34969616,-7.764633179,-3.569863796
118,1.55965656008e+18,16.4750042,-8.561926842,0.299284339
119,1.55965656013e+18,17.85650063,-6.105400562,0.1412622184
120,1.55965656019e+18,22.03929901,-6.349617004,-1.697540879
121,1.55965656024e+18,19.9993782,-5.734288216,-0.7350423932
122,1.55965656029e+18,15.96502399,-4.795732498,-1.355159521
123,1.55965656034e+18,11.29379463,-4.161249638,-1.249811411
124,1.55965656039e+18,5.674431324,-2.109356165,-0.9936240315
125,1.55965656044e+18,2.411034822,-0.5842030644,-0.8954587579
126,1.55965656049e+18,0.5889915824,-1.055875182,0.5267404318
127,1.55965656054e+18,1.053480864,1.922602654,1.616135478
128,1.55965656059e+18,-1.826831698,5.590631485,7.144515991
129,1.55965656065e+18,-14.49015141,11.89954567,9.974549294
130,1.5596565607e+18,-37.67630768,16.84611702,7.331269264
131,1.55965656075e+18,-35.89017868,11.90194035,-11.86123753
132,1.5596565608e+18,-19.11828423,-4.932206154,1.618529797
133,1.55965656085e+18,24.7663784,-17.75115395,0.3495641351
134,1.5596565609e+18,20.07599449,-15.28744507,5.636122704
135,1.55965656095e+18,2.592999697,-11.27942848,-9.505270958
136,1.559656561e+18,-1.661626697,-0.4573064744,-12.74711895
137,1.55965656105e+18,-13.69285774,14.67451,-8.207573891
138,1.5596565611e+18,-2.470891714,3.11734581,-2.22667551
139,1.55965656115e+18,-7.292961121,3.158048391,0.184359163
140,1.5596565612e+18,-8.775016785,1.776551962,2.195549965
141,1.55965656125e+18,-9.699207306,-0.2609759569,3.914639235
142,1.5596565613e+18,-10.32890129,-0.8739103079,6.229903221
143,1.55965656135e+18,-10.64733982,-2.56666255,5.858790398
144,1.55965656141e+18,-11.06394386,-3.37113905,6.282577038
145,1.55965656146e+18,-9.610619545,-3.256213665,5.595420361
146,1.55965656151e+18,-7.61379385,-2.58821106,5.593026161
147,1.55965656156e+18,-6.931425571,-2.50201726,6.536370277
148,1.55965656161e+18,-5.91625309,-2.363149166,6.419050694
149,1.55965656166e+18,-4.778972626,-0.9888355136,6.51242733
150,1.55965656171e+18,-3.217905283,0.07422251999,7.209161282
151,1.55965656176e+18,-2.157241583,0.5387118459,9.663292885
152,1.55965656181e+18,-1.113337755,1.027143836,11.08070374
153,1.55965656186e+18,0.1053480953,-0.2250618339,12.21559048
154,1.55965656191e+18,2.595393896,-0.612934351,10.84367085
155,1.55965656196e+18,2.042316437,-0.313650012,11.17886925
156,1.55965656201e+18,2.423006058,0.1316851079,10.09905148
157,1.55965656206e+18,3.24424243,0.1197137386,9.438231468
158,1.55965656212e+18,4.379128456,-0.5650488734,9.414288521
159,1.55965656217e+18,5.087833881,-0.9313728809,8.901913643
160,1.55965656222e+18,4.307300568,-0.3759011328,8.3153162
161,1.55965656227e+18,4.0702672,0.09337671846,9.009655952
162,1.55965656232e+18,4.034353256,0.06225114316,8.913885117
163,1.55965656237e+18,4.484476566,0.2346389294,8.03758049
164,1.55965656242e+18,5.710345268,-1.683175206,9.220352173
165,1.55965656247e+18,4.762212753,-2.360754967,8.358413696
166,1.55965656252e+18,5.288952827,-3.938581944,9.349642754
167,1.55965656257e+18,4.872349262,-3.979284763,8.279402733
168,1.55965656262e+18,5.044736862,-4.874743462,8.916279793
169,1.55965656268e+18,4.513207912,-4.204346657,7.264229774
170,1.55965656273e+18,4.867560863,-4.206740856,7.410280704
171,1.55965656278e+18,4.733481407,-4.067873001,6.636929989
172,1.55965656283e+18,4.987274647,-4.297723293,6.907482624
173,1.55965656288e+18,4.946571827,-4.273780346,6.69918108
174,1.55965656293e+18,4.759818554,-4.288146019,6.730306625
175,1.55965656298e+18,5.528380394,-4.369551659,6.866780281
176,1.55965656304e+18,5.332049847,-4.434196949,6.818894863
177,1.55965656309e+18,5.308107376,-4.288146019,6.749460697
178,1.55965656314e+18,5.724710941,-4.098998547,6.72312355
179,1.55965656319e+18,5.684008598,-4.108575344,7.465348721
180,1.55965656324e+18,5.284164429,-4.297723293,7.199584484
181,1.55965656329e+18,5.27937603,-3.30888772,7.527599812
182,1.55965656334e+18,5.672037125,-3.577046633,8.401510239
183,1.55965656339e+18,5.645699978,-3.957736254,7.778998852
184,1.55965656344e+18,5.619362831,-3.737462997,7.889135361
185,1.55965656349e+18,5.528380394,-3.835628271,7.283383846
186,1.55965656355e+18,5.363175392,-3.268185139,6.83086586
187,1.5596565636e+18,5.849213123,-3.213116884,6.821289062
188,1.55965656365e+18,6.294548512,-3.929004908,7.570696831
189,1.5596565637e+18,5.559505939,-4.067873001,6.754249096
190,1.55965656375e+18,5.209941864,-3.787742853,6.677632332
191,1.5596565638e+18,5.588237286,-4.21871233,6.426233768
192,1.55965656385e+18,5.842030525,-3.852388144,6.742278099
193,1.55965656391e+18,5.765413761,-3.526766777,6.72551775
194,1.55965656396e+18,5.458946705,-3.067065954,6.854808807
195,1.55965656401e+18,5.842030525,-2.681587696,7.673650742
196,1.55965656406e+18,6.332856655,-2.554691315,8.753468513
197,1.55965656411e+18,6.433416367,-2.219492674,9.024022102
198,1.55965656416e+18,7.127756119,-1.992036581,9.622590065
199,1.55965656421e+18,6.9122715,-1.31445682,9.088666916
200,1.55965656426e+18,6.708757877,-0.9912297726,8.844450951
201,1.55965656431e+18,7.314509392,-0.102953814,9.871595383
202,1.55965656436e+18,7.513234138,-0.4333637357,9.715967178
203,1.55965656441e+18,6.780586243,-0.01915419847,8.877970695
204,1.55965656447e+18,5.837242126,0.1604164094,9.05993557
205,1.55965656452e+18,3.687183142,0.7374366522,8.832479477
206,1.55965656457e+18,3.581835032,0.8451790214,8.640937805
207,1.55965656462e+18,2.166818619,1.130097747,7.328875065
208,1.55965656467e+18,1.944151163,0.5889915824,7.61379385
209,1.55965656472e+18,1.879505754,1.426987767,5.540351868
210,1.55965656477e+18,1.594586968,2.030344963,6.251451492
211,1.55965656482e+18,3.617749214,0.3543526828,6.117372036
212,1.55965656487e+18,4.309694767,1.261782765,6.004841328
213,1.55965656493e+18,5.494860649,0.7350423932,5.595420361
214,1.55965656498e+18,5.549929142,0.5099805593,5.32007885
215,1.55965656503e+18,9.756669998,-0.4956148863,3.555498123
216,1.55965656508e+18,21.77114105,-6.08624649,6.59143877
217,1.55965656513e+18,6.402290821,0.7446194887,6.354405403
218,1.55965656518e+18,7.419857502,4.192375183,4.901080608
219,1.55965656523e+18,7.704776287,6.170046329,1.764580488
220,1.55965656529e+18,5.341627121,2.547508478,7.889135361
221,1.55965656534e+18,10.12538815,6.988888264,6.201171875
222,1.55965656539e+18,4.036747456,4.941783428,6.134131908
223,1.55965656544e+18,2.324840784,2.899466753,9.050358772
224,1.55965656549e+18,1.338399649,3.033546209,6.387925148
225,1.55965656554e+18,3.050306082,3.155654192,9.596253395
226,1.55965656559e+18,-0.2250618339,4.333637238,11.90433407
227,1.55965656564e+18,-8.652909279,6.251451492,18.86927986
228,1.55965656569e+18,-22.10873413,6.000052452,22.39125824
229,1.55965656574e+18,-35.95482635,9.902720451,3.605777979
230,1.5596565658e+18,-21.27552605,2.066259146,-5.640911579
231,1.55965656585e+18,9.33767128,-13.35765934,27.06248856
232,1.5596565659e+18,5.226701736,-42.55583954,2.229069948
233,1.55965656595e+18,16.5037365,7.297749519,-7.869981289
234,1.559656566e+18,-5.944984436,-8.39672184,-9.416683197
235,1.55965656605e+18,-6.780586243,16.94907188,-2.276955366
236,1.5596565661e+18,-10.49171257,4.726298332,-6.363982677
237,1.55965656616e+18,-0.7637736797,-1.692752242,2.99044919
238,1.55965656621e+18,-3.56268096,-1.206714511,2.58821106
239,1.55965656626e+18,-2.803695917,-1.221080184,1.192348838
240,1.55965656631e+18,-1.18756032,0.1221080124,3.849993944
241,1.55965656636e+18,0.5889915824,4.21871233,7.132544518
242,1.55965656641e+18,3.900273561,2.343995094,11.81335163
243,1.55965656646e+18,10.95141315,5.118959427,14.42071724
244,1.55965656651e+18,18.4263382,3.883513689,15.45504379
245,1.55965656656e+18,17.46384048,7.44140625,12.28262997
246,1.55965656661e+18,13.96580505,9.402317047,10.07032013
247,1.55965656667e+18,8.35601902,9.227535248,8.030397415
248,1.55965656672e+18,6.847625732,5.013611317,6.861991405
249,1.55965656677e+18,8.126168251,1.110943556,6.768614769
250,1.55965656682e+18,9.318517685,-0.1508393139,6.522004604
251,1.55965656687e+18,8.487704277,-0.04070267081,4.889109135
252,1.55965656692e+18,7.003253937,-0.7182824612,5.367964268
253,1.55965656697e+18,5.700768471,0.5746259689,4.424619675
254,1.55965656702e+18,4.66883564,1.189954638,5.195576191
255,1.55965656707e+18,5.109382629,0.9888355136,5.554717541
256,1.55965656712e+18,6.589044094,0.4788549542,5.55711174
257,1.55965656718e+18,7.12296772,0.5435003638,6.802134514
258,1.55965656723e+18,7.937020779,0.8667274714,7.427040577
259,1.55965656728e+18,7.484503269,1.393467903,7.841249943
260,1.55965656733e+18,7.324086666,1.71908927,7.704776287
261,1.55965656738e+18,7.82688427,2.468497276,7.788576126
262,1.55965656743e+18,8.537983894,2.224281311,7.175641537
263,1.55965656748e+18,8.061523438,1.486844659,7.048745155
264,1.55965656754e+18,7.915472507,0.8092648983,6.639324188
265,1.55965656759e+18,7.877163887,0.3423812985,5.798933506
266,1.55965656764e+18,6.897905827,0.689551115,5.631334305
267,1.55965656769e+18,6.65847826,1.063058019,6.876357079
268,1.55965656774e+18,5.530774593,3.124528646,16.10389328
269,1.55965656779e+18,8.080677032,2.940169573,25.67620277
270,1.55965656784e+18,17.41356087,4.740664005,25.77915764
271,1.5596565679e+18,19.14701653,6.998465061,8.250671387
272,1.55965656795e+18,9.071907043,4.180403709,1.565855742
273,1.559656568e+18,3.785348415,1.920208454,-0.4309694767
274,1.55965656805e+18,-1.403045058,1.189954638,-3.258608103
275,1.5596565681e+18,-0.02154847234,1.40065074,1.608952641
276,1.55965656815e+18,0.8643332124,0.8451790214,0.8547561169
277,1.5596565682e+18,0.4525179267,3.210722446,0.8595446348
278,1.55965656825e+18,-0.3759011328,5.181210518,1.096577883
279,1.5596565683e+18,-2.897072554,6.371165276,0.7781392932
280,1.55965656836e+18,-3.340013266,7.388731956,1.601769805
281,1.55965656841e+18,-4.03195858,7.338452339,1.134886265
282,1.55965656846e+18,-1.757397652,5.782173634,1.431776285
283,1.55965656851e+18,-1.041509509,3.392687321,0.3232271075
284,1.55965656856e+18,0.6919454336,2.856369734,0.8715160489
285,1.55965656861e+18,0.2466102988,1.228263021,1.321639657
286,1.55965656866e+18,-1.728666425,3.529160976,5.815693378
287,1.55965656871e+18,-6.172440529,8.815719604,5.231490612
288,1.55965656876e+18,-5.973715782,5.616968632,9.888355255
289,1.55965656882e+18,-0.5219519138,4.465322495,8.662486076
290,1.55965656887e+18,4.467716694,2.195549965,12.81894779
291,1.55965656892e+18,3.955342054,1.755003452,7.668862343
292,1.55965656897e+18,11.00169277,-0.1556278616,10.78381348
293,1.55965656902e+18,8.775016785,0.1891477108,9.304151535
294,1.55965656907e+18,11.20520592,-3.486064196,10.35763264
295,1.55965656912e+18,7.580274105,-3.926610708,8.109408379
296,1.55965656917e+18,8.135746002,-4.89629221,6.893116951
297,1.55965656922e+18,7.352818012,-4.362368584,4.731087208
298,1.55965656928e+18,6.715940952,-6.253845692,4.70714426
299,1.55965656933e+18,6.557918549,-7.527599812,5.640911579
300,1.55965656938e+18,8.590658188,-9.833286285,5.102199554
301,1.55965656943e+18,5.456552505,-7.309720993,3.845205307
302,1.55965656948e+18,4.891503334,-7.223526955,2.928198099
303,1.55965656953e+18,5.253038883,-7.637736797,3.385504484
304,1.55965656958e+18,4.288146019,-7.668862343,3.56268096
305,1.55965656963e+18,5.06628561,-9.2035923,3.581835032
306,1.55965656969e+18,5.193181992,-9.3783741,3.610566378
307,1.55965656974e+18,4.034353256,-8.892336845,3.062277555
308,1.55965656979e+18,3.926610708,-8.78219986,2.944957972
309,1.55965656984e+18,3.440572977,-8.502069473,2.389486313
310,1.55965656989e+18,4.008016109,-9.196409225,2.67201066
311,1.55965656994e+18,3.385504484,-8.815719604,2.18357873
312,1.55965656999e+18,2.600182533,-8.973741531,1.843591571
313,1.55965657004e+18,2.736656189,-9.196409225,1.489238977
314,1.55965657009e+18,3.442967176,-9.296969414,1.874717116
315,1.55965657015e+18,3.208328247,-9.134158134,1.92978549
316,1.5596565702e+18,3.493247032,-9.282603264,2.329629421
317,1.55965657025e+18,3.253819466,-9.320911407,2.044710636
318,1.5596565703e+18,3.232270956,-9.10063839,2.178790092
319,1.55965657035e+18,3.265790939,-9.105426788,2.274561167
320,1.5596565704e+18,3.316070557,-8.935433388,2.049499273
321,1.55965657045e+18,3.296916485,-9.045570374,2.061470509
322,1.5596565705e+18,3.672817469,-9.095849991,2.877918243
323,1.55965657055e+18,3.885908127,-8.978530884,3.134105682
324,1.55965657061e+18,4.589824677,-8.719948769,4.788549423
325,1.55965657066e+18,3.938581944,-8.660092354,5.229096413
326,1.55965657071e+18,3.991255999,-9.035993576,5.715134144
327,1.55965657076e+18,4.13730669,-9.086273193,5.643305779
328,1.55965657081e+18,4.819674969,-8.954587936,6.80452919
329,1.55965657086e+18,4.733481407,-9.119792938,6.265817165
330,1.55965657091e+18,4.529967785,-7.848433018,5.933012962
331,1.55965657096e+18,4.474899769,-7.166064739,5.87555027
332,1.55965657101e+18,4.721509933,-6.205960274,5.581054688
333,1.55965657107e+18,4.678412914,-5.413455486,6.071880817
334,1.55965657112e+18,4.355185986,-4.075055599,5.95695591
335,1.55965657117e+18,4.489265442,-3.780560017,5.944984436
336,1.55965657122e+18,3.742251635,-2.997632027,5.358386993
337,1.55965657127e+18,3.735068798,-2.288926601,5.739076614
338,1.55965657132e+18,3.790137053,-2.061470509,7.352818012
339,1.55965657137e+18,3.871542454,-1.944151163,8.595446587
340,1.55965657143e+18,4.359974384,-1.211503029,9.493299484
341,1.55965657148e+18,4.398283005,-1.110943556,9.718361855
342,1.55965657153e+18,4.189980984,-0.5770202279,8.978530884
343,1.55965657158e+18,4.510813713,-0.5985686779,9.759063721
344,1.55965657163e+18,4.417437077,0.2178790122,9.299363136
345,1.55965657168e+18,4.448562622,0.4261809289,9.517242432
346,1.55965657173e+18,3.924216509,0.8595446348,9.830892563
347,1.55965657179e+18,3.476486921,1.206714511,9.569916725
348,1.55965657184e+18,2.818061352,1.010383964,9.210775375
349,1.55965657189e+18,3.701548815,0.9912297726,9.524425507
350,1.55965657194e+18,3.227482557,1.393467903,8.245882034
351,1.55965657199e+18,2.420611858,1.575432777,7.901106834
352,1.55965657204e+18,2.322446585,1.71908927,7.422251701
353,1.55965657209e+18,2.147664547,1.58979845,7.841249943
354,1.55965657214e+18,1.874717116,1.958516836,8.030397415
355,1.55965657219e+18,1.989642382,1.656838179,8.05194664
356,1.55965657224e+18,3.227482557,1.424593568,8.095043182
357,1.55965657229e+18,5.935407162,-0.06225114316,5.245856285
358,1.55965657234e+18,10.20439911,-2.004008055,-0.2801301479
359,1.55965657239e+18,4.417437077,9.000079155,5.276981831
360,1.55965657245e+18,4.302511692,3.040729046,4.400677204
361,1.5596565725e+18,6.799740314,6.34003973,7.211555958
362,1.55965657255e+18,3.861965179,3.464515686,6.469330311
363,1.5596565726e+18,6.155680656,1.115732074,8.1453228
364,1.55965657265e+18,7.934626579,0.1436564922,9.27063179
365,1.5596565727e+18,10.97774982,0.4094209969,13.38399601
366,1.55965657275e+18,9.474145889,1.156434774,13.19963741
367,1.5596565728e+18,7.901106834,0.6368771195,12.62740517
368,1.55965657285e+18,6.507638931,1.312062621,10.74790001
369,1.5596565729e+18,3.404658794,2.023162127,6.87156868
370,1.55965657296e+18,2.43976593,1.977671027,6.361588001
371,1.55965657301e+18,1.376708031,1.345582485,4.661653042
372,1.55965657306e+18,-0.1053480953,1.278542757,5.23867321
373,1.55965657311e+18,-1.54670155,2.094990492,5.966532707
374,1.55965657316e+18,-4.558699131,3.136499882,9.22992897
375,1.55965657321e+18,-10.30016994,7.110996246,11.90912247
376,1.55965657326e+18,-19.46066475,11.28421688,14.34170628
377,1.55965657331e+18,-35.20780945,20.44710732,5.17163372
378,1.55965657336e+18,-32.92127991,5.80851078,3.404658794
379,1.55965657342e+18,8.506858826,-16.18050957,23.35136223
380,1.55965657347e+18,22.80307388,-36.2325592,14.178895
381,1.55965657352e+18,7.817307472,-7.216344357,-13.04640388
382,1.55965657357e+18,-11.00648117,2.049499273,-15.81179047
383,1.55965657362e+18,-10.07750225,11.11422348,-3.390293121
384,1.55965657367e+18,-2.923409462,6.227508545,3.299310684
385,1.55965657372e+18,-5.559505939,6.826077461,3.395081758
386,1.55965657377e+18,-4.151672363,3.409447432,3.869148016
387,1.55965657382e+18,-1.412622094,1.862745762,0.8499675393
388,1.55965657387e+18,1.029538155,1.800494671,1.948939681
389,1.55965657393e+18,0.2178790122,-0.241821751,0.483643502
390,1.55965657398e+18,0.4405465722,1.261782765,2.992843628
391,1.55965657403e+18,2.195549965,-0.5363175869,10.20918751
392,1.55965657408e+18,3.208328247,-4.45574522,14.5045166
393,1.55965657413e+18,5.724710941,-4.134912491,21.48382759
394,1.55965657418e+18,3.823656797,-4.249837875,16.81259727
395,1.55965657423e+18,6.905088425,-3.263396502,14.96421719
396,1.55965657429e+18,5.365570068,-1.276148438,12.85964966
397,1.55965657434e+18,4.553910732,-1.163617611,10.66888809
398,1.55965657439e+18,6.387925148,-0.9720755816,9.404711723
399,1.55965657444e+18,6.581861496,-1.221080184,9.189227104
400,1.55965657449e+18,6.146103382,-1.989642382,8.245882034
401,1.55965657454e+18,6.117372036,-2.367937803,7.580274105
402,1.55965657459e+18,6.356799603,-3.059883118,7.434223175
403,1.55965657464e+18,5.798933506,-2.806090117,7.343240738
404,1.55965657469e+18,6.414262295,-4.063084126,6.981705189
405,1.55965657474e+18,5.746259689,-3.727885962,6.87156868
406,1.5596565748e+18,6.246663094,-4.146883965,6.605803967
407,1.55965657485e+18,5.018400192,-3.931399345,6.581861496
408,1.5596565749e+18,5.38711834,-3.524372578,6.332856655
409,1.55965657495e+18,5.889915943,-3.54113245,7.075081825
410,1.559656575e+18,5.734288216,-3.404658794,7.065505028
411,1.55965657505e+18,6.136526108,-3.675211906,7.216344357
412,1.5596565751e+18,5.640911579,-3.442967176,6.955368519
413,1.55965657516e+18,5.236279011,-3.340013266,6.885934353
414,1.55965657521e+18,6.347222328,-3.545921087,7.020013809
415,1.55965657526e+18,6.876357079,-3.651269197,7.331269264
416,1.55965657531e+18,7.067899227,-3.845205307,7.29535532
417,1.55965657536e+18,6.462147713,-3.450150013,6.696786404
418,1.55965657541e+18,6.478907585,-3.32804203,6.426233768
419,1.55965657546e+18,6.438204765,-3.067065954,6.227508545
420,1.55965657551e+18,7.020013809,-3.399870157,6.232297421
421,1.55965657556e+18,6.876357079,-3.390293121,6.308914185
422,1.55965657562e+18,6.984099388,-3.747040033,6.584255695
423,1.55965657567e+18,6.682421207,-3.64887476,6.222720146
424,1.55965657572e+18,6.857203007,-3.452544212,6.701575279
425,1.55965657577e+18,6.390319347,-3.129317284,5.947378635
426,1.55965657582e+18,6.962551117,-3.316070557,6.335251331
427,1.55965657587e+18,6.818894863,-3.512401104,6.414262295
428,1.55965657592e+18,6.304125786,-3.531555414,6.184412003
429,1.55965657597e+18,6.629746914,-3.335224867,6.217931747
430,1.55965657602e+18,6.59143877,-3.294522047,6.1939888
431,1.55965657607e+18,6.771008968,-3.141288519,6.069486618
432,1.55965657613e+18,6.557918549,-2.844398499,6.232297421
433,1.55965657618e+18,6.668055534,-2.77735877,5.949772835
434,1.55965657623e+18,7.079870701,-2.724684715,6.263422966
435,1.55965657628e+18,7.278595448,-3.083826065,6.663266659
436,1.55965657633e+18,7.115784645,-2.736656189,6.893116951
437,1.55965657638e+18,6.969734192,-2.760598898,6.957762718
438,1.55965657643e+18,6.359193802,-2.533142805,7.321692467
439,1.55965657648e+18,6.771008968,-2.703136206,7.685622215
440,1.55965657654e+18,6.988888264,-2.887495518,7.563514233
441,1.55965657659e+18,7.376760483,-2.22667551,7.683228016
442,1.55965657664e+18,6.943397045,-1.774157643,7.877163887
443,1.55965657669e+18,7.556331158,-0.986441195,8.822902679
444,1.55965657674e+18,6.562707424,-0.591385901,9.040781975
445,1.55965657679e+18,6.586649895,0.09816526622,9.811738014
446,1.55965657684e+18,5.820482254,0.5195576549,8.997684479
447,1.55965657689e+18,5.432609558,0.7015225291,8.358413696
448,1.55965657695e+18,4.81488657,1.917814136,7.108602047
449,1.559656577e+18,5.765413761,2.123721838,9.01923275
450,1.55965657705e+18,5.382329941,2.241041183,9.313729286
451,1.5596565771e+18,2.803695917,3.191568375,6.023995399
452,1.55965657715e+18,4.173221111,3.083826065,8.506858826
453,1.5596565772e+18,2.01597929,2.86355257,6.842837334
454,1.55965657725e+18,4.336031914,2.193155766,6.253845692
455,1.5596565773e+18,5.293741703,3.335224867,4.594613552
456,1.55965657736e+18,4.793338299,2.774964571,2.322446585
457,1.55965657741e+18,7.166064739,1.242628574,0.5363175869
458,1.55965657746e+18,6.442993641,0.0837996155,2.078230619
459,1.55965657751e+18,-3.079037428,2.449343204,4.094210148
460,1.55965657756e+18,4.635315895,9.457385063,-3.419024467
461,1.55965657761e+18,2.82045579,4.422225475,14.60507679
462,1.55965657766e+18,-1.31445682,3.153259993,9.265843391
463,1.55965657771e+18,7.450983047,1.302485466,6.012023926
464,1.55965657777e+18,6.466936111,-6.170046329,10.20679379
465,1.55965657782e+18,11.57871342,-0.5530774593,18.00015831
466,1.55965657787e+18,12.98654652,-4.60419035,17.49736023
467,1.55965657792e+18,13.2666769,-2.104567528,15.29941559
468,1.55965657797e+18,6.864386082,-0.4501236677,9.931451797
469,1.55965657802e+18,4.936994553,1.61134696,7.089447498
470,1.55965657807e+18,3.407052994,0.3639297783,4.726298332
471,1.55965657812e+18,1.695146561,1.359948039,4.539545059
472,1.55965657817e+18,1.245022893,1.405439258,4.726298332
473,1.55965657823e+18,-1.161223292,2.791724443,4.891503334
474,1.55965657828e+18,0.6416656375,2.640885115,4.422225475
475,1.55965657833e+18,-0.2011190802,2.097384691,3.75422287
476,1.55965657838e+18,-2.722290516,4.49644804,3.993650436
477,1.55965657843e+18,-8.616994858,7.968146324,8.492492676
478,1.55965657848e+18,-17.01371765,14.64817333,10.72156239
479,1.55965657853e+18,-36.8335228,25.19016457,7.75984478
480,1.55965657858e+18,-33.56533813,17.26750946,5.698374271
481,1.55965657863e+18,-5.904281616,8.693612099,3.162837029
482,1.55965657868e+18,25.367342,-77.33747101,-34.70740891
483,1.55965657874e+18,9.687235832,1.199531674,-10.31932449
484,1.55965657879e+18,0.926584363,-5.624151707,-13.97059345
485,1.55965657884e+18,-3.854782343,9.342460632,-6.308914185
486,1.55965657889e+18,-4.474899769,7.269018173,-5.8516078
487,1.55965657894e+18,-1.642472506,4.898686409,-0.3471698463
488,1.55965657899e+18,-5.38472414,4.70714426,-0.2873129845
489,1.55965657904e+18,-3.22508812,1.067846537,1.721483588
490,1.55965657909e+18,-2.22667551,0.3304099143,4.869955063
491,1.55965657914e+18,-4.348002911,2.652856588,3.885908127
492,1.55965657919e+18,-1.82204318,4.209135056,8.193208694
493,1.55965657925e+18,-0.4764606953,8.621783257,11.16210938
494,1.5596565793e+18,-0.8810931444,5.157268047,16.25712585
495,1.55965657935e+18,3.210722446,6.296942711,14.82295513
496,1.5596565794e+18,6.957762718,5.695979595,16.43190765
497,1.55965657945e+18,5.736682415,5.286558628,12.49332619
498,1.5596565795e+18,6.682421207,4.932206154,10.23552513
499,1.55965657955e+18,7.19000721,3.840416908,8.712765694
500,1.5596565796e+18,7.216344357,3.193962574,7.410280704
501,1.55965657965e+18,6.964945316,2.583422422,7.910684109
502,1.5596565797e+18,5.918647289,2.537931204,6.220325947
503,1.55965657976e+18,6.469330311,2.233858347,6.974522591
504,1.55965657981e+18,7.156487465,2.262589693,5.95695591
505,1.55965657986e+18,7.470137596,1.683175206,6.184412003
506,1.55965657991e+18,7.65210247,1.661626697,5.832453251
507,1.55965657996e+18,7.180429935,1.522758722,5.511620522
508,1.55965658001e+18,6.814105988,1.431776285,6.253845692
509,1.55965658007e+18,7.065505028,1.635289669,6.050332546
510,1.55965658012e+18,7.431828976,1.486844659,6.179623127
511,1.55965658017e+18,7.012830734,1.486844659,6.134131908
512,1.55965658022e+18,7.091842175,1.333611012,6.555524349
513,1.55965658027e+18,7.407886028,1.534730196,6.505244732
514,1.55965658032e+18,8.109408379,1.491633177,6.38074255
515,1.55965658037e+18,7.78618145,1.415016413,6.488484859
516,1.55965658042e+18,7.913078308,1.532335877,6.244268894
517,1.55965658047e+18,7.903501034,1.491633177,6.119766235
518,1.55965658052e+18,7.661679268,1.474873304,5.834847927
519,1.55965658058e+18,7.817307472,1.369525194,5.604997158
520,1.55965658063e+18,7.486897469,1.415016413,5.336838722
521,1.55965658068e+18,7.922655106,1.359948039,5.590631485
522,1.55965658073e+18,8.444606781,1.151646137,5.588237286
523,1.55965658078e+18,7.951386452,1.170800328,5.655277252
524,1.55965658083e+18,8.250671387,1.077423692,5.70555687
525,1.55965658088e+18,7.513234138,1.161223292,5.509226322
526,1.55965658094e+18,7.960963726,1.12530911,5.729499817
527,1.55965658099e+18,7.877163887,1.041509509,5.473312378
528,1.55965658104e+18,8.195602417,1.007989645,5.777385235
529,1.55965658109e+18,7.836461544,1.113337755,5.394300938
530,1.55965658114e+18,7.822095871,1.149251938,5.521197796
531,1.55965658119e+18,7.72153616,1.242628574,5.423032284
532,1.55965658124e+18,8.035185814,1.233051538,5.502043724
533,1.55965658129e+18,8.279402733,1.154040456,5.485283375
534,1.55965658135e+18,7.937020779,1.209108829,5.348809719
535,1.5596565814e+18,8.250671387,1.216291547,5.348809719
536,1.55965658145e+18,7.927443981,1.197137356,5.19797039
537,1.5596565815e+18,8.37038517,1.18756032,5.731894016
538,1.55965658155e+18,7.862798691,1.091789365,6.174834728
539,1.5596565816e+18,7.175641537,0.8236305118,6.83086586
540,1.55965658165e+18,6.93621397,0.4070267081,6.806923389
541,1.5596565817e+18,6.929031372,0.462095052,7.003253937
542,1.55965658175e+18,7.776604652,0.332804203,6.711152077
543,1.5596565818e+18,7.233104229,0.3184385598,6.366376877
544,1.55965658186e+18,7.331269264,0.5243461728,6.701575279
545,1.55965658191e+18,6.761432171,0.7972934842,7.19000721
546,1.55965658196e+18,7.060716629,1.087000728,8.066311836
547,1.55965658201e+18,6.543552876,1.431776285,8.468549728
548,1.55965658206e+18,6.1939888,1.285725594,9.095849991
549,1.55965658211e+18,5.882733345,1.467690468,9.277814865
550,1.55965658217e+18,6.06230402,1.795706153,9.318517685
551,1.55965658222e+18,5.528380394,2.358360767,8.88515377
552,1.55965658227e+18,4.292934895,2.312869549,8.028003693
553,1.55965658232e+18,3.608172178,3.0096035,7.711959362
554,1.55965658237e+18,3.510006905,3.363956213,8.35601902
555,1.55965658242e+18,4.127729893,3.77337718,8.207573891
556,1.55965658247e+18,2.492439985,4.302511692,7.776604652
557,1.55965658253e+18,1.958516836,4.32406044,7.376760483
558,1.55965658258e+18,1.951334,3.96731329,7.812518597
559,1.55965658263e+18,2.427794695,3.026363373,8.47812748
560,1.55965658268e+18,2.442160368,3.24424243,8.308133125
561,1.55965658273e+18,2.212309837,3.067065954,8.241093636
562,1.55965658278e+18,2.020767927,4.043930054,9.459779739
563,1.55965658284e+18,2.870735407,3.727885962,8.535589218
564,1.55965658289e+18,2.643279314,3.126922846,8.039975166
565,1.55965658294e+18,2.315263748,3.272973776,7.587456703
566,1.55965658299e+18,2.530748367,2.849187136,7.82688427
567,1.55965658304e+18,2.255406857,2.727078915,6.943397045
568,1.55965658309e+18,3.478881359,1.467690468,7.510839939
569,1.55965658314e+18,10.21637058,0.5219519138,3.0119977
570,1.55965658319e+18,21.71607208,-17.85889626,9.984126091
571,1.55965658325e+18,0.1628106833,15.57715225,1.618529797
572,1.5596565833e+18,3.632114887,4.795732498,6.146103382
573,1.55965658335e+18,1.874717116,5.964138508,5.257827282
574,1.5596565834e+18,1.735849261,7.525205612,3.744645834
575,1.55965658345e+18,4.355185986,4.369551659,9.153312683
576,1.5596565835e+18,6.555524349,6.397502422,13.9849596
577,1.55965658355e+18,6.043149471,6.691998005,17.8636837
578,1.5596565836e+18,3.993650436,4.53715086,11.52843285
579,1.55965658365e+18,0.6225114465,3.536343813,6.715940952
580,1.5596565837e+18,0.6632141471,2.592999697,3.680000305
581,1.55965658375e+18,0.8882759809,2.245829821,4.963331699
582,1.5596565838e+18,-0.9888355136,0.8643332124,5.660065651
583,1.55965658386e+18,-2.643279314,2.128510237,6.689603806
584,1.55965658391e+18,-5.430215359,5.856396198,9.067118645
585,1.55965658396e+18,-12.10066509,9.718361855,13.89158249
586,1.55965658401e+18,-25.45832443,15.68968296,16.83893394
587,1.55965658406e+18,-36.74254227,21.76874733,1.347976685
588,1.55965658411e+18,-29.96674347,1.091789365,-1.31445682
589,1.55965658416e+18,11.99771118,-9.689630508,16.20684624
590,1.55965658421e+18,31.02501297,-42.74498749,30.49587822
591,1.55965658426e+18,2.157241583,-3.569863796,-14.62183666
592,1.55965658431e+18,-3.636903524,3.524372578,-10.41749001
593,1.55965658437e+18,-4.312088966,10.12778282,-2.293715239
594,1.55965658442e+18,-3.189173937,6.727912426,-0.09577099234
595,1.55965658447e+18,-4.221106529,4.491659641,2.609759569
596,1.55965658452e+18,-3.069460392,1.448536277,4.079844475
597,1.55965658457e+18,-2.504411459,-0.1388679445,2.090201855
598,1.55965658462e+18,-0.313650012,-1.877111435,3.725491524
599,1.55965658467e+18,-0.7637736797,-0.8834874034,2.88510108
600,1.55965658472e+18,-0.4070267081,-1.0606637,4.848406315
601,1.55965658477e+18,0.646454215,4.206740856,9.222746849
602,1.55965658483e+18,2.279349566,3.483669758,17.69129562
603,1.55965658488e+18,8.243488312,0.3208328187,18.47422409
604,1.55965658493e+18,14.3441,2.69116497,16.72401047
605,1.55965658498e+18,12.63937664,4.060689926,13.51089287
606,1.55965658503e+18,9.790189743,4.819674969,9.507665634
607,1.55965658508e+18,9.215563774,3.747040033,7.558725357
608,1.55965658513e+18,8.794171333,3.146077156,6.809317589
609,1.55965658518e+18,8.324893951,1.359948039,6.457359314
610,1.55965658523e+18,7.314509392,0.007182824425,5.763019562
611,1.55965658528e+18,8.121379852,-0.5411061049,5.952167034
612,1.55965658533e+18,8.248276711,-1.50599885,5.693585396
613,1.55965658539e+18,7.496474266,-1.027143836,5.303318501
614,1.55965658544e+18,7.412674904,-1.194743156,5.652883053
615,1.55965658549e+18,6.902694225,-0.9744698405,5.461340904
616,1.55965658554e+18,6.885934353,-0.7398309112,5.209941864
617,1.55965658559e+18,7.431828976,-0.629694283,5.806116581
618,1.55965658564e+18,6.773403645,-0.3806896806,5.650488377
619,1.55965658569e+18,8.794171333,0.04549122229,6.007235527
620,1.55965658575e+18,8.557138443,-0.0574625954,6.08864069
621,1.5596565858e+18,7.616188049,-0.1460507661,5.763019562
622,1.55965658585e+18,8.403904915,-0.2801301479,6.083852291
623,1.5596565859e+18,8.095043182,-0.2729473412,5.911464691
624,1.55965658595e+18,8.05194664,-0.3759011328,5.877944469
625,1.559656586e+18,8.530800819,-0.4573064744,5.525986195
626,1.55965658606e+18,8.387145042,-0.3759011328,5.322473049
627,1.55965658611e+18,8.080677032,-0.3088614643,4.9609375
628,1.55965658616e+18,8.573898315,-0.3399870098,5.097411156
629,1.55965658621e+18,9.004867554,-0.6775797606,5.382329941
630,1.55965658626e+18,8.293767929,-0.6560313106,5.047131062
631,1.55965658631e+18,8.322499275,-0.8284190893,5.353598595
632,1.55965658636e+18,8.257853508,-0.8308133483,5.327261448
633,1.55965658642e+18,7.618582249,-0.9050358534,5.95695591
634,1.55965658647e+18,7.853221416,-1.170800328,5.411061287
635,1.55965658652e+18,6.854808807,-1.029538155,7.053533554
636,1.55965658657e+18,9.002472878,-0.6991282701,6.632141113
637,1.55965658662e+18,7.472531796,0.4118152559,6.828471661
638,1.55965658667e+18,9.045570374,0.9984126091,9.632167816
639,1.55965658672e+18,10.58748341,1.920208454,9.383162498
640,1.55965658677e+18,9.888355255,2.152452946,9.768641472
641,1.55965658682e+18,7.738296032,2.308080912,6.244268894
642,1.55965658688e+18,5.521197796,1.527547359,4.11097002
643,1.55965658693e+18,5.502043724,3.11734581,3.873936653
644,1.55965658698e+18,4.427014351,2.954535007,2.023162127
645,1.55965658703e+18,5.415849686,1.08221221,2.75820446
646,1.55965658708e+18,8.75586319,1.845985889,1.316851139
647,1.55965658713e+18,11.91870022,3.378321648,-0.5865973234
648,1.55965658718e+18,1.077423692,3.684788942,9.833286285
649,1.55965658723e+18,5.995264053,7.676044941,4.130124092
650,1.55965658728e+18,2.50201726,5.391906738,5.083045483
651,1.55965658734e+18,6.261028767,4.278569221,3.833234072
652,1.55965658739e+18,5.502043724,3.634509087,2.576239586
653,1.55965658744e+18,6.289760113,3.682394743,3.696760416
654,1.55965658749e+18,8.18602562,5.049525738,6.411868095
655,1.55965658754e+18,13.05598068,2.444554567,14.4997282
656,1.55965658759e+18,15.11026859,4.910657406,14.39916897
657,1.55965658764e+18,12.24192715,3.87872529,9.615407944
658,1.55965658769e+18,8.810931206,2.846792698,6.031178474
659,1.55965658774e+18,4.793338299,1.82204318,4.735875607
660,1.55965658779e+18,2.978477955,1.580221415,3.737462997
661,1.55965658785e+18,1.237840056,1.393467903,2.966506481
662,1.5596565879e+18,0.8379961848,1.592192769,2.075836182
663,1.55965658795e+18,-0.2849186957,1.529941559,2.60736537
664,1.559656588e+18,-0.6919454336,3.684788942,3.617749214
665,1.55965658805e+18,-4.065478802,5.66485405,9.158101082
666,1.5596565881e+18,-10.4797411,8.174054146,15.9458704
667,1.55965658815e+18,-17.89720345,11.80377483,20.60991669
668,1.5596565882e+18,-35.51667404,16.97301483,14.73436737
669,1.55965658826e+18,-34.7552948,11.67687798,-3.304099321
670,1.55965658831e+18,-2.913832426,3.064671755,6.210748672
671,1.55965658836e+18,29.89012718,-76.11160278,-34.44643021
672,1.55965658841e+18,1.63289547,-0.5650488734,-1.343188167
673,1.55965658846e+18,4.015198708,-5.830059052,-18.21085358
674,1.55965658851e+18,-10.9897213,10.73114014,-8.236305237
675,1.55965658856e+18,1.223474383,4.11097002,-1.115732074
676,1.55965658861e+18,-0.332804203,0.5291347504,0.2657645047
677,1.55965658867e+18,-2.013585091,-0.3902668059,1.496421814
678,1.55965658872e+18,0.03351984918,0.8930644989,-0.07422251999
679,1.55965658877e+18,0.4573064744,1.39825654,3.780560017
680,1.55965658882e+18,2.77735877,7.412674904,11.03281784
681,1.55965658887e+18,3.979284763,5.367964268,15.45504379
682,1.55965658892e+18,11.29379463,0.8284190893,19.75276756
683,1.55965658897e+18,14.6792984,4.309694767,15.59630585
684,1.55965658902e+18,11.43266201,3.699154615,15.30659866
685,1.55965658908e+18,10.40073013,4.230683804,12.66571331
686,1.55965658913e+18,10.63776302,4.616161823,9.035993576
687,1.55965658918e+18,9.871595383,3.711125851,7.113390446
688,1.55965658923e+18,8.667274475,1.407833576,5.774991035
689,1.55965658928e+18,8.135746002,0.1221080124,5.715134144
690,1.55965658933e+18,7.75984478,-0.6033572555,5.23867321
691,1.55965658938e+18,8.128562927,-0.4788549542,5.296135902
692,1.55965658943e+18,7.283383846,-0.5219519138,5.267404556
693,1.55965658949e+18,6.589044094,-0.7015225291,5.59781456
694,1.55965658954e+18,5.818087578,0.1292908341,5.250644684
695,1.55965658959e+18,6.241874218,0.4525179267,6.019207001
696,1.55965658964e+18,6.196382999,1.024749637,6.395108223
697,1.55965658969e+18,7.008042336,0.8212362528,6.744672298
698,1.55965658974e+18,8.39672184,1.010383964,6.749460697
699,1.55965658979e+18,8.049551964,1.218685865,6.308914185
700,1.55965658985e+18,8.430241585,1.419804931,6.428627968
701,1.5596565899e+18,8.023215294,1.470084786,5.98089838
702,1.55965658995e+18,8.123774529,1.410227895,5.571477413
703,1.55965659e+18,8.681640625,1.110943556,5.698374271
704,1.55965659005e+18,8.391933441,0.8499675393,5.734288216
705,1.5596565901e+18,7.805335999,0.7853221297,5.286558628
706,1.55965659015e+18,7.905895233,0.7589851022,5.02558279
707,1.5596565902e+18,7.860404015,0.7877163887,5.020794392
708,1.55965659025e+18,8.427846909,0.6775797606,5.233884811
709,1.55965659031e+18,8.576292038,0.5842030644,5.329655647
710,1.55965659036e+18,8.293767929,0.4333637357,5.684008598
711,1.55965659041e+18,8.202785492,0.2753416002,5.801327705
712,1.55965659046e+18,7.817307472,0.332804203,5.578660488
713,1.55965659051e+18,8.097437859,0.2753416002,5.55711174
714,1.55965659056e+18,8.248276711,0.4716721475,5.243461609
715,1.55965659061e+18,8.183630943,0.5195576549,5.159662247
716,1.55965659066e+18,8.28897953,0.5267404318,5.159662247
717,1.55965659071e+18,8.293767929,0.6368771195,5.087833881
718,1.55965659076e+18,7.977723598,0.7254652381,5.054314137
719,1.55965659081e+18,8.516435623,0.6560313106,5.145296574
720,1.55965659087e+18,8.609811783,0.7757450342,5.34641552
721,1.55965659092e+18,8.628966331,0.7613793612,4.994457245
722,1.55965659097e+18,8.526012421,0.8643332124,4.817280769
723,1.55965659102e+18,8.468549728,0.907430172,4.826858044
724,1.55965659107e+18,8.631361008,0.6775797606,4.951360226
725,1.55965659112e+18,8.877970695,0.5435003638,4.910657406
726,1.55965659117e+18,8.253065109,0.5027977228,4.822069645
727,1.55965659122e+18,8.657697678,0.464489311,4.982485771
728,1.55965659127e+18,8.310527802,0.4764606953,4.838829517
729,1.55965659133e+18,8.679245949,0.3663240373,5.042342663
730,1.55965659138e+18,8.420664787,0.4668835998,4.958543301
731,1.55965659143e+18,8.631361008,0.464489311,5.150084972
732,1.55965659148e+18,8.298556328,0.4333637357,5.176422119
733,1.55965659153e+18,8.399115562,0.44533512,5.499649048
734,1.55965659158e+18,8.255459785,0.6177229285,5.506832123
735,1.55965659163e+18,7.699987888,0.4908263385,5.698374271
736,1.55965659168e+18,7.597033978,0.6009629965,5.899493217
737,1.55965659173e+18,7.745479107,0.1580221355,5.794145107
738,1.55965659178e+18,7.503657341,-0.0574625954,5.494860649
739,1.55965659183e+18,7.920260906,-0.002394274808,6.083852291
740,1.55965659189e+18,7.989695072,-0.03112557158,5.456552505
741,1.55965659194e+18,7.585062504,0.1149251908,5.734288216
742,1.55965659199e+18,7.901106834,0.2178790122,5.51640892
743,1.55965659204e+18,7.474925995,0.7446194887,6.605803967
744,1.55965659209e+18,7.592245579,1.625712633,6.847625732
745,1.55965659214e+18,7.280989647,1.453324795,7.23071003
746,1.55965659219e+18,8.652909279,1.393467903,8.183630943
747,1.55965659224e+18,8.710371971,1.0175668,6.744672298
748,1.55965659229e+18,8.221940041,0.3016786277,6.883540154
749,1.55965659235e+18,8.849239349,0.2513988614,6.442993641
750,1.5596565924e+18,7.757450581,0.7805336118,5.729499817
751,1.55965659245e+18,8.549955368,0.9577099085,6.754249096
752,1.5596565925e+18,7.484503269,1.984853864,6.799740314
753,1.55965659255e+18,8.025609016,2.683982134,6.842837334
754,1.5596565926e+18,7.819701672,3.241847992,7.290566921
755,1.55965659265e+18,8.085466385,3.687183142,7.695199013
756,1.5596565927e+18,6.059909344,3.596200705,6.390319347
757,1.55965659276e+18,5.648094177,3.452544212,6.232297421
758,1.55965659281e+18,6.000052452,3.493247032,6.409473896
759,1.55965659286e+18,5.039948463,4.087027073,5.784567833
760,1.55965659291e+18,5.502043724,3.272973776,6.502850533
761,1.55965659296e+18,4.438985348,3.701548815,4.187586784
762,1.55965659301e+18,4.92262888,2.901860952,3.802108288
763,1.55965659306e+18,4.628133297,1.608952641,3.035940409
764,1.55965659311e+18,6.917059898,-0.8858816624,2.099778891
765,1.55965659317e+18,9.308940887,-1.798100352,0.02394274808
766,1.55965659322e+18,0.9601042271,-3.766194344,12.82612991
767,1.55965659327e+18,8.669669151,6.124555111,5.511620522
768,1.55965659332e+18,7.948992252,5.928224564,10.8293047
769,1.55965659337e+18,6.828471661,7.23071003,3.079037428
770,1.55965659342e+18,9.912297249,4.903474808,4.714327335
771,1.55965659347e+18,13.0918951,10.28819847,4.048718929
772,1.55965659352e+18,6.117372036,8.583475113,4.975303173
773,1.55965659357e+18,4.163643837,6.761432171,5.166844845
774,1.55965659362e+18,3.20353961,6.814105988,2.762993097
775,1.55965659368e+18,0.7996878028,4.28575182,3.993650436
776,1.55965659373e+18,0.6033572555,5.011217117,3.689577579
777,1.55965659378e+18,0.3615354896,4.565882206,3.749434233
778,1.55965659383e+18,-0.9816526771,4.45574522,4.53475666
779,1.55965659388e+18,-2.346389294,5.17402792,6.861991405
780,1.55965659393e+18,-6.289760113,9.07430172,12.78303337
781,1.55965659398e+18,-17.97860909,13.59229851,19.12307358
782,1.55965659404e+18,-32.17187119,18.22761345,13.7766571
783,1.55965659409e+18,-36.69944382,11.10704041,1.494027495
784,1.55965659414e+18,-9.354432106,-3.131711483,14.1693182
785,1.55965659419e+18,24.39766121,-66.8720932,-20.69371796
786,1.55965659424e+18,9.057541847,3.586623669,2.557085514
787,1.55965659429e+18,-2.695953369,-5.162056446,-15.83812809
788,1.55965659435e+18,-0.29689008,11.21238899,-3.076643229
789,1.5596565944e+18,-2.147664547,4.266597748,-2.322446585
790,1.55965659445e+18,-2.154847383,2.669616461,-1.16601181
791,1.5596565945e+18,-1.982459545,-1.664021015,1.88668859
792,1.55965659455e+18,-1.810071707,-1.498816013,2.949746609
793,1.5596565946e+18,-2.284138203,-1.003201127,7.14930439
794,1.55965659465e+18,-2.542719841,1.709512234,10.50607777
795,1.5596565947e+18,-0.7470137477,0.01436564885,12.70641613
796,1.55965659476e+18,7.575485706,2.24822402,17.27229881
797,1.55965659481e+18,8.233911514,-3.742251635,17.44947433
798,1.55965659486e+18,7.57309103,1.97288239,16.07995033
799,1.55965659491e+18,8.691217422,-1.577827096,12.28023529
800,1.55965659496e+18,8.6888237,-0.5243461728,10.83888245
801,1.55965659502e+18,8.095043182,1.359948039,9.409500122
802,1.55965659507e+18,7.984906673,1.690358043,8.854028702
803,1.55965659512e+18,8.736708641,0.04788549617,8.875576973
804,1.55965659517e+18,8.466156006,-2.068653345,8.109408379
805,1.55965659522e+18,7.72153616,-3.112557173,7.589851379
806,1.55965659527e+18,7.381549358,-2.947352171,6.541158676
807,1.55965659532e+18,6.677632332,-3.483669758,6.047938347
808,1.55965659538e+18,6.426233768,-3.543526649,5.332049847
809,1.55965659543e+18,5.674431324,-2.909043789,4.908263206
810,1.55965659548e+18,5.992869854,-1.989642382,4.470110893
811,1.55965659553e+18,6.34003973,-1.67599237,5.169239521
812,1.55965659558e+18,7.012830734,-1.288119793,5.370358467
813,1.55965659563e+18,7.498868465,-1.486844659,6.361588001
814,1.55965659568e+18,7.951386452,-1.470084786,6.761432171
815,1.55965659574e+18,7.994483471,-1.33600533,6.287365437
816,1.55965659579e+18,7.65449667,-1.678386688,6.711152077
817,1.55965659584e+18,8.001666069,-1.309668303,6.507638931
818,1.55965659589e+18,8.221940041,-1.448536277,6.30173111
819,1.55965659594e+18,8.401510239,-1.54670155,6.071880817
820,1.55965659599e+18,7.771816254,-1.319245458,5.45176363
821,1.55965659604e+18,8.107014656,-1.386285067,5.643305779
822,1.5596565961e+18,8.454184532,-1.814860344,5.478100777
823,1.55965659615e+18,8.554743767,-2.456526041,5.616968632
824,1.5596565962e+18,8.095043182,-2.264983892,5.351204395
825,1.55965659625e+18,7.965752125,-2.444554567,5.300924301
826,1.5596565963e+18,7.50844574,-2.315263748,4.999245644
827,1.55965659635e+18,8.135746002,-2.753416061,5.468523502
828,1.5596565964e+18,7.563514233,-2.818061352,5.169239521
829,1.55965659645e+18,7.984906673,-2.487651587,5.315289974
830,1.5596565965e+18,7.185218811,-2.411034822,5.34402132
831,1.55965659656e+18,7.257047176,-2.504411459,5.463735104
832,1.55965659661e+18,7.958569527,-2.521171331,5.631334305
833,1.55965659666e+18,8.408693314,-2.554691315,5.449369431
834,1.55965659671e+18,8.023215294,-2.384697676,5.38472414
835,1.55965659676e+18,8.138139725,-2.169213057,5.375146866
836,1.55965659681e+18,7.850827217,-1.968093872,5.078257084
837,1.55965659686e+18,8.190814018,-1.996825218,4.953754425
838,1.55965659691e+18,8.557138443,-2.114144564,5.042342663
839,1.55965659696e+18,8.320104599,-2.083019018,4.915446281
840,1.55965659701e+18,8.202785492,-2.185972929,4.783761024
841,1.55965659706e+18,8.37038517,-2.178790092,4.85319519
842,1.55965659711e+18,8.260248184,-2.212309837,4.769395351
843,1.55965659717e+18,8.411087036,-2.169213057,4.862771988
844,1.55965659722e+18,8.123774529,-2.272166729,4.92262888
845,1.55965659727e+18,8.298556328,-2.241041183,5.169239521
846,1.55965659732e+18,7.963357925,-2.293715239,5.047131062
847,1.55965659737e+18,8.15968895,-2.272166729,5.176422119
848,1.55965659742e+18,8.135746002,-2.348783493,5.102199554
849,1.55965659748e+18,8.004060745,-2.159635782,5.063891411
850,1.55965659753e+18,8.150111198,-2.224281311,5.032765865
851,1.55965659758e+18,8.097437859,-2.068653345,4.9609375
852,1.55965659763e+18,8.212362289,-2.059076309,5.286558628
853,1.55965659768e+18,7.903501034,-2.078230619,5.348809719
854,1.55965659773e+18,8.035185814,-1.975276709,5.38711834
855,1.55965659778e+18,7.889135361,-1.845985889,5.21473074
856,1.55965659783e+18,8.47812748,-2.032739401,5.135719299
857,1.55965659788e+18,8.181237221,-2.032739401,4.87953186
858,1.55965659794e+18,8.054340363,-1.960911036,5.27937603
859,1.55965659799e+18,7.790970325,-1.841197371,5.224307537
860,1.55965659804e+18,7.910684109,-2.241041183,5.45176363
861,1.55965659809e+18,7.65210247,-2.130904675,5.925830364
862,1.55965659814e+18,7.812518597,-2.387091875,5.684008598
863,1.55965659819e+18,7.113390446,-2.051893473,5.695979595
864,1.55965659824e+18,6.428627968,-1.573038578,5.23867321
865,1.55965659829e+18,7.525205612,-1.726272106,5.140508175
866,1.55965659834e+18,7.774210453,-2.782147408,6.246663094
867,1.55965659839e+18,8.729525566,-3.191568375,8.028003693
868,1.55965659844e+18,9.474145889,-3.332830429,7.999272346
869,1.5596565985e+18,8.882759094,-3.179596901,8.126168251
870,1.55965659855e+18,8.518829346,-2.454131603,7.340846539
871,1.5596565986e+18,8.427846909,-1.752609134,7.668862343
872,1.55965659865e+18,8.135746002,-1.460507631,7.134938717
873,1.5596565987e+18,7.771816254,-1.273754239,7.33366394
874,1.55965659875e+18,7.000859737,-1.376708031,6.845231533
875,1.5596565988e+18,6.328068256,-1.211503029,6.203566074
876,1.55965659886e+18,5.657671452,-0.6536370516,5.839636326
877,1.55965659891e+18,5.423032284,-0.2801301479,6.462147713
878,1.55965659896e+18,5.360781193,0.1101366431,6.222720146
879,1.55965659901e+18,5.162056446,0.948132813,6.505244732
880,1.55965659906e+18,5.286558628,1.467690468,6.545947552
881,1.55965659911e+18,5.475706577,2.102173328,7.151699066
882,1.55965659916e+18,5.885127544,2.418217659,7.278595448
883,1.55965659921e+18,5.739076614,2.528354168,7.376760483
884,1.55965659926e+18,5.868367672,2.753416061,8.494887352
885,1.55965659931e+18,5.880339146,2.980872154,7.814912796
886,1.55965659936e+18,7.18761301,3.071854591,8.3153162
887,1.55965659941e+18,6.960156918,2.935380936,7.843644142
888,1.55965659946e+18,6.34003973,2.830032825,6.495667458
889,1.55965659952e+18,5.748653889,1.778946161,4.728692532
890,1.55965659957e+18,6.328068256,-0.1939362586,2.442160368
891,1.55965659962e+18,9.58907032,-0.8810931444,-0.3854782581
892,1.55965659967e+18,8.018425941,-0.7063110471,4.233078003
893,1.55965659972e+18,-4.608979225,-0.6656084061,10.41270161
894,1.55965659977e+18,2.420611858,2.039922237,8.523618698
895,1.55965659982e+18,8.27461338,7.065505028,4.055901527
896,1.55965659987e+18,9.60343647,2.37512064,3.79492569
897,1.55965659993e+18,10.8149395,0.4908263385,6.778192043
898,1.55965659998e+18,13.55877781,0.4213923812,7.453377247
899,1.55965660003e+18,14.81337833,1.189954638,12.32572651
900,1.55965660008e+18,10.54438591,1.910631299,10.45340347
901,1.55965660013e+18,11.42787361,1.747820616,10.65691757
902,1.55965660018e+18,8.959376335,1.067846537,9.33767128
903,1.55965660023e+18,6.840443134,2.518777132,7.673650742
904,1.55965660029e+18,4.745452881,2.865947008,6.44538784
905,1.55965660034e+18,2.537931204,1.848380208,6.859597206
906,1.55965660039e+18,0.08619388938,3.083826065,2.102173328
907,1.55965660044e+18,2.573845387,2.688770533,3.114951611
908,1.55965660049e+18,-0.9194015265,2.442160368,1.738243461
909,1.55965660054e+18,-0.7972934842,2.518777132,2.442160368
910,1.55965660059e+18,-1.874717116,3.256213665,3.873936653
911,1.55965660065e+18,-3.442967176,4.965725899,5.193181992
912,1.5596566007e+18,-6.450176239,7.510839939,10.16130257
913,1.55965660075e+18,-12.28502369,9.871595383,14.11185551
914,1.5596566008e+18,-19.91318321,15.08632565,14.91872597
915,1.55965660085e+18,-34.62121201,21.69212914,9.22992897
916,1.5596566009e+18,-29.39929962,12.32572651,2.513988495
917,1.55965660095e+18,-1.453324795,-2.650462151,16.86048317
918,1.559656601e+18,37.14956665,-78.4436264,38.86386871
919,1.55965660106e+18,8.822902679,-4.11336422,-24.076828
920,1.55965660111e+18,-7.697593689,0.1340793967,-13.57793236
921,1.55965660116e+18,-4.539545059,6.665660858,-4.74784708
922,1.55965660121e+18,2.032739401,2.384697676,2.521171331
923,1.55965660126e+18,-2.837215662,3.493247032,4.932206154
924,1.55965660131e+18,-3.198751211,-0.4237866402,2.717501879
925,1.55965660136e+18,0.9170072675,1.616135478,4.374340057
926,1.55965660141e+18,2.250618219,1.968093872,7.537177086
927,1.55965660146e+18,1.841197371,2.662433624,11.7032156
928,1.55965660151e+18,5.360781193,7.156487465,12.33051491
929,1.55965660156e+18,10.37678719,2.844398499,15.92432213
930,1.55965660161e+18,11.46139336,8.312922478,12.80458164
931,1.55965660167e+18,14.78225231,5.339232922,12.99851799
932,1.55965660172e+18,7.953781128,5.640911579,8.379961967
933,1.55965660177e+18,7.381549358,4.683201313,7.000859737
934,1.55965660182e+18,7.992089272,4.082238674,6.220325947
935,1.55965660187e+18,8.930644989,2.734261751,5.679219723
936,1.55965660192e+18,9.409500122,1.757397652,5.202759266
937,1.55965660197e+18,8.557138443,1.259388566,5.011217117
938,1.55965660203e+18,8.267431259,1.08221221,4.764606953
939,1.55965660208e+18,8.008849144,0.9337671995,4.467716694
940,1.55965660213e+18,7.982511997,1.149251938,4.343214512
941,1.55965660218e+18,7.405491829,0.7948992252,4.529967785
942,1.55965660223e+18,7.89152956,0.8451790214,5.176422119
943,1.55965660228e+18,7.695199013,0.8499675393,5.164450645
944,1.55965660233e+18,8.794171333,0.6991282701,5.327261448
945,1.55965660238e+18,7.881952763,0.7805336118,5.856396198
946,1.55965660243e+18,8.35601902,0.8571503758,5.600208759
947,1.55965660248e+18,8.059128761,1.139674783,5.176422119
948,1.55965660253e+18,8.856422424,0.9194015265,5.195576191
949,1.55965660259e+18,8.408693314,1.010383964,4.862771988
950,1.55965660264e+18,8.997684479,0.5674431324,5.269798756
951,1.55965660269e+18,8.025609016,0.6919454336,5.209941864
952,1.55965660274e+18,9.002472878,0.6847625971,5.684008598
953,1.55965660279e+18,8.514040947,0.5315290093,5.473312378
954,1.55965660284e+18,8.645726204,0.2729473412,5.525986195
955,1.5596566029e+18,8.320104599,-0.01436564885,5.253038883
956,1.55965660295e+18,8.351230621,-0.2657645047,5.245856285
957,1.559656603e+18,8.286584854,-0.3543526828,5.281770229
958,1.55965660305e+18,8.27461338,-0.5458946824,5.418243885
959,1.5596566031e+18,7.829278469,-0.3615354896,5.159662247
960,1.55965660316e+18,8.016032219,-0.3423812985,5.351204395
961,1.55965660321e+18,8.068706512,-0.3280156553,5.420638084
962,1.55965660326e+18,8.176448822,-0.2298503816,5.147690773
963,1.55965660331e+18,8.379961967,-0.01197137404,5.351204395
964,1.55965660336e+18,8.123774529,-0.03112557158,5.19797039
965,1.55965660341e+18,8.265036583,0.1460507661,5.159662247
966,1.55965660346e+18,8.312922478,0.1221080124,5.09262228
967,1.55965660351e+18,8.253065109,0.1652049571,5.051919937
968,1.55965660357e+18,8.758256912,0.1508393139,5.600208759
969,1.55965660362e+18,8.956981659,0.6584255695,6.409473896
970,1.55965660367e+18,8.693612099,1.40065074,6.198777676
971,1.55965660372e+18,8.820508003,1.532335877,7.879558563
972,1.55965660377e+18,8.71516037,2.26977253,7.19000721
973,1.55965660382e+18,8.643332481,2.715107679,7.376760483
974,1.55965660388e+18,9.268238068,2.683982134,8.964164734
975,1.55965660393e+18,7.218738556,3.665634632,5.640911579
976,1.55965660398e+18,6.59383297,2.504411459,5.116565228
977,1.55965660403e+18,6.823683262,1.687963724,4.685595989
978,1.55965660408e+18,6.031178474,0.2825244367,3.076643229
979,1.55965660413e+18,7.070293427,-1.513181686,1.917814136
980,1.55965660419e+18,10.49889469,-2.339206457,1.130097747
981,1.55965660424e+18,12.9314785,1.108549237,0.2801301479
982,1.55965660429e+18,5.691191196,-1.098972082,11.83729458
983,1.55965660434e+18,9.0335989,7.211555958,4.479688168
984,1.55965660439e+18,8.35601902,5.047131062,3.639297724
985,1.55965660444e+18,4.575459003,4.664047241,-0.06943397224
986,1.5596566045e+18,7.934626579,2.042316437,-1.012778282
987,1.55965660455e+18,7.814912796,2.250618219,1.539518714
988,1.5596566046e+18,7.939415455,3.77337718,-2.083019018
989,1.55965660465e+18,8.913885117,4.024775982,-2.727078915
990,1.5596566047e+18,17.25074959,4.273780346,5.351204395
991,1.55965660475e+18,23.32023621,3.711125851,2.279349566
992,1.5596566048e+18,23.05686569,5.111776829,3.895485163
993,1.55965660485e+18,13.38639069,2.518777132,3.284945011
994,1.5596566049e+18,11.77504349,3.500429869,1.326428294
995,1.55965660496e+18,5.612180233,1.175588965,3.337619066
996,1.55965660501e+18,3.624932051,1.515576005,2.636096478
997,1.55965660506e+18,0.0574625954,1.951334,1.71908927
998,1.55965660511e+18,0.5985686779,2.01597929,1.415016413
999,1.55965660516e+18,-0.8523618579,1.522758722,0.2130904645
1000,1.55965660521e+18,-1.098972082,1.790917516,2.523565531
1001,1.55965660526e+18,-1.790917516,3.378321648,4.027170181
1002,1.55965660531e+18,-5.633728504,5.959350109,8.564320564
1003,1.55965660536e+18,-14.81577206,9.318517685,12.37600613
1004,1.55965660541e+18,-22.6881485,10.56832886,15.7710886
1005,1.55965660547e+18,-35.12640381,17.68650818,11.64096451
1006,1.55965660552e+18,-35.96200943,16.02009201,-9.993702888
1007,1.55965660557e+18,-9.287391663,-0.3687183261,0.3759011328
1008,1.55965660562e+18,23.63388634,-61.50413132,1.652049661
1009,1.55965660567e+18,10.15651417,2.415823221,-14.1645298
1010,1.55965660572e+18,-1.515576005,-12.61782837,-16.70964432
1011,1.55965660577e+18,-6.328068256,7.89152956,0.07661679387
1012,1.55965660582e+18,-4.067873001,5.243461609,-8.564320564
1013,1.55965660587e+18,-2.564268351,1.800494671,3.047911882
1014,1.55965660592e+18,-3.782954216,1.996825218,-0.3088614643
1015,1.55965660597e+18,-2.911438227,-0.06225114316,1.331216812
1016,1.55965660602e+18,-2.020767927,2.954535007,6.225114346
1017,1.55965660608e+18,-3.067065954,2.05668211,9.517242432
1018,1.55965660613e+18,2.408640385,4.297723293,12.67050266
1019,1.55965660618e+18,10.05116558,1.206714511,19.46066475
1020,1.55965660623e+18,10.68325424,-0.09816526622,17.39680099
1021,1.55965660628e+18,10.89395046,1.872322917,13.9514389
1022,1.55965660633e+18,10.49410629,1.745426297,11.54758739
1023,1.55965660639e+18,7.532388687,2.085413456,9.241900444
1024,1.55965660644e+18,8.073494911,2.16203022,8.166871071
1025,1.55965660649e+18,8.497281075,0.9337671995,7.314509392
1026,1.55965660654e+18,8.825297356,-0.464489311,6.629746914
1027,1.55965660659e+18,7.767027378,-1.067846537,6.478907585
1028,1.55965660664e+18,8.176448822,-1.139674783,5.990475655
1029,1.55965660669e+18,6.656084061,-1.276148438,5.116565228
1030,1.55965660674e+18,7.702382088,-1.608952641,6.208354473
1031,1.55965660679e+18,6.419050694,-1.046298146,5.468523502
1032,1.55965660684e+18,7.110996246,-0.8332076073,5.17163372
1033,1.5596566069e+18,7.106207848,-0.44533512,5.461340904
1034,1.55965660695e+18,7.163670063,-0.3495641351,5.370358467
1035,1.559656607e+18,7.582668304,-0.3998439014,5.569083214
1036,1.55965660705e+18,7.417463303,-0.6847625971,5.38472414
1037,1.5596566071e+18,6.251451492,-0.6871568561,4.908263206
1038,1.55965660715e+18,4.776578426,-2.147664547,4.893897533
1039,1.5596566072e+18,3.622537851,-3.088614464,3.864359617
1040,1.55965660726e+18,3.153259993,-5.267404556,4.319271564
1041,1.55965660731e+18,7.479714394,-8.322499275,4.860377789
1042,1.55965660736e+18,6.385530949,-8.030397415,6.859597206
1043,1.55965660741e+18,9.67047596,-8.894730568,4.683201313
1044,1.55965660746e+18,7.89152956,-9.816526413,5.537957668
1045,1.55965660751e+18,6.754249096,-9.598648071,3.943370581
1046,1.55965660756e+18,3.105374336,-10.07032013,1.309668303
1047,1.55965660761e+18,0.8308133483,-9.921875,0.8020820618
1048,1.55965660767e+18,3.014391899,-9.69681263,1.170800328
1049,1.55965660772e+18,3.0119977,-8.808537483,1.496421814
1050,1.55965660777e+18,1.620923996,-9.423865318,2.080624819
1051,1.55965660782e+18,1.817254543,-8.207573891,1.151646137
1052,1.55965660787e+18,2.351177931,-10.9801445,1.613741279
1053,1.55965660792e+18,2.69355917,-10.59466648,2.676799297
1054,1.55965660797e+18,2.425400496,-9.234718323,2.111750364
1055,1.55965660802e+18,2.978477955,-8.71516037,2.104567528
1056,1.55965660807e+18,3.73267436,-9.067118645,2.86355257
1057,1.55965660813e+18,3.069460392,-10.23791885,2.525959969
1058,1.55965660818e+18,3.459727049,-9.895537376,2.564268351
1059,1.55965660823e+18,2.516382933,-7.769421577,1.620923996
1060,1.55965660828e+18,2.554691315,-8.341653824,0.9792584181
1061,1.55965660833e+18,3.141288519,-9.833286285,0.7925049663
1062,1.55965660838e+18,3.287339211,-9.778218269,0.7877163887
1063,1.55965660843e+18,3.191568375,-8.722343445,0.7134938836
1064,1.55965660848e+18,2.88510108,-9.021627426,0.3830839694
1065,1.55965660854e+18,3.536343813,-9.49569416,0.3591412306
1066,1.55965660859e+18,3.763799906,-9.557945251,0.2873129845
1067,1.55965660864e+18,3.653663397,-9.574705124,0.2202732861
1068,1.55965660869e+18,2.626519442,-9.07430172,0.22266756
1069,1.55965660874e+18,2.516382933,-9.450202942,-0.04788549617
1070,1.55965660879e+18,3.519583941,-10.79339123,1.61134696
1071,1.55965660884e+18,1.743032098,-9.766246796,1.652049661
1072,1.55965660889e+18,2.260195494,-9.790189743,0.926584363
1073,1.55965660894e+18,1.702329397,-9.567522049,0.44533512
1074,1.55965660899e+18,2.343995094,-9.227535248,0.7996878028
1075,1.55965660905e+18,2.949746609,-9.510059357,0.984046936
1076,1.5596566091e+18,3.41423583,-9.071907043,0.7829278708
1077,1.55965660915e+18,3.555498123,-9.268238068,1.362342358
1078,1.5596566092e+18,3.88111949,-9.502876282,0.7877163887
1079,1.55965660925e+18,3.799714088,-9.387951851,0.481249243
1080,1.5596566093e+18,3.474092722,-9.031204224,0.6153286099
1081,1.55965660935e+18,3.342407703,-9.205986977,0.9337671995
1082,1.55965660941e+18,3.11734581,-9.368797302,0.7158881426
1083,1.55965660946e+18,3.373533249,-9.510059357,0.6775797606
1084,1.55965660951e+18,3.579440832,-9.220352173,0.5243461728
1085,1.55965660956e+18,3.622537851,-9.17725563,0.7996878028
1086,1.55965660961e+18,3.572257996,-9.081484795,0.986441195
1087,1.55965660966e+18,3.770982742,-9.330489159,0.7446194887
1088,1.55965660971e+18,3.723097324,-9.115004539,0.945738554
1089,1.55965660976e+18,3.924216509,-9.069513321,1.211503029
1090,1.55965660981e+18,3.914639235,-9.158101082,1.118126392
1091,1.55965660986e+18,3.826051235,-9.366402626,0.9577099085
1092,1.55965660992e+18,4.122941017,-9.316123009,0.7278595567
1093,1.55965660997e+18,4.197163582,-9.356825829,1.103760719
1094,1.55965661002e+18,3.924216509,-9.069513321,0.9098244309
1095,1.55965661007e+18,3.840416908,-9.057541847,0.7781392932
1096,1.55965661012e+18,3.193962574,-8.973741531,0.8691217303
1097,1.55965661017e+18,3.375927448,-8.798959732,1.012778282
1098,1.55965661022e+18,4.189980984,-9.56273365,1.711906433
1099,1.55965661027e+18,5.631334305,-9.129369736,1.680780888
1100,1.55965661032e+18,5.291347504,-8.978530884,2.241041183
1101,1.55965661037e+18,5.176422119,-8.279402733,1.810071707
1102,1.55965661043e+18,4.671230316,-7.968146324,1.728666425
1103,1.55965661048e+18,4.546727657,-7.982511997,1.46290195
1104,1.55965661053e+18,4.745452881,-7.915472507,1.374313712
1105,1.55965661058e+18,4.541939259,-7.944203854,0.986441195
1106,1.55965661063e+18,4.529967785,-8.075888634,1.089395046
1107,1.55965661068e+18,4.386311531,-8.073494911,1.431776285
1108,1.55965661073e+18,4.130124092,-8.470944405,1.819648862
1109,1.55965661078e+18,5.006428719,-8.643332481,1.965699673
1110,1.55965661083e+18,4.309694767,-9.076695442,2.126116037
1111,1.55965661088e+18,4.410254002,-9.160495758,1.376708031
1112,1.55965661094e+18,5.801327705,-9.052753448,2.262589693
1113,1.55965661099e+18,5.784567833,-8.89951992,1.23065722
1114,1.55965661104e+18,4.362368584,-9.119792938,1.582615614
1115,1.55965661109e+18,4.146883965,-8.734314919,1.453324795
1116,1.55965661114e+18,2.624125242,-9.031204224,0.9553156495
1117,1.55965661119e+18,4.115758419,-8.983319283,2.229069948
1118,1.55965661124e+18,5.104593754,-9.0335989,1.652049661
1119,1.55965661129e+18,6.416656494,-8.418270111,2.600182533
1120,1.55965661135e+18,5.291347504,-8.511647224,2.020767927
1121,1.5596566114e+18,5.70555687,-8.389538765,1.685569525
1122,1.55965661145e+18,6.184412003,-8.959376335,2.695953369
1123,1.5596566115e+18,6.65847826,-8.401510239,2.619336605
1124,1.55965661155e+18,6.308914185,-8.420664787,2.068653345
1125,1.5596566116e+18,5.949772835,-7.75984478,1.872322917
1126,1.55965661165e+18,5.786962032,-7.422251701,1.910631299
1127,1.5596566117e+18,6.208354473,-7.053533554,2.051893473
1128,1.55965661176e+18,6.991282463,-6.59383297,2.37512064
1129,1.55965661181e+18,8.147717476,-6.114977837,4.122941017
1130,1.55965661186e+18,9.160495758,-5.55711174,4.201952457
1131,1.55965661191e+18,10.47255802,-4.321666241,5.018400192
1132,1.55965661196e+18,10.08947372,-4.276175022,4.400677204
1133,1.55965661201e+18,10.96817303,-2.940169573,5.66485405
1134,1.55965661206e+18,9.763853073,-2.801301479,4.280963421
1135,1.55965661211e+18,8.875576973,-2.145270348,4.460534096
1136,1.55965661217e+18,9.182044029,-2.633702278,4.441379547
1137,1.55965661222e+18,8.557138443,-3.706337452,3.510006905
1138,1.55965661227e+18,5.142902374,-2.918621063,1.467690468
1139,1.55965661232e+18,1.58979845,-4.419831276,-2.059076309
1140,1.55965661237e+18,-22.98264313,-26.70095253,12.0336256
1141,1.55965661242e+18,13.50849819,2.291321039,-4.235472202
1142,1.55965661247e+18,8.645726204,0.241821751,2.217098475
1143,1.55965661252e+18,9.933846474,1.620923996,-3.984073162
1144,1.55965661258e+18,11.873209,0.6919454336,-1.192348838
1145,1.55965661263e+18,16.77429008,0.1268965602,0.1771763414
1146,1.55965661268e+18,22.95630646,1.872322917,2.463708878
1147,1.55965661273e+18,20.34654808,3.392687321,-0.6991282701
1148,1.55965661278e+18,16.91315651,2.549902678,1.553884387
1149,1.55965661283e+18,14.5524025,0.9744698405,2.90664959
1150,1.55965661288e+18,9.198803902,0.6584255695,1.455719113
1151,1.55965661293e+18,8.193208694,0.7158881426,1.010383964
1152,1.55965661298e+18,3.37113905,0.3806896806,0.8092648983
1153,1.55965661304e+18,2.176395893,0.5243461728,0.01436564885
1154,1.55965661309e+18,0.4980091453,1.867534399,1.254600048
1155,1.55965661314e+18,-0.02633702382,2.181184292,2.466103077
1156,1.55965661319e+18,-0.646454215,5.427821159,4.659258842
1157,1.55965661324e+18,-7.970541,8.27461338,9.802161217
1158,1.55965661329e+18,-19.52770615,9.960183144,13.19245434
1159,1.55965661334e+18,-27.95555305,11.18126297,12.43586349
1160,1.55965661339e+18,-34.48474121,13.23555088,-3.428601503
1161,1.55965661344e+18,-24.83341789,6.878751755,-17.55003357
1162,1.55965661349e+18,8.818114281,-12.52205753,19.67615128
1163,1.55965661354e+18,32.65790939,-55.27183533,8.892336845
1164,1.5596566136e+18,-1.388679385,0.5123748183,-16.10389328
1165,1.55965661365e+18,5.849213123,-7.491685867,-10.03919411
1166,1.5596566137e+18,-9.933846474,7.814912796,-1.743032098
1167,1.55965661375e+18,-10.50128937,5.111776829,-2.643279314
1168,1.5596566138e+18,-4.225894928,4.486870766,4.525179386
1169,1.55965661385e+18,-6.557918549,0.8978530765,5.973715782
1170,1.5596566139e+18,-4.355185986,0.964892745,6.634535313
1171,1.55965661395e+18,-2.782147408,1.762186289,6.897905827
1172,1.559656614e+18,-2.023162127,2.118933201,8.660092354
1173,1.55965661405e+18,0.04549122229,6.423839092,8.753468513
1174,1.55965661411e+18,2.676799297,1.324033976,13.2810421
1175,1.55965661416e+18,1.16601181,1.477267504,14.2124157
1176,1.55965661421e+18,3.344801903,1.276148438,12.62501144
1177,1.55965661426e+18,5.102199554,3.45493865,11.64814663
1178,1.55965661431e+18,7.436617374,2.616942406,11.90433407
1179,1.55965661436e+18,7.22831583,3.529160976,10.12778282
1180,1.55965661441e+18,8.11898613,2.523565531,10.24031353
1181,1.55965661446e+18,7.620976925,1.690358043,8.863605499
1182,1.55965661451e+18,6.850020409,0.9744698405,8.221940041
1183,1.55965661456e+18,7.008042336,0.4070267081,7.36000061
1184,1.55965661462e+18,6.854808807,-0.4477293789,6.612987041
1185,1.55965661467e+18,6.237085819,-0.3495641351,6.08864069
1186,1.55965661472e+18,6.416656494,-0.5722316504,6.081458092
1187,1.55965661477e+18,6.739883423,0.01197137404,5.985687256
1188,1.55965661482e+18,6.660872459,0.2897072434,5.921041489
1189,1.55965661487e+18,7.087053299,0.4285751879,6.426233768
1190,1.55965661492e+18,7.951386452,0.5219519138,6.27539444
1191,1.55965661497e+18,7.166064739,0.6584255695,6.213143349
1192,1.55965661503e+18,7.321692467,0.7685621977,6.035966873
1193,1.55965661508e+18,7.685622215,0.6536370516,5.786962032
1194,1.55965661513e+18,6.806923389,0.1125309169,5.413455486
1195,1.55965661518e+18,7.810124397,-0.02394274808,5.482889175
1196,1.55965661523e+18,5.406272411,-0.3687183261,4.438985348
1197,1.55965661528e+18,5.123748302,-1.144463301,3.632114887
1198,1.55965661533e+18,3.929004908,-3.747040033,4.367157459
1199,1.55965661539e+18,3.962524891,-6.177228928,4.168432236
1200,1.55965661544e+18,5.245856285,-10.41749001,4.692778587
1201,1.55965661549e+18,5.231490612,-12.14855003,3.890696526
1202,1.55965661554e+18,5.633728504,-13.38160229,1.922602654
1203,1.55965661559e+18,6.61777544,-12.33290958,2.181184292
1204,1.55965661564e+18,5.954561234,-9.998491287,1.438959122
1205,1.55965661569e+18,5.24106741,-9.438231468,1.223474383
1206,1.55965661574e+18,4.161249638,-9.27063179,0.8068706393
1207,1.55965661579e+18,3.806896925,-8.858817101,1.182771802
1208,1.55965661584e+18,3.689577579,-8.643332481,0.7015225291
1209,1.5596566159e+18,3.83802247,-9.380768776,1.161223292
1210,1.55965661595e+18,3.684788942,-9.354432106,0.945738554
1211,1.559656616e+18,3.672817469,-9.431048393,1.115732074
1212,1.55965661605e+18,3.241847992,-9.601041794,0.6632141471
1213,1.5596566161e+18,3.076643229,-9.239506721,0.7541965842
1214,1.55965661615e+18,3.129317284,-9.167677879,0.8020820618
1215,1.5596566162e+18,2.968900681,-9.052753448,1.041509509
1216,1.55965661625e+18,3.124528646,-9.167677879,0.8930644989
1217,1.5596566163e+18,3.399870157,-9.251478195,1.149251938
1218,1.55965661635e+18,3.421418667,-9.265843391,1.094183564
1219,1.55965661641e+18,3.440572977,-9.292180061,1.046298146
1220,1.55965661646e+18,3.167625666,-9.093455315,0.9912297726
1221,1.55965661651e+18,3.462121487,-9.172467232,0.9936240315
1222,1.55965661656e+18,3.304099321,-9.205986977,1.0606637
1223,1.55965661661e+18,3.270579338,-9.194015503,0.8308133483
1224,1.55965661666e+18,3.160442829,-9.500482559,0.7805336118
1225,1.55965661671e+18,3.589017868,-9.170072556,1.058269501
1226,1.55965661676e+18,3.45733285,-9.179649353,1.036720991
1227,1.55965661681e+18,3.751828671,-9.308940887,1.173194647
1228,1.55965661686e+18,3.510006905,-9.256266594,1.206714511
1229,1.55965661691e+18,4.000833035,-9.296969414,1.276148438
1230,1.55965661696e+18,3.402264595,-9.2035923,1.058269501
1231,1.55965661702e+18,3.126922846,-9.091061592,1.077423692
1232,1.55965661707e+18,5.023188591,-9.162889481,1.54670155
1233,1.55965661712e+18,3.869148016,-8.906702042,0.5674431324
1234,1.55965661717e+18,6.557918549,-8.844450951,2.272166729
1235,1.55965661722e+18,8.018425941,-8.909096718,2.209915638
1236,1.55965661727e+18,8.947404861,-9.399923325,3.687183142
1237,1.55965661732e+18,8.645726204,-9.2035923,3.22508812
1238,1.55965661737e+18,7.405491829,-8.990502357,2.35596633
1239,1.55965661742e+18,7.233104229,-8.327287674,2.396669149
1240,1.55965661748e+18,7.072687626,-7.699987888,2.274561167
1241,1.55965661753e+18,7.735901833,-6.780586243,3.94576478
1242,1.55965661758e+18,8.250671387,-5.59781456,3.249030828
1243,1.55965661763e+18,8.367990494,-4.477293968,4.582642078
1244,1.55965661768e+18,8.58108139,-3.268185139,4.381523132
1245,1.55965661773e+18,8.001666069,-1.446141958,4.00562191
1246,1.55965661778e+18,8.91149044,-0.1699935049,4.800520897
1247,1.55965661783e+18,7.946598053,0.7039167881,3.220299721
1248,1.55965661788e+18,8.375173569,0.9050358534,3.014391899
1249,1.55965661793e+18,7.659285069,1.022355318,2.066259146
1250,1.55965661799e+18,6.624958515,1.259388566,2.399063349
1251,1.55965661804e+18,7.031985283,1.877111435,2.025556564
1252,1.55965661809e+18,7.498868465,0.6943396926,2.815667152
1253,1.55965661814e+18,5.17402792,-0.08619388938,1.704723716
1254,1.55965661819e+18,4.874743462,-3.284945011,-2.104567528
1255,1.55965661824e+18,6.87156868,-5.142902374,-3.689577579
1256,1.55965661829e+18,7.534782887,1.50599885,0.01675992459
1257,1.55965661834e+18,9.56273365,-4.122941017,0.4908263385
1258,1.5596566184e+18,10.70240879,0.4237866402,-3.289733648
1259,1.55965661845e+18,11.68884945,-1.436564922,-2.312869549
1260,1.5596566185e+18,13.20921421,-0.8715160489,-3.940976381
1261,1.55965661855e+18,9.783006668,-1.019961119,-4.910657406
1262,1.5596566186e+18,16.32177162,-2.231464148,-3.256213665
1263,1.55965661865e+18,18.26592255,-3.306493521,-2.581028223
1264,1.5596566187e+18,21.12468719,-3.002420664,-2.004008055
1265,1.55965661876e+18,19.62826538,-1.690358043,-3.035940409
1266,1.55965661881e+18,15.82615662,-3.759011507,0.4956148863
1267,1.55965661886e+18,11.82053471,-2.9258039,0.5770202279
1268,1.55965661891e+18,8.822902679,-2.549902678,0.651242733
1269,1.55965661896e+18,3.96491909,-2.027950764,-0.4213923812
1270,1.55965661901e+18,3.73267436,-1.956122518,-1.048692346
1271,1.55965661906e+18,2.025556564,-0.4237866402,-0.6919454336
1272,1.55965661911e+18,1.324033976,4.010410309,4.211529255
1273,1.55965661916e+18,-3.727885962,9.002472878,10.90352726
1274,1.55965661922e+18,-9.014444351,12.98175812,17.17173958
1275,1.55965661927e+18,-18.41436768,14.35846615,17.26990509
1276,1.55965661932e+18,-29.09283257,17.00413895,10.94662476
1277,1.55965661937e+18,-31.84146118,3.826051235,-0.8739103079
1278,1.55965661942e+18,0.5051919818,-3.64887476,16.93231201
1279,1.55965661947e+18,29.83984756,-78.3574295,-7.297749519
1280,1.55965661952e+18,7.594639778,2.406246185,-16.66175842
1281,1.55965661957e+18,1.695146561,-1.766974807,-14.46620846
1282,1.55965661962e+18,-1.570644259,8.372778893,-2.971295118
1283,1.55965661967e+18,-4.163643837,6.524398804,-4.201952457
1284,1.55965661972e+18,-4.290540695,1.874717116,0.7853221297
1285,1.55965661977e+18,-3.452544212,-0.4716721475,-0.3447755575
1286,1.55965661983e+18,-0.7494080067,-4.508419514,0.8715160489
1287,1.55965661988e+18,2.389486313,-6.55073595,4.477293968
1288,1.55965661993e+18,3.723097324,-14.60268211,7.54675436
1289,1.55965661998e+18,2.418217659,-15.48856354,10.39833546
1290,1.55965662003e+18,4.867560863,-18.70646858,6.703969479
1291,1.55965662008e+18,8.894730568,-21.50777054,2.628913641
1292,1.55965662014e+18,14.73436737,-20.66977501,5.971321583
1293,1.55965662019e+18,12.17967606,-15.53166103,2.961717844
1294,1.55965662024e+18,8.475732803,-13.88918781,1.539518714
1295,1.55965662029e+18,9.981731415,-9.490905762,2.717501879
1296,1.55965662034e+18,8.480521202,-6.347222328,2.698347807
1297,1.55965662039e+18,6.919454098,-8.559532166,1.515576005
1298,1.55965662044e+18,5.77020216,-9.890748978,0.9768640995
1299,1.55965662049e+18,4.817280769,-10.57790565,1.046298146
1300,1.55965662055e+18,3.988861799,-10.84367085,0.8715160489
1301,1.5596566206e+18,3.148471355,-11.18844604,0.1963305324
1302,1.55965662065e+18,2.736656189,-11.17647457,0.09577099234
1303,1.5596566207e+18,2.229069948,-10.60903168,-0.01915419847
1304,1.55965662075e+18,2.26977253,-9.057541847,-0.004788549617
1305,1.5596566208e+18,2.332023621,-8.74149704,0.4908263385
1306,1.55965662085e+18,2.43976593,-7.805335999,0.8906702399
1307,1.5596566209e+18,2.645673752,-8.07828331,0.8523618579
1308,1.55965662095e+18,3.258608103,-8.468549728,1.558672905
1309,1.559656621e+18,3.598595142,-9.239506721,1.307274103
1310,1.55965662105e+18,4.618556023,-9.976943016,2.348783493
1311,1.55965662111e+18,4.314483166,-10.38157558,1.455719113
1312,1.55965662116e+18,4.683201313,-10.13496494,1.364736676
1313,1.55965662121e+18,5.051919937,-9.703995705,1.491633177
1314,1.55965662126e+18,4.017592907,-9.354432106,1.12530911
1315,1.55965662131e+18,4.510813713,-9.062330246,1.103760719
1316,1.55965662136e+18,4.060689926,-9.05993557,1.005595446
1317,1.55965662141e+18,4.151672363,-9.210775375,0.6225114465
1318,1.55965662146e+18,3.715914488,-9.584281921,0.8619389534
1319,1.55965662151e+18,3.907456398,-9.677659035,0.8164477348
1320,1.55965662157e+18,3.37113905,-9.577098846,0.943344295
1321,1.55965662162e+18,2.983266354,-9.172467232,0.7925049663
1322,1.55965662167e+18,2.724684715,-9.524425507,0.5458946824
1323,1.55965662172e+18,2.626519442,-9.375980377,0.5698373914
1324,1.55965662177e+18,2.705530643,-9.268238068,0.5123748183
1325,1.55965662182e+18,2.947352171,-9.249083519,0.9050358534
1326,1.55965662187e+18,2.609759569,-9.150918007,0.9577099085
1327,1.55965662192e+18,2.736656189,-9.320911407,0.8643332124
1328,1.55965662197e+18,2.796513081,-9.328094482,0.8715160489
1329,1.55965662203e+18,3.105374336,-9.24429512,1.094183564
1330,1.55965662208e+18,3.067065954,-9.411893845,1.460507631
1331,1.55965662213e+18,3.680000305,-9.304151535,1.118126392
1332,1.55965662218e+18,3.191568375,-9.22992897,0.9553156495
1333,1.55965662223e+18,3.529160976,-9.591464996,0.950527072
1334,1.55965662228e+18,3.703943014,-9.304151535,1.000806928
1335,1.55965662233e+18,4.022381783,-9.328094482,1.154040456
1336,1.55965662238e+18,3.79492569,-9.256266594,0.945738554
1337,1.55965662244e+18,3.56268096,-9.261054993,0.9098244309
1338,1.55965662249e+18,3.43578434,-9.41907692,1.098972082
1339,1.55965662254e+18,3.265790939,-9.366402626,0.8930644989
1340,1.55965662259e+18,3.193962574,-9.443019867,0.9337671995
1341,1.55965662264e+18,3.081431627,-9.31133461,0.8427847624
1342,1.55965662269e+18,3.136499882,-9.399923325,1.034326673
1343,1.55965662275e+18,2.844398499,-9.31133461,0.924190104
1344,1.5596566228e+18,2.901860952,-9.222746849,0.984046936
1345,1.55965662285e+18,2.971295118,-9.301757812,0.9050358534
1346,1.5596566229e+18,3.074248791,-9.256266594,0.7733507752
1347,1.55965662295e+18,3.507612705,-9.292180061,1.065452337
1348,1.559656623e+18,3.759011507,-9.210775375,1.051086664
1349,1.55965662305e+18,3.725491524,-9.316123009,1.12291491
1350,1.55965662311e+18,3.883513689,-9.119792938,1.03911531
1351,1.55965662316e+18,3.306493521,-9.150918007,0.8882759809
1352,1.55965662321e+18,3.565075159,-9.273026466,1.134886265
1353,1.55965662326e+18,3.402264595,-9.153312683,0.9217957854
1354,1.55965662331e+18,3.181991339,-9.277814865,0.948132813
1355,1.55965662336e+18,3.038334846,-9.289786339,1.065452337
1356,1.55965662341e+18,3.696760416,-9.232323647,1.343188167
1357,1.55965662347e+18,3.493247032,-9.258660316,1.347976685
1358,1.55965662352e+18,3.502824068,-9.232323647,1.177983165
1359,1.55965662357e+18,3.210722446,-9.265843391,0.8739103079
1360,1.55965662362e+18,3.395081758,-9.256266594,1.029538155
1361,1.55965662367e+18,3.292127848,-9.308940887,0.7134938836
1362,1.55965662372e+18,3.428601503,-9.170072556,1.249811411
1363,1.55965662377e+18,3.407052994,-9.129369736,0.964892745
1364,1.55965662383e+18,5.435003757,-8.760651588,2.16203022
1365,1.55965662388e+18,6.23469162,-8.978530884,3.079037428
1366,1.55965662393e+18,9.713572502,-8.47812748,5.363175392
1367,1.55965662398e+18,11.18844604,-8.238699913,5.695979595
1368,1.55965662403e+18,9.902720451,-11.20520592,4.874743462
1369,1.55965662408e+18,8.518829346,-11.44942188,3.34959054
1370,1.55965662413e+18,6.179623127,-10.59945488,1.525153041
1371,1.55965662418e+18,4.419831276,-8.209968567,0.8140534163
1372,1.55965662424e+18,4.491659641,-5.549929142,1.946545362
1373,1.55965662429e+18,5.042342663,-4.151672363,2.494834423
1374,1.55965662434e+18,6.775797844,-3.605777979,3.873936653
1375,1.55965662439e+18,6.929031372,-3.064671755,3.256213665
1376,1.55965662444e+18,7.474925995,-2.341600657,3.972101927
1377,1.55965662449e+18,7.82688427,-1.297696948,4.211529255
1378,1.55965662454e+18,7.812518597,-0.2825244367,4.599401951
1379,1.55965662459e+18,9.320911407,0.627300024,5.209941864
1380,1.55965662464e+18,9.620196342,1.529941559,5.001639843
1381,1.5596566247e+18,8.985713005,0.9050358534,3.87872529
1382,1.55965662475e+18,8.212362289,0.1819648892,2.044710636
1383,1.5596566248e+18,7.858009815,-2.138087511,-0.7661679387
1384,1.55965662485e+18,7.324086666,-4.795732498,-4.453351021
1385,1.5596566249e+18,-1.853168726,-1.261782765,-1.295302629
1386,1.55965662495e+18,15.51490116,6.782980442,1.113337755
1387,1.559656625e+18,6.732700825,5.583448887,0.5363175869
1388,1.55965662505e+18,8.066311836,2.576239586,1.553884387
1389,1.55965662511e+18,8.662486076,2.966506481,-0.8619389534
1390,1.55965662516e+18,11.99531651,-0.2897072434,-2.083019018
1391,1.55965662521e+18,16.83175278,1.659232497,-2.492439985
1392,1.55965662526e+18,18.63942909,-0.3016786277,0.6416656375
1393,1.55965662531e+18,22.3002758,-0.3878725171,1.084606528
1394,1.55965662536e+18,17.86128998,-0.5004034638,-1.015172482
1395,1.55965662541e+18,13.11344337,-1.786128998,2.705530643
1396,1.55965662547e+18,11.17647457,-1.211503029,1.300091267
1397,1.55965662552e+18,7.630553722,-0.5770202279,1.158828974
1398,1.55965662557e+18,4.139701366,0.1580221355,-0.316044271
1399,1.55965662562e+18,3.023969173,0.3543526828,0.9768640995
1400,1.55965662567e+18,-0.002394274808,-0.2705530524,1.71908927
1401,1.55965662572e+18,0.481249243,2.051893473,1.783734679
1402,1.55965662577e+18,-0.01675992459,4.721509933,5.324867249
1403,1.55965662582e+18,-4.608979225,8.413481712,9.371191978
1404,1.55965662587e+18,-11.54758739,11.44223976,15.09111404
1405,1.55965662592e+18,-23.08080864,13.08710575,12.9266901
1406,1.55965662597e+18,-35.03302765,16.09192085,8.444606781
1407,1.55965662602e+18,-32.15032196,11.01366425,-2.968900681
1408,1.55965662608e+18,-5.080651283,-8.475732803,15.7806654
1409,1.55965662613e+18,30.11039925,-78.41968536,11.09746361
1410,1.55965662618e+18,9.220352173,-0.1245022863,-11.48294163
1411,1.55965662623e+18,-2.612153769,-6.110189438,-9.478934288
1412,1.55965662628e+18,-6.756643295,13.85327435,-2.822849989
1413,1.55965662633e+18,-7.443800449,5.523591995,1.905842781
1414,1.55965662638e+18,-10.16130257,3.660846233,1.48445034
1415,1.55965662643e+18,-8.38235569,2.262589693,3.452544212
1416,1.55965662648e+18,-6.016812801,0.332804203,1.386285067
1417,1.55965662654e+18,-2.399063349,0.1867534369,1.78134048
1418,1.55965662659e+18,-3.007209063,-0.9050358534,1.541913033
1419,1.55965662664e+18,-3.292127848,0.2537931204,0.5435003638
1420,1.55965662669e+18,-0.5171633363,1.838803053,3.160442829
1421,1.55965662674e+18,4.415042877,-3.893090725,6.577073097
1422,1.5596566268e+18,11.67208958,-8.748680115,5.435003757
1423,1.55965662685e+18,18.37366486,-18.86209679,9.818921089
1424,1.5596566269e+18,12.48853779,-15.445467,3.988861799
1425,1.55965662695e+18,14.82056141,-17.39680099,2.14048171
1426,1.559656627e+18,16.97780228,-12.72796535,0.8906702399
1427,1.55965662705e+18,9.534002304,-10.01285744,0.5099805593
1428,1.5596566271e+18,8.638543129,-8.466156006,0.4333637357
1429,1.55965662715e+18,6.902694225,-7.544359684,-0.5770202279
1430,1.5596566272e+18,5.794145107,-7.963357925,0.2753416002
1431,1.55965662725e+18,5.806116581,-8.46376133,0.3974496126
1432,1.5596566273e+18,5.265010357,-9.443019867,0.7757450342
1433,1.55965662735e+18,5.037554264,-9.620196342,0.4309694767
1434,1.5596566274e+18,4.268991947,-9.921875,0.04309694469
1435,1.55965662746e+18,3.957736254,-9.941028595,0.1580221355
1436,1.55965662751e+18,3.828445435,-9.433443069,0.01915419847
1437,1.55965662756e+18,3.64887476,-9.450202942,0.1723877788
1438,1.55965662761e+18,3.591412306,-9.560338974,0.8810931444
1439,1.55965662766e+18,2.889889717,-9.107821465,-0.007182824425
1440,1.55965662771e+18,2.736656189,-8.906702042,0.9553156495
1441,1.55965662776e+18,2.947352171,-8.46376133,1.182771802
1442,1.55965662781e+18,3.677606106,-8.056735039,1.690358043
1443,1.55965662786e+18,3.495641232,-8.763046265,1.953728199
1444,1.55965662791e+18,4.130124092,-9.253871918,1.788523316
1445,1.55965662797e+18,4.331243038,-9.438231468,1.580221415
1446,1.55965662802e+18,4.494053841,-9.052753448,1.087000728
1447,1.55965662807e+18,4.371945858,-8.810931206,1.110943556
1448,1.55965662812e+18,4.257020473,-8.777411461,0.9002473354
1449,1.55965662817e+18,5.02558279,-9.105426788,1.055875182
1450,1.55965662822e+18,5.408666611,-8.95219326,1.08221221
1451,1.55965662827e+18,5.1333251,-8.609811783,1.096577883
1452,1.55965662832e+18,4.721509933,-8.832479477,1.067846537
1453,1.55965662838e+18,4.336031914,-9.313729286,0.6632141471
1454,1.55965662843e+18,4.257020473,-8.923461914,1.151646137
1455,1.55965662848e+18,4.331243038,-8.844450951,1.103760719
1456,1.55965662853e+18,3.96731329,-9.282603264,0.8284190893
1457,1.55965662858e+18,3.823656797,-9.167677879,0.8786988258
1458,1.55965662863e+18,3.823656797,-8.494887352,1.261782765
1459,1.55965662868e+18,3.814079762,-9.112609863,1.324033976
1460,1.55965662873e+18,3.835628271,-9.076695442,1.058269501
1461,1.55965662878e+18,3.919427872,-8.947404861,1.084606528
1462,1.55965662884e+18,3.624932051,-9.035993576,0.8763045669
1463,1.55965662889e+18,4.448562622,-8.638543129,0.8427847624
1464,1.55965662894e+18,4.77418375,-9.014444351,1.23065722
1465,1.55965662899e+18,5.21473074,-9.122186661,0.7757450342
1466,1.55965662904e+18,5.861184597,-8.935433388,1.209108829
1467,1.55965662909e+18,5.930618763,-8.277008057,1.072635174
1468,1.55965662914e+18,5.734288216,-8.035185814,1.331216812
1469,1.55965662919e+18,5.408666611,-7.99687767,0.4740664065
1470,1.55965662925e+18,6.368771076,-8.039975166,0.8786988258
1471,1.5596566293e+18,6.481301785,-7.99687767,0.5004034638
1472,1.55965662935e+18,7.314509392,-7.685622215,1.053480864
1473,1.5596566294e+18,7.963357925,-6.897905827,1.091789365
1474,1.55965662945e+18,9.110215187,-6.691998005,0.7829278708
1475,1.5596566295e+18,10.34805584,-6.064698219,2.660039425
1476,1.55965662955e+18,11.99292278,-5.645699978,2.669616461
1477,1.5596566296e+18,11.48773098,-4.917840481,2.722290516
1478,1.55965662965e+18,12.6010685,-4.936994553,3.45493865
1479,1.5596566297e+18,12.23953247,-3.802108288,3.663240433
1480,1.55965662976e+18,12.56036568,-3.407052994,3.311282158
1481,1.55965662981e+18,9.538790703,-1.793311834,1.565855742
1482,1.55965662986e+18,7.673650742,-3.22269392,0.9720755816
1483,1.55965662991e+18,2.164424419,-3.342407703,0.2753416002
1484,1.55965662996e+18,4.168432236,-3.785348415,-1.630501151
1485,1.55965663001e+18,11.33689117,-3.045517445,-0.9768640995
1486,1.55965663007e+18,6.402290821,-1.857957244,-1.110943556
1487,1.55965663012e+18,-9.438231468,-10.86761379,7.609005451
1488,1.55965663017e+18,15.89080143,6.450176239,3.462121487
1489,1.55965663022e+18,3.136499882,-0.1268965602,-5.803721905
1490,1.55965663027e+18,7.328875065,0.07661679387,-4.525179386
1491,1.55965663032e+18,12.85246754,2.348783493,-6.677632332
1492,1.55965663037e+18,11.28182316,2.664827824,-8.521224022
1493,1.55965663042e+18,21.96507645,1.620923996,-4.13730669
1494,1.55965663048e+18,24.950737,2.959323645,-0.09098244458
1495,1.55965663053e+18,20.86849976,2.571451187,-2.145270348
1496,1.55965663058e+18,17.24117279,1.252205729,-0.3064671755
1497,1.55965663063e+18,8.413481712,1.137280583,-1.204320192
1498,1.55965663068e+18,6.529187202,0.3878725171,-0.03112557158
1499,1.55965663073e+18,3.840416908,0.1532335877,-0.3112557232
1500,1.55965663078e+18,1.201925993,1.936968327,1.491633177
1501,1.55965663083e+18,-0.7254652381,0.05267404765,0.3735068738
1502,1.55965663089e+18,0.8715160489,1.364736676,1.015172482
1503,1.55965663094e+18,-1.237840056,4.338426113,4.029564381
1504,1.55965663099e+18,-11.38717079,9.313729286,14.05439281
1505,1.55965663104e+18,-24.96270943,11.91151714,17.52609253
1506,1.55965663109e+18,-38.03784561,13.94904518,11.77743816
1507,1.55965663114e+18,-36.2325592,14.29860878,-11.46618176
1508,1.55965663119e+18,-8.6888237,-2.219492674,4.266597748
1509,1.55965663125e+18,24.75440788,-71.07883453,-36.49114227
1510,1.5596566313e+18,10.8149395,3.198751211,-19.32419205
1511,1.55965663135e+18,0.5794144869,-4.201952457,-15.68728828
1512,1.5596566314e+18,1.29290843,3.957736254,-1.12530911
1513,1.55965663145e+18,-3.170019865,3.766194344,-7.455771923
1514,1.5596566315e+18,-2.935380936,1.197137356,-1.364736676
1515,1.55965663155e+18,-2.676799297,0.9385557175,2.039922237
1516,1.5596566316e+18,-2.497228622,-2.638490915,-0.2944957912
1517,1.55965663165e+18,3.148471355,-4.120546818,5.389512539
1518,1.5596566317e+18,3.909850836,-14.52127647,8.030397415
1519,1.55965663176e+18,9.117398262,-21.71607208,9.804554939
1520,1.55965663181e+18,11.89236259,-27.88372421,8.854028702
1521,1.55965663186e+18,20.30344963,-24.53892326,8.126168251
1522,1.55965663191e+18,18.82378769,-14.81577206,9.634561539
1523,1.55965663196e+18,15.21082783,-7.386337757,9.155706406
1524,1.55965663201e+18,9.692024231,-9.105426788,5.559505939
1525,1.55965663207e+18,7.915472507,-8.01124382,4.024775982
1526,1.55965663212e+18,6.59143877,-8.765439987,3.481275558
1527,1.55965663217e+18,5.164450645,-10.90113354,2.190761566
1528,1.55965663222e+18,3.866753817,-11.1645031,2.257801056
1529,1.55965663227e+18,3.43578434,-10.88916206,1.86514008
1530,1.55965663232e+18,2.535537004,-10.31932449,1.443747759
1531,1.55965663237e+18,2.202732801,-9.280209541,1.113337755
1532,1.55965663242e+18,3.160442829,-8.15968895,1.551490068
1533,1.55965663247e+18,2.940169573,-7.072687626,1.120520592
1534,1.55965663252e+18,3.181991339,-6.926637173,2.085413456
1535,1.55965663257e+18,2.980872154,-6.893116951,2.164424419
1536,1.55965663263e+18,4.082238674,-8.023215294,2.619336605
1537,1.55965663268e+18,4.506025314,-8.971347809,3.000026226
1538,1.55965663273e+18,5.399089813,-9.845257759,2.985660791
1539,1.55965663278e+18,5.487678051,-10.15172482,2.774964571
1540,1.55965663283e+18,5.98089838,-10.08468533,2.454131603
1541,1.55965663288e+18,5.583448887,-9.617801666,2.324840784
1542,1.55965663293e+18,5.305713177,-9.383162498,1.747820616
1543,1.55965663298e+18,4.714327335,-8.91149044,1.699935079
1544,1.55965663303e+18,4.501236439,-8.619389534,1.415016413
1545,1.55965663309e+18,4.027170181,-9.028810501,1.544307232
1546,1.55965663314e+18,3.885908127,-9.241900444,1.065452337
1547,1.55965663319e+18,3.766194344,-9.407105446,0.9553156495
1548,1.55965663324e+18,3.399870157,-9.454991341,0.9026415944
1549,1.55965663329e+18,3.301704884,-9.32570076,1.043903828
1550,1.55965663334e+18,3.11734581,-8.978530884,1.058269501
1551,1.55965663339e+18,3.100585938,-9.05993557,1.300091267
1552,1.55965663345e+18,3.416630268,-8.686429024,1.065452337
1553,1.5596566335e+18,3.768588543,-8.684034348,1.324033976
1554,1.55965663355e+18,3.893090725,-8.968953133,1.079817891
1555,1.5596566336e+18,4.448562622,-9.162889481,1.697540879
1556,1.55965663365e+18,4.383917332,-9.031204224,1.666415215
1557,1.5596566337e+18,4.254626274,-9.035993576,2.0351336
1558,1.55965663375e+18,4.118152618,-8.861210823,1.683175206
1559,1.5596566338e+18,4.489265442,-8.858817101,1.984853864
1560,1.55965663386e+18,4.271386147,-8.973741531,1.479661822
1561,1.55965663391e+18,4.379128456,-8.765439987,1.642472506
1562,1.55965663396e+18,4.21631813,-8.794171333,1.450930476
1563,1.55965663401e+18,4.395888329,-9.004867554,1.300091267
1564,1.55965663406e+18,4.367157459,-8.858817101,1.175588965
1565,1.55965663411e+18,4.348002911,-8.865999222,1.022355318
1566,1.55965663416e+18,4.927417755,-8.820508003,1.517970204
1567,1.55965663422e+18,5.499649048,-8.399115562,1.807677507
1568,1.55965663427e+18,6.325674057,-8.760651588,2.497228622
1569,1.55965663432e+18,5.861184597,-8.734314919,2.288926601
1570,1.55965663437e+18,5.566689014,-8.490098,2.46131444
1571,1.55965663442e+18,5.286558628,-8.205180168,2.645673752
1572,1.55965663447e+18,5.803721905,-7.745479107,2.983266354
1573,1.55965663452e+18,6.091034889,-7.515628815,2.274561167
1574,1.55965663457e+18,6.680026531,-8.013637543,3.749434233
1575,1.55965663463e+18,5.66245985,-7.33366394,3.974496126
1576,1.55965663468e+18,6.636929989,-6.993676662,4.939388752
1577,1.55965663473e+18,9.035993576,-5.504437923,8.399115562
1578,1.55965663478e+18,11.45421028,-4.570670605,8.655303001
1579,1.55965663483e+18,10.49410629,-3.002420664,7.259441376
1580,1.55965663488e+18,10.73832226,-2.425400496,6.366376877
1581,1.55965663493e+18,9.86680603,-0.6727912426,3.976890564
1582,1.55965663498e+18,8.863605499,-0.1316851079,2.604970932
1583,1.55965663504e+18,6.414262295,0.8978530765,1.103760719
1584,1.55965663509e+18,5.348809719,-0.06703969836,0.1173194647
1585,1.55965663514e+18,4.474899769,-0.7972934842,-1.46290195
1586,1.55965663519e+18,9.038387299,-4.340820312,-2.408640385
1587,1.55965663524e+18,-3.543526649,-23.329813,19.44151115
1588,1.55965663529e+18,10.54438591,10.56593513,-10.51326084
1589,1.55965663534e+18,5.81090498,-2.389486313,1.309668303
1590,1.55965663539e+18,4.743058205,2.597788095,-0.2106961906
1591,1.55965663545e+18,11.23393726,0.9170072675,-1.671203852
1592,1.5596566355e+18,18.60590935,1.158828974,-3.059883118
1593,1.55965663555e+18,32.27482605,3.20353961,-3.481275558
1594,1.5596566356e+18,25.27635956,4.302511692,0.5674431324
1595,1.55965663565e+18,20.39443207,1.54670155,0.02633702382
1596,1.5596566357e+18,10.98732662,1.223474383,-2.078230619
1597,1.55965663575e+18,8.377567291,-1.134886265,0.9936240315
1598,1.55965663581e+18,3.979284763,-0.3591412306,-0.5554717779
1599,1.55965663586e+18,1.841197371,0.03830839694,0.1723877788
1600,1.55965663591e+18,0.5315290093,0.2753416002,-0.184359163
1601,1.55965663596e+18,0.004788549617,0.7972934842,-1.367130876
1602,1.55965663601e+18,-0.9337671995,1.647261024,0.7948992252
1603,1.55965663606e+18,-4.903474808,6.828471661,7.939415455
1604,1.55965663611e+18,-14.12861538,11.18365765,17.48778343
1605,1.55965663616e+18,-23.0185585,11.84447765,19.6593914
1606,1.55965663622e+18,-35.21738815,15.75432777,8.873182297
1607,1.55965663627e+18,-37.24773407,5.114171028,-3.589017868
1608,1.55965663632e+18,-0.7613793612,-4.558699131,17.54524612
1609,1.55965663637e+18,23.94035339,-75.56092072,-17.41834831
1610,1.55965663642e+18,12.038414,0.6153286099,-12.88119888
1611,1.55965663647e+18,-2.806090117,-3.981678963,-18.39521408
1612,1.55965663652e+18,1.477267504,5.166844845,-4.877137661
1613,1.55965663657e+18,-3.955342054,5.607391834,-3.893090725
1614,1.55965663662e+18,-1.82204318,-0.1221080124,0.4932205975
1615,1.55965663667e+18,-5.870761871,1.03911531,3.337619066
1616,1.55965663672e+18,-6.112583637,-0.1292908341,5.142902374
1617,1.55965663677e+18,-4.75024128,1.350371003,7.594639778
1618,1.55965663683e+18,-2.971295118,0.7206767201,9.347249031
1619,1.55965663688e+18,1.510787368,-1.094183564,12.78542709
1620,1.55965663693e+18,3.478881359,-7.458166122,11.78222656
1621,1.55965663698e+18,6.548341751,-5.619362831,12.14376163
1622,1.55965663703e+18,4.606584549,-7.834067345,11.8684206
1623,1.55965663708e+18,8.020820618,-10.80296803,5.406272411
1624,1.55965663713e+18,14.52606487,-14.77028084,11.10225201
1625,1.55965663719e+18,14.38480282,-8.686429024,3.785348415
1626,1.55965663724e+18,11.43745041,-11.35125732,4.197163582
1627,1.55965663729e+18,6.881145954,-9.534002304,0.3256213665
1628,1.55965663734e+18,4.436591148,-9.52203083,0.01675992459
1629,1.55965663739e+18,5.504437923,-8.739103317,1.118126392
1630,1.55965663744e+18,4.515602112,-8.947404861,1.134886265
1631,1.55965663749e+18,3.902667999,-9.806949615,0.5650488734
1632,1.55965663754e+18,2.997632027,-9.383162498,0.5267404318
1633,1.5596566376e+18,3.093403101,-9.514847755,1.290514112
1634,1.55965663765e+18,2.595393896,-9.115004539,0.7015225291
1635,1.5596566377e+18,2.703136206,-8.791776657,1.197137356
1636,1.55965663775e+18,2.882706881,-8.573898315,1.127703428
1637,1.5596566378e+18,4.309694767,-8.291373253,1.766974807
1638,1.55965663785e+18,4.539545059,-9.143735886,1.733454943
1639,1.5596566379e+18,4.343214512,-9.399923325,1.247417212
1640,1.55965663795e+18,4.048718929,-9.423865318,1.031932473
1641,1.559656638e+18,3.991255999,-9.438231468,2.743839025
1642,1.55965663805e+18,4.295329094,-8.880365372,1.75979197
1643,1.55965663811e+18,4.407859802,-8.719948769,0.962498486
1644,1.55965663816e+18,4.860377789,-8.928250313,1.118126392
1645,1.55965663821e+18,4.352791786,-9.126976013,1.252205729
1646,1.55965663826e+18,3.996044636,-9.251478195,1.381496549
1647,1.55965663831e+18,3.217905283,-9.115004539,0.6799740195
1648,1.55965663836e+18,3.481275558,-8.933039665,1.606558442
1649,1.55965663841e+18,3.660846233,-8.954587936,1.108549237
1650,1.55965663846e+18,4.443774223,-8.92585659,2.071047783
1651,1.55965663852e+18,5.02558279,-9.014444351,1.606558442
1652,1.55965663857e+18,4.398283005,-8.889942169,1.999219418
1653,1.55965663862e+18,5.059102535,-8.47812748,1.819648862
1654,1.55965663867e+18,5.332049847,-8.485309601,2.224281311
1655,1.55965663872e+18,6.191594601,-8.482915878,1.88668859
1656,1.55965663877e+18,6.282577038,-8.217150688,2.253012657
1657,1.55965663882e+18,5.06628561,-7.999272346,1.256994247
1658,1.55965663887e+18,5.178816319,-8.135746002,1.12530911
1659,1.55965663893e+18,5.545140266,-7.726325035,1.098972082
1660,1.55965663898e+18,6.622564316,-7.563514233,1.800494671
1661,1.55965663903e+18,7.604216576,-7.173247337,2.48046875
1662,1.55965663908e+18,8.130957603,-6.97691679,2.626519442
1663,1.55965663913e+18,8.039975166,-6.596227169,2.420611858
1664,1.55965663918e+18,7.86519289,-6.162863255,2.250618219
1665,1.55965663923e+18,7.412674904,-6.009629726,2.86355257
1666,1.55965663928e+18,7.213950157,-5.34641552,3.45493865
1667,1.55965663934e+18,6.859597206,-4.857983589,3.936187744
1668,1.55965663939e+18,5.765413761,-4.326454639,6.311308384
1669,1.55965663944e+18,6.416656494,-4.436591148,7.316903591
1670,1.55965663949e+18,6.735095024,-3.442967176,6.677632332
1671,1.55965663954e+18,6.584255695,-3.296916485,7.764633179
1672,1.55965663959e+18,6.270605564,-2.717501879,7.65210247
1673,1.55965663964e+18,6.059909344,-2.849187136,7.496474266
1674,1.55965663969e+18,6.141314983,-2.645673752,8.162082672
1675,1.55965663974e+18,6.344828129,-2.128510237,7.946598053
1676,1.55965663979e+18,6.146103382,-1.345582485,8.451789856
1677,1.55965663985e+18,6.069486618,-0.5961744189,8.667274475
1678,1.5596566399e+18,5.509226322,0.2370332032,8.281796455
1679,1.55965663995e+18,6.469330311,0.1292908341,10.05116558
1680,1.55965664e+18,5.767807961,1.072635174,8.686429024
1681,1.55965664005e+18,6.356799603,1.146857619,9.368797302
1682,1.5596566401e+18,6.023995399,1.996825218,8.35601902
1683,1.55965664015e+18,4.580247879,2.801301479,6.16765213
1684,1.5596566402e+18,4.290540695,1.82204318,5.334444046
1685,1.55965664025e+18,2.849187136,0.5961744189,3.739857197
1686,1.55965664031e+18,3.165231228,-3.785348415,-1.630501151
1687,1.55965664036e+18,1.522758722,-5.964138508,-7.338452339
1688,1.55965664041e+18,5.257827282,-4.778972626,-0.06703969836
1689,1.55965664046e+18,3.409447432,7.096630573,-0.5722316504
1690,1.55965664051e+18,8.923461914,5.011217117,3.617749214
1691,1.55965664056e+18,10.45100975,-0.7422251701,4.374340057
1692,1.55965664061e+18,20.75357437,-6.172440529,3.756617069
1693,1.55965664066e+18,25.04411507,-2.961717844,6.452570438
1694,1.55965664071e+18,20.44471169,1.731060743,5.672037125
1695,1.55965664077e+18,17.72481728,-0.950527072,5.554717541
1696,1.55965664082e+18,15.74235725,-2.085413456,3.476486921
1697,1.55965664087e+18,8.432636261,-1.245022893,1.458113313
1698,1.55965664092e+18,6.287365437,-0.4932205975,0.7206767201
1699,1.55965664097e+18,1.788523316,-0.943344295,1.513181686
1700,1.55965664102e+18,1.364736676,-0.4716721475,1.070240855
1701,1.55965664107e+18,1.18756032,1.185166001,-0.2394274771
1702,1.55965664112e+18,1.783734679,2.578634024,0.08140534163
1703,1.55965664118e+18,-1.527547359,4.9609375,5.49246645
1704,1.55965664123e+18,-7.494080067,8.810931206,11.19084072
1705,1.55965664128e+18,-16.03685188,11.47575951,14.84929276
1706,1.55965664133e+18,-23.83979416,12.87401581,13.98017025
1707,1.55965664138e+18,-36.56296921,17.30102921,6.217931747
1708,1.55965664143e+18,-30.42644501,10.82212257,-4.482082367
1709,1.55965664148e+18,3.239453793,-10.03201103,19.06082153
1710,1.55965664153e+18,42.5318985,-62.75633621,20.09754181
1711,1.55965664158e+18,0.9792584181,-1.070240855,-23.27953339
1712,1.55965664163e+18,-1.352765322,-3.524372578,-9.258660316
1713,1.55965664168e+18,-4.649681568,13.81017685,0.2035133541
1714,1.55965664174e+18,-10.19003391,4.400677204,-3.747040033
1715,1.55965664179e+18,-5.818087578,5.382329941,3.684788942
1716,1.55965664184e+18,-3.114951611,0.332804203,4.386311531
1717,1.55965664189e+18,-4.836435318,-1.359948039,3.902667999
1718,1.55965664194e+18,-4.21631813,1.479661822,4.822069645
1719,1.55965664199e+18,-4.951360226,3.033546209,5.315289974
1720,1.55965664204e+18,-5.418243885,3.299310684,5.542746067
1721,1.5596566421e+18,-5.142902374,7.903501034,8.930644989
1722,1.55965664215e+18,-1.635289669,7.280989647,14.15016365
1723,1.5596566422e+18,-0.6081457734,7.218738556,13.63539505
1724,1.55965664225e+18,3.074248791,6.782980442,14.6697216
1725,1.5596566423e+18,4.448562622,5.32007885,12.90274715
1726,1.55965664235e+18,2.147664547,5.011217117,9.909903526
1727,1.5596566424e+18,4.369551659,4.486870766,9.067118645
1728,1.55965664245e+18,5.300924301,3.924216509,8.300951004
1729,1.55965664251e+18,5.774991035,3.33043623,8.130957603
1730,1.55965664256e+18,5.078257084,3.119740009,8.025609016
1731,1.55965664261e+18,4.743058205,2.882706881,7.486897469
1732,1.55965664266e+18,4.92262888,2.77735877,6.696786404
1733,1.55965664271e+18,5.34402132,2.401457548,6.610592842
1734,1.55965664276e+18,6.38074255,2.023162127,6.306519985
1735,1.55965664281e+18,6.402290821,1.970488191,6.466936111
1736,1.55965664286e+18,5.873156071,1.788523316,6.019207001
1737,1.55965664292e+18,5.751048088,1.65444386,5.906675816
1738,1.55965664297e+18,7.01522541,1.369525194,6.48609066
1739,1.55965664302e+18,7.072687626,1.048692346,6.93621397
1740,1.55965664307e+18,8.257853508,0.6656084061,7.051139355
1741,1.55965664312e+18,8.458972931,0.5530774593,6.981705189
1742,1.55965664317e+18,8.269824982,0.9050358534,6.747066498
1743,1.55965664322e+18,8.176448822,1.053480864,6.342433929
1744,1.55965664327e+18,8.260248184,1.132491946,6.035966873
1745,1.55965664332e+18,8.07828331,1.144463301,5.569083214
1746,1.55965664337e+18,8.655303001,0.8164477348,5.80851078
1747,1.55965664342e+18,8.540378571,0.6440598965,5.686402798
1748,1.55965664347e+18,8.300951004,0.2657645047,5.734288216
1749,1.55965664352e+18,8.071100235,0.1915419847,6.069486618
1750,1.55965664358e+18,8.286584854,0.004788549617,6.217931747
1751,1.55965664363e+18,7.731113434,-0.08619388938,5.985687256
1752,1.55965664368e+18,7.922655106,-0.07182824612,5.628940105
1753,1.55965664373e+18,7.443800449,-0.004788549617,5.480494976
1754,1.55965664378e+18,8.1453228,0.04070267081,5.24106741
1755,1.55965664383e+18,8.3153162,0.0,5.303318501
1756,1.55965664388e+18,8.181237221,0.2178790122,5.310501575
1757,1.55965664393e+18,8.250671387,0.2490045726,5.49007225
1758,1.55965664398e+18,7.800547123,0.3064671755,5.379935265
1759,1.55965664403e+18,8.245882034,0.1819648892,5.571477413
1760,1.55965664409e+18,8.085466385,0.2059076279,5.624151707
1761,1.55965664414e+18,8.284191132,0.2729473412,5.62175703
1762,1.55965664419e+18,8.061523438,0.1795706153,5.616968632
1763,1.55965664424e+18,7.86519289,0.3232271075,5.62175703
1764,1.55965664429e+18,8.054340363,0.2466102988,5.66245985
1765,1.55965664434e+18,8.083071709,0.1891477108,5.308107376
1766,1.55965664439e+18,8.458972931,0.1723877788,5.444581032
1767,1.55965664444e+18,8.085466385,0.2370332032,5.367964268
1768,1.5596566445e+18,8.030397415,0.2873129845,5.365570068
1769,1.55965664455e+18,7.853221416,0.4764606953,5.353598595
1770,1.5596566446e+18,8.372778893,0.5530774593,5.470917702
1771,1.55965664465e+18,8.224333763,0.6153286099,5.221913338
1772,1.5596566447e+18,8.272219658,0.5267404318,5.291347504
1773,1.55965664475e+18,8.056735039,0.5243461728,5.056708336
1774,1.5596566448e+18,8.176448822,0.4764606953,5.090228081
1775,1.55965664485e+18,8.605023384,0.3591412306,5.176422119
1776,1.5596566449e+18,8.545166969,0.2513988614,5.296135902
1777,1.55965664495e+18,8.475732803,0.2490045726,5.391906738
1778,1.55965664501e+18,8.303344727,0.3902668059,5.518803596
1779,1.55965664506e+18,8.401510239,0.4309694767,5.473312378
1780,1.55965664511e+18,8.612206459,0.4597007632,5.413455486
1781,1.55965664516e+18,8.624177933,0.5051919818,5.209941864
1782,1.55965664521e+18,8.449396133,0.4285751879,5.013611317
1783,1.55965664526e+18,8.253065109,0.3423812985,5.004034519
1784,1.55965664531e+18,8.399115562,0.3304099143,4.917840481
1785,1.55965664536e+18,8.260248184,0.3974496126,4.836435318
1786,1.55965664542e+18,8.190814018,0.1699935049,4.867560863
1787,1.55965664547e+18,8.059128761,0.184359163,5.19797039
1788,1.55965664552e+18,8.427846909,0.1987248063,5.511620522
1789,1.55965664557e+18,7.738296032,0.1101366431,5.698374271
1790,1.55965664562e+18,8.004060745,0.004788549617,6.280182838
1791,1.55965664567e+18,7.462954521,-0.02394274808,6.44778204
1792,1.55965664572e+18,7.886741161,-0.3399870098,6.562707424
1793,1.55965664578e+18,7.692804813,-0.2753416002,5.944984436
1794,1.55965664583e+18,7.989695072,-0.1891477108,5.66245985
1795,1.55965664588e+18,7.877163887,-0.1795706153,5.695979595
1796,1.55965664593e+18,7.755055904,-0.1245022863,5.681613922
1797,1.55965664598e+18,7.965752125,-0.1245022863,5.870761871
1798,1.55965664603e+18,7.635342598,-0.1221080124,6.031178474
1799,1.55965664608e+18,7.798152924,-0.08140534163,5.971321583
1800,1.55965664613e+18,7.422251701,-0.2705530524,5.904281616
1801,1.55965664618e+18,7.020013809,-0.464489311,5.822876453
1802,1.55965664623e+18,6.150891781,-0.6009629965,5.231490612
1803,1.55965664629e+18,6.244268894,-1.489238977,5.511620522
1804,1.55965664634e+18,7.051139355,-2.030344963,5.34402132
1805,1.55965664639e+18,6.495667458,-2.509200096,4.70953846
1806,1.55965664644e+18,6.256239891,-3.0957973,4.271386147
1807,1.55965664649e+18,6.572284222,-3.481275558,4.551516533
1808,1.55965664654e+18,7.752661705,-5.796539307,5.145296574
1809,1.55965664659e+18,6.150891781,-5.906675816,3.459727049
1810,1.55965664664e+18,5.497254848,-8.949799538,4.166038036
1811,1.5596566467e+18,6.433416367,-10.03440571,2.82045579
1812,1.55965664675e+18,7.410280704,-9.921875,2.253012657
1813,1.5596566468e+18,7.937020779,-9.435836792,2.504411459
1814,1.55965664685e+18,4.893897533,-9.028810501,0.928978622
1815,1.5596566469e+18,6.277788639,-9.10063839,1.371919513
1816,1.55965664695e+18,4.755029678,-8.703188896,0.986441195
1817,1.559656647e+18,4.168432236,-8.691217422,1.307274103
1818,1.55965664705e+18,4.015198708,-9.031204224,1.757397652
1819,1.55965664711e+18,4.087027073,-8.983319283,1.034326673
1820,1.55965664716e+18,4.405465603,-8.99289608,0.984046936
1821,1.55965664721e+18,4.295329094,-8.559532166,1.024749637
1822,1.55965664726e+18,4.362368584,-8.765439987,1.417410731
1823,1.55965664731e+18,4.259414673,-8.973741531,1.376708031
1824,1.55965664736e+18,4.752635479,-9.047964096,1.149251938
1825,1.55965664741e+18,4.592218876,-8.499675751,1.051086664
1826,1.55965664746e+18,4.017592907,-9.189227104,1.419804931
1827,1.55965664751e+18,3.845205307,-8.832479477,1.228263021
1828,1.55965664757e+18,4.039141655,-9.273026466,1.309668303
1829,1.55965664762e+18,4.295329094,-8.971347809,0.6751855016
1830,1.55965664767e+18,4.034353256,-9.409500122,0.967287004
1831,1.55965664772e+18,3.598595142,-8.856422424,1.666415215
1832,1.55965664777e+18,3.656057596,-8.74149704,1.630501151
1833,1.55965664782e+18,3.481275558,-9.062330246,1.0606637
1834,1.55965664787e+18,3.505218267,-8.643332481,0.7661679387
1835,1.55965664792e+18,3.191568375,-9.500482559,1.254600048
1836,1.55965664798e+18,3.301704884,-8.940221786,1.108549237
1837,1.55965664803e+18,4.743058205,-8.494887352,1.539518714
1838,1.55965664808e+18,4.826858044,-8.420664787,1.137280583
1839,1.55965664813e+18,5.039948463,-9.141341209,0.7613793612
1840,1.55965664818e+18,5.008822918,-9.335277557,1.031932473
1841,1.55965664823e+18,4.532361984,-8.810931206,1.628106833
1842,1.55965664828e+18,3.814079762,-8.664880753,1.063058019
1843,1.55965664833e+18,3.629720688,-8.91149044,1.221080184
1844,1.55965664839e+18,3.687183142,-9.000079155,0.7230709791
1845,1.55965664844e+18,4.003227711,-9.105426788,1.144463301
1846,1.55965664849e+18,3.888302326,-9.213169098,1.096577883
1847,1.55965664854e+18,4.400677204,-9.043175697,1.671203852
1848,1.55965664859e+18,4.21871233,-8.875576973,1.752609134
1849,1.55965664864e+18,4.661653042,-8.818114281,1.901054144
1850,1.55965664869e+18,3.849993944,-9.07430172,1.417410731
1851,1.55965664874e+18,4.211529255,-9.138946533,1.259388566
1852,1.55965664879e+18,3.658451796,-8.959376335,0.948132813
1853,1.55965664885e+18,3.620143414,-9.000079155,1.424593568
1854,1.5596566489e+18,3.660846233,-8.865999222,1.410227895
1855,1.55965664895e+18,4.221106529,-8.95219326,2.104567528
1856,1.559656649e+18,5.032765865,-8.91149044,2.487651587
1857,1.55965664905e+18,5.619362831,-8.676852226,3.775771379
1858,1.5596566491e+18,6.098217964,-8.837267876,3.665634632
1859,1.55965664915e+18,5.411061287,-8.767834663,3.41423583
1860,1.5596566492e+18,5.834847927,-8.803748131,3.13889432
1861,1.55965664925e+18,5.401484013,-8.588263512,2.497228622
1862,1.5596566493e+18,5.221913338,-8.375173569,2.466103077
1863,1.55965664936e+18,5.061496735,-7.395915031,1.953728199
1864,1.55965664941e+18,5.655277252,-6.9098773,3.284945011
1865,1.55965664946e+18,6.148497581,-6.30173111,3.591412306
1866,1.55965664951e+18,6.9122715,-5.521197796,3.893090725
1867,1.55965664956e+18,7.568302631,-5.51640892,4.824463844
1868,1.55965664961e+18,8.303344727,-4.989668846,4.427014351
1869,1.55965664966e+18,8.99289608,-4.369551659,4.872349262
1870,1.55965664972e+18,9.543579102,-3.711125851,4.793338299
1871,1.55965664977e+18,9.81413269,-2.822849989,4.640104771
1872,1.55965664982e+18,10.08947372,-2.013585091,5.315289974
1873,1.55965664987e+18,10.14693642,-1.182771802,4.948966026
1874,1.55965664992e+18,9.124581337,-0.7901107073,4.829252243
1875,1.55965664997e+18,9.098244667,0.07422251999,4.565882206
1876,1.55965665002e+18,8.42305851,0.4237866402,4.046324253
1877,1.55965665008e+18,6.047938347,0.29689008,2.947352171
1878,1.55965665013e+18,4.829252243,1.154040456,2.238646984
1879,1.55965665018e+18,5.360781193,0.3711125851,1.405439258
1880,1.55965665023e+18,7.443800449,-1.75979197,-1.096577883
1881,1.55965665028e+18,10.26904488,-1.656838179,-2.253012657
1882,1.55965665033e+18,6.902694225,-13.53004742,6.172440529
1883,1.55965665038e+18,7.278595448,15.28744507,0.9122186899
1884,1.55965665043e+18,5.657671452,5.940196037,6.277788639
1885,1.55965665048e+18,8.250671387,5.535563469,3.96491909
1886,1.55965665053e+18,10.55156898,4.139701366,3.775771379
1887,1.55965665058e+18,9.332882881,3.45493865,1.86514008
1888,1.55965665064e+18,8.377567291,1.872322917,-0.7063110471
1889,1.55965665069e+18,6.586649895,0.5171633363,-1.82443738
1890,1.55965665074e+18,9.517242432,-1.091789365,-0.591385901
1891,1.55965665079e+18,10.9897213,-1.426987767,1.146857619
1892,1.55965665084e+18,12.73035908,-1.036720991,-0.2490045726
1893,1.55965665089e+18,17.58115959,-3.007209063,3.22269392
1894,1.55965665094e+18,20.93074989,-3.344801903,1.90823698
1895,1.55965665099e+18,19.09194756,-3.000026226,3.490852594
1896,1.55965665104e+18,14.84210968,-2.35357213,1.477267504
1897,1.5596566511e+18,11.97616291,-2.762993097,1.355159521
1898,1.55965665115e+18,7.142121792,-2.303292274,0.8092648983
1899,1.5596566512e+18,3.589017868,-0.4668835998,0.01436564885
1900,1.55965665125e+18,1.893871427,-0.6249057055,-1.831620216
1901,1.5596566513e+18,-0.313650012,0.4501236677,-0.1699935049
1902,1.55965665135e+18,-0.3304099143,0.962498486,3.469304085
1903,1.5596566514e+18,-2.650462151,4.067873001,7.956175327
1904,1.55965665145e+18,-6.155680656,10.94901848,13.37441921
1905,1.5596566515e+18,-16.50852394,12.45022869,19.12307358
1906,1.55965665155e+18,-25.71451187,11.76067829,16.980196
1907,1.5596566516e+18,-35.9500351,17.18849945,3.088614464
1908,1.55965665165e+18,-28.81509781,0.6201171875,0.464489311
1909,1.55965665171e+18,7.40309763,-13.50131607,19.53728294
1910,1.55965665176e+18,49.77457809,-54.19440842,26.18618393
1911,1.55965665181e+18,-17.64101601,-10.69043732,-21.91958618
1912,1.55965665186e+18,13.21160793,1.608952641,-13.9514389
1913,1.55965665191e+18,-3.059883118,1.896265626,-1.170800328
1914,1.55965665196e+18,-5.360781193,9.615407944,-5.593026161
1915,1.55965665201e+18,-4.781366825,5.288952827,-0.1197137386
1916,1.55965665206e+18,-5.032765865,3.507612705,3.478881359
1917,1.55965665211e+18,-6.093429565,3.019180536,4.077449799
1918,1.55965665216e+18,-6.931425571,0.102953814,5.882733345
1919,1.55965665221e+18,-7.695199013,1.857957244,5.698374271
1920,1.55965665227e+18,-4.467716694,1.067846537,11.72236919
1921,1.55965665232e+18,-2.068653345,-2.379909277,14.42071724
1922,1.55965665237e+18,-0.03591412306,-2.245829821,14.43268871
1923,1.55965665242e+18,2.377514839,-2.085413456,15.19646263
1924,1.55965665247e+18,4.225894928,-1.989642382,13.53244114
1925,1.55965665252e+18,5.38472414,-1.096577883,11.97137451
1926,1.55965665257e+18,4.17800951,-0.9529213905,9.07430172
1927,1.55965665262e+18,5.918647289,-1.063058019,8.415876389
1928,1.55965665267e+18,6.390319347,-1.86514008,8.044763565
1929,1.55965665272e+18,7.110996246,-2.808484316,7.446194649
1930,1.55965665278e+18,6.091034889,-3.30888772,7.307326794
1931,1.55965665283e+18,5.861184597,-3.495641232,6.522004604
1932,1.55965665288e+18,5.947378635,-4.273780346,6.641718388
1933,1.55965665293e+18,6.040755272,-4.249837875,5.784567833
1934,1.55965665298e+18,5.305713177,-4.881926537,5.38472414
1935,1.55965665303e+18,4.362368584,-4.884320736,4.132518291
1936,1.55965665309e+18,4.228289127,-6.076669693,4.280963421
1937,1.55965665314e+18,5.437397957,-8.253065109,4.671230316
1938,1.55965665319e+18,5.123748302,-8.181237221,3.749434233
1939,1.55965665324e+18,5.200365067,-9.0335989,3.378321648
1940,1.55965665329e+18,4.898686409,-9.98891449,2.583422422
1941,1.55965665334e+18,4.807703972,-10.69283104,2.849187136
1942,1.55965665339e+18,5.391906738,-10.64733982,1.75979197
1943,1.55965665344e+18,5.042342663,-9.677659035,1.855562925
1944,1.55965665349e+18,3.73267436,-8.945011139,1.75979197
1945,1.55965665355e+18,4.075055599,-8.875576973,2.073441982
1946,1.5596566536e+18,3.514795303,-8.949799538,2.068653345
1947,1.55965665365e+18,2.952140808,-9.41907692,2.116539001
1948,1.5596566537e+18,2.425400496,-9.510059357,1.680780888
1949,1.55965665375e+18,2.324840784,-9.318517685,1.328822494
1950,1.5596566538e+18,2.849187136,-9.227535248,1.534730196
1951,1.55965665385e+18,2.739050388,-9.366402626,1.371919513
1952,1.5596566539e+18,2.614548206,-9.24429512,1.29290843
1953,1.55965665395e+18,2.707924843,-9.148524284,0.9217957854
1954,1.55965665401e+18,2.712713242,-9.404711723,0.8619389534
1955,1.55965665406e+18,2.90425539,-9.361614227,1.271359921
1956,1.55965665411e+18,2.894678354,-9.320911407,0.907430172
1957,1.55965665416e+18,2.834821463,-9.421471596,1.096577883
1958,1.55965665421e+18,3.442967176,-9.483722687,1.486844659
1959,1.55965665426e+18,3.102980137,-9.366402626,1.889082789
1960,1.55965665431e+18,3.64648056,-9.354432106,1.977671027
1961,1.55965665436e+18,3.615355015,-9.471751213,1.197137356
1962,1.55965665441e+18,3.0981915,-9.426259995,1.024749637
1963,1.55965665446e+18,2.861158371,-9.450202942,0.8739103079
1964,1.55965665451e+18,3.114951611,-9.304151535,1.029538155
1965,1.55965665456e+18,3.081431627,-9.294574738,1.206714511
1966,1.55965665461e+18,2.949746609,-9.39274025,1.786128998
1967,1.55965665467e+18,2.296109438,-9.287391663,1.309668303
1968,1.55965665472e+18,2.724684715,-9.41907692,1.723877907
1969,1.55965665477e+18,2.822849989,-9.438231468,1.529941559
1970,1.55965665482e+18,3.016786337,-9.301757812,1.352765322
1971,1.55965665487e+18,3.026363373,-9.083878517,1.271359921
1972,1.55965665492e+18,3.141288519,-8.985713005,1.225868702
1973,1.55965665498e+18,3.560286522,-9.296969414,1.333611012
1974,1.55965665503e+18,3.591412306,-9.483722687,2.054287672
1975,1.55965665508e+18,3.102980137,-9.426259995,1.836408734
1976,1.55965665513e+18,2.700742006,-9.289786339,1.091789365
1977,1.55965665518e+18,2.887495518,-9.241900444,1.158828974
1978,1.55965665523e+18,2.937775135,-9.421471596,1.525153041
1979,1.55965665528e+18,2.542719841,-9.222746849,1.324033976
1980,1.55965665533e+18,3.11734581,-9.53639698,1.795706153
1981,1.55965665538e+18,3.450150013,-9.000079155,1.477267504
1982,1.55965665543e+18,3.201145411,-8.916279793,1.31445682
1983,1.55965665549e+18,3.739857197,-9.155706406,1.489238977
1984,1.55965665554e+18,3.974496126,-9.24429512,1.637683988
1985,1.55965665559e+18,3.390293121,-9.249083519,1.369525194
1986,1.55965665564e+18,3.289733648,-9.287391663,1.738243461
1987,1.55965665569e+18,3.249030828,-9.486116409,1.510787368
1988,1.55965665574e+18,3.134105682,-9.263449669,1.532335877
1989,1.55965665579e+18,3.167625666,-9.098244667,1.517970204
1990,1.55965665584e+18,2.944957972,-8.976136208,1.206714511
1991,1.55965665589e+18,3.265790939,-9.191620827,1.268965602
1992,1.55965665595e+18,3.41423583,-9.134158134,1.23065722
1993,1.559656656e+18,3.395081758,-9.275420189,1.510787368
1994,1.55965665605e+18,3.438178539,-9.24429512,2.020767927
1995,1.5596566561e+18,3.227482557,-9.265843391,1.769369125
1996,1.55965665615e+18,3.181991339,-9.287391663,1.35755384
1997,1.5596566562e+18,3.251425266,-9.172467232,1.206714511
1998,1.55965665625e+18,3.143682718,-9.210775375,1.331216812
1999,1.5596566563e+18,3.239453793,-9.383162498,1.704723716
2000,1.55965665636e+18,3.110162973,-9.112609863,1.738243461
2001,1.55965665641e+18,3.37113905,-8.990502357,1.664021015
2002,1.55965665646e+18,3.538738251,-8.657697678,1.613741279
2003,1.55965665651e+18,3.64648056,-8.909096718,1.376708031
2004,1.55965665656e+18,3.876330853,-9.457385063,1.491633177
2005,1.55965665661e+18,3.742251635,-8.942616463,1.371919513
2006,1.55965665666e+18,3.639297724,-10.02004051,1.723877907
2007,1.55965665672e+18,3.756617069,-9.624984741,1.910631299
2008,1.55965665677e+18,3.356773376,-9.366402626,1.46290195
2009,1.55965665682e+18,3.162837029,-9.354432106,1.436564922
2010,1.55965665687e+18,2.561874151,-9.371191978,0.8092648983
2011,1.55965665692e+18,2.418217659,-9.364008904,0.6919454336
2012,1.55965665697e+18,2.264983892,-9.785401344,0.483643502
2013,1.55965665702e+18,2.152452946,-9.73751545,0.6225114465
2014,1.55965665707e+18,2.492439985,-9.646533012,0.4573064744
2015,1.55965665712e+18,2.080624819,-9.328094482,0.7733507752
2016,1.55965665718e+18,2.253012657,-9.407105446,1.096577883
2017,1.55965665723e+18,2.387091875,-9.545973778,0.646454215
2018,1.55965665728e+18,2.822849989,-8.67445755,1.594586968
2019,1.55965665733e+18,3.282550812,-9.328094482,2.044710636
2020,1.55965665738e+18,3.514795303,-9.878777504,1.71908927
2021,1.55965665743e+18,3.545921087,-9.64413929,1.513181686
2022,1.55965665748e+18,3.131711483,-8.959376335,0.8906702399
2023,1.55965665753e+18,3.505218267,-9.112609863,0.9385557175
2024,1.55965665759e+18,2.935380936,-8.798959732,0.4860377908
2025,1.55965665764e+18,3.519583941,-8.92585659,0.4237866402
