,Time (s),Acceleration x (m/s^2),Acceleration y (m/s^2),Acceleration z (m/s^2)
0,1.55965624005e+18,6.016812801,1.290514112,8.377567291
1,1.5596562401e+18,7.594639778,1.271359921,9.024022102
2,1.55965624016e+18,10.72635078,-1.35755384,8.339259148
3,1.55965624021e+18,11.66730118,-5.265010357,6.931425571
4,1.55965624026e+18,14.10467243,-12.21080112,6.917059898
5,1.55965624031e+18,12.60825157,-11.08309841,4.585036278
6,1.55965624036e+18,10.31453609,-11.05915546,3.320859194
7,1.55965624042e+18,7.853221416,-9.081484795,2.499622822
8,1.55965624047e+18,5.233884811,-6.744672298,1.862745762
9,1.55965624052e+18,3.847599506,-5.679219723,2.020767927
10,1.55965624057e+18,5.166844845,-5.698374271,5.300924301
11,1.55965624062e+18,5.468523502,-6.833260536,7.618582249
12,1.55965624068e+18,7.807730198,-6.612987041,8.913885117
13,1.55965624073e+18,8.901913643,-2.209915638,12.07672215
14,1.55965624078e+18,7.529994488,-2.700742006,11.43984509
15,1.55965624083e+18,3.826051235,-3.000026226,9.328094482
16,1.55965624088e+18,0.8332076073,-1.834014535,6.833260536
17,1.55965624094e+18,-2.197944164,-0.2490045726,4.800520897
18,1.55965624099e+18,-3.658451796,-0.1747820675,4.38870573
19,1.55965624104e+18,-1.266571403,0.627300024,6.110189438
20,1.55965624109e+18,-2.43976593,-0.332804203,7.223526955
21,1.55965624114e+18,-3.442967176,-0.1173194647,6.759037971
22,1.5596562412e+18,-3.64887476,-0.7446194887,7.644919395
23,1.55965624125e+18,-4.036747456,-0.8044763207,8.74149704
24,1.5596562413e+18,-4.762212753,-0.7134938836,11.20281219
25,1.55965624135e+18,-6.624958515,0.7494080067,10.13975334
26,1.5596562414e+18,-7.309720993,2.640885115,8.169265747
27,1.55965624146e+18,-7.762238979,3.124528646,8.882759094
28,1.55965624151e+18,-5.636122704,1.50599885,8.758256912
29,1.55965624156e+18,-2.46131444,0.5578660369,10.98732662
30,1.55965624161e+18,-3.057488918,-0.668002665,10.76226521
31,1.55965624166e+18,0.8164477348,1.992036581,10.47255802
32,1.55965624172e+18,-4.836435318,2.26737833,8.087860107
33,1.55965624177e+18,-1.604164124,5.016005516,7.350423813
34,1.55965624182e+18,-3.830839634,3.24424243,7.312115192
35,1.55965624187e+18,-3.902667999,3.617749214,6.663266659
36,1.55965624192e+18,-4.247443676,4.053507328,6.9098773
37,1.55965624198e+18,-4.613767624,3.883513689,5.846818924
38,1.55965624203e+18,-5.044736862,3.553103924,6.864386082
39,1.55965624208e+18,-5.109382629,3.926610708,6.205960274
40,1.55965624213e+18,-4.982485771,3.708731651,6.603409767
41,1.55965624218e+18,-5.102199554,3.634509087,6.158074856
42,1.55965624224e+18,-4.992063046,3.787742853,6.967339516
43,1.55965624229e+18,-4.678412914,3.948159218,7.520417213
44,1.55965624234e+18,-4.826858044,3.926610708,7.850827217
45,1.55965624239e+18,-4.829252243,3.548315287,7.620976925
46,1.55965624244e+18,-4.913052082,3.033546209,7.781393051
47,1.5596562425e+18,-4.788549423,2.796513081,7.877163887
48,1.55965624255e+18,-4.989668846,2.602576733,8.102226257
49,1.5596562426e+18,-4.793338299,3.493247032,7.510839939
50,1.55965624265e+18,-4.901080608,3.620143414,7.618582249
51,1.5596562427e+18,-5.205153465,3.912245035,6.984099388
52,1.55965624276e+18,-5.159662247,3.730280161,6.933819771
53,1.55965624281e+18,-5.262616158,4.21871233,6.435810566
54,1.55965624286e+18,-5.401484013,4.170826912,6.675238132
55,1.55965624291e+18,-5.466129303,3.933793545,6.517216206
56,1.55965624296e+18,-5.351204395,3.871542454,6.811711788
57,1.55965624302e+18,-5.377541065,4.082238674,6.481301785
58,1.55965624307e+18,-5.435003757,4.271386147,6.574678421
59,1.55965624312e+18,-5.281770229,4.036747456,6.969734192
60,1.55965624317e+18,-5.123748302,3.665634632,6.272999763
61,1.55965624322e+18,-5.104593754,4.115758419,6.296942711
62,1.55965624328e+18,-5.253038883,4.122941017,7.048745155
63,1.55965624333e+18,-5.394300938,4.326454639,7.54914856
64,1.55965624338e+18,-5.365570068,4.448562622,7.850827217
65,1.55965624343e+18,-5.502043724,4.254626274,7.618582249
66,1.55965624348e+18,-5.135719299,4.130124092,7.429434776
67,1.55965624354e+18,-5.039948463,3.811685562,7.522811413
68,1.55965624359e+18,-4.968120098,3.620143414,7.276201248
69,1.55965624364e+18,-4.939388752,3.787742853,7.091842175
70,1.55965624369e+18,-4.913052082,4.156461239,6.342433929
71,1.55965624374e+18,-5.798933506,3.459727049,6.610592842
72,1.5596562438e+18,-5.684008598,3.258608103,6.414262295
73,1.55965624385e+18,-5.245856285,3.442967176,6.694392204
74,1.5596562439e+18,-4.400677204,3.75422287,6.900300026
75,1.55965624395e+18,-5.480494976,2.597788095,6.996070862
76,1.559656244e+18,-4.968120098,2.279349566,7.355212212
77,1.55965624406e+18,-6.246663094,2.061470509,7.496474266
78,1.55965624411e+18,-7.067899227,2.748627424,7.977723598
79,1.55965624416e+18,-6.533976078,1.855562925,7.391126156
80,1.55965624421e+18,-7.199584484,0.2873129845,6.416656494
81,1.55965624426e+18,-3.426207304,0.6727912426,6.797346115
82,1.55965624431e+18,-4.11097002,-0.9026415944,6.318490982
83,1.55965624437e+18,-3.126922846,0.612934351,7.089447498
84,1.55965624442e+18,-3.167625666,2.166818619,7.427040577
85,1.55965624447e+18,-3.272973776,1.120520592,8.600234985
86,1.55965624452e+18,-1.733454943,1.374313712,9.596253395
87,1.55965624457e+18,-0.8715160489,-0.241821751,10.57072353
88,1.55965624463e+18,-1.678386688,-0.06225114316,10.53241444
89,1.55965624468e+18,-1.573038578,0.3016786277,10.29059315
90,1.55965624473e+18,-0.6608198285,0.3591412306,11.48294163
91,1.55965624478e+18,-0.7757450342,1.101366401,11.44223976
92,1.55965624483e+18,-0.1197137386,0.9912297726,11.52125072
93,1.55965624489e+18,0.3615354896,1.18756032,11.88518047
94,1.55965624494e+18,1.527547359,0.6919454336,11.88039207
95,1.55965624499e+18,0.8595446348,0.9146129489,10.08468533
96,1.55965624504e+18,0.7278595567,1.019961119,9.349642754
97,1.55965624509e+18,0.7182824612,1.29290843,8.854028702
98,1.55965624515e+18,-0.2202732861,2.090201855,8.334470749
99,1.5596562452e+18,0.277735889,2.973689318,8.516435623
100,1.55965624525e+18,-1.12291491,3.028757572,8.597841263
101,1.5596562453e+18,-1.367130876,3.107768774,8.614601135
102,1.55965624535e+18,-2.882706881,1.644866824,8.123774529
103,1.55965624541e+18,-2.279349566,-0.03830839694,8.839662552
104,1.55965624546e+18,-1.570644259,-1.247417212,9.411893845
105,1.55965624551e+18,-1.848380208,-1.527547359,10.55156898
106,1.55965624556e+18,-2.01597929,-0.2657645047,10.70001411
107,1.55965624561e+18,-1.987248063,0.2490045726,10.42946148
108,1.55965624567e+18,-2.066259146,-0.06943397224,10.65212822
109,1.55965624572e+18,-2.382303476,0.3423812985,9.569916725
110,1.55965624577e+18,-2.343995094,0.1173194647,9.040781975
111,1.55965624582e+18,-2.291321039,0.59378016,8.684034348
112,1.55965624587e+18,-2.243435383,-0.2130904645,8.67445755
113,1.55965624593e+18,-2.765387297,-0.1316851079,8.17165947
114,1.55965624598e+18,-2.324840784,-0.2394274771,8.499675751
115,1.55965624603e+18,-2.786935806,-0.05506832153,8.784594536
116,1.55965624608e+18,-3.069460392,0.3471698463,9.038387299
117,1.55965624613e+18,-2.966506481,0.2274561077,9.409500122
118,1.55965624619e+18,-3.177202702,0.2250618339,9.256266594
119,1.55965624624e+18,-3.0957973,0.1268965602,9.158101082
120,1.55965624629e+18,-3.282550812,0.4549122155,8.753468513
121,1.55965624634e+18,-3.055094719,0.9385557175,8.657697678
122,1.55965624639e+18,-2.767781734,1.127703428,8.947404861
123,1.55965624645e+18,-3.553103924,1.491633177,8.794171333
124,1.5596562465e+18,-3.629720688,1.467690468,9.332882881
125,1.55965624655e+18,-3.682394743,1.455719113,9.524425507
126,1.5596562466e+18,-3.462121487,1.024749637,8.940221786
127,1.55965624665e+18,-3.107768774,0.9768640995,8.458972931
128,1.55965624671e+18,-2.868341208,1.240234375,8.547560692
129,1.55965624676e+18,-2.897072554,1.072635174,8.549955368
130,1.55965624681e+18,-2.722290516,1.297696948,8.693612099
131,1.55965624686e+18,-2.909043789,1.343188167,8.775016785
132,1.55965624691e+18,-3.170019865,1.867534399,8.736708641
133,1.55965624697e+18,-2.849187136,2.188367128,8.731920242
134,1.55965624702e+18,-2.846792698,2.097384691,8.406298637
135,1.55965624707e+18,-2.889889717,2.609759569,8.839662552
136,1.55965624712e+18,-3.486064196,2.600182533,8.696005821
137,1.55965624717e+18,-3.263396502,2.660039425,9.047964096
138,1.55965624723e+18,-3.589017868,2.569056988,8.734314919
139,1.55965624728e+18,-3.146077156,2.391880512,8.837267876
140,1.55965624733e+18,-3.445361376,2.135693073,8.341653824
141,1.55965624738e+18,-3.419024467,2.023162127,8.107014656
142,1.55965624743e+18,-2.882706881,2.068653345,8.863605499
143,1.55965624749e+18,-2.774964571,2.411034822,8.858817101
144,1.55965624754e+18,-2.727078915,2.748627424,8.976136208
145,1.55965624759e+18,-2.806090117,2.533142805,8.660092354
146,1.55965624764e+18,-2.43976593,2.279349566,8.511647224
147,1.55965624769e+18,-2.145270348,1.757397652,8.193208694
148,1.55965624775e+18,-1.802888989,1.352765322,8.320104599
149,1.5596562478e+18,-1.800494671,0.967287004,9.543579102
150,1.55965624785e+18,-1.003201127,0.2035133541,11.19323444
151,1.5596562479e+18,-0.3806896806,-0.5051919818,10.93944168
152,1.55965624795e+18,-0.3423812985,0.1292908341,9.893143654
153,1.55965624801e+18,-0.3759011328,0.8116591573,8.619389534
154,1.55965624806e+18,0.04549122229,0.8068706393,8.597841263
155,1.55965624811e+18,0.5818088055,1.474873304,8.255459785
156,1.55965624816e+18,0.3591412306,2.013585091,8.605023384
157,1.55965624821e+18,-0.8643332124,1.843591571,9.663292885
158,1.55965624827e+18,-1.573038578,1.450930476,8.772623062
159,1.55965624832e+18,-2.027950764,1.587404251,9.07430172
160,1.55965624837e+18,-2.535537004,0.9385557175,11.43266201
161,1.55965624842e+18,-1.71908927,0.0,11.78462029
162,1.55965624847e+18,-2.030344963,-0.9050358534,11.38238239
163,1.55965624853e+18,-2.260195494,-0.6249057055,10.02004051
164,1.55965624858e+18,-2.475680113,0.06464541703,8.95219326
165,1.55965624863e+18,-2.56666255,0.1795706153,9.155706406
166,1.55965624868e+18,-1.455719113,-0.2202732861,9.929058075
167,1.55965624873e+18,-1.094183564,-0.4094209969,9.780612946
168,1.55965624879e+18,-0.5075862408,-0.6799740195,9.897932053
169,1.55965624884e+18,-0.3232271075,-0.7063110471,9.246688843
170,1.55965624889e+18,-0.4908263385,-0.2083019018,9.189227104
171,1.55965624894e+18,-0.4046324492,0.8164477348,9.821314812
172,1.55965624899e+18,-0.5099805593,1.091789365,10.09905148
173,1.55965624905e+18,-1.055875182,1.067846537,9.90750885
174,1.5596562491e+18,-0.3256213665,0.6919454336,10.75747681
175,1.55965624915e+18,-0.6225114465,0.06464541703,10.36721039
176,1.5596562492e+18,-1.522758722,0.0837996155,9.356825829
177,1.55965624925e+18,-2.008796453,0.2035133541,8.763046265
178,1.55965624931e+18,-2.01597929,0.5291347504,8.901913643
179,1.55965624936e+18,-2.106961727,0.5171633363,9.196409225
180,1.55965624941e+18,-2.401457548,0.8403904438,9.464568138
181,1.55965624946e+18,-2.528354168,1.388679385,9.268238068
182,1.55965624951e+18,-2.753416061,1.795706153,9.438231468
183,1.55965624957e+18,-2.676799297,1.54670155,9.287391663
184,1.55965624962e+18,-2.897072554,1.489238977,8.933039665
185,1.55965624967e+18,-2.284138203,2.818061352,9.41907692
186,1.55965624972e+18,-3.399870157,4.036747456,9.5483675
187,1.55965624977e+18,-3.464515686,3.816473961,9.806949615
188,1.55965624983e+18,-3.802108288,2.707924843,9.443019867
189,1.55965624988e+18,-4.513207912,1.913025618,7.817307472
190,1.55965624993e+18,-4.606584549,1.340793848,5.856396198
191,1.55965624998e+18,-5.827664852,0.4764606953,5.217124939
192,1.55965625003e+18,-5.571477413,0.5291347504,5.894704342
193,1.55965625008e+18,-6.682421207,0.1556278616,5.954561234
194,1.55965625014e+18,-7.273807049,-0.009577099234,5.81090498
195,1.55965625019e+18,-7.01761961,0.3615354896,5.619362831
196,1.55965625024e+18,-5.121353626,0.8834874034,6.330462456
197,1.55965625029e+18,-6.438204765,1.297696948,5.724710941
198,1.55965625034e+18,-5.81090498,1.924996972,7.218738556
199,1.5596562504e+18,-6.435810566,1.879505754,7.814912796
200,1.55965625045e+18,-6.38074255,1.585009933,8.420664787
201,1.5596562505e+18,-6.227508545,0.945738554,9.126976013
202,1.55965625055e+18,-5.988081455,0.2825244367,8.743891716
203,1.5596562506e+18,-5.49246645,0.04070267081,8.3153162
204,1.55965625066e+18,-5.669642925,-0.299284339,7.941809654
205,1.55965625071e+18,-5.62175703,1.12291491,7.225921154
206,1.55965625076e+18,-6.249057293,0.7781392932,7.970541
207,1.55965625081e+18,-7.14930439,0.9050358534,7.482108593
208,1.55965625086e+18,-6.969734192,1.271359921,6.308914185
209,1.55965625092e+18,-6.852414608,2.332023621,5.21473074
210,1.55965625097e+18,-6.249057293,2.67440486,4.968120098
211,1.55965625102e+18,-6.852414608,3.143682718,4.343214512
212,1.55965625107e+18,-7.223526955,3.359167576,4.338426113
213,1.55965625112e+18,-6.866780281,3.24424243,5.037554264
214,1.55965625118e+18,-7.04395628,2.971295118,5.521197796
215,1.55965625123e+18,-7.115784645,2.552296877,5.887521744
216,1.55965625128e+18,-6.648900986,2.48046875,6.174834728
217,1.55965625133e+18,-6.993676662,2.492439985,5.91625309
218,1.55965625138e+18,-7.264229774,2.425400496,5.856396198
219,1.55965625144e+18,-7.206767082,2.399063349,5.91625309
220,1.55965625149e+18,-7.417463303,2.324840784,5.796539307
221,1.55965625154e+18,-7.075081825,2.054287672,6.107795238
222,1.55965625159e+18,-7.326480865,2.238646984,5.798933506
223,1.55965625164e+18,-6.929031372,2.051893473,5.399089813
224,1.5596562517e+18,-7.637736797,2.377514839,5.006428719
225,1.55965625175e+18,-7.702382088,1.987248063,5.427821159
226,1.5596562518e+18,-7.503657341,1.915419817,6.30173111
227,1.55965625185e+18,-5.243461609,1.50599885,5.940196037
228,1.5596562519e+18,-4.66883564,0.9960182905,5.731894016
229,1.55965625196e+18,-6.06230402,0.1771763414,5.123748302
230,1.55965625201e+18,-4.743058205,-0.5602602959,7.302538395
231,1.55965625206e+18,-0.8068706393,-1.987248063,9.261054993
232,1.55965625211e+18,0.2178790122,-2.892283916,8.492492676
233,1.55965625216e+18,-1.956122518,-5.535563469,9.783006668
234,1.55965625222e+18,-2.257801056,-6.684815407,10.92986488
235,1.55965625227e+18,-4.438985348,-7.314509392,9.94821167
236,1.55965625232e+18,-3.177202702,-6.028783798,8.085466385
237,1.55965625237e+18,-0.5818088055,-6.557918549,8.514040947
238,1.55965625242e+18,-1.743032098,-6.277788639,7.716747761
239,1.55965625248e+18,-1.599375606,-6.608198643,7.623371124
240,1.55965625253e+18,-0.984046936,-6.471724987,7.831672668
241,1.55965625258e+18,-1.623318315,-6.308914185,7.12296772
242,1.55965625263e+18,-1.343188167,-6.196382999,7.635342598
243,1.55965625268e+18,-0.9768640995,-6.55313015,7.757450581
244,1.55965625274e+18,-0.6871568561,-6.397502422,7.819701672
245,1.55965625279e+18,-0.7446194887,-5.815693378,7.817307472
246,1.55965625284e+18,-0.3064671755,-5.865973473,7.71914196
247,1.55965625289e+18,-0.3304099143,-5.399089813,7.575485706
248,1.55965625294e+18,-0.332804203,-5.604997158,7.965752125
249,1.559656253e+18,-0.2059076279,-5.633728504,7.664073467
250,1.55965625305e+18,-0.5458946824,-5.619362831,7.812518597
251,1.5596562531e+18,-0.1197137386,-5.700768471,7.922655106
252,1.55965625315e+18,-1.110943556,-5.578660488,8.013637543
253,1.5596562532e+18,0.7589851022,-5.760625362,8.573898315
254,1.55965625326e+18,1.936968327,-5.669642925,8.729525566
255,1.55965625331e+18,0.5794144869,-5.327261448,8.248276711
256,1.55965625336e+18,1.268965602,-4.977697372,8.181237221
257,1.55965625341e+18,0.7063110471,-5.104593754,8.549955368
258,1.55965625346e+18,0.3399870098,-4.546727657,8.008849144
259,1.55965625352e+18,0.8379961848,-4.585036278,8.183630943
260,1.55965625357e+18,0.7709565163,-4.28575182,8.097437859
261,1.55965625362e+18,1.142069101,-4.197163582,7.850827217
262,1.55965625367e+18,0.6751855016,-4.403071404,8.178842545
263,1.55965625372e+18,1.328822494,-4.45574522,8.468549728
264,1.55965625378e+18,0.6751855016,-4.726298332,8.269824982
265,1.55965625383e+18,0.7901107073,-4.477293968,8.679245949
266,1.55965625388e+18,0.8595446348,-4.486870766,8.506858826
267,1.55965625393e+18,0.7805336118,-4.316877365,8.772623062
268,1.55965625398e+18,1.33600533,-4.498842239,8.820508003
269,1.55965625404e+18,0.7805336118,-4.42940855,8.923461914
270,1.55965625409e+18,1.61134696,-4.527573586,9.306546211
271,1.55965625414e+18,0.6823683381,-4.393494129,8.825297356
272,1.55965625419e+18,0.8715160489,-3.680000305,8.863605499
273,1.55965625424e+18,0.651242733,-3.885908127,8.909096718
274,1.5596562543e+18,0.2513988614,-4.568276405,8.887548447
275,1.55965625435e+18,-0.5267404318,-5.078257084,9.00726223
276,1.5596562544e+18,-0.1795706153,-4.692778587,9.069513321
277,1.55965625445e+18,-0.2537931204,-4.077449799,9.016839027
278,1.5596562545e+18,0.04788549617,-3.651269197,8.791776657
279,1.55965625456e+18,-0.6249057055,-3.536343813,8.636149406
280,1.55965625461e+18,-0.2059076279,-2.849187136,8.447001457
281,1.55965625466e+18,0.2466102988,-2.774964571,8.260248184
282,1.55965625471e+18,0.3639297783,-2.37272644,8.018425941
283,1.55965625476e+18,-0.2873129845,-2.983266354,7.999272346
284,1.55965625482e+18,-0.924190104,-3.079037428,8.662486076
285,1.55965625487e+18,-1.321639657,-3.871542454,10.75029373
286,1.55965625492e+18,-1.82204318,-3.560286522,10.1062336
287,1.55965625497e+18,-2.751021862,-3.160442829,11.05197239
288,1.55965625502e+18,-2.432583094,-2.921015263,10.2474966
289,1.55965625508e+18,-1.807677507,-2.027950764,9.857229233
290,1.55965625513e+18,-1.71908927,-1.010383964,9.24429512
291,1.55965625518e+18,-1.659232497,0.3687183261,8.154899597
292,1.55965625523e+18,-1.721483588,0.648848474,8.293767929
293,1.55965625528e+18,-1.295302629,-0.2561874092,7.704776287
294,1.55965625534e+18,-1.084606528,-0.6249057055,6.641718388
295,1.55965625539e+18,0.5267404318,0.02394274808,6.806923389
296,1.55965625544e+18,1.515576005,0.08619388938,7.096630573
297,1.55965625549e+18,1.984853864,1.793311834,8.255459785
298,1.55965625554e+18,0.8930644989,1.118126392,9.732727051
299,1.5596562556e+18,1.704723716,0.241821751,12.49093151
300,1.55965625565e+18,2.221887112,-0.335198462,13.47737312
301,1.5596562557e+18,2.868341208,-0.8140534163,13.87961102
302,1.55965625575e+18,1.410227895,-1.007989645,11.92588329
303,1.5596562558e+18,3.114951611,-1.383890867,12.60825157
304,1.55965625586e+18,0.8739103079,1.383890867,10.80536175
305,1.55965625591e+18,0.7398309112,1.541913033,9.316123009
306,1.55965625596e+18,0.2274561077,1.755003452,8.949799538
307,1.55965625601e+18,1.367130876,1.683175206,8.03758049
308,1.55965625606e+18,0.8451790214,1.340793848,7.527599812
309,1.55965625612e+18,0.5099805593,1.558672905,8.451789856
310,1.55965625617e+18,0.3280156553,2.008796453,8.523618698
311,1.55965625622e+18,0.4740664065,2.700742006,10.74550533
312,1.55965625627e+18,0.2585816681,5.942590237,10.6497345
313,1.55965625632e+18,2.229069948,7.182824612,11.3344965
314,1.55965625638e+18,1.793311834,8.243488312,9.656110764
315,1.55965625643e+18,2.327235222,8.157294273,7.790970325
316,1.55965625648e+18,1.37910223,7.424646378,5.181210518
317,1.55965625653e+18,0.2849186957,6.459753513,3.543526649
318,1.55965625658e+18,-1.326428294,5.257827282,-0.1915419847
319,1.55965625664e+18,-0.4381522834,4.381523132,-1.776551962
320,1.55965625669e+18,3.24424243,0.4333637357,-1.089395046
321,1.55965625674e+18,4.70953846,0.6368771195,-2.092596292
322,1.55965625679e+18,7.939415455,-2.75820446,-2.063864946
323,1.55965625684e+18,4.508419514,2.434977531,33.72814941
324,1.5596562569e+18,0.4549122155,-1.209108829,15.69207668
325,1.55965625695e+18,-3.749434233,8.458972931,20.97863579
326,1.559656257e+18,-8.07828331,12.11503029,19.37926102
327,1.55965625705e+18,-10.13975334,11.13337803,14.49015141
328,1.5596562571e+18,-12.04080772,9.174860954,7.125361919
329,1.55965625716e+18,-13.42469883,8.38235569,1.604164124
330,1.55965625721e+18,-8.983319283,4.259414673,5.91625309
331,1.55965625726e+18,-3.387898922,-6.890722752,15.64179707
332,1.55965625731e+18,19.06800461,-20.1550045,17.07117844
333,1.55965625736e+18,0.5865973234,-2.973689318,1.920208454
334,1.55965625742e+18,-4.977697372,2.260195494,-0.5889915824
335,1.55965625747e+18,-4.929811954,4.64249897,1.216291547
336,1.55965625752e+18,-5.140508175,0.9122186899,2.523565531
337,1.55965625757e+18,-3.306493521,-0.4213923812,4.149278164
338,1.55965625762e+18,-4.163643837,0.7829278708,3.895485163
339,1.55965625768e+18,-2.157241583,1.917814136,4.446168423
340,1.55965625773e+18,0.3543526828,1.721483588,8.810931206
341,1.55965625778e+18,1.563461423,4.913052082,10.87000751
342,1.55965625783e+18,4.309694767,5.882733345,18.10790062
343,1.55965625788e+18,8.557138443,4.608979225,21.10074425
344,1.55965625794e+18,11.91630554,4.11097002,17.76551819
345,1.55965625799e+18,10.30016994,2.686376333,13.1110487
346,1.55965625804e+18,8.1453228,1.944151163,9.873989105
347,1.55965625809e+18,6.500456333,2.952140808,8.937828064
348,1.55965625814e+18,4.501236439,5.154873848,7.352818012
349,1.5596562582e+18,1.683175206,4.115758419,6.387925148
350,1.55965625825e+18,0.9816526771,6.476513386,5.21473074
351,1.5596562583e+18,1.642472506,7.273807049,3.747040033
352,1.55965625835e+18,-1.92978549,8.305739403,1.599375606
353,1.5596562584e+18,-0.2394274771,7.872375488,2.030344963
354,1.55965625846e+18,0.967287004,6.067092419,1.098972082
355,1.55965625851e+18,1.917814136,1.280937076,0.6225114465
356,1.55965625856e+18,2.581028223,-2.573845387,-1.096577883
357,1.55965625861e+18,14.18847275,-13.24752235,17.81101036
358,1.55965625866e+18,-2.152452946,-2.923409462,13.56596088
359,1.55965625872e+18,-7.386337757,2.741444588,6.282577038
360,1.55965625877e+18,-6.519610405,6.701575279,10.90113354
361,1.55965625882e+18,-8.921068192,14.02326775,11.07352066
362,1.55965625887e+18,-12.88119888,13.74553204,11.7127924
363,1.55965625892e+18,-14.42071724,13.52286434,10.06074238
364,1.55965625898e+18,-15.35208988,13.52525806,6.794951916
365,1.55965625903e+18,-14.82056141,12.16530991,5.34402132
366,1.55965625908e+18,-4.348002911,-1.218685865,15.09829712
367,1.55965625913e+18,13.32892799,-20.96187592,3.550709486
368,1.55965625918e+18,11.18844604,-6.227508545,3.213116884
369,1.55965625924e+18,1.189954638,-0.1819648892,2.683982134
370,1.55965625929e+18,0.04788549617,3.672817469,0.6081457734
371,1.55965625934e+18,-1.412622094,5.626545906,3.895485163
372,1.55965625939e+18,-0.4309694767,6.608198643,3.680000305
373,1.55965625944e+18,-1.03911531,6.294548512,5.030371189
374,1.5596562595e+18,0.2705530524,7.93223238,6.428627968
375,1.55965625955e+18,-0.5004034638,8.087860107,7.632947922
376,1.5596562596e+18,1.295302629,7.944203854,7.321692467
377,1.55965625965e+18,0.8667274714,8.317710876,10.04637718
378,1.5596562597e+18,1.553884387,11.20041752,10.33847904
379,1.55965625976e+18,2.79890728,11.22436047,14.44466019
380,1.55965625981e+18,3.984073162,8.18602562,14.28184891
381,1.55965625986e+18,2.470891714,6.110189438,10.01046276
382,1.55965625991e+18,0.4166038036,6.074275017,7.623371124
383,1.55965625996e+18,0.3926610649,5.736682415,8.391933441
384,1.55965626002e+18,-1.685569525,6.431022167,8.367990494
385,1.55965626007e+18,-1.041509509,7.209161282,8.650514603
386,1.55965626012e+18,-1.221080184,10.37918091,10.15172482
387,1.55965626017e+18,-0.8667274714,12.09348202,11.83250618
388,1.55965626022e+18,-2.14287591,7.099024773,7.939415455
389,1.55965626028e+18,-0.7781392932,2.99044919,5.353598595
390,1.55965626033e+18,-1.771763325,-3.205934048,0.7518022656
391,1.55965626038e+18,2.638490915,-3.984073162,-3.256213665
392,1.55965626043e+18,25.1542511,-4.343214512,2.284138203
393,1.55965626048e+18,-17.55482292,3.335224867,-8.243488312
394,1.55965626054e+18,2.865947008,6.684815407,-4.992063046
395,1.55965626059e+18,-2.401457548,3.706337452,3.110162973
396,1.55965626064e+18,-4.290540695,8.138139725,3.603383541
397,1.55965626069e+18,-4.371945858,8.281796455,10.93944168
398,1.55965626074e+18,-7.429434776,9.091061592,14.95942879
399,1.5596562608e+18,-8.10461998,10.48692322,18.7567482
400,1.55965626085e+18,-11.60505009,10.68564892,17.29863548
401,1.5596562609e+18,-17.75354767,14.1741066,16.56359291
402,1.55965626095e+18,-19.37926102,4.467716694,13.66173172
403,1.559656261e+18,0.2274561077,-14.58113384,11.82771778
404,1.55965626106e+18,9.56273365,-20.16218758,-2.930592299
405,1.55965626111e+18,1.101366401,-3.529160976,1.82443738
406,1.55965626116e+18,2.466103077,-3.41423583,2.300898075
407,1.55965626121e+18,1.570644259,-0.6416656375,1.130097747
408,1.55965626126e+18,-0.9361614585,4.857983589,5.224307537
409,1.55965626132e+18,-0.7063110471,5.403878212,6.919454098
410,1.55965626137e+18,-3.043123245,7.980117798,5.231490612
411,1.55965626142e+18,-2.360754967,9.01923275,6.773403645
412,1.55965626147e+18,1.422199249,7.735901833,13.67609787
413,1.55965626152e+18,2.420611858,9.246688843,12.73514748
414,1.55965626158e+18,6.016812801,7.814912796,14.24593544
415,1.55965626163e+18,5.695979595,5.588237286,13.52525806
416,1.55965626168e+18,5.820482254,4.427014351,9.876383781
417,1.55965626173e+18,6.373559475,4.644893169,9.490905762
418,1.55965626178e+18,6.706363678,3.426207304,9.605830193
419,1.55965626184e+18,6.057515144,2.525959969,9.000079155
420,1.55965626189e+18,4.862771988,4.266597748,8.286584854
421,1.55965626194e+18,5.176422119,6.29933691,7.925049782
422,1.55965626199e+18,4.096604347,6.792557716,6.598621368
423,1.55965626204e+18,2.978477955,9.313729286,7.54675436
424,1.5596562621e+18,2.770175934,9.5483675,6.459753513
425,1.55965626215e+18,-1.297696948,8.971347809,3.265790939
426,1.5596562622e+18,-4.125335693,5.032765865,3.555498123
427,1.55965626225e+18,-4.822069645,2.695953369,2.736656189
428,1.5596562623e+18,-3.359167576,-0.9217957854,1.206714511
429,1.55965626236e+18,-1.695146561,-3.569863796,-5.190787792
430,1.55965626241e+18,30.95318413,-30.98431015,19.65699577
431,1.55965626246e+18,-6.421444893,18.88603973,0.8332076073
432,1.55965626251e+18,2.650462151,8.844450951,-1.364736676
433,1.55965626256e+18,0.5435003638,9.787795067,4.120546818
434,1.55965626262e+18,2.154847383,8.025609016,11.63856983
435,1.55965626267e+18,1.86514008,8.18602562,18.82618332
436,1.55965626272e+18,1.50599885,7.829278469,18.3688755
437,1.55965626277e+18,0.7637736797,6.569890022,13.23555088
438,1.55965626282e+18,-4.383917332,6.507638931,15.47419834
439,1.55965626288e+18,-5.633728504,5.681613922,17.3489151
440,1.55965626293e+18,-10.71198559,9.931451797,12.99133492
441,1.55965626298e+18,-10.08468533,-0.5099805593,10.07510853
442,1.55965626303e+18,8.363202095,-2.341600657,-1.922602654
443,1.55965626308e+18,19.44869423,-25.53973007,6.634535313
444,1.55965626314e+18,3.713520288,-5.612180233,2.600182533
445,1.55965626319e+18,-0.1867534369,-1.012778282,-0.04070267081
446,1.55965626324e+18,0.7877163887,2.485257149,2.719896078
447,1.55965626329e+18,-0.6775797606,5.138113976,4.77418375
448,1.55965626334e+18,1.474873304,6.349617004,7.544359684
449,1.5596562634e+18,3.160442829,5.973715782,8.008849144
450,1.55965626345e+18,6.459753513,6.560312748,10.05595398
451,1.5596562635e+18,7.774210453,9.241900444,10.6497345
452,1.55965626355e+18,6.51242733,8.447001457,10.73592854
453,1.5596562636e+18,5.195576191,8.858817101,9.766246796
454,1.55965626366e+18,6.08624649,8.63375473,10.11581135
455,1.55965626371e+18,6.507638931,6.383136749,10.46298122
456,1.55965626376e+18,4.977697372,6.143709183,9.009655952
457,1.55965626381e+18,5.02797699,5.545140266,9.821314812
458,1.55965626386e+18,5.741470814,4.788549423,8.190814018
459,1.55965626392e+18,4.046324253,6.356799603,6.143709183
460,1.55965626397e+18,4.029564381,7.948992252,3.265790939
461,1.55965626402e+18,0.3256213665,5.286558628,1.223474383
462,1.55965626407e+18,1.474873304,0.2346389294,2.37272644
463,1.55965626412e+18,2.308080912,-2.518777132,-3.459727049
464,1.55965626418e+18,12.50529766,-8.123774529,-0.4860377908
465,1.55965626423e+18,-0.8068706393,1.256994247,33.14873505
466,1.55965626428e+18,-10.83169937,2.966506481,8.746285439
467,1.55965626433e+18,-0.4333637357,3.344801903,17.3393383
468,1.55965626438e+18,0.01915419847,9.232323647,15.16054821
469,1.55965626444e+18,-1.498816013,6.457359314,17.58834267
470,1.55965626449e+18,-11.33210278,7.024802208,12.34966946
471,1.55965626454e+18,-16.91794586,10.73114014,7.814912796
472,1.55965626459e+18,-16.89400291,6.651295185,1.249811411
473,1.55965626464e+18,-5.09262228,-6.986494064,17.03287125
474,1.5596562647e+18,11.28661156,-22.52054977,3.821262598
475,1.55965626475e+18,9.131764412,-8.693612099,5.399089813
476,1.5596562648e+18,1.091789365,-3.658451796,1.319245458
477,1.55965626485e+18,2.473285913,1.50599885,2.229069948
478,1.5596562649e+18,-0.4980091453,6.059909344,4.264203548
479,1.55965626496e+18,-0.6081457734,10.39115238,6.263422966
480,1.55965626501e+18,-3.392687321,8.597841263,7.781393051
481,1.55965626506e+18,-1.984853864,5.435003757,10.04398251
482,1.55965626511e+18,-0.5004034638,3.725491524,9.586676598
483,1.55965626516e+18,-1.525153041,3.507612705,10.76465988
484,1.55965626521e+18,0.1508393139,3.711125851,13.61863518
485,1.55965626527e+18,1.077423692,5.966532707,14.36325455
486,1.55965626532e+18,4.11097002,5.688796997,14.28184891
487,1.55965626537e+18,4.958543301,4.881926537,12.17009926
488,1.55965626542e+18,5.923435688,3.476486921,10.4797411
489,1.55965626547e+18,5.913858891,4.204346657,10.5922718
490,1.55965626553e+18,4.11097002,4.975303173,9.194015503
491,1.55965626558e+18,3.064671755,5.02558279,8.435029984
492,1.55965626563e+18,1.97288239,7.829278469,8.238699913
493,1.55965626568e+18,1.410227895,15.14378834,13.38878441
494,1.55965626573e+18,0.7996878028,10.86521912,8.727131844
495,1.55965626579e+18,7.534782887,1.941756845,5.126142502
496,1.55965626584e+18,7.54675436,-8.614601135,-1.544307232
497,1.55965626589e+18,-13.69046307,-21.00736809,23.58360672
498,1.55965626594e+18,-12.83331299,7.50605154,-16.58035278
499,1.55965626599e+18,-0.7613793612,-1.470084786,1.666415215
500,1.55965626605e+18,-11.70082092,1.321639657,-5.02797699
501,1.5596562661e+18,-2.195549965,4.010410309,-2.770175934
502,1.55965626615e+18,-3.708731651,4.039141655,3.129317284
503,1.5596562662e+18,-13.82214832,7.209161282,10.51086617
504,1.55965626625e+18,-20.27232552,9.459779739,15.50053501
505,1.55965626631e+18,-31.35542297,13.60426903,7.592245579
506,1.55965626636e+18,-24.23245621,-0.2250618339,5.935407162
507,1.55965626641e+18,9.258660316,-12.32812119,9.3783741
508,1.55965626646e+18,30.4551754,-24.9794693,-8.327287674
509,1.55965626651e+18,-3.320859194,-7.278595448,-0.3280156553
510,1.55965626657e+18,2.851581335,-0.8667274714,0.6943396926
511,1.55965626662e+18,-1.019961119,0.7901107073,5.078257084
512,1.55965626667e+18,-1.9944309,1.127703428,4.616161823
513,1.55965626672e+18,-3.663240433,-0.313650012,9.553156853
514,1.55965626677e+18,-3.181991339,0.5004034638,7.884346962
515,1.55965626683e+18,0.4213923812,2.312869549,11.13337803
516,1.55965626688e+18,5.487678051,1.474873304,12.79979324
517,1.55965626693e+18,5.877944469,4.233078003,11.93306541
518,1.55965626698e+18,6.715940952,7.417463303,13.81017685
519,1.55965626703e+18,10.04637718,7.769421577,15.12702847
520,1.55965626709e+18,8.854028702,6.170046329,13.56117249
521,1.55965626714e+18,7.948992252,3.687183142,12.11503029
522,1.55965626719e+18,10.34326744,2.873129845,10.3097477
523,1.55965626724e+18,10.04398251,2.724684715,8.367990494
524,1.55965626729e+18,8.272219658,3.356773376,9.409500122
525,1.55965626735e+18,6.019207001,4.762212753,8.061523438
526,1.5596562674e+18,3.023969173,6.569890022,5.542746067
527,1.55965626745e+18,2.794118643,7.008042336,2.293715239
528,1.5596562675e+18,1.058269501,6.967339516,0.6201171875
529,1.55965626755e+18,1.596981287,5.348809719,-0.5482889414
530,1.55965626761e+18,2.944957972,2.264983892,-0.5291347504
531,1.55965626766e+18,3.438178539,-4.934600353,-4.343214512
532,1.55965626771e+18,14.97379494,-8.980924606,-0.5746259689
533,1.55965626776e+18,-6.416656494,6.660872459,14.6697216
534,1.55965626781e+18,-15.48377514,1.82443738,11.76307201
535,1.55965626787e+18,-8.578686714,5.825270653,20.52851295
536,1.55965626792e+18,-9.94821167,9.095849991,19.11110115
537,1.55965626797e+18,-11.62659836,6.610592842,13.6641264
538,1.55965626802e+18,-20.84216309,9.694418907,6.466936111
539,1.55965626807e+18,-22.66420555,4.326454639,-1.996825218
540,1.55965626813e+18,4.826858044,-12.29699516,15.49095821
541,1.55965626818e+18,4.170826912,-24.17978096,-8.870788574
542,1.55965626823e+18,4.731087208,0.6536370516,3.378321648
543,1.55965626828e+18,1.587404251,-5.739076614,1.44135344
544,1.55965626833e+18,0.4166038036,-3.500429869,3.610566378
545,1.55965626839e+18,-0.5458946824,0.4381522834,3.0096035
546,1.55965626844e+18,-2.753416061,5.449369431,6.454965115
547,1.55965626849e+18,-3.023969173,4.632921696,6.775797844
548,1.55965626854e+18,-0.02633702382,5.643305779,9.411893845
549,1.55965626859e+18,4.49644804,3.347196102,12.02644253
550,1.55965626865e+18,6.457359314,1.685569525,13.08950043
551,1.5596562687e+18,8.05194664,1.97288239,11.7127924
552,1.55965626875e+18,9.313729286,3.909850836,11.99531651
553,1.5596562688e+18,10.46537495,4.711932659,11.89475727
554,1.55965626885e+18,9.107821465,3.335224867,10.49889469
555,1.55965626891e+18,9.653716087,1.448536277,9.464568138
556,1.55965626896e+18,9.500482559,1.647261024,7.86519289
557,1.55965626901e+18,8.719948769,2.059076309,7.618582249
558,1.55965626906e+18,7.367183685,2.391880512,6.368771076
559,1.55965626911e+18,5.988081455,3.040729046,7.50844574
560,1.55965626917e+18,4.400677204,3.849993944,7.762238979
561,1.55965626922e+18,4.661653042,6.198777676,9.684841156
562,1.55965626927e+18,3.263396502,8.672063828,9.653716087
563,1.55965626932e+18,3.533949614,9.067118645,9.332882881
564,1.55965626937e+18,2.288926601,8.664880753,8.770228386
565,1.55965626943e+18,0.632088542,4.383917332,4.793338299
566,1.55965626948e+18,-0.2681587934,-0.986441195,0.5961744189
567,1.55965626953e+18,14.3441,-8.102226257,-4.288146019
568,1.55965626958e+18,5.98089838,-5.966532707,-12.82134151
569,1.55965626963e+18,-23.18855095,-1.541913033,2.24822402
570,1.55965626969e+18,-12.24192715,-2.655250788,5.889915943
571,1.55965626974e+18,-14.73436737,5.549929142,7.209161282
572,1.55965626979e+18,-19.92036629,5.018400192,9.763853073
573,1.55965626984e+18,-17.78706741,8.128562927,9.610619545
574,1.55965626989e+18,-19.44630051,10.13496494,4.56109333
575,1.55965626995e+18,-28.1255455,3.993650436,0.09816526622
576,1.55965627e+18,-0.5794144869,-6.653689861,7.776604652
577,1.55965627005e+18,9.426259995,-27.75682831,11.92109394
578,1.5596562701e+18,19.24757576,-14.3249464,-1.989642382
579,1.55965627015e+18,3.186779737,-1.39825654,3.620143414
580,1.55965627021e+18,4.122941017,-4.302511692,3.814079762
581,1.55965627026e+18,-2.86355257,2.454131603,3.727885962
582,1.55965627031e+18,-3.263396502,1.872322917,5.959350109
583,1.55965627036e+18,-4.060689926,0.1963305324,5.245856285
584,1.55965627041e+18,-2.669616461,1.007989645,8.130957603
585,1.55965627047e+18,-1.268965602,1.494027495,10.08468533
586,1.55965627052e+18,2.695953369,0.8164477348,10.72874546
587,1.55965627057e+18,8.595446587,0.3184385598,9.457385063
588,1.55965627062e+18,12.25868702,0.6440598965,7.963357925
589,1.55965627067e+18,13.02964306,2.695953369,8.253065109
590,1.55965627073e+18,12.51966286,4.599401951,7.597033978
591,1.55965627078e+18,11.16929245,5.006428719,9.026415825
592,1.55965627083e+18,10.47255802,2.363149166,9.747093201
593,1.55965627088e+18,8.844450951,1.120520592,7.836461544
594,1.55965627093e+18,10.18524456,0.8332076073,7.300143719
595,1.55965627099e+18,10.95380688,2.104567528,6.883540154
596,1.55965627104e+18,9.385557175,2.48046875,7.072687626
597,1.55965627109e+18,8.822902679,4.608979225,8.882759094
598,1.55965627114e+18,9.052753448,7.218738556,10.36481571
599,1.55965627119e+18,8.990502357,9.191620827,9.040781975
600,1.55965627125e+18,5.796539307,11.61941528,7.743084908
601,1.5596562713e+18,4.903474808,8.01124382,9.213169098
602,1.55965627135e+18,0.7134938836,4.692778587,5.681613922
603,1.5596562714e+18,0.5746259689,-3.526766777,-3.988861799
604,1.55965627145e+18,14.43747711,-17.5524292,-8.777411461
605,1.55965627151e+18,12.81176472,-34.71459198,35.9500351
606,1.55965627156e+18,-19.92515564,8.652909279,-18.39281845
607,1.55965627161e+18,-0.8092648983,-1.453324795,6.744672298
608,1.55965627166e+18,0.7063110471,4.419831276,17.74157715
609,1.55965627171e+18,-12.60346222,8.583475113,12.5531826
610,1.55965627177e+18,-8.3153162,10.71198559,18.54126358
611,1.55965627182e+18,-10.91549873,8.260248184,16.59950638
612,1.55965627187e+18,-14.33212948,4.738269806,12.50050831
613,1.55965627192e+18,-20.5333004,7.292961121,4.393494129
614,1.55965627197e+18,-24.71609879,3.842811108,-1.834014535
615,1.55965627203e+18,-4.407859802,-10.74550533,12.00249958
616,1.55965627208e+18,12.6058569,-19.01054192,9.00726223
617,1.55965627213e+18,3.653663397,-22.07042503,-1.532335877
618,1.55965627218e+18,6.675238132,5.449369431,5.521197796
619,1.55965627223e+18,0.5458946824,-9.21795845,4.948966026
620,1.55965627229e+18,-2.609759569,0.4692778587,5.669642925
621,1.55965627234e+18,-5.791750908,3.502824068,6.718335152
622,1.55965627239e+18,-6.557918549,0.8978530765,9.445414543
623,1.55965627244e+18,-3.826051235,0.4070267081,9.246688843
624,1.55965627249e+18,0.4285751879,1.0175668,9.780612946
625,1.55965627255e+18,5.399089813,1.139674783,8.162082672
626,1.5596562726e+18,10.54438591,0.5243461728,8.873182297
627,1.55965627265e+18,12.37600613,3.996044636,7.855615616
628,1.5596562727e+18,13.71201229,6.83086586,13.2858305
629,1.55965627275e+18,11.17647457,7.644919395,13.4366703
630,1.55965627281e+18,11.47815323,4.625739098,11.36083412
631,1.55965627286e+18,9.464568138,3.22508812,7.709564686
632,1.55965627291e+18,10.771842,3.170019865,6.861991405
633,1.55965627296e+18,7.793364525,4.884320736,6.522004604
634,1.55965627301e+18,6.160469055,4.587430477,6.471724987
635,1.55965627307e+18,1.434170604,4.891503334,2.020767927
636,1.55965627312e+18,-3.261002302,1.005595446,-1.446141958
637,1.55965627317e+18,1.44135344,-1.642472506,-2.75820446
638,1.55965627322e+18,4.039141655,-6.40468502,-0.2561874092
639,1.55965627327e+18,15.46940994,-10.92507553,-18.61309242
640,1.55965627333e+18,-1.247417212,24.16062737,13.02246094
641,1.55965627338e+18,4.510813713,-0.07422251999,14.29860878
642,1.55965627343e+18,17.06878471,13.48694992,21.81184387
643,1.55965627348e+18,2.059076309,10.62339687,19.86050987
644,1.55965627353e+18,1.668809533,8.791776657,14.05199909
645,1.55965627359e+18,-3.871542454,7.039167881,17.12864113
646,1.55965627364e+18,-15.76629925,12.37600613,14.2124157
647,1.55965627369e+18,-21.88846016,-0.5339232683,3.033546209
648,1.55965627374e+18,3.634509087,-11.08309841,22.29788208
649,1.55965627379e+18,13.55638409,-19.44869423,-7.568302631
650,1.55965627385e+18,10.43424988,-3.296916485,2.099778891
651,1.5596562739e+18,-0.627300024,-7.515628815,1.905842781
652,1.55965627395e+18,0.6225114465,-3.665634632,1.23065722
653,1.559656274e+18,-3.871542454,0.04309694469,4.273780346
654,1.55965627405e+18,-4.264203548,6.222720146,6.759037971
655,1.55965627411e+18,-5.051919937,5.729499817,7.937020779
656,1.55965627416e+18,-0.5554717779,7.29535532,9.402317047
657,1.55965627421e+18,4.611373425,6.229903221,8.377567291
658,1.55965627426e+18,11.67208958,6.598621368,8.245882034
659,1.55965627431e+18,12.69923401,8.399115562,8.379961967
660,1.55965627437e+18,13.25470543,12.78303337,9.265843391
661,1.55965627442e+18,12.80697632,8.937828064,8.595446587
662,1.55965627447e+18,9.816526413,6.361588001,6.431022167
663,1.55965627452e+18,10.89395046,8.650514603,8.147717476
664,1.55965627457e+18,14.50691128,11.51167297,10.11820507
665,1.55965627463e+18,8.573898315,6.469330311,2.930592299
666,1.55965627468e+18,1.479661822,2.504411459,-3.579440832
667,1.55965627473e+18,-1.297696948,0.08619388938,-0.5051919818
668,1.55965627478e+18,5.966532707,-1.130097747,3.292127848
669,1.55965627483e+18,13.12302017,0.1388679445,-5.755836487
670,1.55965627489e+18,-0.984046936,-25.87732124,32.85902786
671,1.55965627494e+18,-27.17262459,5.02797699,-8.121379852
672,1.55965627499e+18,-2.736656189,4.206740856,15.35927296
673,1.55965627504e+18,-10.64733982,6.69918108,10.92747021
674,1.55965627509e+18,-9.402317047,4.103786945,12.40952587
675,1.55965627515e+18,-9.634561539,2.710319042,11.34886265
676,1.5596562752e+18,-16.03685188,6.548341751,11.90912247
677,1.55965627525e+18,-26.01379585,10.15651417,1.33600533
678,1.5596562753e+18,-13.30737972,-3.280156374,1.786128998
679,1.55965627535e+18,14.46620846,-18.38324165,8.820508003
680,1.55965627541e+18,23.11672401,-14.09988403,-0.332804203
681,1.55965627546e+18,1.431776285,-5.636122704,2.394274712
682,1.55965627551e+18,0.2346389294,-2.897072554,1.225868702
683,1.55965627556e+18,-1.726272106,1.03911531,5.296135902
684,1.55965627561e+18,-4.03195858,4.70714426,7.242681503
685,1.55965627567e+18,-7.585062504,5.53316927,6.59143877
686,1.55965627572e+18,-5.183605194,6.682421207,8.794171333
687,1.55965627577e+18,-1.324033976,5.695979595,11.19562912
688,1.55965627582e+18,1.843591571,4.427014351,12.82373619
689,1.55965627587e+18,1.149251938,6.179623127,14.54043102
690,1.55965627593e+18,1.834014535,6.838048935,15.48377514
691,1.55965627598e+18,3.100585938,5.854001999,12.25868702
692,1.55965627603e+18,3.852388144,5.439792156,12.08390522
693,1.55965627608e+18,3.818868399,6.050332546,11.97376823
694,1.55965627613e+18,4.453351021,6.071880817,8.35601902
695,1.55965627619e+18,1.268965602,6.29933691,4.21871233
696,1.55965627624e+18,0.7230709791,3.711125851,1.477267504
697,1.55965627629e+18,-0.1747820675,0.2178790122,0.1197137386
698,1.55965627634e+18,2.408640385,-5.016005516,-4.673624516
699,1.55965627639e+18,77.43563843,-22.82701683,-34.94923019
700,1.55965627645e+18,-1.695146561,15.3832159,1.939362645
701,1.5596562765e+18,-10.6401577,12.81655312,16.25473213
702,1.55965627655e+18,-13.54680729,8.140534401,12.67529106
703,1.5596562766e+18,-13.97777653,6.814105988,8.990502357
704,1.55965627665e+18,-18.96744537,9.282603264,7.738296032
705,1.55965627671e+18,-25.12312508,4.872349262,5.178816319
706,1.55965627676e+18,-5.020794392,-8.92585659,19.06800461
707,1.55965627681e+18,21.12229156,-31.09205246,1.561067224
708,1.55965627686e+18,4.264203548,-6.071880817,-0.2035133541
709,1.55965627691e+18,4.32406044,-4.268991947,4.762212753
710,1.55965627697e+18,-1.142069101,-1.814860344,4.843617916
711,1.55965627702e+18,-3.976890564,3.062277555,4.192375183
712,1.55965627707e+18,-4.546727657,4.331243038,6.754249096
713,1.55965627712e+18,-5.21473074,3.579440832,7.046350956
714,1.55965627717e+18,-4.168432236,4.185192585,9.004867554
715,1.55965627723e+18,-3.799714088,5.461340904,9.613013268
716,1.55965627728e+18,-1.168406129,3.917033672,12.13179016
717,1.55965627733e+18,-0.3064671755,7.027196407,13.49892139
718,1.55965627738e+18,0.3926610649,6.996070862,15.57954597
719,1.55965627743e+18,2.624125242,7.453377247,12.6058569
720,1.55965627749e+18,2.942563772,4.898686409,10.93944168
721,1.55965627754e+18,2.715107679,5.193181992,10.34566116
722,1.55965627759e+18,2.025556564,5.154873848,8.454184532
723,1.55965627764e+18,0.08619388938,5.624151707,3.993650436
724,1.55965627769e+18,-0.6751855016,3.861965179,3.220299721
725,1.55965627775e+18,-0.7039167881,2.69355917,2.710319042
726,1.5596562778e+18,-0.335198462,0.7613793612,-0.4261809289
727,1.55965627785e+18,12.46220016,-4.781366825,-3.790137053
728,1.5596562779e+18,40.40817642,-38.23417282,-10.30735302
729,1.55965627795e+18,-3.474092722,18.68252563,-8.497281075
730,1.55965627801e+18,-4.371945858,12.69683933,17.14061356
731,1.55965627806e+18,-11.3201313,7.029590607,9.955394745
732,1.55965627811e+18,-12.74711895,6.541158676,9.237112045
733,1.55965627816e+18,-18.96744537,11.54040432,9.785401344
734,1.55965627821e+18,-25.04890251,7.846038342,2.980872154
735,1.55965627827e+18,-9.639349937,-9.179649353,10.27622795
736,1.55965627832e+18,17.56439972,-28.20455742,7.419857502
737,1.55965627837e+18,10.87240219,-12.72796535,-1.941756845
738,1.55965627842e+18,-0.7781392932,-2.997632027,4.424619675
739,1.55965627847e+18,1.494027495,-2.882706881,2.851581335
740,1.55965627853e+18,-0.03351984918,-2.77975297,6.742278099
741,1.55965627858e+18,-2.116539001,1.769369125,7.534782887
742,1.55965627863e+18,-6.428627968,2.983266354,5.185999393
743,1.55965627868e+18,-4.745452881,3.37113905,7.0846591
744,1.55965627873e+18,1.431776285,4.271386147,6.138920784
745,1.55965627879e+18,10.6401577,5.461340904,8.38235569
746,1.55965627884e+18,17.05681419,8.090254784,9.677659035
747,1.55965627889e+18,15.51011181,12.05038548,7.439012051
748,1.55965627894e+18,11.16929245,10.92986488,8.32968235
749,1.55965627899e+18,10.08468533,7.520417213,5.432609558
750,1.55965627905e+18,8.087860107,5.585843086,5.121353626
751,1.5596562791e+18,11.26745701,7.771816254,8.46376133
752,1.55965627915e+18,7.699987888,8.614601135,7.563514233
753,1.5596562792e+18,6.684815407,7.218738556,4.743058205
754,1.55965627925e+18,1.939362645,6.797346115,2.875524044
755,1.55965627931e+18,1.331216812,5.202759266,4.867560863
756,1.55965627936e+18,1.350371003,5.593026161,2.193155766
757,1.55965627941e+18,2.279349566,1.426987767,1.903448462
758,1.55965627946e+18,3.196356773,-5.020794392,-0.06943397224
759,1.55965627951e+18,5.583448887,-2.231464148,-2.772570133
760,1.55965627957e+18,-7.319298267,-16.73358727,24.28273582
761,1.55965627962e+18,-19.72882462,11.99771118,-10.11581135
762,1.55965627967e+18,-5.849213123,2.315263748,8.061523438
763,1.55965627972e+18,-9.208380699,7.551542759,8.020820618
764,1.55965627977e+18,-9.246688843,9.383162498,11.84687138
765,1.55965627983e+18,-13.10865498,11.63378143,15.82376194
766,1.55965627988e+18,-15.69447136,12.69444466,13.73116589
767,1.55965627993e+18,-23.26516914,17.03047752,7.328875065
768,1.55965627998e+18,-13.72398281,1.106154919,11.68406105
769,1.55965628003e+18,5.403878212,-7.496474266,17.03526497
770,1.55965628009e+18,9.483722687,-26.78475189,0.7374366522
771,1.55965628014e+18,11.36562252,-2.645673752,-0.59378016
772,1.55965628019e+18,2.102173328,0.3016786277,3.33043623
773,1.55965628024e+18,-0.1891477108,-2.099778891,0.9337671995
774,1.55965628029e+18,-2.578634024,6.332856655,4.553910732
775,1.55965628035e+18,-0.8691217303,1.568249941,5.667248249
776,1.5596562804e+18,-1.599375606,0.2083019018,6.885934353
777,1.55965628045e+18,-2.67440486,1.817254543,6.136526108
778,1.5596562805e+18,-0.9984126091,0.5889915824,6.419050694
779,1.55965628055e+18,3.555498123,1.596981287,7.415069103
780,1.55965628061e+18,8.061523438,1.596981287,7.036773682
781,1.55965628066e+18,17.22920227,2.090201855,10.29777622
782,1.55965628071e+18,15.6058836,4.448562622,10.44861507
783,1.55965628076e+18,14.65056801,5.786962032,10.95620155
784,1.55965628081e+18,13.68806934,6.69918108,12.09108734
785,1.55965628087e+18,12.62022209,5.420638084,9.888355255
786,1.55965628092e+18,12.23235035,3.926610708,8.1453228
787,1.55965628097e+18,12.61303997,5.332049847,5.466129303
788,1.55965628102e+18,10.6497345,5.612180233,4.874743462
789,1.55965628107e+18,7.020013809,6.622564316,2.45892024
790,1.55965628113e+18,5.909070015,7.908289909,3.265790939
791,1.55965628118e+18,4.132518291,7.369577885,3.514795303
792,1.55965628123e+18,5.777385235,6.634535313,3.955342054
793,1.55965628128e+18,8.777411461,7.649707794,4.314483166
794,1.55965628133e+18,6.478907585,6.502850533,-1.101366401
795,1.55965628138e+18,6.9098773,3.907456398,-5.020794392
796,1.55965628144e+18,0.9385557175,-0.5794144869,-6.399896622
797,1.55965628149e+18,4.467716694,-4.00562191,-11.19323444
798,1.55965628154e+18,8.320104599,-11.77025509,-7.510839939
799,1.55965628159e+18,8.250671387,-31.30514336,30.09124565
800,1.55965628164e+18,3.617749214,-2.887495518,11.18126297
801,1.5596562817e+18,10.57311726,-3.323253393,14.3393116
802,1.55965628175e+18,14.97140026,-4.03195858,15.59151745
803,1.5596562818e+18,30.94600105,2.027950764,13.94665051
804,1.55965628185e+18,18.85491371,0.1604164094,10.85324764
805,1.5596562819e+18,16.37923431,4.249837875,12.90035248
806,1.55965628196e+18,11.13577175,4.398283005,11.98573971
807,1.55965628201e+18,2.030344963,3.739857197,11.60983849
808,1.55965628206e+18,-6.0216012,4.848406315,18.61788177
809,1.55965628211e+18,-16.54922676,12.09348202,1.417410731
810,1.55965628216e+18,-6.993676662,-2.913832426,-1.304879785
811,1.55965628222e+18,15.91235065,-17.26511574,9.694418907
812,1.55965628227e+18,19.18532372,-10.33129597,4.039141655
813,1.55965628232e+18,0.4740664065,-5.91625309,-3.419024467
814,1.55965628237e+18,2.473285913,-5.157268047,-1.956122518
815,1.55965628242e+18,0.4118152559,-2.90425539,1.819648862
816,1.55965628248e+18,-2.0375278,1.82204318,4.568276405
817,1.55965628253e+18,0.1963305324,2.830032825,5.154873848
818,1.55965628258e+18,6.634535313,1.242628574,7.831672668
819,1.55965628263e+18,17.88044357,0.002394274808,8.514040947
820,1.55965628268e+18,22.12070465,0.09577099234,9.85483551
821,1.55965628274e+18,15.14378834,2.437371731,8.645726204
822,1.55965628279e+18,14.32734013,3.694365978,12.30417824
823,1.55965628284e+18,10.24031353,3.536343813,8.028003693
824,1.55965628289e+18,11.29618835,2.253012657,7.439012051
825,1.55965628294e+18,10.95380688,1.678386688,7.697593689
826,1.559656283e+18,13.17569447,0.6416656375,7.82688427
827,1.55965628305e+18,9.732727051,-0.3902668059,7.520417213
828,1.5596562831e+18,9.809344292,-0.0837996155,6.900300026
829,1.55965628315e+18,8.341653824,-0.07661679387,7.000859737
830,1.5596562832e+18,6.61777544,0.967287004,5.425426483
831,1.55965628326e+18,6.514821529,2.004008055,8.248276711
832,1.55965628331e+18,6.107795238,4.580247879,8.734314919
833,1.55965628336e+18,7.640130997,5.559505939,9.818921089
834,1.55965628341e+18,4.790944099,7.604216576,8.736708641
835,1.55965628346e+18,4.108575344,8.238699913,10.75029373
836,1.55965628352e+18,-1.558672905,6.826077461,7.99687767
837,1.55965628357e+18,-1.901054144,4.503631115,5.353598595
838,1.55965628362e+18,-0.7374366522,0.1532335877,2.662433624
839,1.55965628367e+18,-0.06464541703,-2.530748367,1.355159521
840,1.55965628372e+18,-1.252205729,-5.712739468,-4.374340057
841,1.55965628378e+18,4.065478802,-6.964945316,-6.737489223
842,1.55965628383e+18,0.3447755575,-4.331243038,7.57309103
843,1.55965628388e+18,-0.7661679387,13.32653332,-10.86521912
844,1.55965628393e+18,11.57392406,15.71123123,5.19797039
845,1.55965628398e+18,0.01197137404,18.50295639,0.7781392932
846,1.55965628404e+18,0.627300024,17.99776459,3.057488918
847,1.55965628409e+18,2.26977253,16.75753021,4.245049
848,1.55965628414e+18,1.690358043,18.34972191,-0.4477293789
849,1.55965628419e+18,-0.7063110471,13.58750916,2.174001455
850,1.55965628424e+18,-0.4405465722,15.68489456,3.462121487
851,1.5596562843e+18,-4.958543301,20.66977501,5.38472414
852,1.55965628435e+18,-14.8780241,19.74319077,7.343240738
853,1.5596562844e+18,-13.73595428,18.37366486,3.565075159
854,1.55965628445e+18,3.926610708,-6.205960274,12.97457504
855,1.5596562845e+18,20.008955,-23.02334595,4.503631115
856,1.55965628456e+18,-4.348002911,-14.56437397,-3.864359617
857,1.55965628461e+18,7.431828976,0.4597007632,4.130124092
858,1.55965628466e+18,5.645699978,-9.613013268,3.651269197
859,1.55965628471e+18,-8.016032219,-2.047105074,0.634482801
860,1.55965628476e+18,-2.669616461,0.44533512,3.153259993
861,1.55965628482e+18,-5.707951069,3.141288519,4.822069645
862,1.55965628487e+18,-5.588237286,2.573845387,8.806142807
863,1.55965628492e+18,-0.2729473412,3.210722446,12.15812778
864,1.55965628497e+18,6.399896622,2.011190891,8.74149704
865,1.55965628502e+18,17.03287125,1.034326673,4.841223717
866,1.55965628508e+18,19.08955383,3.972101927,4.240260601
867,1.55965628513e+18,15.39039803,4.968120098,5.588237286
868,1.55965628518e+18,13.46779537,4.264203548,5.265010357
869,1.55965628523e+18,11.26266861,2.492439985,5.614574432
870,1.55965628528e+18,10.30016994,1.161223292,4.687990189
871,1.55965628534e+18,11.99531651,0.3950553536,4.944177628
872,1.55965628539e+18,10.28819847,0.6727912426,4.096604347
873,1.55965628544e+18,10.771842,1.340793848,4.963331699
874,1.55965628549e+18,9.787795067,2.631308079,5.485283375
875,1.55965628554e+18,8.27461338,3.452544212,5.731894016
876,1.5596562856e+18,8.39672184,4.312088966,6.392713547
877,1.55965628565e+18,8.696005821,6.363982677,5.315289974
878,1.5596562857e+18,8.535589218,7.319298267,5.300924301
879,1.55965628575e+18,5.648094177,6.519610405,4.733481407
880,1.5596562858e+18,2.102173328,6.885934353,5.274587631
881,1.55965628586e+18,0.0837996155,5.253038883,4.309694767
882,1.55965628591e+18,-0.610540092,2.748627424,3.363956213
883,1.55965628596e+18,-3.040729046,-0.1245022863,2.166818619
884,1.55965628601e+18,-3.428601503,-3.423812866,1.278542757
885,1.55965628606e+18,3.445361376,-8.27461338,-3.77337718
886,1.55965628612e+18,11.20281219,-11.82771778,-5.181210518
887,1.55965628617e+18,21.89564323,-26.9403801,19.15419769
888,1.55965628622e+18,10.39115238,16.86766624,2.257801056
889,1.55965628627e+18,21.71367836,0.7925049663,10.75508213
890,1.55965628632e+18,17.39680099,7.462954521,2.669616461
891,1.55965628638e+18,20.3489418,6.802134514,3.464515686
892,1.55965628643e+18,15.00731468,7.316903591,1.278542757
893,1.55965628648e+18,12.25150394,8.174054146,4.683201313
894,1.55965628653e+18,5.736682415,7.072687626,4.869955063
895,1.55965628658e+18,4.733481407,7.309720993,4.616161823
896,1.55965628664e+18,1.71908927,10.43903828,5.549929142
897,1.55965628669e+18,-2.193155766,11.87081432,9.531607628
898,1.55965628674e+18,-14.47099686,16.20205688,13.35765934
899,1.55965628679e+18,-18.76153755,12.19643593,2.636096478
900,1.55965628684e+18,-8.552350044,0.7829278708,8.490098
901,1.5596562869e+18,12.78303337,-17.63383484,4.999245644
902,1.55965628695e+18,14.44466019,-13.07992363,6.957762718
903,1.559656287e+18,-7.862798691,-6.213143349,2.772570133
904,1.55965628705e+18,-1.879505754,-6.110189438,-3.785348415
905,1.5596562871e+18,-6.438204765,1.522758722,2.810878515
906,1.55965628716e+18,-4.063084126,-0.1604164094,3.205934048
907,1.55965628721e+18,-3.37113905,-0.8308133483,5.449369431
908,1.55965628726e+18,-2.827638626,0.6847625971,8.717555046
909,1.55965628731e+18,1.364736676,2.0375278,7.640130997
910,1.55965628736e+18,9.028810501,-0.4189980924,8.978530884
911,1.55965628742e+18,16.05840111,1.407833576,6.249057293
912,1.55965628747e+18,17.93551254,3.818868399,9.079090118
913,1.55965628752e+18,14.65056801,4.886714935,8.367990494
914,1.55965628757e+18,12.7758503,5.62175703,9.153312683
915,1.55965628762e+18,10.37678719,4.197163582,8.578686714
916,1.55965628768e+18,8.731920242,2.152452946,6.026389599
917,1.55965628773e+18,11.51885605,0.591385901,6.419050694
918,1.55965628778e+18,11.40153694,0.1221080124,5.401484013
919,1.55965628783e+18,8.391933441,-0.01915419847,5.837242126
920,1.55965628788e+18,8.679245949,0.9912297726,6.878751755
921,1.55965628794e+18,7.616188049,1.776551962,7.968146324
922,1.55965628799e+18,8.310527802,3.237059593,9.088666916
923,1.55965628804e+18,7.65449667,4.039141655,6.838048935
924,1.55965628809e+18,6.97691679,5.870761871,8.980924606
925,1.55965628814e+18,5.226701736,5.842030525,10.90352726
926,1.5596562882e+18,5.145296574,6.929031372,11.11422348
927,1.55965628825e+18,3.593806505,5.267404556,9.189227104
928,1.5596562883e+18,3.495641232,3.050306082,5.758230686
929,1.55965628835e+18,2.650462151,3.782954216,1.987248063
930,1.5596562884e+18,0.4381522834,0.3256213665,1.142069101
931,1.55965628846e+18,-2.396669149,1.142069101,0.8954587579
932,1.55965628851e+18,-3.957736254,-0.07422251999,-1.331216812
933,1.55965628856e+18,-0.9720755816,-6.459753513,-3.816473961
934,1.55965628861e+18,10.4845295,-9.32570076,-23.09517479
935,1.55965628866e+18,1.242628574,10.94423008,-12.42868042
936,1.55965628872e+18,11.43505669,23.82303429,-0.1101366431
937,1.55965628877e+18,11.89715195,25.50142097,3.466909885
938,1.55965628882e+18,1.984853864,21.1151104,-2.930592299
939,1.55965628887e+18,-1.237840056,14.95224571,7.412674904
940,1.55965628892e+18,-0.5794144869,17.5524292,-0.9984126091
941,1.55965628898e+18,-3.282550812,14.48775673,-3.026363373
942,1.55965628903e+18,-3.167625666,9.634561539,-3.368744612
943,1.55965628908e+18,-4.185192585,8.703188896,-6.438204765
944,1.55965628913e+18,-3.900273561,3.445361376,0.2130904645
945,1.55965628918e+18,0.5027977228,-6.246663094,11.96179676
946,1.55965628924e+18,17.63622856,-24.85257339,27.74725151
947,1.55965628929e+18,8.909096718,-5.114171028,-10.07032013
948,1.55965628934e+18,1.805283189,-5.763019562,0.3543526828
949,1.55965628939e+18,0.05985686928,-9.744698524,8.27461338
950,1.55965628944e+18,-1.467690468,-1.970488191,7.051139355
951,1.5596562895e+18,-6.900300026,-8.372778893,4.312088966
952,1.55965628955e+18,-2.638490915,-5.858790398,4.60179615
953,1.5596562896e+18,0.9792584181,-4.970514297,7.716747761
954,1.55965628965e+18,-0.5554717779,-3.809291124,6.423839092
955,1.5596562897e+18,1.268965602,-2.581028223,8.719948769
956,1.55965628976e+18,2.195549965,-1.9944309,7.453377247
957,1.55965628981e+18,5.66485405,-1.508393168,8.595446587
958,1.55965628986e+18,5.87555027,-2.195549965,5.753442287
959,1.55965628991e+18,8.763046265,-0.5985686779,6.900300026
960,1.55965628996e+18,8.420664787,-0.01675992459,5.8516078
961,1.55965629002e+18,9.809344292,0.7565908432,6.545947552
962,1.55965629007e+18,9.926663399,0.7877163887,6.409473896
963,1.55965629012e+18,10.21637058,0.9194015265,6.356799603
964,1.55965629017e+18,10.92747021,1.055875182,6.478907585
965,1.55965629022e+18,10.94423008,0.7733507752,6.177228928
966,1.55965629028e+18,9.862017632,0.1268965602,4.881926537
967,1.55965629033e+18,10.22355366,-0.5363175869,4.654470444
968,1.55965629038e+18,9.615407944,-0.6057515144,3.737462997
969,1.55965629043e+18,9.366402626,-0.2585816681,3.826051235
970,1.55965629048e+18,9.296969414,0.3112557232,4.831646442
971,1.55965629054e+18,8.43742466,0.3782954216,4.755029678
972,1.55965629059e+18,7.853221416,0.4357580245,5.114171028
973,1.55965629064e+18,8.892336845,0.907430172,6.399896622
974,1.55965629069e+18,8.195602417,1.024749637,6.65847826
975,1.55965629074e+18,7.496474266,1.618529797,7.197190285
976,1.5596562908e+18,7.731113434,1.874717116,7.491685867
977,1.55965629085e+18,6.818894863,1.731060743,7.767027378
978,1.5596562909e+18,7.412674904,2.482862949,8.945011139
979,1.55965629095e+18,6.033572674,3.459727049,8.997684479
980,1.559656291e+18,5.925830364,4.56109333,8.703188896
981,1.55965629106e+18,5.688796997,4.597007751,8.612206459
982,1.55965629111e+18,3.715914488,4.951360226,8.892336845
983,1.55965629116e+18,3.680000305,5.403878212,7.944203854
984,1.55965629121e+18,3.086220264,5.334444046,4.829252243
985,1.55965629126e+18,1.422199249,7.745479107,2.396669149
986,1.55965629131e+18,0.7087053657,7.541965485,2.497228622
987,1.55965629137e+18,-0.05506832153,7.103813171,2.873129845
988,1.55965629142e+18,-2.078230619,4.874743462,1.776551962
989,1.55965629147e+18,-1.144463301,3.677606106,1.127703428
990,1.55965629152e+18,-0.3782954216,-0.8810931444,-6.838048935
991,1.55965629157e+18,8.451789856,-9.225140572,-8.731920242
992,1.55965629163e+18,17.16934395,-14.10467243,-14.31776333
993,1.55965629168e+18,-4.939388752,-1.436564922,22.8437767
994,1.55965629173e+18,21.04567528,-0.4237866402,19.06321526
995,1.55965629178e+18,16.17811394,4.992063046,26.96192932
996,1.55965629183e+18,7.647313595,8.758256912,22.76715851
997,1.55965629189e+18,3.261002302,11.08309841,18.19169998
998,1.55965629194e+18,1.750214934,10.78381348,13.68088627
999,1.55965629199e+18,-8.640937805,10.76465988,13.37681293
1000,1.55965629204e+18,-17.2220192,15.41434097,1.960911036
1001,1.55965629209e+18,-9.457385063,-8.743891716,19.09913063
1002,1.55965629215e+18,12.41431522,-36.20383072,-2.133298874
1003,1.5596562922e+18,24.05527878,-1.527547359,-1.015172482
1004,1.55965629225e+18,-2.894678354,-11.51646137,-3.864359617
1005,1.5596562923e+18,-3.241847992,-2.944957972,-2.044710636
1006,1.55965629235e+18,-2.810878515,0.2944957912,3.390293121
1007,1.55965629241e+18,-3.189173937,0.8834874034,5.727105141
1008,1.55965629246e+18,-6.16765213,2.571451187,8.018425941
1009,1.55965629251e+18,-10.95380688,3.589017868,5.798933506
1010,1.55965629256e+18,-5.494860649,2.308080912,9.136552811
1011,1.55965629261e+18,4.719115734,1.228263021,10.83409309
1012,1.55965629267e+18,12.2131958,3.581835032,9.464568138
1013,1.55965629272e+18,12.15812778,5.32007885,9.816526413
1014,1.55965629277e+18,9.119792938,8.332076073,9.668081284
1015,1.55965629282e+18,7.412674904,6.605803967,9.174860954
1016,1.55965629287e+18,8.068706512,4.252232075,9.663292885
1017,1.55965629293e+18,8.341653824,2.559479713,9.249083519
1018,1.55965629298e+18,6.596227169,1.405439258,8.449396133
1019,1.55965629303e+18,6.256239891,1.40065074,8.087860107
1020,1.55965629308e+18,5.583448887,1.946545362,6.919454098
1021,1.55965629313e+18,6.134131908,1.371919513,6.543552876
1022,1.55965629319e+18,4.28575182,1.790917516,5.583448887
1023,1.55965629324e+18,4.513207912,2.715107679,6.577073097
1024,1.55965629329e+18,4.661653042,1.704723716,6.897905827
1025,1.55965629334e+18,5.66245985,1.735849261,5.525986195
1026,1.55965629339e+18,6.352011204,3.981678963,5.315289974
1027,1.55965629345e+18,8.336864471,7.29535532,3.272973776
1028,1.5596562935e+18,9.754275322,9.862017632,0.5458946824
1029,1.55965629355e+18,6.584255695,6.306519985,2.628913641
1030,1.5596562936e+18,9.313729286,2.928198099,4.819674969
1031,1.55965629365e+18,14.98337173,10.47016335,10.26904488
1032,1.55965629371e+18,12.51247978,9.593858719,3.545921087
1033,1.55965629376e+18,21.2420063,3.972101927,-0.8379961848
1034,1.55965629381e+18,17.08554459,-6.747066498,-11.76786041
1035,1.55965629386e+18,17.49975395,-16.34092522,28.91565704
1036,1.55965629391e+18,-14.90436077,1.31445682,-5.600208759
1037,1.55965629397e+18,0.6177229285,-4.118152618,6.040755272
1038,1.55965629402e+18,3.996044636,3.038334846,14.34649467
1039,1.55965629407e+18,-4.597007751,1.723877907,12.27305222
1040,1.55965629412e+18,-5.236279011,2.966506481,9.366402626
1041,1.55965629417e+18,-8.229122162,4.738269806,5.657671452
1042,1.55965629423e+18,-10.43903828,4.163643837,7.345634937
1043,1.55965629428e+18,-16.63781548,2.504411459,7.65210247
1044,1.55965629433e+18,-20.6985054,3.936187744,-1.54909575
1045,1.55965629438e+18,-22.21647644,4.472505569,-5.34402132
1046,1.55965629443e+18,-5.140508175,-5.185999393,19.03927422
1047,1.55965629449e+18,2.899466753,-22.48224068,-12.0336256
1048,1.55965629454e+18,3.538738251,7.307326794,6.119766235
1049,1.55965629459e+18,1.788523316,-9.265843391,0.8020820618
1050,1.55965629464e+18,-0.7182824612,-1.850774407,3.785348415
1051,1.55965629469e+18,1.027143836,2.406246185,4.85558939
1052,1.55965629475e+18,-2.497228622,2.044710636,4.683201313
1053,1.5596562948e+18,-1.003201127,0.6368771195,6.93860817
1054,1.55965629485e+18,2.992843628,4.297723293,6.344828129
1055,1.5596562949e+18,8.492492676,1.426987767,7.577879906
1056,1.55965629495e+18,15.46462059,1.82443738,6.749460697
1057,1.55965629501e+18,17.07836151,3.282550812,9.021627426
1058,1.55965629506e+18,10.13017654,2.528354168,8.669669151
1059,1.55965629511e+18,9.375980377,1.788523316,10.13735962
1060,1.55965629516e+18,8.15968895,1.051086664,9.22992897
1061,1.55965629521e+18,8.35601902,-0.2944957912,8.612206459
1062,1.55965629527e+18,8.724737167,-0.9313728809,7.99687767
1063,1.55965629532e+18,9.33767128,-2.181184292,7.704776287
1064,1.55965629537e+18,6.967339516,-1.884294271,5.952167034
1065,1.55965629542e+18,5.013611317,-1.161223292,5.837242126
1066,1.55965629547e+18,5.846818924,-1.728666425,6.316096783
1067,1.55965629553e+18,6.057515144,-1.245022893,6.308914185
1068,1.55965629558e+18,5.765413761,-1.132491946,7.723930359
1069,1.55965629563e+18,6.134131908,0.0287312977,7.175641537
1070,1.55965629568e+18,6.205960274,0.5602602959,8.509252548
1071,1.55965629573e+18,8.102226257,2.157241583,8.197997093
1072,1.55965629579e+18,10.1062336,2.736656189,8.590658188
1073,1.55965629584e+18,9.852440834,3.471698523,9.131764412
1074,1.55965629589e+18,9.869200706,2.786935806,5.98329258
1075,1.55965629594e+18,4.762212753,-0.102953814,-1.78134048
1076,1.55965629599e+18,16.97780228,8.372778893,-1.707117915
1077,1.55965629605e+18,11.8875742,6.62016964,-0.7063110471
1078,1.5596562961e+18,25.23326302,-14.39198589,9.675264359
1079,1.55965629615e+18,-0.5147690773,-2.020767927,19.23320961
1080,1.5596562962e+18,-10.03440571,1.901054144,-2.363149166
1081,1.55965629625e+18,0.5291347504,-2.154847383,11.85884285
1082,1.55965629631e+18,0.2561874092,4.563488007,10.70719719
1083,1.55965629636e+18,-1.685569525,4.443774223,8.006455421
1084,1.55965629641e+18,-7.848433018,5.336838722,5.887521744
1085,1.55965629646e+18,-9.806949615,10.38636398,-0.964892745
1086,1.55965629651e+18,-26.23646355,12.82612991,-1.261782765
1087,1.55965629657e+18,-24.97467995,5.32007885,-2.482862949
1088,1.55965629662e+18,2.317657948,-16.53246689,18.20845985
1089,1.55965629667e+18,27.61556625,-26.09041214,7.271412373
1090,1.55965629672e+18,5.887521744,-3.062277555,-3.600989342
1091,1.55965629677e+18,-5.952167034,0.634482801,-1.685569525
1092,1.55965629683e+18,-1.455719113,3.926610708,3.883513689
1093,1.55965629688e+18,-1.814860344,0.5506832004,4.304905891
1094,1.55965629693e+18,-3.220299721,-0.3902668059,6.074275017
1095,1.55965629698e+18,-2.832427025,-2.126116037,6.368771076
1096,1.55965629703e+18,-0.8427847624,-1.774157643,8.605023384
1097,1.55965629709e+18,1.539518714,-1.036720991,11.34167957
1098,1.55965629714e+18,4.893897533,-2.760598898,13.89637089
1099,1.55965629719e+18,7.199584484,-2.073441982,13.86045647
1100,1.55965629724e+18,8.336864471,-0.9577099085,13.62581825
1101,1.55965629729e+18,7.632947922,0.4022381604,13.69046307
1102,1.55965629735e+18,7.589851379,0.924190104,13.3241396
1103,1.5596562974e+18,8.399115562,-0.8188419938,11.97376823
1104,1.55965629745e+18,6.806923389,-1.058269501,9.545973778
1105,1.5596562975e+18,7.491685867,-0.4668835998,8.305739403
1106,1.55965629755e+18,7.532388687,0.8044763207,8.372778893
1107,1.55965629761e+18,6.799740314,2.233858347,9.330489159
1108,1.55965629766e+18,6.577073097,4.297723293,9.593858719
1109,1.55965629771e+18,4.527573586,3.399870157,9.787795067
1110,1.55965629776e+18,4.644893169,3.268185139,10.00327969
1111,1.55965629781e+18,2.985660791,4.647287369,6.033572674
1112,1.55965629786e+18,4.034353256,6.325674057,8.389538765
1113,1.55965629792e+18,1.54909575,7.182824612,6.696786404
1114,1.55965629797e+18,3.912245035,4.276175022,5.169239521
1115,1.55965629802e+18,3.962524891,-0.004788549617,4.599401951
1116,1.55965629807e+18,-0.5147690773,-5.379935265,-6.466936111
1117,1.55965629812e+18,19.37686539,-31.53978157,33.34745789
1118,1.55965629818e+18,-13.34329319,15.16054821,-21.9698658
1119,1.55965629823e+18,4.460534096,9.608224869,0.3735068738
1120,1.55965629828e+18,-2.001613855,11.30815983,1.189954638
1121,1.55965629833e+18,-6.691998005,16.2906456,4.649681568
1122,1.55965629838e+18,-13.57553864,19.98261833,9.5483675
1123,1.55965629844e+18,-15.68010616,19.71685219,8.564320564
1124,1.55965629849e+18,-20.98821259,24.16302109,4.539545059
1125,1.55965629854e+18,-9.069513321,6.505244732,15.81897354
1126,1.55965629859e+18,4.977697372,-8.229122162,16.44388008
1127,1.55965629864e+18,25.20932007,-48.14886475,8.018425941
1128,1.5596562987e+18,1.295302629,-4.522785187,-1.218685865
1129,1.55965629875e+18,4.307300568,-4.805309772,2.26977253
1130,1.5596562988e+18,-4.721509933,-1.721483588,1.106154919
1131,1.55965629885e+18,-1.778946161,3.019180536,5.159662247
1132,1.5596562989e+18,-5.667248249,2.552296877,6.098217964
1133,1.55965629896e+18,-5.590631485,3.268185139,7.235498428
1134,1.55965629901e+18,-1.029538155,4.362368584,10.74071693
1135,1.55965629906e+18,6.399896622,2.932986736,7.166064739
1136,1.55965629911e+18,16.36726189,3.962524891,5.315289974
1137,1.55965629916e+18,16.53246689,4.932206154,4.544333458
1138,1.55965629922e+18,11.28661156,6.495667458,4.690384388
1139,1.55965629927e+18,11.63617516,6.294548512,5.988081455
1140,1.55965629932e+18,12.07432747,4.185192585,6.524398804
1141,1.55965629937e+18,11.45660496,3.146077156,6.12934351
1142,1.55965629942e+18,11.45899963,3.184385538,5.454157829
1143,1.55965629948e+18,10.52523232,3.936187744,5.777385235
1144,1.55965629953e+18,12.83091831,5.901887417,7.398309231
1145,1.55965629958e+18,12.78542709,8.631361008,5.008822918
1146,1.55965629963e+18,11.82771778,13.16851139,3.519583941
1147,1.55965629968e+18,9.510059357,10.74790001,0.2873129845
1148,1.55965629974e+18,5.830059052,8.401510239,0.6057515144
1149,1.55965629979e+18,6.019207001,1.345582485,2.978477955
1150,1.55965629984e+18,2.377514839,1.709512234,-2.700742006
1151,1.55965629989e+18,1.053480864,0.44533512,-2.394274712
1152,1.55965629994e+18,3.258608103,-0.5123748183,-6.016812801
1153,1.5596563e+18,3.277762175,-6.490879059,-11.04239559
1154,1.55965630005e+18,10.26425648,-10.52044392,-3.181991339
1155,1.5596563001e+18,14.26748371,-7.273807049,18.74477768
1156,1.55965630015e+18,4.637710094,-0.2897072434,6.000052452
1157,1.5596563002e+18,14.57634544,2.185972929,12.50050831
1158,1.55965630026e+18,12.06714535,-1.666415215,3.380716085
1159,1.55965630031e+18,29.22930717,-6.821289062,-0.2083019018
1160,1.55965630036e+18,23.80148506,-3.517189741,2.846792698
1161,1.55965630041e+18,21.04088783,-2.343995094,-2.830032825
1162,1.55965630046e+18,18.87885666,1.573038578,1.015172482
1163,1.55965630052e+18,12.47896004,3.972101927,4.21631813
1164,1.55965630057e+18,6.83086586,5.071074009,5.842030525
1165,1.55965630062e+18,2.715107679,5.262616158,9.663292885
1166,1.55965630067e+18,-5.825270653,6.864386082,17.98818588
1167,1.55965630072e+18,-20.80385399,10.87240219,-4.192375183
1168,1.55965630078e+18,-9.122186661,-7.178035736,13.56835556
1169,1.55965630083e+18,26.04252625,-35.67469406,-13.35526466
1170,1.55965630088e+18,12.34009266,-4.838829517,0.8356019258
1171,1.55965630093e+18,-1.467690468,-9.208380699,-0.7613793612
1172,1.55965630098e+18,-2.77735877,-4.051113129,-2.154847383
1173,1.55965630104e+18,-5.968926907,1.788523316,1.570644259
1174,1.55965630109e+18,-4.735875607,1.328822494,3.20353961
1175,1.55965630114e+18,-3.897879362,3.957736254,4.21871233
1176,1.55965630119e+18,-0.9122186899,5.8516078,5.418243885
1177,1.55965630124e+18,8.846845627,1.283331275,6.071880817
1178,1.5596563013e+18,28.23807716,-1.376708031,6.356799603
1179,1.55965630135e+18,20.17176437,5.219519138,6.653689861
1180,1.5596563014e+18,12.73035908,6.174834728,7.166064739
1181,1.55965630145e+18,10.72874546,4.446168423,6.519610405
1182,1.5596563015e+18,10.8197279,2.815667152,7.072687626
1183,1.55965630156e+18,10.75747681,1.015172482,6.244268894
1184,1.55965630161e+18,11.79898643,-0.4022381604,5.767807961
1185,1.55965630166e+18,10.96098995,-1.587404251,4.798126698
1186,1.55965630171e+18,9.581888199,-1.395862222,3.735068798
1187,1.55965630176e+18,8.418270111,-0.7206767201,2.69355917
1188,1.55965630182e+18,8.430241585,0.1987248063,3.122134447
1189,1.55965630187e+18,9.079090118,3.912245035,4.556304932
1190,1.55965630192e+18,6.601015568,5.80851078,8.451789856
1191,1.55965630197e+18,8.88515377,7.020013809,14.70802975
1192,1.55965630202e+18,8.779806137,8.643332481,11.31773663
1193,1.55965630208e+18,6.730306625,5.073468208,7.93223238
1194,1.55965630213e+18,2.449343204,3.751828671,6.385530949
1195,1.55965630218e+18,1.561067224,2.784541607,3.43578434
1196,1.55965630223e+18,-0.5027977228,-0.4549122155,1.795706153
1197,1.55965630228e+18,-0.9744698405,-4.597007751,2.178790092
1198,1.55965630234e+18,-2.176395893,-9.256266594,-0.8595446348
1199,1.55965630239e+18,6.155680656,-14.39198589,-12.51726913
1200,1.55965630244e+18,11.26985168,1.206714511,-36.8431015
1201,1.55965630249e+18,17.47341728,12.11981869,-7.817307472
1202,1.55965630254e+18,19.79586411,17.5045433,1.678386688
1203,1.5596563026e+18,18.25873947,13.92749691,4.807703972
1204,1.55965630265e+18,16.9897747,16.21642303,6.579467297
1205,1.5596563027e+18,5.904281616,15.20843315,9.747093201
1206,1.55965630275e+18,7.553936958,15.01449776,1.235445857
1207,1.5596563028e+18,6.744672298,11.82053471,6.703969479
1208,1.55965630286e+18,3.153259993,15.42152405,10.8149395
1209,1.55965630291e+18,-4.726298332,19.25954628,12.78303337
1210,1.55965630296e+18,-6.684815407,10.08468533,3.677606106
1211,1.55965630301e+18,0.7733507752,-13.50610447,11.01605797
1212,1.55965630306e+18,23.81106377,-45.86712265,-9.344854355
1213,1.55965630312e+18,7.204372883,-8.35601902,1.383890867
1214,1.55965630317e+18,-3.189173937,-6.153286457,1.951334
1215,1.55965630322e+18,-1.204320192,-9.323306084,-1.237840056
1216,1.55965630327e+18,-5.698374271,0.5482889414,3.081431627
1217,1.55965630332e+18,-6.296942711,-0.2130904645,5.341627121
1218,1.55965630338e+18,-8.47812748,0.007182824425,4.788549423
1219,1.55965630343e+18,-6.876357079,3.337619066,8.403904915
1220,1.55965630348e+18,1.204320192,0.8332076073,11.55477047
1221,1.55965630353e+18,12.15812778,-1.295302629,9.636956215
1222,1.55965630358e+18,19.44390488,3.526766777,9.766246796
1223,1.55965630364e+18,14.0089016,5.672037125,7.201978683
1224,1.55965630369e+18,8.530800819,5.480494976,7.132544518
1225,1.55965630374e+18,9.179649353,4.187586784,6.768614769
1226,1.55965630379e+18,10.89873886,2.288926601,7.151699066
1227,1.55965630384e+18,10.2474966,1.237840056,6.390319347
1228,1.5596563039e+18,9.862017632,0.3519583941,6.071880817
1229,1.55965630395e+18,8.420664787,0.1628106833,4.589824677
1230,1.559656304e+18,8.114197731,0.1628106833,4.008016109
1231,1.55965630405e+18,7.788576126,0.7805336118,4.690384388
1232,1.5596563041e+18,7.020013809,1.814860344,5.042342663
1233,1.55965630416e+18,7.453377247,3.478881359,5.944984436
1234,1.55965630421e+18,6.474119186,3.378321648,6.93621397
1235,1.55965630426e+18,8.542772293,2.681587696,7.597033978
1236,1.55965630431e+18,6.711152077,1.766974807,5.475706577
1237,1.55965630436e+18,6.790163517,1.520364523,5.80851078
1238,1.55965630442e+18,6.342433929,2.712713242,4.340820312
1239,1.55965630447e+18,6.72551775,2.712713242,5.217124939
1240,1.55965630452e+18,7.750267506,4.302511692,4.369551659
1241,1.55965630457e+18,8.858817101,4.75024128,3.890696526
1242,1.55965630462e+18,7.522811413,4.769395351,2.621730804
1243,1.55965630468e+18,6.419050694,5.514014721,2.099778891
1244,1.55965630473e+18,5.609786034,3.014391899,2.916226625
1245,1.55965630478e+18,7.843644142,0.8116591573,3.280156374
1246,1.55965630483e+18,21.87648964,5.281770229,-8.054340363
1247,1.55965630488e+18,-0.7470137477,-11.36083412,-5.123748302
1248,1.55965630494e+18,69.52973938,-43.44172287,43.82241058
1249,1.55965630499e+18,5.899493217,4.369551659,5.997658253
1250,1.55965630504e+18,9.675264359,-3.950553417,11.1405611
1251,1.55965630509e+18,16.52528381,0.2921015322,10.22115898
1252,1.55965630514e+18,6.524398804,-0.4405465722,7.419857502
1253,1.5596563052e+18,5.444581032,-0.8571503758,6.742278099
1254,1.55965630525e+18,4.120546818,1.058269501,5.856396198
1255,1.5596563053e+18,0.7087053657,2.909043789,6.986494064
1256,1.55965630535e+18,-3.258608103,4.702355862,10.75268841
1257,1.5596563054e+18,-13.89876556,8.968953133,15.29223347
1258,1.55965630546e+18,-25.75281906,6.141314983,-6.208354473
1259,1.55965630551e+18,-13.84130287,-9.926663399,12.55078888
1260,1.55965630556e+18,18.40957832,-31.87737465,-5.502043724
1261,1.55965630561e+18,14.154953,0.5698373914,6.490879059
1262,1.55965630566e+18,1.795706153,-5.439792156,0.7925049663
1263,1.55965630572e+18,-2.166818619,-3.770982742,-1.285725594
1264,1.55965630577e+18,-2.43976593,2.01597929,3.529160976
1265,1.55965630582e+18,-2.959323645,1.130097747,5.162056446
1266,1.55965630587e+18,-3.632114887,4.678412914,4.010410309
1267,1.55965630592e+18,-2.367937803,6.646506786,6.598621368
1268,1.55965630598e+18,3.292127848,6.361588001,8.487704277
1269,1.55965630603e+18,12.5531826,4.563488007,7.36239481
1270,1.55965630608e+18,17.18849945,5.358386993,7.841249943
1271,1.55965630613e+18,15.44307232,6.996070862,7.453377247
1272,1.55965630618e+18,11.63617516,7.012830734,6.141314983
1273,1.55965630624e+18,10.38157558,4.484476566,6.943397045
1274,1.55965630629e+18,9.763853073,2.935380936,6.122160912
1275,1.55965630634e+18,9.86680603,1.245022893,6.050332546
1276,1.55965630639e+18,9.543579102,0.5722316504,5.825270653
1277,1.55965630644e+18,7.858009815,0.4668835998,4.302511692
1278,1.5596563065e+18,7.958569527,0.03830839694,4.189980984
1279,1.55965630655e+18,6.998465061,0.2921015322,3.905062199
1280,1.5596563066e+18,6.838048935,0.5602602959,4.034353256
1281,1.55965630665e+18,6.536370277,0.7446194887,4.654470444
1282,1.5596563067e+18,6.653689861,1.072635174,5.667248249
1283,1.55965630676e+18,7.479714394,1.422199249,5.535563469
1284,1.55965630681e+18,9.41907692,3.028757572,5.255433083
1285,1.55965630686e+18,9.984126091,4.446168423,3.869148016
1286,1.55965630691e+18,9.842864037,7.963357925,3.586623669
1287,1.55965630696e+18,9.534002304,8.47812748,2.525959969
1288,1.55965630702e+18,11.61462688,9.873989105,2.102173328
1289,1.55965630707e+18,12.62979984,5.480494976,1.86514008
1290,1.55965630712e+18,17.3584919,9.318517685,4.35039711
1291,1.55965630717e+18,22.00338554,12.3736124,6.182017326
1292,1.55965630722e+18,14.76070404,5.640911579,1.185166001
1293,1.55965630728e+18,13.19245434,4.331243038,-1.711906433
1294,1.55965630733e+18,-0.1149251908,-3.849993944,-9.783006668
1295,1.55965630738e+18,17.02329445,-17.70566177,-14.41114044
1296,1.55965630743e+18,2.260195494,-11.75349522,-6.158074856
1297,1.55965630748e+18,5.928224564,-15.14857674,23.96908569
1298,1.55965630754e+18,0.3519583941,-5.432609558,12.17249298
1299,1.55965630759e+18,-0.5411061049,-6.646506786,14.53085423
1300,1.55965630764e+18,-4.348002911,-5.150084972,17.44229126
1301,1.55965630769e+18,-3.498035431,-0.8619389534,16.59471893
1302,1.55965630774e+18,0.1101366431,2.751021862,14.74873257
1303,1.5596563078e+18,6.538764477,4.908263206,15.3975811
1304,1.55965630785e+18,-0.3759011328,6.328068256,9.873989105
1305,1.5596563079e+18,0.1580221355,3.232270956,9.35203743
1306,1.55965630795e+18,-3.651269197,2.722290516,5.995264053
1307,1.559656308e+18,-8.241093636,4.082238674,3.306493521
1308,1.55965630806e+18,-15.84291649,6.30173111,-2.281744003
1309,1.55965630811e+18,-7.113390446,5.145296574,3.205934048
1310,1.55965630816e+18,-2.942563772,-7.180429935,20.54527283
1311,1.55965630821e+18,14.4949398,-55.37239456,24.39287186
1312,1.55965630826e+18,2.851581335,8.691217422,2.063864946
1313,1.55965630832e+18,11.05676079,-13.42230415,3.984073162
1314,1.55965630837e+18,-3.088614464,-5.17163372,2.765387297
1315,1.55965630842e+18,-1.874717116,0.5889915824,3.660846233
1316,1.55965630847e+18,1.434170604,-3.471698523,9.237112045
1317,1.55965630852e+18,3.088614464,-4.635315895,10.10862827
1318,1.55965630858e+18,5.267404556,-6.244268894,10.63297462
1319,1.55965630863e+18,5.794145107,-6.179623127,9.196409225
1320,1.55965630868e+18,7.101418972,-6.656084061,7.925049782
1321,1.55965630873e+18,8.909096718,-5.779779434,8.408693314
1322,1.55965630878e+18,8.528407097,-4.616161823,7.597033978
1323,1.55965630884e+18,7.750267506,-5.061496735,7.309720993
1324,1.55965630889e+18,7.434223175,-5.166844845,6.395108223
1325,1.55965630894e+18,7.175641537,-6.031178474,5.085439682
1326,1.55965630899e+18,7.841249943,-5.276981831,4.417437077
1327,1.55965630904e+18,8.317710876,-5.109382629,4.616161823
1328,1.5596563091e+18,7.922655106,-4.867560863,4.355185986
1329,1.55965630915e+18,7.388731956,-4.532361984,5.430215359
1330,1.5596563092e+18,6.397502422,-3.730280161,5.545140266
1331,1.55965630925e+18,6.584255695,-3.201145411,6.311308384
1332,1.5596563093e+18,7.470137596,-2.217098475,8.439818382
1333,1.55965630936e+18,7.020013809,-2.109356165,8.334470749
1334,1.55965630941e+18,6.134131908,-2.286532402,7.101418972
1335,1.55965630946e+18,5.394300938,-2.475680113,6.646506786
1336,1.55965630951e+18,5.399089813,-2.114144564,5.497254848
1337,1.55965630956e+18,6.294548512,-2.023162127,5.152479172
1338,1.55965630962e+18,6.442993641,-3.423812866,5.645699978
1339,1.55965630967e+18,7.139727592,-2.877918243,4.714327335
1340,1.55965630972e+18,5.882733345,-1.482056141,3.419024467
1341,1.55965630977e+18,5.071074009,-2.861158371,3.158048391
1342,1.55965630982e+18,8.245882034,-4.685595989,4.60179615
1343,1.55965630988e+18,10.11820507,-7.453377247,7.731113434
1344,1.55965630993e+18,8.296162605,-5.291347504,8.212362289
1345,1.55965630998e+18,11.71518707,2.291321039,14.28663731
1346,1.55965631003e+18,9.584281921,-2.094990492,10.45100975
1347,1.55965631008e+18,4.271386147,-3.87872529,8.047157288
1348,1.55965631014e+18,3.960130453,-7.280989647,0.5099805593
1349,1.55965631019e+18,-4.340820312,-13.67370319,-15.28026199
1350,1.55965631024e+18,15.60827732,-6.474119186,-13.31695652
1351,1.55965631029e+18,13.02964306,9.438231468,22.74561119
1352,1.55965631034e+18,24.19414711,12.08629894,-1.755003452
1353,1.5596563104e+18,9.545973778,10.99690437,2.813272953
1354,1.55965631045e+18,12.08390522,9.998491287,7.063110828
1355,1.5596563105e+18,6.081458092,9.955394745,-2.432583094
1356,1.55965631055e+18,1.891477108,10.23552513,3.205934048
1357,1.5596563106e+18,3.447755814,12.92908382,1.956122518
1358,1.55965631066e+18,0.5219519138,15.62264347,8.18602562
1359,1.55965631071e+18,-11.39195919,25.1925602,12.70641613
1360,1.55965631076e+18,-14.49733353,2.303292274,8.025609016
1361,1.55965631081e+18,3.56268096,-16.58514214,23.22925377
1362,1.55965631086e+18,17.41834831,-58.8512764,8.58108139
1363,1.55965631092e+18,-4.168432236,4.513207912,1.678386688
1364,1.55965631097e+18,7.252258301,-12.18446445,1.094183564
1365,1.55965631102e+18,-10.07271385,-2.842004299,-2.360754967
1366,1.55965631107e+18,-3.768588543,0.7182824612,-1.022355318
1367,1.55965631112e+18,-3.0119977,-2.743839025,1.905842781
1368,1.55965631118e+18,-2.894678354,-1.515576005,5.006428719
1369,1.55965631123e+18,-1.345582485,-2.731867552,11.99292278
1370,1.55965631128e+18,1.221080184,-3.785348415,9.751881599
1371,1.55965631133e+18,9.035993576,-6.457359314,13.46540165
1372,1.55965631138e+18,16.38641739,-5.140508175,11.69603252
1373,1.55965631144e+18,20.29387283,0.5722316504,14.22438622
1374,1.55965631149e+18,13.54920101,2.612153769,9.708784103
1375,1.55965631154e+18,8.63375473,2.298503876,6.222720146
1376,1.55965631159e+18,10.10862827,-0.7206767201,5.317684174
1377,1.55965631164e+18,10.75987053,-2.159635782,5.423032284
1378,1.5596563117e+18,12.48374844,-3.952947617,5.456552505
1379,1.55965631175e+18,9.90750885,-3.426207304,4.00562191
1380,1.5596563118e+18,8.523618698,-3.052700281,5.200365067
1381,1.55965631185e+18,7.913078308,-2.597788095,4.000833035
1382,1.5596563119e+18,7.36239481,-2.717501879,4.479688168
1383,1.55965631196e+18,6.584255695,-1.587404251,3.198751211
1384,1.55965631201e+18,6.897905827,-1.137280583,4.640104771
1385,1.55965631206e+18,6.974522591,1.513181686,5.633728504
1386,1.55965631211e+18,7.175641537,3.500429869,8.518829346
1387,1.55965631216e+18,9.249083519,3.699154615,11.09985828
1388,1.55965631222e+18,11.05915546,4.570670605,9.119792938
1389,1.55965631227e+18,9.897932053,4.687990189,9.167677879
1390,1.55965631232e+18,9.596253395,5.291347504,8.006455421
1391,1.55965631237e+18,8.224333763,6.150891781,5.971321583
1392,1.55965631242e+18,5.66485405,7.178035736,4.697566986
1393,1.55965631248e+18,5.138113976,7.247469902,4.300117493
1394,1.55965631253e+18,1.692752242,5.365570068,1.841197371
1395,1.55965631258e+18,1.137280583,2.712713242,3.13889432
1396,1.55965631263e+18,-0.632088542,0.05506832153,0.629694283
1397,1.55965631268e+18,4.800520897,-6.500456333,0.8595446348
1398,1.55965631274e+18,9.488511086,-11.27703476,-4.517996788
1399,1.55965631279e+18,-7.846038342,-18.24916267,42.74259567
1400,1.55965631284e+18,-10.95141315,23.34657288,6.284971237
1401,1.55965631289e+18,-10.33129597,15.51250648,14.52367115
1402,1.55965631294e+18,-12.01925945,13.47737312,12.45022869
1403,1.559656313e+18,-10.69043732,14.60986519,14.00650787
1404,1.55965631305e+18,-14.57634544,15.84291649,11.71518707
1405,1.5596563131e+18,-25.67141533,17.19089317,6.177228928
1406,1.55965631315e+18,-12.60346222,2.442160368,11.60744381
1407,1.5596563132e+18,1.503604531,-13.32174492,20.49978065
1408,1.55965631326e+18,10.39115238,-24.6299057,-1.745426297
1409,1.55965631331e+18,9.122186661,2.492439985,1.307274103
1410,1.55965631336e+18,0.651242733,-4.2426548,0.4788549542
1411,1.55965631341e+18,-4.297723293,-1.407833576,-3.20353961
1412,1.55965631346e+18,-1.053480864,3.306493521,1.063058019
1413,1.55965631352e+18,-1.793311834,-2.851581335,1.881899953
1414,1.55965631357e+18,-1.144463301,-3.421418667,2.315263748
1415,1.55965631362e+18,1.180377483,-4.453351021,5.056708336
1416,1.55965631367e+18,7.594639778,-5.609786034,10.29777622
1417,1.55965631372e+18,21.6394558,-12.83810139,11.54998207
1418,1.55965631377e+18,19.95627975,-6.9122715,11.73912907
1419,1.55965631383e+18,13.84369659,-3.955342054,10.42946148
1420,1.55965631388e+18,11.66969585,-1.527547359,9.744698524
1421,1.55965631393e+18,11.42787361,-1.61134696,8.710371971
1422,1.55965631398e+18,10.54199219,-3.186779737,6.76622057
1423,1.55965631403e+18,10.15890789,-4.333637238,4.745452881
1424,1.55965631409e+18,9.335277557,-6.026389599,5.990475655
1425,1.55965631414e+18,10.51804924,-6.488484859,5.17163372
1426,1.55965631419e+18,8.241093636,-5.499649048,5.032765865
1427,1.55965631424e+18,9.292180061,-4.575459003,5.849213123
1428,1.55965631429e+18,8.526012421,-2.18357873,5.202759266
1429,1.55965631435e+18,9.016839027,0.3447755575,6.12694931
1430,1.5596563144e+18,8.202785492,2.621730804,5.961744308
1431,1.55965631445e+18,10.73832226,3.64648056,5.413455486
1432,1.5596563145e+18,10.61382008,8.734314919,4.122941017
1433,1.55965631455e+18,8.645726204,7.419857502,0.8427847624
1434,1.55965631461e+18,8.384750366,7.920260906,-0.07182824612
1435,1.55965631466e+18,5.669642925,9.545973778,-1.75979197
1436,1.55965631471e+18,7.592245579,7.388731956,-6.735095024
1437,1.55965631476e+18,4.812492371,-1.266571403,-4.865166187
1438,1.55965631481e+18,1.948939681,-7.747873306,-9.883566856
1439,1.55965631487e+18,5.648094177,-11.6553297,-11.78940868
1440,1.55965631492e+18,4.846012115,-15.93868732,-17.87804985
1441,1.55965631497e+18,-2.511594296,-25.48705482,14.56437397
1442,1.55965631502e+18,24.34019852,-12.11024189,14.08312416
1443,1.55965631507e+18,16.14459419,-13.14935684,2.916226625
1444,1.55965631513e+18,23.48783493,-13.62102985,2.399063349
1445,1.55965631518e+18,22.3290062,-6.86917448,-0.1628106833
1446,1.55965631523e+18,13.53722954,-11.17886925,-0.3591412306
1447,1.55965631528e+18,18.12226677,-9.095849991,0.8260248303
1448,1.55965631533e+18,14.78704166,-3.397475958,-5.715134144
1449,1.55965631539e+18,11.62659836,0.05985686928,-2.279349566
1450,1.55965631544e+18,6.466936111,4.094210148,-0.7996878028
1451,1.55965631549e+18,6.749460697,4.125335693,1.757397652
1452,1.55965631554e+18,-0.1795706153,-1.948939681,4.676018715
1453,1.55965631559e+18,-5.631334305,6.577073097,12.13418484
1454,1.55965631565e+18,-23.01376915,22.81025696,0.646454215
1455,1.5596563157e+18,-16.47021675,5.997658253,-0.8978530765
1456,1.55965631575e+18,5.650488377,-11.37998772,23.22207069
1457,1.5596563158e+18,9.69681263,-35.2509079,11.45421028
1458,1.55965631585e+18,6.057515144,7.182824612,3.0957973
1459,1.55965631591e+18,4.472505569,-11.86363125,2.803695917
1460,1.55965631596e+18,-2.054287672,-1.788523316,-0.06703969836
1461,1.55965631601e+18,-0.945738554,1.12291491,1.237840056
1462,1.55965631606e+18,-1.199531674,-0.2513988614,0.4860377908
1463,1.55965631611e+18,1.857957244,0.964892745,3.557892323
1464,1.55965631617e+18,8.533195496,2.56666255,2.614548206
1465,1.55965631622e+18,19.54685974,-0.03591412306,5.310501575
1466,1.55965631627e+18,19.62586975,2.343995094,6.861991405
1467,1.55965631632e+18,17.00653458,2.219492674,8.456578255
1468,1.55965631637e+18,17.85889626,3.744645834,8.121379852
1469,1.55965631643e+18,14.05918121,4.240260601,8.231516838
1470,1.55965631648e+18,10.77902508,2.296109438,6.814105988
1471,1.55965631653e+18,10.01046276,0.5051919818,5.684008598
1472,1.55965631658e+18,10.21397591,-0.7829278708,5.341627121
1473,1.55965631663e+18,9.735121727,-0.8188419938,4.767001152
1474,1.55965631669e+18,8.279402733,-0.6153286099,5.789356709
1475,1.55965631674e+18,7.944203854,-0.2011190802,6.426233768
1476,1.55965631679e+18,9.574705124,-0.8020820618,9.399923325
1477,1.55965631684e+18,9.17725563,-0.07901106775,9.141341209
1478,1.55965631689e+18,8.286584854,0.6009629965,10.07271385
1479,1.55965631695e+18,9.000079155,0.6799740195,10.29059315
1480,1.559656317e+18,7.446194649,1.407833576,7.762238979
1481,1.55965631705e+18,7.142121792,2.815667152,8.875576973
1482,1.5596563171e+18,5.523591995,4.941783428,6.601015568
1483,1.55965631715e+18,4.745452881,7.659285069,5.535563469
1484,1.55965631721e+18,4.139701366,6.859597206,4.362368584
1485,1.55965631726e+18,0.5195576549,6.392713547,3.091008663
1486,1.55965631731e+18,0.002394274808,3.043123245,3.038334846
1487,1.55965631736e+18,-1.992036581,-0.7182824612,-2.243435383
1488,1.55965631741e+18,-1.08221221,-5.542746067,-1.874717116
1489,1.55965631747e+18,5.772596359,-13.46779537,-8.753468513
1490,1.55965631752e+18,19.19490051,-8.631361008,-26.92840958
1491,1.55965631757e+18,3.488458395,30.62277412,23.11193466
1492,1.55965631762e+18,18.49577332,19.39123154,2.130904675
1493,1.55965631767e+18,4.568276405,26.10238457,3.129317284
1494,1.55965631773e+18,2.253012657,23.81824493,5.205153465
1495,1.55965631778e+18,-2.205127001,19.43911743,3.672817469
1496,1.55965631783e+18,-6.823683262,12.19164753,2.478074312
1497,1.55965631788e+18,-4.017592907,12.89556408,2.592999697
1498,1.55965631793e+18,-5.150084972,4.726298332,5.499649048
1499,1.55965631799e+18,0.8715160489,-8.116591454,15.97460175
1500,1.55965631804e+18,27.39050293,-64.91596985,-5.837242126
1501,1.55965631809e+18,-4.498842239,6.205960274,3.22269392
1502,1.55965631814e+18,10.43424988,-11.28661156,4.556304932
1503,1.55965631819e+18,-0.5746259689,-6.76382637,8.193208694
1504,1.55965631825e+18,-10.47734642,-6.143709183,1.529941559
1505,1.5596563183e+18,-3.694365978,-5.243461609,3.514795303
1506,1.55965631835e+18,-0.9194015265,-5.700768471,2.664827824
1507,1.5596563184e+18,-0.1556278616,-6.213143349,3.059883118
1508,1.55965631845e+18,-1.664021015,-7.498868465,3.160442829
1509,1.55965631851e+18,-1.264177084,-10.28341007,5.873156071
1510,1.55965631856e+18,1.149251938,-12.89556408,6.44538784
1511,1.55965631861e+18,8.930644989,-16.38641739,5.150084972
1512,1.55965631866e+18,18.65858269,-13.56596088,3.445361376
1513,1.55965631871e+18,16.14459419,-6.529187202,5.631334305
1514,1.55965631877e+18,8.358413696,-4.369551659,1.711906433
1515,1.55965631882e+18,9.359220505,-3.682394743,1.860351562
1516,1.55965631887e+18,10.51804924,-3.593806505,1.721483588
1517,1.55965631892e+18,10.44861507,-4.491659641,1.563461423
1518,1.55965631897e+18,11.57631874,-5.478100777,2.320052385
1519,1.55965631903e+18,10.57790565,-7.058321953,2.741444588
1520,1.55965631908e+18,9.658504486,-6.684815407,1.678386688
1521,1.55965631913e+18,9.52203083,-7.132544518,2.298503876
1522,1.55965631918e+18,8.672063828,-6.627352715,1.103760719
1523,1.55965631923e+18,8.626572609,-5.91625309,2.006402254
1524,1.55965631929e+18,8.549955368,-4.427014351,2.770175934
1525,1.55965631934e+18,8.358413696,-3.387898922,2.468497276
1526,1.55965631939e+18,10.40312386,-2.075836182,3.818868399
1527,1.55965631944e+18,8.724737167,-0.5123748183,4.644893169
1528,1.55965631949e+18,8.791776657,0.09577099234,3.656057596
1529,1.55965631955e+18,8.834874153,-0.3184385598,3.545921087
1530,1.5596563196e+18,7.510839939,-0.007182824425,2.736656189
1531,1.55965631965e+18,6.555524349,0.09337671846,1.642472506
1532,1.5596563197e+18,6.809317589,0.9098244309,1.711906433
1533,1.55965631975e+18,7.405491829,1.982459545,1.517970204
1534,1.55965631981e+18,7.886741161,2.456526041,3.20353961
1535,1.55965631986e+18,9.301757812,2.995237827,4.92023468
1536,1.55965631991e+18,12.78542709,4.683201313,7.513234138
1537,1.55965631996e+18,14.09749031,8.324893951,10.73114014
1538,1.55965632001e+18,14.96421719,15.10548019,13.2858305
1539,1.55965632007e+18,21.33777618,15.56996918,3.557892323
1540,1.55965632012e+18,9.462174416,8.858817101,-5.360781193
1541,1.55965632017e+18,2.818061352,-9.500482559,-5.899493217
1542,1.55965632022e+18,1.326428294,-16.81259727,-11.79659176
1543,1.55965632027e+18,10.07271385,-12.82612991,-3.43578434
1544,1.55965632032e+18,27.00981331,-4.541939259,16.09192085
1545,1.55965632038e+18,-2.660039425,-7.491685867,2.478074312
1546,1.55965632043e+18,-9.253871918,-0.5794144869,8.286584854
1547,1.55965632048e+18,-5.844424725,-2.18357873,13.23555088
1548,1.55965632053e+18,-7.723930359,0.9936240315,13.34568787
1549,1.55965632058e+18,-2.789330244,1.9944309,15.7902422
1550,1.55965632064e+18,0.4285751879,2.492439985,15.83812809
1551,1.55965632069e+18,-0.462095052,0.5339232683,15.97460175
1552,1.55965632074e+18,-0.1149251908,2.636096478,14.80380154
1553,1.55965632079e+18,-4.417437077,3.909850836,12.31614971
1554,1.55965632084e+18,-17.77270126,8.770228386,8.025609016
1555,1.5596563209e+18,-32.14792633,0.0,-19.22842026
1556,1.55965632095e+18,1.417410731,-14.06875896,9.17725563
1557,1.559656321e+18,12.71599388,-35.96918869,-2.813272953
1558,1.55965632105e+18,16.21402931,5.968926907,5.083045483
1559,1.5596563211e+18,-0.4381522834,-18.48619652,2.097384691
1560,1.55965632116e+18,-2.90425539,-4.470110893,1.963305354
1561,1.55965632121e+18,-5.02797699,-2.770175934,1.149251938
1562,1.55965632126e+18,-8.035185814,-1.522758722,5.370358467
1563,1.55965632131e+18,-5.298530102,0.5530774593,6.538764477
1564,1.55965632136e+18,12.02165413,-4.462928295,12.04559612
1565,1.55965632142e+18,20.67935181,-3.387898922,6.888328552
1566,1.55965632147e+18,21.01454926,2.102173328,5.449369431
1567,1.55965632152e+18,15.50771809,5.487678051,6.826077461
1568,1.55965632157e+18,11.74391747,5.19797039,7.482108593
1569,1.55965632162e+18,9.428654671,3.234665155,5.1333251
1570,1.55965632168e+18,11.13337803,0.05267404765,6.000052452
1571,1.55965632173e+18,13.21400261,-2.310475111,5.798933506
1572,1.55965632178e+18,11.60265541,-3.459727049,5.106987953
1573,1.55965632183e+18,8.358413696,-3.150865555,3.316070557
1574,1.55965632188e+18,6.749460697,-2.004008055,1.82443738
1575,1.55965632194e+18,8.18602562,-1.604164124,1.261782765
1576,1.55965632199e+18,7.968146324,-1.422199249,1.252205729
1577,1.55965632204e+18,8.583475113,-1.034326673,0.2394274771
1578,1.55965632209e+18,8.3153162,-1.551490068,0.945738554
1579,1.55965632214e+18,9.720755577,-1.106154919,1.891477108
1580,1.5596563222e+18,9.529213905,-1.31445682,2.540325642
1581,1.55965632225e+18,12.38079548,-2.109356165,3.780560017
1582,1.5596563223e+18,10.72635078,-1.867534399,3.196356773
1583,1.55965632235e+18,10.05356026,-1.594586968,2.473285913
1584,1.5596563224e+18,12.3831892,0.9098244309,1.644866824
1585,1.55965632246e+18,14.07594204,5.291347504,2.90664959
1586,1.55965632251e+18,14.95464039,5.930618763,3.708731651
1587,1.55965632256e+18,16.1254406,3.356773376,6.172440529
1588,1.55965632261e+18,15.05519962,4.77418375,8.202785492
1589,1.55965632266e+18,13.51807594,4.489265442,2.69116497
1590,1.55965632272e+18,5.461340904,6.802134514,-5.336838722
1591,1.55965632277e+18,-6.9122715,-6.974522591,-9.64413929
1592,1.55965632282e+18,-4.213923454,-11.23393726,-10.60424328
1593,1.55965632287e+18,13.43906403,-10.81254482,-3.289733648
1594,1.55965632292e+18,51.45775604,-44.37548828,61.23357773
1595,1.55965632298e+18,11.42308521,30.36898232,14.5476141
1596,1.55965632303e+18,18.57478333,6.579467297,21.464674
1597,1.55965632308e+18,1.29290843,2.130904675,15.42152405
1598,1.55965632313e+18,1.426987767,2.899466753,11.57871342
1599,1.55965632318e+18,4.872349262,4.240260601,8.839662552
1600,1.55965632324e+18,4.89629221,3.059883118,4.381523132
1601,1.55965632329e+18,1.156434774,5.166844845,10.59945488
1602,1.55965632334e+18,-0.6632141471,7.709564686,7.676044941
1603,1.55965632339e+18,-6.541158676,9.126976013,9.268238068
1604,1.55965632344e+18,-13.85327435,10.94901848,8.166871071
1605,1.5596563235e+18,-39.04822922,2.020767927,-3.895485163
1606,1.55965632355e+18,-3.543526649,0.1867534369,12.11024189
1607,1.5596563236e+18,26.11196136,-31.27641106,25.95393944
1608,1.55965632365e+18,12.19164753,-8.138139725,2.947352171
1609,1.5596563237e+18,0.09098244458,-11.36562252,-3.047911882
1610,1.55965632376e+18,-9.129369736,3.402264595,-6.232297421
1611,1.55965632381e+18,-5.961744308,-0.634482801,-0.8116591573
1612,1.55965632386e+18,-5.602602959,-5.315289974,2.437371731
1613,1.55965632391e+18,-4.599401951,-3.979284763,3.876330853
1614,1.55965632396e+18,-4.683201313,-2.250618219,4.977697372
1615,1.55965632402e+18,-2.810878515,-1.024749637,9.39274025
1616,1.55965632407e+18,1.58979845,-3.091008663,11.17886925
1617,1.55965632412e+18,11.03521252,-4.386311531,9.864412308
1618,1.55965632417e+18,19.61629295,-3.507612705,7.314509392
1619,1.55965632422e+18,16.82696342,2.209915638,4.364762783
1620,1.55965632428e+18,16.04164124,6.079063892,5.006428719
1621,1.55965632433e+18,14.53564262,2.928198099,5.358386993
1622,1.55965632438e+18,10.15651417,0.9146129489,3.96731329
1623,1.55965632443e+18,9.945817947,-1.115732074,5.102199554
1624,1.55965632448e+18,12.07193375,-2.490045786,4.213923454
1625,1.55965632454e+18,11.24830341,-2.69116497,4.697566986
1626,1.55965632459e+18,10.83648777,-2.602576733,4.415042877
1627,1.55965632464e+18,9.488511086,-2.837215662,2.645673752
1628,1.55965632469e+18,8.001666069,-3.196356773,4.091815472
1629,1.55965632474e+18,7.472531796,-2.564268351,2.69355917
1630,1.5596563248e+18,6.876357079,-1.324033976,2.90425539
1631,1.55965632485e+18,6.383136749,0.3687183261,4.11097002
1632,1.5596563249e+18,5.569083214,0.9744698405,6.294548512
1633,1.55965632495e+18,6.864386082,4.60179615,8.56671524
1634,1.559656325e+18,10.6449461,9.67047596,7.774210453
1635,1.55965632506e+18,11.49730778,11.4949131,6.143709183
1636,1.55965632511e+18,4.161249638,6.442993641,0.8906702399
1637,1.55965632516e+18,-4.565882206,2.238646984,-0.1891477108
1638,1.55965632521e+18,-7.841249943,-2.619336605,-2.657644987
1639,1.55965632526e+18,-6.112583637,-18.93871307,-3.122134447
1640,1.55965632532e+18,8.851634026,-28.7169323,-14.05199909
1641,1.55965632537e+18,2.535537004,-74.5313797,76.48750305
1642,1.55965632542e+18,36.27326202,8.322499275,-12.38079548
1643,1.55965632547e+18,14.3297348,11.25548553,-6.249057293
1644,1.55965632552e+18,23.13827133,2.612153769,2.080624819
1645,1.55965632558e+18,31.96596336,-1.434170604,-5.224307537
1646,1.55965632563e+18,23.88768005,-8.068706512,-4.946571827
1647,1.55965632568e+18,23.34896851,-6.016812801,-5.166844845
1648,1.55965632573e+18,17.64580536,-4.118152618,-3.830839634
1649,1.55965632578e+18,9.783006668,-7.166064739,-0.44533512
1650,1.55965632584e+18,11.18605232,-0.6727912426,1.228263021
1651,1.55965632589e+18,3.526766777,3.634509087,0.1005595401
1652,1.55965632594e+18,-2.384697676,5.147690773,4.999245644
1653,1.55965632599e+18,-23.13108826,11.40153694,-1.766974807
1654,1.55965632604e+18,-19.21644974,8.686429024,-9.86680603
1655,1.5596563261e+18,3.545921087,-7.874769688,23.30587006
1656,1.55965632615e+18,27.92442703,-43.53749466,3.969707727
1657,1.5596563262e+18,-8.818114281,-3.131711483,-1.194743156
1658,1.55965632625e+18,3.802108288,-5.413455486,-3.766194344
1659,1.5596563263e+18,-2.336812258,1.90823698,4.192375183
1660,1.55965632636e+18,-6.656084061,3.208328247,-1.101366401
1661,1.55965632641e+18,-5.324867249,-3.591412306,1.369525194
1662,1.55965632646e+18,-1.699935079,-3.929004908,2.401457548
1663,1.55965632651e+18,1.805283189,-6.972128391,4.522785187
1664,1.55965632656e+18,4.649681568,-6.517216206,8.705583572
1665,1.55965632662e+18,6.950579643,-5.583448887,9.332882881
1666,1.55965632667e+18,14.70563602,-6.780586243,8.530800819
1667,1.55965632672e+18,18.79745102,-4.082238674,5.985687256
1668,1.55965632677e+18,19.2523632,0.1532335877,5.023188591
1669,1.55965632682e+18,16.27627945,2.243435383,4.182797909
1670,1.55965632688e+18,16.81738663,4.309694767,5.925830364
1671,1.55965632693e+18,13.80060005,6.237085819,5.432609558
1672,1.55965632698e+18,11.66730118,2.947352171,5.114171028
1673,1.55965632703e+18,12.05038548,-0.3759011328,4.632921696
1674,1.55965632708e+18,11.41111374,-2.123721838,5.166844845
1675,1.55965632714e+18,11.45181656,-2.063864946,3.921822071
1676,1.55965632719e+18,10.39354706,-2.727078915,4.719115734
1677,1.55965632724e+18,10.15890789,-1.213897347,2.856369734
1678,1.55965632729e+18,8.114197731,-1.793311834,3.416630268
1679,1.55965632734e+18,9.555550575,0.03830839694,3.75422287
1680,1.5596563274e+18,10.47734642,3.979284763,6.926637173
1681,1.55965632745e+18,12.96260357,6.979310989,9.354432106
1682,1.5596563275e+18,13.19724274,6.416656494,7.010436535
1683,1.55965632755e+18,11.07831001,3.66802907,2.808484316
1684,1.5596563276e+18,6.727912426,2.403851986,1.695146561
1685,1.55965632766e+18,2.581028223,1.860351562,-0.8164477348
1686,1.55965632771e+18,-0.1340793967,2.399063349,-1.465296149
1687,1.55965632776e+18,-0.3639297783,2.889889717,-3.263396502
1688,1.55965632781e+18,0.9002473354,1.558672905,-5.636122704
1689,1.55965632786e+18,5.099805355,-4.233078003,-5.715134144
1690,1.55965632792e+18,15.92671585,-12.4262867,-8.667274475
1691,1.55965632797e+18,20.12388039,-9.790189743,16.68091202
1692,1.55965632802e+18,8.736708641,18.44070435,13.48216152
1693,1.55965632807e+18,18.222826,10.54438591,21.7663517
1694,1.55965632812e+18,16.19008636,9.964971542,17.98339844
1695,1.55965632818e+18,8.126168251,3.014391899,11.84687138
1696,1.55965632823e+18,3.100585938,4.558699131,15.34011841
1697,1.55965632828e+18,-0.5674431324,6.612987041,12.67529106
1698,1.55965632833e+18,-5.470917702,15.71123123,13.84369659
1699,1.55965632838e+18,-22.26675606,12.96978664,-0.1460507661
1700,1.55965632844e+18,-8.255459785,-3.579440832,16.19487572
1701,1.55965632849e+18,13.39357281,-23.87092018,5.473312378
1702,1.55965632854e+18,12.6058569,-10.67607117,8.154899597
1703,1.55965632859e+18,-3.809291124,-5.150084972,-2.842004299
1704,1.55965632864e+18,3.605777979,-6.12934351,-0.9816526771
1705,1.5596563287e+18,-1.798100352,-1.498816013,4.091815472
1706,1.55965632875e+18,-3.957736254,1.88668859,5.80851078
1707,1.5596563288e+18,-5.70555687,5.382329941,3.656057596
1708,1.55965632885e+18,-4.043930054,6.603409767,6.296942711
1709,1.5596563289e+18,4.268991947,5.269798756,5.164450645
1710,1.55965632896e+18,19.72164154,0.7518022656,6.071880817
1711,1.55965632901e+18,21.54129028,5.933012962,3.823656797
1712,1.55965632906e+18,14.14776993,7.125361919,5.102199554
1713,1.55965632911e+18,12.58909702,5.880339146,5.236279011
1714,1.55965632916e+18,10.78860188,4.101392746,3.792531252
1715,1.55965632922e+18,9.921875,2.801301479,4.166038036
1716,1.55965632927e+18,10.07989693,1.750214934,3.869148016
1717,1.55965632932e+18,10.40073013,0.928978622,3.205934048
1718,1.55965632937e+18,10.40312386,-0.1436564922,2.913832426
1719,1.55965632942e+18,9.330489159,-0.2370332032,3.160442829
1720,1.55965632948e+18,8.583475113,0.3447755575,3.126922846
1721,1.55965632953e+18,8.073494911,0.7087053657,4.881926537
1722,1.55965632958e+18,8.640937805,2.1213274,6.756643295
1723,1.55965632963e+18,10.03919411,2.786935806,7.879558563
1724,1.55965632968e+18,7.027196407,2.949746609,6.967339516
1725,1.55965632974e+18,10.44622135,4.187586784,8.78219986
1726,1.55965632979e+18,9.605830193,5.475706577,5.348809719
1727,1.55965632984e+18,9.756669998,5.772596359,6.165257454
1728,1.55965632989e+18,9.294574738,6.962551117,6.294548512
1729,1.55965632994e+18,7.982511997,6.668055534,2.873129845
1730,1.55965633e+18,4.666441441,6.30173111,-1.37910223
1731,1.55965633005e+18,-0.8379961848,4.553910732,-3.026363373
1732,1.5596563301e+18,-0.962498486,-1.319245458,-2.631308079
1733,1.55965633015e+18,6.174834728,-9.182044029,-7.879558563
1734,1.5596563302e+18,16.4845829,-14.98097706,-11.41111374
1735,1.55965633025e+18,15.02167988,-33.12000275,22.59955978
1736,1.55965633031e+18,-0.29689008,21.63227272,7.410280704
1737,1.55965633036e+18,24.69694519,-0.2011190802,21.40960503
1738,1.55965633041e+18,15.7710886,3.442967176,17.39919472
1739,1.55965633046e+18,11.92588329,2.296109438,17.93072319
1740,1.55965633051e+18,5.753442287,2.023162127,14.90675449
1741,1.55965633057e+18,7.89152956,3.380716085,11.05436707
1742,1.55965633062e+18,4.977697372,6.064698219,10.4366436
1743,1.55965633067e+18,0.8834874034,8.628966331,11.03281784
1744,1.55965633072e+18,-9.584281921,13.88679409,11.76307201
1745,1.55965633077e+18,-25.57803726,4.75024128,-0.167599231
1746,1.55965633083e+18,-0.3256213665,-13.17808819,21.27791977
1747,1.55965633088e+18,26.63151932,-45.5319252,11.45181656
1748,1.55965633093e+18,9.268238068,-0.2513988614,-7.568302631
1749,1.55965633098e+18,-3.047911882,-9.411893845,-0.668002665
1750,1.55965633103e+18,-2.14048171,-2.942563772,-0.4884320498
1751,1.55965633109e+18,-3.52197814,1.582615614,2.425400496
1752,1.55965633114e+18,-5.758230686,1.635289669,3.112557173
1753,1.55965633119e+18,-3.028757572,3.924216509,8.07828331
1754,1.55965633124e+18,0.4956148863,3.847599506,12.28981304
1755,1.55965633129e+18,8.585869789,1.704723716,11.36083412
1756,1.55965633135e+18,16.98259163,3.287339211,12.35445786
1757,1.5596563314e+18,13.49892139,5.600208759,10.56354046
1758,1.55965633145e+18,9.864412308,7.2546525,11.51646137
1759,1.5596563315e+18,6.854808807,4.134912491,8.107014656
1760,1.55965633155e+18,9.00726223,3.483669758,6.347222328
1761,1.55965633161e+18,9.10063839,1.563461423,6.608198643
1762,1.55965633166e+18,11.57871342,-1.046298146,8.511647224
1763,1.55965633171e+18,8.985713005,-1.795706153,6.395108223
1764,1.55965633176e+18,6.76622057,-1.685569525,5.399089813
1765,1.55965633181e+18,7.091842175,-1.913025618,5.150084972
1766,1.55965633187e+18,6.38074255,-1.249811411,3.917033672
1767,1.55965633192e+18,6.241874218,0.4716721475,2.980872154
1768,1.55965633197e+18,7.271412373,0.3854782581,4.70953846
1769,1.55965633202e+18,7.269018173,1.079817891,4.206740856
1770,1.55965633207e+18,9.232323647,0.2585816681,5.293741703
1771,1.55965633213e+18,13.05358601,2.406246185,6.895511627
1772,1.55965633218e+18,12.58191395,5.305713177,5.818087578
1773,1.55965633223e+18,12.99612331,3.768588543,7.058321953
1774,1.55965633228e+18,9.122186661,2.50201726,4.783761024
1775,1.55965633233e+18,7.470137596,3.129317284,5.832453251
1776,1.55965633239e+18,9.950606346,4.551516533,4.874743462
1777,1.55965633244e+18,5.140508175,4.38870573,-0.6847625971
1778,1.55965633249e+18,6.143709183,1.702329397,-1.218685865
1779,1.55965633254e+18,1.261782765,-1.884294271,2.126116037
1780,1.55965633259e+18,7.778998852,-7.292961121,-5.798933506
1781,1.55965633265e+18,12.86204433,-4.142095566,-9.184437752
1782,1.5596563327e+18,-1.565855742,13.1110487,4.185192585
1783,1.55965633275e+18,2.930592299,11.57871342,3.962524891
1784,1.5596563328e+18,13.02006626,10.07510853,10.78141975
1785,1.55965633285e+18,-7.060716629,-5.121353626,8.583475113
1786,1.55965633291e+18,1.448536277,14.81098366,-15.08871937
1787,1.55965633296e+18,18.45267677,-0.6249057055,-31.13036156
1788,1.55965633301e+18,17.38004112,-20.11430359,-9.794978142
1789,1.55965633306e+18,26.81827164,-11.63617516,0.950527072
1790,1.55965633311e+18,18.98181152,0.7134938836,0.8427847624
1791,1.55965633317e+18,21.49340439,2.808484316,0.5195576549
1792,1.55965633322e+18,-8.107014656,-14.3297348,0.5554717779
1793,1.55965633327e+18,8.595446587,5.255433083,6.610592842
1794,1.55965633332e+18,4.051113129,9.241900444,11.54998207
1795,1.55965633337e+18,-2.35596633,11.25788021,17.74875832
1796,1.55965633343e+18,-15.75193405,9.150918007,4.89629221
1797,1.55965633348e+18,-3.909850836,-13.80299473,5.090228081
1798,1.55965633353e+18,24.38089943,-38.67950821,0.5075862408
1799,1.55965633358e+18,14.73915577,-2.157241583,-5.035160065
1800,1.55965633363e+18,5.202759266,-14.64338493,1.587404251
1801,1.55965633369e+18,-2.583422422,-7.539571285,-0.4094209969
1802,1.55965633374e+18,-3.64887476,0.2466102988,2.078230619
1803,1.55965633379e+18,-4.613767624,-0.5339232683,4.029564381
1804,1.55965633384e+18,-3.208328247,-0.2011190802,7.18761301
1805,1.55965633389e+18,1.189954638,1.075029373,10.40073013
1806,1.55965633395e+18,10.11820507,-1.812466025,8.514040947
1807,1.559656334e+18,16.46782303,-0.9313728809,10.17327404
1808,1.55965633405e+18,15.24913597,0.7206767201,8.772623062
1809,1.5596563341e+18,14.42311192,2.341600657,7.257047176
1810,1.55965633415e+18,12.32093811,4.029564381,6.399896622
1811,1.55965633421e+18,11.39435387,3.581835032,5.98089838
1812,1.55965633426e+18,11.44702816,1.848380208,5.763019562
1813,1.55965633431e+18,9.627379417,0.8212362528,4.56109333
1814,1.55965633436e+18,8.58108139,0.04070267081,4.28335762
1815,1.55965633441e+18,10.67367744,-0.8068706393,4.726298332
1816,1.55965633447e+18,9.162889481,-1.608952641,5.588237286
1817,1.55965633452e+18,8.10461998,-1.08221221,5.020794392
1818,1.55965633457e+18,8.595446587,-0.22266756,5.145296574
1819,1.55965633462e+18,6.816500187,0.4070267081,5.303318501
1820,1.55965633467e+18,7.54914856,0.3423812985,5.626545906
1821,1.55965633473e+18,6.885934353,-0.2705530524,5.786962032
1822,1.55965633478e+18,7.934626579,-0.4549122155,5.367964268
1823,1.55965633483e+18,7.170853138,-0.3399870098,5.300924301
1824,1.55965633488e+18,8.336864471,-0.3375927508,5.724710941
1825,1.55965633493e+18,7.953781128,0.4429408312,5.035160065
1826,1.55965633499e+18,9.924268723,2.099778891,6.323279858
1827,1.55965633504e+18,9.119792938,3.828445435,6.038361073
1828,1.55965633509e+18,8.918673515,4.53475666,4.9609375
1829,1.55965633514e+18,10.72156239,3.675211906,5.937801361
1830,1.55965633519e+18,14.16213512,2.746233225,3.842811108
1831,1.55965633525e+18,10.16130257,3.124528646,2.832427025
1832,1.5596563353e+18,10.53480911,4.252232075,1.711906433
1833,1.55965633535e+18,7.053533554,4.49644804,-0.3711125851
1834,1.5596563354e+18,7.929838181,1.108549237,-0.1987248063
1835,1.55965633545e+18,4.352791786,-2.75820446,-4.063084126
1836,1.55965633551e+18,11.72476387,-7.640130997,-8.763046265
1837,1.55965633556e+18,14.23156929,-5.315289974,-10.41270161
1838,1.55965633561e+18,9.929058075,5.921041489,10.37678719
1839,1.55965633566e+18,8.861210823,-1.63289547,9.634561539
1840,1.55965633571e+18,6.431022167,7.292961121,13.89876556
1841,1.55965633577e+18,3.940976381,4.925023079,10.15890789
1842,1.55965633582e+18,-1.012778282,8.418270111,10.60903168
1843,1.55965633587e+18,-4.721509933,12.44783497,17.91635895
1844,1.55965633592e+18,-18.08635139,16.00812149,12.96739197
1845,1.55965633597e+18,-15.57954597,0.629694283,8.190814018
1846,1.55965633603e+18,2.150058746,-15.79263687,27.48627472
1847,1.55965633608e+18,7.520417213,-27.05051613,5.219519138
1848,1.55965633613e+18,8.181237221,2.942563772,-4.60179615
1849,1.55965633618e+18,0.3256213665,-4.980091572,-0.167599231
1850,1.55965633623e+18,-12.36882401,9.902720451,-3.387898922
1851,1.55965633629e+18,-1.678386688,4.517996788,0.6656084061
1852,1.55965633634e+18,-1.819648862,-0.06943397224,2.614548206
1853,1.55965633639e+18,-1.515576005,0.09577099234,3.495641232
1854,1.55965633644e+18,-0.4525179267,-0.3735068738,5.377541065
1855,1.55965633649e+18,2.159635782,0.6009629965,8.475732803
1856,1.55965633655e+18,2.492439985,-0.5698373914,8.039975166
1857,1.5596563366e+18,7.72153616,-1.860351562,8.70079422
1858,1.55965633665e+18,10.23791885,-5.178816319,8.916279793
1859,1.5596563367e+18,10.36721039,-7.027196407,10.11341667
1860,1.55965633675e+18,11.08549213,-7.405491829,8.650514603
1861,1.55965633681e+18,14.5045166,-7.053533554,7.72153616
1862,1.55965633686e+18,15.69447136,-5.145296574,7.029590607
1863,1.55965633691e+18,12.66331959,-2.786935806,4.606584549
1864,1.55965633696e+18,9.541185379,-2.731867552,3.747040033
1865,1.55965633701e+18,10.31453609,-3.340013266,3.052700281
1866,1.55965633707e+18,10.92028713,-4.482082367,3.047911882
1867,1.55965633712e+18,9.265843391,-5.887521744,2.399063349
1868,1.55965633717e+18,9.268238068,-7.434223175,2.427794695
1869,1.55965633722e+18,7.407886028,-7.197190285,2.600182533
1870,1.55965633727e+18,8.142929077,-7.010436535,1.656838179
1871,1.55965633733e+18,6.816500187,-6.665660858,3.811685562
1872,1.55965633738e+18,9.502876282,-3.804502726,4.2426548
1873,1.55965633743e+18,11.10943508,-1.290514112,6.296942711
1874,1.55965633748e+18,16.38162804,0.1005595401,9.081484795
1875,1.55965633753e+18,11.31773663,0.316044271,5.087833881
1876,1.55965633759e+18,11.52843285,-0.14844504,6.325674057
1877,1.55965633764e+18,7.386337757,1.558672905,4.53475666
1878,1.55965633769e+18,6.239480019,3.196356773,3.555498123
1879,1.55965633774e+18,4.597007751,2.406246185,2.724684715
1880,1.55965633779e+18,3.320859194,0.1604164094,1.570644259
1881,1.55965633785e+18,-4.367157459,-8.74149704,-4.060689926
1882,1.5596563379e+18,3.972101927,-17.75115395,-7.087053299
1883,1.55965633795e+18,12.66810799,-6.306519985,-14.04002762
1884,1.559656338e+18,12.01925945,16.9897747,-24.22048378
1885,1.55965633805e+18,26.4256115,20.02332115,-1.927391171
1886,1.55965633811e+18,15.72080803,23.01616287,3.842811108
1887,1.55965633816e+18,6.459753513,20.95469284,1.996825218
1888,1.55965633821e+18,4.905869007,16.57795906,3.555498123
1889,1.55965633826e+18,2.130904675,16.94907188,1.697540879
1890,1.55965633831e+18,-3.119740009,18.32099152,4.972908974
1891,1.55965633837e+18,-10.02961731,24.39766121,5.45176363
1892,1.55965633842e+18,-4.489265442,4.458139896,16.75034714
1893,1.55965633847e+18,5.032765865,-4.992063046,13.11344337
1894,1.55965633852e+18,17.61707497,-33.7664566,-1.54670155
1895,1.55965633857e+18,3.210722446,-2.430188894,0.1388679445
1896,1.55965633863e+18,2.16203022,-3.035940409,1.903448462
1897,1.55965633868e+18,1.556278586,-4.618556023,-1.841197371
1898,1.55965633873e+18,-8.341653824,2.087807655,-0.5770202279
1899,1.55965633878e+18,-0.8499675393,-0.6608198285,1.489238977
1900,1.55965633883e+18,0.9696813226,-1.690358043,3.091008663
1901,1.55965633889e+18,3.32804203,-0.2322446555,5.988081455
1902,1.55965633894e+18,11.74152374,-6.316096783,6.945791245
1903,1.55965633899e+18,23.39924812,-8.166871071,7.688016415
1904,1.55965633904e+18,20.07120514,-6.014418125,8.46376133
1905,1.55965633909e+18,19.57080269,-1.355159521,17.8828392
1906,1.55965633915e+18,14.87084103,-2.348783493,5.631334305
1907,1.5596563392e+18,9.081484795,-0.1221080124,4.424619675
1908,1.55965633925e+18,9.811738014,-3.423812866,3.093403101
1909,1.5596563393e+18,11.37519932,-3.73267436,1.604164124
1910,1.55965633935e+18,11.45660496,-4.793338299,1.446141958
1911,1.55965633941e+18,8.961771011,-4.529967785,0.5842030644
1912,1.55965633946e+18,8.348835945,-2.815667152,1.003201127
1913,1.55965633951e+18,8.286584854,-0.9960182905,2.564268351
1914,1.55965633956e+18,10.56832886,-1.489238977,3.933793545
1915,1.55965633961e+18,10.40551853,-1.211503029,5.889915943
1916,1.55965633967e+18,9.411893845,-0.14844504,4.676018715
1917,1.55965633972e+18,10.83409309,2.873129845,6.888328552
1918,1.55965633977e+18,16.09192085,7.465348721,8.537983894
1919,1.55965633982e+18,16.61626625,7.685622215,7.915472507
1920,1.55965633987e+18,11.82053471,4.92023468,4.2426548
1921,1.55965633993e+18,9.926663399,3.77337718,0.8643332124
1922,1.55965633998e+18,5.188393593,2.564268351,-1.915419817
1923,1.55965634003e+18,-1.960911036,1.831620216,-4.03195858
1924,1.55965634008e+18,-2.176395893,0.9194015265,-4.553910732
1925,1.55965634013e+18,0.5889915824,-1.376708031,-5.315289974
1926,1.55965634019e+18,3.110162973,-7.395915031,-4.755029678
1927,1.55965634024e+18,14.35846615,-11.17408085,-8.655303001
1928,1.55965634029e+18,12.49093151,-34.05616379,12.07911682
1929,1.55965634034e+18,19.45348358,10.41270161,11.66969585
1930,1.55965634039e+18,18.48859024,-3.186779737,7.731113434
1931,1.55965634045e+18,22.58040619,-0.2729473412,7.752661705
1932,1.5596563405e+18,23.36572838,4.85319519,5.444581032
1933,1.55965634055e+18,18.79026794,6.023995399,6.12934351
1934,1.5596563406e+18,14.44705391,4.915446281,4.592218876
1935,1.55965634065e+18,3.399870157,4.565882206,2.846792698
1936,1.55965634071e+18,-1.953728199,6.189200401,-1.03911531
1937,1.55965634076e+18,-13.20921421,10.35044956,0.7948992252
1938,1.55965634081e+18,-17.37525177,0.04788549617,-2.729473352
1939,1.55965634086e+18,0.6584255695,-10.34805584,22.47026825
1940,1.55965634091e+18,30.14391899,-40.84154129,-0.2944957912
1941,1.55965634097e+18,-4.417437077,-2.997632027,-2.250618219
1942,1.55965634102e+18,1.917814136,-9.993702888,-0.102953814
1943,1.55965634107e+18,-1.489238977,-6.220325947,3.608172178
1944,1.55965634112e+18,-2.442160368,-0.3759011328,5.736682415
1945,1.55965634117e+18,-5.267404556,-1.747820616,3.929004908
1946,1.55965634123e+18,-3.37113905,-2.487651587,5.063891411
1947,1.55965634128e+18,2.004008055,-4.817280769,8.07828331
1948,1.55965634133e+18,8.114197731,-8.533195496,8.008849144
1949,1.55965634138e+18,14.65296173,-8.18602562,6.385530949
1950,1.55965634143e+18,17.44468689,-3.677606106,4.635315895
1951,1.55965634149e+18,15.58194065,-0.3735068738,4.857983589
1952,1.55965634154e+18,13.33371639,-0.5746259689,4.075055599
1953,1.55965634159e+18,11.02802944,-1.374313712,2.782147408
1954,1.55965634164e+18,10.19721603,-2.35357213,2.75820446
1955,1.55965634169e+18,9.466962814,-2.918621063,2.442160368
1956,1.55965634175e+18,10.62100315,-3.641691923,2.025556564
1957,1.5596563418e+18,10.23552513,-3.87872529,2.58821106
1958,1.55965634185e+18,10.41270161,-4.204346657,3.232270956
1959,1.5596563419e+18,9.90750885,-4.211529255,2.978477955
1960,1.55965634195e+18,8.075888634,-3.670423269,3.081431627
1961,1.55965634201e+18,7.903501034,-3.289733648,2.662433624
1962,1.55965634206e+18,7.747873306,-3.799714088,3.191568375
1963,1.55965634211e+18,6.897905827,-3.062277555,2.762993097
1964,1.55965634216e+18,9.304151535,-1.968093872,3.759011507
1965,1.55965634221e+18,10.41988373,-1.359948039,5.444581032
1966,1.55965634226e+18,10.57790565,-1.386285067,4.517996788
1967,1.55965634232e+18,8.286584854,-1.501210332,3.301704884
1968,1.55965634237e+18,10.66409969,-2.530748367,3.270579338
1969,1.55965634242e+18,8.746285439,-0.8954587579,4.278569221
1970,1.55965634247e+18,15.41194725,2.88510108,7.280989647
1971,1.55965634252e+18,10.19003391,4.2426548,4.838829517
1972,1.55965634258e+18,12.43586349,3.852388144,4.393494129
1973,1.55965634263e+18,12.67289639,6.713546753,2.882706881
1974,1.55965634268e+18,11.708004,9.890748978,3.490852594
1975,1.55965634273e+18,7.252258301,9.510059357,3.747040033
1976,1.55965634278e+18,3.071854591,7.458166122,4.486870766
1977,1.55965634284e+18,-2.396669149,3.64887476,3.100585938
1978,1.55965634289e+18,-0.7446194887,-0.1005595401,0.9744698405
1979,1.55965634294e+18,-0.3064671755,-4.098998547,-6.366376877
1980,1.55965634299e+18,13.29540825,-13.3241396,-12.08151054
1981,1.55965634304e+18,7.886741161,-13.51568127,-13.87482262
1982,1.5596563431e+18,3.167625666,4.225894928,27.17501831
1983,1.55965634315e+18,16.50852394,-5.693585396,11.31294823
1984,1.5596563432e+18,25.70493507,-6.337645531,22.80786133
1985,1.55965634325e+18,22.52533722,-5.379935265,16.77189445
1986,1.5596563433e+18,21.49101067,-1.173194647,10.28101635
1987,1.55965634336e+18,19.3002491,3.000026226,5.825270653
1988,1.55965634341e+18,7.822095871,4.470110893,-1.848380208
1989,1.55965634346e+18,1.680780888,5.547534943,2.343995094
1990,1.55965634351e+18,-4.905869007,6.929031372,2.343995094
1991,1.55965634356e+18,-13.79102325,10.771842,-0.4477293789
1992,1.55965634362e+18,-18.65858269,7.031985283,-6.452570438
1993,1.55965634367e+18,-2.221887112,-3.87872529,5.38472414
1994,1.55965634372e+18,28.11836243,-37.82714844,10.52762604
1995,1.55965634377e+18,-11.55955887,-9.672870636,1.793311834
1996,1.55965634382e+18,7.04395628,-7.099024773,-0.950527072
1997,1.55965634388e+18,-2.365543604,-8.492492676,3.624932051
1998,1.55965634393e+18,-6.198777676,1.869928598,2.044710636
1999,1.55965634398e+18,-5.935407162,-2.487651587,2.013585091
2000,1.55965634403e+18,0.8643332124,-6.773403645,3.423812866
2001,1.55965634408e+18,7.685622215,-10.57311726,5.305713177
2002,1.55965634414e+18,6.727912426,-15.28744507,2.394274712
2003,1.55965634419e+18,10.72874546,-17.78706741,1.022355318
2004,1.55965634424e+18,14.36804295,-17.01371765,2.367937803
2005,1.55965634429e+18,12.42149734,-12.6058569,5.475706577
2006,1.55965634434e+18,8.971347809,-9.615407944,3.73267436
2007,1.5596563444e+18,7.12296772,-8.660092354,1.743032098
2008,1.55965634445e+18,6.162863255,-8.39672184,1.61134696
2009,1.5596563445e+18,5.901887417,-9.622590065,0.5722316504
2010,1.55965634455e+18,6.332856655,-8.731920242,0.5435003638
2011,1.5596563446e+18,4.829252243,-8.985713005,0.9361614585
2012,1.55965634466e+18,4.752635479,-10.29538155,1.592192769
2013,1.55965634471e+18,4.170826912,-11.66730118,1.089395046
2014,1.55965634476e+18,3.153259993,-12.18206978,1.290514112
2015,1.55965634481e+18,3.105374336,-11.05676079,1.407833576
2016,1.55965634486e+18,3.0957973,-10.42946148,2.150058746
2017,1.55965634492e+18,3.605777979,-9.454991341,2.250618219
2018,1.55965634497e+18,3.933793545,-7.472531796,3.976890564
2019,1.55965634502e+18,5.559505939,-6.502850533,5.741470814
2020,1.55965634507e+18,5.207547665,-6.043149471,4.810098171
2021,1.55965634512e+18,7.055927753,-6.289760113,3.828445435
2022,1.55965634518e+18,9.457385063,-6.131737709,4.704750061
2023,1.55965634523e+18,10.44861507,-4.697566986,5.425426483
2024,1.55965634528e+18,11.40153694,-2.511594296,6.251451492
