,Time (s),Acceleration x (m/s^2),Acceleration y (m/s^2),Acceleration z (m/s^2)
0,1.55965592405e+18,3.208328247,5.801327705,7.096630573
1,1.5596559241e+18,3.399870157,5.612180233,6.653689861
2,1.55965592416e+18,3.430995703,5.449369431,6.782980442
3,1.55965592421e+18,2.332023621,5.463735104,5.976109982
4,1.55965592426e+18,2.717501879,4.723904133,3.936187744
5,1.55965592431e+18,5.097411156,4.094210148,3.96491909
6,1.55965592436e+18,6.191594601,4.738269806,3.88111949
7,1.55965592442e+18,8.485309601,5.102199554,4.240260601
8,1.55965592447e+18,7.635342598,6.246663094,4.089421272
9,1.55965592452e+18,7.917866707,5.123748302,4.477293968
10,1.55965592457e+18,8.363202095,3.842811108,4.640104771
11,1.55965592462e+18,8.147717476,1.845985889,4.11336422
12,1.55965592468e+18,7.391126156,0.5339232683,4.671230316
13,1.55965592473e+18,9.790189743,-0.4309694767,6.691998005
14,1.55965592478e+18,7.199584484,-0.9194015265,6.502850533
15,1.55965592483e+18,10.20679379,-2.660039425,7.984906673
16,1.55965592488e+18,7.793364525,-2.253012657,5.913858891
17,1.55965592494e+18,7.154093266,-2.707924843,6.397502422
18,1.55965592499e+18,5.061496735,-2.33441782,4.778972626
19,1.55965592504e+18,4.771789551,-3.519583941,6.426233768
20,1.55965592509e+18,7.075081825,-5.473312378,7.285778046
21,1.55965592514e+18,7.201978683,-6.941002846,6.12694931
22,1.5596559252e+18,4.860377789,-7.355212212,6.012023926
23,1.55965592525e+18,6.337645531,-7.470137596,6.308914185
24,1.5596559253e+18,3.33043623,-6.069486618,5.150084972
25,1.55965592535e+18,3.24424243,-6.562707424,5.602602959
26,1.5596559254e+18,1.596981287,-6.826077461,4.146883965
27,1.55965592546e+18,2.533142805,-7.350423813,4.448562622
28,1.55965592551e+18,1.180377483,-7.410280704,3.292127848
29,1.55965592556e+18,1.525153041,-7.637736797,3.342407703
30,1.55965592561e+18,1.606558442,-3.835628271,4.829252243
31,1.55965592566e+18,1.65444386,-6.110189438,3.021574736
32,1.55965592572e+18,1.242628574,-8.806142807,2.631308079
33,1.55965592577e+18,3.033546209,-8.535589218,4.261809349
34,1.55965592582e+18,2.815667152,-7.355212212,5.166844845
35,1.55965592587e+18,2.705530643,-7.170853138,5.162056446
36,1.55965592592e+18,2.810878515,-8.684034348,4.065478802
37,1.55965592598e+18,5.09262228,-7.829278469,5.791750908
38,1.55965592603e+18,6.136526108,-8.949799538,4.776578426
39,1.55965592608e+18,8.650514603,-10.64255142,6.215537548
40,1.55965592613e+18,10.19482231,-11.73673534,4.106181145
41,1.55965592618e+18,9.756669998,-13.36723614,9.560338974
42,1.55965592624e+18,6.845231533,-15.93150425,10.66888809
43,1.55965592629e+18,14.09749031,-11.79659176,10.27383327
44,1.55965592634e+18,14.04721069,-9.799766541,9.96257782
45,1.55965592639e+18,5.676825523,-7.498868465,8.518829346
46,1.55965592644e+18,3.586623669,-6.079063892,7.927443981
47,1.5596559265e+18,5.300924301,-3.826051235,6.241874218
48,1.55965592655e+18,5.468523502,-2.470891714,5.734288216
49,1.5596559266e+18,3.955342054,-1.826831698,6.019207001
50,1.55965592665e+18,4.21631813,-2.430188894,5.34641552
51,1.5596559267e+18,4.103786945,-2.54511404,4.257020473
52,1.55965592676e+18,2.583422422,-2.882706881,5.09262228
53,1.55965592681e+18,1.757397652,-2.569056988,4.142095566
54,1.55965592686e+18,2.511594296,-2.600182533,4.13730669
55,1.55965592691e+18,3.086220264,-2.358360767,4.620950222
56,1.55965592696e+18,0.7541965842,-1.089395046,6.768614769
57,1.55965592702e+18,-1.752609134,1.455719113,7.910684109
58,1.55965592707e+18,-3.026363373,-0.2633702159,10.55396366
59,1.55965592712e+18,3.921822071,-9.526819229,9.153312683
60,1.55965592717e+18,10.66409969,-10.63776302,8.561926842
61,1.55965592722e+18,13.2618885,-8.418270111,12.32812119
62,1.55965592728e+18,11.873209,-7.790970325,10.53480911
63,1.55965592733e+18,7.960963726,-5.047131062,8.154899597
64,1.55965592738e+18,2.559479713,-2.274561167,5.746259689
65,1.55965592743e+18,0.5099805593,0.2801301479,2.782147408
66,1.55965592748e+18,2.858764172,0.2370332032,-2.250618219
67,1.55965592754e+18,3.802108288,1.82204318,-2.406246185
68,1.55965592759e+18,1.31445682,-5.382329941,1.019961119
69,1.55965592764e+18,3.701548815,-3.828445435,2.437371731
70,1.55965592769e+18,12.75909042,-16.42472458,12.99372959
71,1.55965592774e+18,4.043930054,-12.28262997,6.373559475
72,1.5596559278e+18,10.67607117,-11.43266201,9.622590065
73,1.55965592785e+18,6.526793003,-3.787742853,7.72153616
74,1.5596559279e+18,6.342433929,-3.624932051,4.630527496
75,1.55965592795e+18,7.01761961,-6.672843933,4.886714935
76,1.559655928e+18,7.958569527,-3.981678963,3.589017868
77,1.55965592806e+18,9.510059357,-4.130124092,4.221106529
78,1.55965592811e+18,11.6553297,-2.205127001,3.809291124
79,1.55965592816e+18,10.54917526,-0.5004034638,3.210722446
80,1.55965592821e+18,8.035185814,-1.000806928,3.210722446
81,1.55965592826e+18,4.783761024,-0.9170072675,3.876330853
82,1.55965592832e+18,-0.481249243,-1.551490068,1.9944309
83,1.55965592837e+18,-9.320911407,2.688770533,-3.778165579
84,1.55965592842e+18,1.968093872,-9.28499794,1.946545362
85,1.55965592847e+18,14.76788712,-13.38639069,12.30896664
86,1.55965592852e+18,-14.59071064,-17.57158279,-6.009629726
87,1.55965592858e+18,5.672037125,-16.13262367,4.060689926
88,1.55965592863e+18,5.877944469,-9.732727051,6.337645531
89,1.55965592868e+18,5.727105141,-11.8301115,3.706337452
90,1.55965592873e+18,6.993676662,-9.553156853,4.905869007
91,1.55965592878e+18,8.978530884,-4.9609375,4.810098171
92,1.55965592884e+18,6.507638931,0.05985686928,6.110189438
93,1.55965592889e+18,5.820482254,2.415823221,5.377541065
94,1.55965592894e+18,5.834847927,-1.024749637,4.970514297
95,1.55965592899e+18,4.21631813,-0.2394274771,3.153259993
96,1.55965592904e+18,6.098217964,-0.299284339,3.984073162
97,1.5596559291e+18,3.277762175,-2.214704275,-1.75979197
98,1.55965592915e+18,0.4357580245,-6.890722752,5.008822918
99,1.5596559292e+18,10.94662476,-15.73996258,11.22675419
100,1.55965592925e+18,4.508419514,-23.2124939,0.8619389534
101,1.5596559293e+18,4.661653042,-8.547560692,2.90664959
102,1.55965592936e+18,4.597007751,-6.93621397,2.889889717
103,1.55965592941e+18,4.881926537,-8.312922478,2.624125242
104,1.55965592946e+18,8.775016785,-10.4222784,3.038334846
105,1.55965592951e+18,9.852440834,-8.296162605,3.325647593
106,1.55965592956e+18,8.327287674,-4.254626274,3.835628271
107,1.55965592962e+18,6.155680656,-4.034353256,3.354378939
108,1.55965592967e+18,6.771008968,-0.6177229285,5.830059052
109,1.55965592972e+18,-1.295302629,-2.255406857,1.39825654
110,1.55965592977e+18,-2.513988495,5.763019562,-2.315263748
111,1.55965592982e+18,-1.755003452,-5.226701736,1.872322917
112,1.55965592988e+18,9.445414543,-11.1405611,8.696005821
113,1.55965592993e+18,1.223474383,-13.86763954,1.860351562
114,1.55965592998e+18,13.14456844,-11.19084072,6.134131908
115,1.55965593003e+18,7.848433018,-11.31773663,4.656864643
116,1.55965593008e+18,8.135746002,-11.48294163,4.065478802
117,1.55965593014e+18,5.700768471,-9.771035194,3.055094719
118,1.55965593019e+18,7.381549358,-9.761458397,2.837215662
119,1.55965593024e+18,8.013637543,-8.102226257,2.006402254
120,1.55965593029e+18,7.910684109,-5.684008598,1.71908927
121,1.55965593034e+18,4.676018715,-6.907482624,0.9146129489
122,1.5596559304e+18,1.67599237,-5.262616158,-0.07661679387
123,1.55965593045e+18,-10.29298782,4.254626274,-7.518023014
124,1.5596559305e+18,-4.266597748,-0.7733507752,-0.2394274771
125,1.55965593055e+18,8.176448822,-26.54053688,9.62977314
126,1.5596559306e+18,3.196356773,-23.93795967,-0.612934351
127,1.55965593066e+18,9.222746849,-11.41350842,5.990475655
128,1.55965593071e+18,4.632921696,-9.253871918,6.464541912
129,1.55965593076e+18,6.095823765,-9.684841156,6.842837334
130,1.55965593081e+18,6.876357079,-6.433416367,6.718335152
131,1.55965593086e+18,3.960130453,-2.451737404,6.375953674
132,1.55965593092e+18,2.602576733,0.2322446555,6.34003973
133,1.55965593097e+18,2.56666255,-1.884294271,3.03115201
134,1.55965593102e+18,1.515576005,-2.77975297,-1.963305354
135,1.55965593107e+18,7.647313595,-4.213923454,0.9409499764
136,1.55965593112e+18,-4.029564381,-2.145270348,0.4788549542
137,1.55965593118e+18,8.05194664,-18.15339088,6.560312748
138,1.55965593123e+18,7.537177086,-12.36164093,3.687183142
139,1.55965593128e+18,10.19242764,-11.88996887,3.198751211
140,1.55965593133e+18,9.115004539,-11.21478367,7.201978683
141,1.55965593138e+18,6.641718388,-7.515628815,3.905062199
142,1.55965593144e+18,10.12778282,-8.810931206,5.593026161
143,1.55965593149e+18,10.62339687,-9.924268723,3.079037428
144,1.55965593154e+18,11.61223316,-6.852414608,1.917814136
145,1.55965593159e+18,8.023215294,0.3806896806,3.792531252
146,1.55965593164e+18,3.37113905,2.351177931,3.270579338
147,1.5596559317e+18,1.0606637,-2.174001455,4.03195858
148,1.55965593175e+18,-5.485283375,-4.0702672,-0.5674431324
149,1.5596559318e+18,-10.41030693,-6.390319347,3.304099321
150,1.55965593185e+18,0.2250618339,-7.999272346,5.49246645
151,1.5596559319e+18,1.90823698,-12.58909702,4.225894928
152,1.55965593196e+18,3.691971779,-21.77353477,5.923435688
153,1.55965593201e+18,6.337645531,-10.50368404,8.300951004
154,1.55965593206e+18,7.063110828,-9.869200706,9.318517685
155,1.55965593211e+18,5.408666611,-11.06873226,6.428627968
156,1.55965593216e+18,8.238699913,-8.775016785,6.794951916
157,1.55965593222e+18,6.715940952,-6.991282463,6.265817165
158,1.55965593227e+18,3.919427872,-6.208354473,4.608979225
159,1.55965593232e+18,1.778946161,-6.560312748,1.867534399
160,1.55965593237e+18,1.750214934,-4.819674969,2.837215662
161,1.55965593242e+18,10.65691757,-1.644866824,9.67047596
162,1.55965593247e+18,-7.855615616,7.632947922,-3.354378939
163,1.55965593253e+18,0.05985686928,-4.877137661,2.437371731
164,1.55965593258e+18,15.38560963,-22.14943695,15.49814129
165,1.55965593263e+18,5.138113976,-18.7950573,-0.5578660369
166,1.55965593268e+18,9.158101082,-10.33129597,6.035966873
167,1.55965593273e+18,6.059909344,-7.577879906,5.315289974
168,1.55965593279e+18,6.450176239,-8.365595818,4.640104771
169,1.55965593284e+18,7.740690231,-8.909096718,5.990475655
170,1.55965593289e+18,5.585843086,-7.134938717,6.009629726
171,1.55965593294e+18,3.340013266,-2.968900681,4.525179386
172,1.55965593299e+18,3.181991339,0.8954587579,5.219519138
173,1.55965593305e+18,7.925049782,1.424593568,7.12296772
174,1.5596559331e+18,10.28341007,0.3591412306,-0.6919454336
175,1.55965593315e+18,0.277735889,1.170800328,-1.656838179
176,1.5596559332e+18,0.04549122229,-2.662433624,2.399063349
177,1.55965593325e+18,8.224333763,-8.808537483,8.339259148
178,1.5596559333e+18,6.474119186,-14.10467243,8.672063828
179,1.55965593336e+18,6.296942711,-16.88921356,0.6536370516
180,1.55965593341e+18,7.54914856,-10.02482891,8.909096718
181,1.55965593346e+18,5.913858891,-9.35203743,7.151699066
182,1.55965593351e+18,6.454965115,-9.196409225,5.401484013
183,1.55965593356e+18,7.300143719,-7.462954521,5.164450645
184,1.55965593362e+18,7.561120033,-5.542746067,3.093403101
185,1.55965593367e+18,4.841223717,-1.405439258,5.011217117
186,1.55965593372e+18,6.179623127,-3.208328247,3.045517445
187,1.55965593377e+18,6.749460697,-5.142902374,-1.465296149
188,1.55965593382e+18,1.984853864,-2.985660791,-1.355159521
189,1.55965593388e+18,2.207521439,-0.02633702382,2.731867552
190,1.55965593393e+18,4.956148624,-2.832427025,1.764580488
191,1.55965593398e+18,4.043930054,-14.81816673,8.70079422
192,1.55965593403e+18,12.96260357,-16.46063995,7.154093266
193,1.55965593408e+18,1.766974807,-10.42946148,7.113390446
194,1.55965593414e+18,9.818921089,-9.088666916,8.844450951
195,1.55965593419e+18,5.576265812,-9.399923325,5.798933506
196,1.55965593424e+18,9.761458397,-9.210775375,6.984099388
197,1.55965593429e+18,8.511647224,-6.383136749,5.075862408
198,1.55965593434e+18,8.028003693,-2.391880512,3.996044636
199,1.5596559344e+18,5.142902374,-2.284138203,1.573038578
200,1.55965593445e+18,3.318464994,-2.774964571,0.1460507661
201,1.5596559345e+18,-2.0351336,-3.895485163,-1.237840056
202,1.55965593455e+18,-4.640104771,-1.101366401,0.7278595567
203,1.5596559346e+18,-1.527547359,-1.467690468,0.06225114316
204,1.55965593466e+18,7.154093266,-15.60348892,10.79578495
205,1.55965593471e+18,4.913052082,-19.57319641,3.213116884
206,1.55965593476e+18,11.40871906,-12.4262867,5.930618763
207,1.55965593481e+18,6.615381241,-9.893143654,6.174834728
208,1.55965593486e+18,5.425426483,-7.927443981,4.726298332
209,1.55965593492e+18,8.111803055,-9.110215187,4.843617916
210,1.55965593497e+18,7.33366394,-8.502069473,3.656057596
211,1.55965593502e+18,6.905088425,-8.107014656,3.016786337
212,1.55965593507e+18,3.88111949,-3.586623669,1.568249941
213,1.55965593512e+18,1.118126392,-0.7278595567,1.154040456
214,1.55965593518e+18,0.5602602959,1.256994247,1.762186289
215,1.55965593523e+18,8.384750366,-4.798126698,-2.736656189
216,1.55965593528e+18,-2.327235222,2.071047783,2.094990492
217,1.55965593533e+18,15.89559078,-15.62982559,13.30259037
218,1.55965593538e+18,3.950553417,-20.84216309,-1.88668859
219,1.55965593544e+18,7.089447498,-11.29858303,2.937775135
220,1.55965593549e+18,6.268211365,-8.420664787,3.502824068
221,1.55965593554e+18,4.312088966,-8.64812088,3.067065954
222,1.55965593559e+18,5.964138508,-8.791776657,4.089421272
223,1.55965593564e+18,5.715134144,-6.972128391,3.778165579
224,1.5596559357e+18,3.680000305,-6.531581879,1.582615614
225,1.55965593575e+18,2.030344963,-4.958543301,2.786935806
226,1.5596559358e+18,9.301757812,-8.511647224,16.80780983
227,1.55965593585e+18,-1.733454943,3.193962574,0.7901107073
228,1.5596559359e+18,0.7901107073,-0.09577099234,3.725491524
229,1.55965593596e+18,9.749486923,-12.35685253,8.724737167
230,1.55965593601e+18,3.677606106,-14.88041782,-4.345608711
231,1.55965593606e+18,7.860404015,-12.43586349,3.332830429
232,1.55965593611e+18,4.60179615,-11.43026829,4.118152618
233,1.55965593616e+18,4.683201313,-10.90352726,3.395081758
234,1.55965593622e+18,3.419024467,-9.170072556,2.166818619
235,1.55965593627e+18,5.839636326,-7.960963726,2.327235222
236,1.55965593632e+18,5.959350109,-5.861184597,-0.0574625954
237,1.55965593637e+18,4.711932659,-2.382303476,0.8978530765
238,1.55965593642e+18,3.900273561,-2.662433624,3.565075159
239,1.55965593648e+18,0.9122186899,-1.728666425,8.564320564
240,1.55965593653e+18,3.737462997,-5.411061287,4.738269806
241,1.55965593658e+18,5.360781193,-6.450176239,4.716721535
242,1.55965593663e+18,7.810124397,-19.87008667,7.707170486
243,1.55965593668e+18,0.4956148863,-16.56119919,-2.786935806
244,1.55965593674e+18,5.073468208,-10.95620155,4.529967785
245,1.55965593679e+18,3.682394743,-12.40234375,0.8475732803
246,1.55965593684e+18,2.739050388,-12.20122433,1.498816013
247,1.55965593689e+18,4.980091572,-9.850046158,3.433390141
248,1.55965593694e+18,4.939388752,-6.059909344,3.122134447
249,1.559655937e+18,4.00562191,-3.565075159,2.964112282
250,1.55965593705e+18,2.583422422,-1.034326673,1.953728199
251,1.5596559371e+18,-2.791724443,0.2035133541,1.517970204
252,1.55965593715e+18,-2.030344963,1.699935079,-2.655250788
253,1.5596559372e+18,12.06235695,-12.68965626,12.7183876
254,1.55965593726e+18,4.17800951,-16.8437233,2.207521439
255,1.55965593731e+18,8.631361008,-13.29780197,2.899466753
256,1.55965593736e+18,1.61134696,-13.55638409,0.964892745
257,1.55965593741e+18,4.838829517,-13.13259697,1.525153041
258,1.55965593746e+18,5.636122704,-11.65293503,0.7685621977
259,1.55965593752e+18,7.290566921,-5.506832123,2.35596633
260,1.55965593757e+18,4.996851444,-1.347976685,1.946545362
261,1.55965593762e+18,3.950553417,1.635289669,5.181210518
262,1.55965593767e+18,3.083826065,3.136499882,4.039141655
263,1.55965593772e+18,-3.624932051,0.1125309169,2.075836182
264,1.55965593778e+18,2.145270348,-13.28343678,-5.085439682
265,1.55965593783e+18,-1.508393168,-4.089421272,2.236252785
266,1.55965593788e+18,12.10305882,-22.41041183,9.658504486
267,1.55965593793e+18,-3.687183142,-20.95708656,-2.205127001
268,1.55965593798e+18,7.575485706,-11.4949131,4.733481407
269,1.55965593804e+18,4.932206154,-10.8293047,4.685595989
270,1.55965593809e+18,5.913858891,-8.849239349,4.297723293
271,1.55965593814e+18,8.080677032,-7.350423813,4.656864643
272,1.55965593819e+18,8.889942169,-5.470917702,4.831646442
273,1.55965593824e+18,6.390319347,-2.367937803,5.281770229
274,1.5596559383e+18,3.433390141,-2.059076309,3.409447432
275,1.55965593835e+18,1.103760719,-1.625712633,0.6823683381
276,1.5596559384e+18,0.05985686928,0.3495641351,-1.407833576
277,1.55965593845e+18,-4.582642078,-13.59229851,8.521224022
278,1.5596559385e+18,3.397475958,-11.45181656,4.302511692
279,1.55965593856e+18,12.23474407,-15.50532341,13.76947403
280,1.55965593861e+18,1.362342358,-19.12307358,-3.75422287
281,1.55965593866e+18,7.158881664,-10.70959091,6.253845692
282,1.55965593871e+18,7.948992252,-8.861210823,5.463735104
283,1.55965593876e+18,6.579467297,-8.669669151,3.799714088
284,1.55965593882e+18,7.642525196,-8.255459785,3.682394743
285,1.55965593887e+18,6.905088425,-8.061523438,2.830032825
286,1.55965593892e+18,6.337645531,-6.438204765,3.797319889
287,1.55965593897e+18,2.942563772,-3.105374336,1.40065074
288,1.55965593902e+18,0.8284190893,0.5794144869,5.190787792
289,1.55965593908e+18,-3.081431627,8.834874153,-4.692778587
290,1.55965593913e+18,-5.523591995,-1.022355318,-0.1340793967
291,1.55965593918e+18,16.37684059,-17.74875832,15.61785412
292,1.55965593923e+18,-4.173221111,-18.44788742,-3.87872529
293,1.55965593928e+18,11.5332222,-12.9266901,5.420638084
294,1.55965593934e+18,7.199584484,-9.10063839,5.619362831
295,1.55965593939e+18,4.877137661,-9.22992897,4.546727657
296,1.55965593944e+18,8.214756966,-8.360807419,5.391906738
297,1.55965593949e+18,7.61379385,-7.170853138,5.303318501
298,1.55965593954e+18,5.844424725,-1.968093872,5.626545906
299,1.5596559396e+18,1.841197371,1.848380208,4.132518291
300,1.55965593965e+18,0.8308133483,-2.360754967,2.995237827
301,1.5596559397e+18,6.579467297,-4.03195858,1.795706153
302,1.55965593975e+18,-3.227482557,-0.5219519138,-1.563461423
303,1.5596559398e+18,0.629694283,-3.689577579,1.630501151
304,1.55965593986e+18,12.36882401,-10.87240219,9.864412308
305,1.55965593991e+18,8.669669151,-14.12622166,7.288172722
306,1.55965593996e+18,8.643332481,-13.77426338,3.854782343
307,1.55965594001e+18,9.251478195,-8.537983894,6.083852291
308,1.55965594006e+18,6.701575279,-8.207573891,4.956148624
309,1.55965594012e+18,8.585869789,-8.025609016,5.104593754
310,1.55965594017e+18,8.526012421,-6.536370277,4.764606953
311,1.55965594022e+18,6.526793003,-4.769395351,4.783761024
312,1.55965594027e+18,5.997658253,-3.253819466,2.58581686
313,1.55965594032e+18,2.059076309,-4.211529255,0.668002665
314,1.55965594038e+18,10.86761379,-13.47258472,3.890696526
315,1.55965594043e+18,-5.825270653,12.80218697,-5.482889175
316,1.55965594048e+18,3.775771379,-12.23235035,11.01366425
317,1.55965594053e+18,11.8875742,-19.21644974,11.77025509
318,1.55965594058e+18,5.159662247,-14.98816013,6.97691679
319,1.55965594064e+18,4.589824677,-11.51167297,8.832479477
320,1.55965594069e+18,4.249837875,-9.414288521,7.211555958
321,1.55965594074e+18,5.473312378,-7.86758709,6.596227169
322,1.55965594079e+18,5.581054688,-6.893116951,5.789356709
323,1.55965594084e+18,4.122941017,-5.399089813,4.185192585
324,1.5596559409e+18,4.999245644,-5.66485405,2.432583094
325,1.55965594095e+18,4.051113129,-1.084606528,1.233051538
326,1.559655941e+18,2.868341208,0.5291347504,-2.411034822
327,1.55965594105e+18,2.245829821,0.2873129845,5.904281616
328,1.5596559411e+18,-0.5818088055,-0.6991282701,0.8164477348
329,1.55965594116e+18,2.145270348,-8.133351326,6.071880817
330,1.55965594121e+18,10.20679379,-13.72637749,10.70240879
331,1.55965594126e+18,13.4318819,-16.4558506,7.427040577
332,1.55965594131e+18,8.099831581,-10.36002731,7.491685867
333,1.55965594136e+18,5.341627121,-8.75586319,5.971321583
334,1.55965594142e+18,5.59781456,-9.433443069,5.930618763
335,1.55965594147e+18,7.762238979,-9.115004539,6.289760113
336,1.55965594152e+18,5.734288216,-7.235498428,5.55711174
337,1.55965594157e+18,3.512401104,-4.558699131,3.385504484
338,1.55965594162e+18,2.063864946,-2.937775135,1.970488191
339,1.55965594168e+18,-0.2274561077,-2.085413456,0.7877163887
340,1.55965594173e+18,6.198777676,0.6727912426,4.067873001
341,1.55965594178e+18,0.3615354896,-3.644086361,1.939362645
342,1.55965594183e+18,3.205934048,-8.956981659,8.956981659
343,1.55965594188e+18,6.177228928,-10.39833546,4.932206154
344,1.55965594194e+18,11.26266861,-18.44788742,7.266623974
345,1.55965594199e+18,8.391933441,-11.65772438,8.032792091
346,1.55965594204e+18,6.941002846,-8.190814018,5.741470814
347,1.55965594209e+18,7.714353561,-9.677659035,5.758230686
348,1.55965594214e+18,10.8293047,-10.21397591,4.206740856
349,1.5596559422e+18,9.847652435,-8.411087036,5.128536701
350,1.55965594225e+18,4.800520897,-2.135693073,1.903448462
351,1.5596559423e+18,1.101366401,0.5530774593,-1.036720991
352,1.55965594235e+18,2.583422422,-1.544307232,-1.596981287
353,1.5596559424e+18,-4.929811954,-2.432583094,-5.854001999
354,1.55965594246e+18,4.625739098,-14.18368435,-6.172440529
355,1.55965594251e+18,0.907430172,-14.35128307,11.1597147
356,1.55965594256e+18,9.893143654,-21.02412796,9.035993576
357,1.55965594261e+18,9.577098846,-12.86204433,7.031985283
358,1.55965594266e+18,5.91625309,-11.4997015,6.548341751
359,1.55965594272e+18,5.585843086,-10.49650097,5.080651283
360,1.55965594277e+18,5.494860649,-9.316123009,4.352791786
361,1.55965594282e+18,6.660872459,-7.12296772,3.055094719
362,1.55965594287e+18,6.522004604,-3.900273561,5.746259689
363,1.55965594292e+18,6.292154312,1.558672905,6.361588001
364,1.55965594298e+18,10.02004051,-0.01436564885,5.231490612
365,1.55965594303e+18,7.209161282,-2.14287591,2.533142805
366,1.55965594308e+18,-3.615355015,-0.1221080124,-1.501210332
367,1.55965594313e+18,-2.810878515,3.193962574,-1.529941559
368,1.55965594318e+18,2.60736537,-4.101392746,3.500429869
369,1.55965594324e+18,5.751048088,-14.01608467,11.60026169
370,1.55965594329e+18,10.12299347,-19.18292999,6.239480019
371,1.55965594334e+18,6.964945316,-12.41670895,2.202732801
372,1.55965594339e+18,6.294548512,-10.60424328,5.255433083
373,1.55965594344e+18,6.541158676,-8.971347809,4.767001152
374,1.5596559435e+18,8.557138443,-6.900300026,4.206740856
375,1.55965594355e+18,7.982511997,-3.703943014,5.288952827
376,1.5596559436e+18,6.840443134,-1.388679385,4.486870766
377,1.55965594365e+18,7.031985283,0.3208328187,3.287339211
378,1.5596559437e+18,5.224307537,-0.7350423932,3.028757572
379,1.55965594376e+18,1.817254543,-2.842004299,0.8643332124
380,1.55965594381e+18,0.3806896806,-1.221080184,0.5698373914
381,1.55965594386e+18,1.075029373,-8.387145042,-0.2681587934
382,1.55965594391e+18,3.790137053,-12.7183876,7.156487465
383,1.55965594396e+18,10.48213482,-15.0528059,3.442967176
384,1.55965594402e+18,8.818114281,-14.52367115,4.343214512
385,1.55965594407e+18,7.747873306,-10.32411289,7.192401409
386,1.55965594412e+18,7.302538395,-8.415876389,4.321666241
387,1.55965594417e+18,7.817307472,-10.55635738,4.49644804
388,1.55965594422e+18,9.086273193,-8.092648506,3.213116884
389,1.55965594428e+18,7.120573044,-7.884346962,3.718308687
390,1.55965594433e+18,4.204346657,-6.605803967,2.490045786
391,1.55965594438e+18,1.726272106,-3.038334846,1.247417212
392,1.55965594443e+18,1.707117915,-2.724684715,-1.618529797
393,1.55965594448e+18,2.446948767,1.431776285,-3.75422287
394,1.55965594454e+18,-0.8930644989,-1.381496549,0.4884320498
395,1.55965594459e+18,8.087860107,-12.68726254,7.142121792
396,1.55965594464e+18,5.880339146,-14.37522602,4.055901527
397,1.55965594469e+18,8.162082672,-13.23555088,7.113390446
398,1.55965594474e+18,9.878777504,-9.335277557,7.570696831
399,1.5596559448e+18,6.313702583,-8.317710876,4.637710094
400,1.55965594485e+18,7.0846591,-8.214756966,3.854782343
401,1.5596559449e+18,9.512454033,-7.676044941,3.948159218
402,1.55965594495e+18,8.56671524,-5.626545906,2.075836182
403,1.559655945e+18,5.906675816,-3.177202702,1.285725594
404,1.55965594506e+18,3.452544212,-3.691971779,0.3926610649
405,1.55965594511e+18,-5.166844845,-0.6536370516,-2.748627424
406,1.55965594516e+18,-7.822095871,-10.38875866,8.075888634
407,1.55965594521e+18,1.096577883,-6.352011204,5.037554264
408,1.55965594526e+18,8.6888237,-23.96190262,12.64177132
409,1.55965594532e+18,5.849213123,-16.63302803,3.13889432
410,1.55965594537e+18,3.201145411,-12.32572651,7.415069103
411,1.55965594542e+18,3.737462997,-10.36721039,5.478100777
412,1.55965594547e+18,4.869955063,-9.016839027,4.731087208
413,1.55965594552e+18,6.811711788,-4.757423878,3.474092722
414,1.55965594558e+18,8.140534401,-4.64249897,3.34959054
415,1.55965594563e+18,3.816473961,-4.996851444,3.023969173
416,1.55965594568e+18,2.308080912,-2.123721838,3.960130453
417,1.55965594573e+18,4.352791786,-1.563461423,1.872322917
418,1.55965594578e+18,1.798100352,0.0287312977,0.5291347504
419,1.55965594584e+18,-2.88510108,-1.101366401,1.055875182
420,1.55965594589e+18,7.709564686,-13.4510355,10.72395706
421,1.55965594594e+18,2.557085514,-18.41915703,-0.1819648892
422,1.55965594599e+18,9.002472878,-10.64733982,5.188393593
423,1.55965594604e+18,5.260221958,-11.56674194,6.998465061
424,1.5596559461e+18,1.805283189,-9.632167816,4.333637238
425,1.55965594615e+18,5.887521744,-7.031985283,4.151672363
426,1.5596559462e+18,6.641718388,-7.012830734,3.318464994
427,1.55965594625e+18,5.078257084,-4.079844475,1.544307232
428,1.5596559463e+18,4.000833035,-1.711906433,0.3926610649
429,1.55965594636e+18,8.803748131,-3.229876757,8.530800819
430,1.55965594641e+18,-2.616942406,6.170046329,-1.12530911
431,1.55965594646e+18,-1.786128998,4.180403709,-0.3806896806
432,1.55965594651e+18,9.830892563,-13.69046307,10.30495834
433,1.55965594656e+18,-2.825244188,-21.15102386,0.4094209969
434,1.55965594662e+18,6.622564316,-15.25392437,7.86758709
435,1.55965594667e+18,2.56666255,-10.4845295,6.174834728
436,1.55965594672e+18,2.387091875,-7.860404015,6.040755272
437,1.55965594677e+18,5.724710941,-7.158881664,5.739076614
438,1.55965594682e+18,6.921848297,-5.571477413,4.831646442
439,1.55965594688e+18,5.446975231,-1.415016413,5.971321583
440,1.55965594693e+18,8.365595818,1.137280583,5.382329941
441,1.55965594698e+18,6.672843933,-0.6153286099,2.509200096
442,1.55965594703e+18,3.433390141,-3.814079762,-1.242628574
443,1.55965594708e+18,-1.242628574,-4.278569221,-6.035966873
444,1.55965594714e+18,2.073441982,-7.908289909,13.92749691
445,1.55965594719e+18,6.186806202,-12.69205093,10.22355366
446,1.55965594724e+18,4.652075768,-12.72796535,0.1532335877
447,1.55965594729e+18,5.145296574,-10.31692982,5.037554264
448,1.55965594734e+18,6.258634567,-12.40713215,9.744698524
449,1.5596559474e+18,10.11341667,-11.15732098,7.903501034
450,1.55965594745e+18,7.472531796,-10.22355366,4.103786945
451,1.5596559475e+18,7.355212212,-8.427846909,2.128510237
452,1.55965594755e+18,4.510813713,-3.380716085,4.872349262
453,1.5596559476e+18,6.153286457,-0.464489311,3.316070557
454,1.55965594766e+18,6.045543671,-3.20353961,0.1556278616
455,1.55965594771e+18,11.23154354,-7.905895233,1.63289547
456,1.55965594776e+18,0.9960182905,-4.539545059,-2.99044919
457,1.55965594781e+18,-2.420611858,-2.1213274,-3.086220264
458,1.55965594786e+18,3.014391899,-6.732700825,4.465322495
459,1.55965594791e+18,11.64575291,-12.4310751,10.13017654
460,1.55965594797e+18,5.856396198,-12.73754215,7.843644142
461,1.55965594802e+18,11.67927265,-15.18449116,5.102199554
462,1.55965594807e+18,5.959350109,-12.36642933,4.606584549
463,1.55965594812e+18,5.70555687,-9.730332375,3.122134447
464,1.55965594817e+18,8.028003693,-9.335277557,3.574652195
465,1.55965594822e+18,7.115784645,-6.261028767,3.902667999
466,1.55965594828e+18,6.514821529,-5.988081455,6.522004604
467,1.55965594833e+18,6.833260536,-1.956122518,5.796539307
468,1.55965594838e+18,5.688796997,-1.326428294,1.532335877
469,1.55965594843e+18,5.652883053,-2.619336605,0.689551115
470,1.55965594848e+18,-2.669616461,-1.266571403,-2.348783493
471,1.55965594854e+18,-0.1604164094,-1.9944309,-1.431776285
472,1.55965594859e+18,7.314509392,-13.79581165,10.16369629
473,1.55965594864e+18,4.776578426,-18.34493446,8.248276711
474,1.55965594869e+18,5.281770229,-16.60429573,3.866753817
475,1.55965594874e+18,4.620950222,-13.06795216,6.660872459
476,1.5596559488e+18,6.682421207,-10.9753561,4.515602112
477,1.55965594885e+18,7.132544518,-8.964164734,4.510813713
478,1.5596559489e+18,9.375980377,-6.112583637,5.071074009
479,1.55965594895e+18,7.374366283,-2.518777132,4.898686409
480,1.559655949e+18,8.415876389,0.7709565163,2.839609861
481,1.55965594906e+18,8.712765694,-1.247417212,-0.7972934842
482,1.55965594911e+18,7.518023014,-3.778165579,-1.101366401
483,1.55965594916e+18,1.103760719,-7.04156208,5.063891411
484,1.55965594921e+18,-1.046298146,-3.043123245,-4.520390987
485,1.55965594926e+18,-1.862745762,-2.968900681,2.391880512
486,1.55965594932e+18,4.781366825,-9.409500122,9.165284157
487,1.55965594937e+18,9.672870636,-16.17811394,10.1014452
488,1.55965594942e+18,6.744672298,-15.76629925,5.791750908
489,1.55965594947e+18,8.116591454,-11.53082752,9.464568138
490,1.55965594952e+18,5.150084972,-9.754275322,4.38870573
491,1.55965594958e+18,7.278595448,-8.968953133,6.155680656
492,1.55965594963e+18,9.450202942,-7.970541,6.292154312
493,1.55965594968e+18,6.507638931,-8.133351326,4.812492371
494,1.55965594973e+18,4.539545059,-7.472531796,4.264203548
495,1.55965594978e+18,1.29290843,-5.525986195,1.92978549
496,1.55965594984e+18,0.8356019258,-1.956122518,1.106154919
497,1.55965594989e+18,3.160442829,6.059909344,-2.569056988
498,1.55965594994e+18,2.411034822,-1.23065722,1.881899953
499,1.55965594999e+18,4.697566986,-8.305739403,6.490879059
500,1.55965595004e+18,7.419857502,-15.81897354,8.06391716
501,1.5596559501e+18,3.201145411,-18.72562408,-1.010383964
502,1.55965595015e+18,11.00648117,-10.32650757,7.300143719
503,1.5596559502e+18,7.046350956,-8.509252548,6.007235527
504,1.55965595025e+18,8.753468513,-9.335277557,5.288952827
505,1.5596559503e+18,9.514847755,-9.375980377,4.522785187
506,1.55965595036e+18,9.64413929,-3.172414064,2.947352171
507,1.55965595041e+18,8.150111198,2.411034822,2.583422422
508,1.55965595046e+18,5.648094177,-3.016786337,2.164424419
509,1.55965595051e+18,4.017592907,-8.164477348,1.395862222
510,1.55965595056e+18,8.818114281,-6.522004604,2.229069948
511,1.55965595062e+18,-4.951360226,-0.5554717779,-4.161249638
512,1.55965595067e+18,-1.537124395,0.5722316504,1.836408734
513,1.55965595072e+18,8.619389534,-15.62503719,13.87961102
514,1.55965595077e+18,10.39833546,-16.69288445,6.155680656
515,1.55965595082e+18,7.489291668,-13.75510883,3.52197814
516,1.55965595088e+18,8.990502357,-9.138946533,6.756643295
517,1.55965595093e+18,7.352818012,-8.238699913,5.059102535
518,1.55965595098e+18,10.14454269,-7.999272346,5.940196037
519,1.55965595103e+18,10.38875866,-7.86758709,5.229096413
520,1.55965595108e+18,8.389538765,-6.249057293,5.023188591
521,1.55965595114e+18,4.489265442,-1.544307232,4.783761024
522,1.55965595119e+18,2.655250788,0.8356019258,2.485257149
523,1.55965595124e+18,4.017592907,-1.312062621,1.091789365
524,1.55965595129e+18,2.739050388,-1.573038578,-2.609759569
525,1.55965595134e+18,-2.324840784,1.072635174,-0.22266756
526,1.5596559514e+18,3.119740009,-9.320911407,4.587430477
527,1.55965595145e+18,7.977723598,-12.69444466,7.36239481
528,1.5596559515e+18,15.14857674,-16.46782303,5.245856285
529,1.55965595155e+18,5.298530102,-13.91552544,2.478074312
530,1.5596559516e+18,8.071100235,-9.821314812,6.009629726
531,1.55965595166e+18,8.67445755,-8.01124382,6.222720146
532,1.55965595171e+18,9.58907032,-7.946598053,5.183605194
533,1.55965595176e+18,9.189227104,-6.885934353,4.163643837
534,1.55965595181e+18,8.190814018,-5.224307537,4.268991947
535,1.55965595186e+18,5.020794392,-2.286532402,4.108575344
536,1.55965595192e+18,5.470917702,-4.568276405,4.053507328
537,1.55965595197e+18,2.875524044,-3.150865555,-0.7709565163
538,1.55965595202e+18,-0.3112557232,-0.6416656375,-4.012804508
539,1.55965595207e+18,10.45819283,-9.043175697,-2.983266354
540,1.55965595212e+18,-0.6009629965,-0.9313728809,-0.2298503816
541,1.55965595218e+18,11.18605232,-20.33218193,16.98498535
542,1.55965595223e+18,9.443019867,-18.51971626,0.7925049663
543,1.55965595228e+18,5.061496735,-9.703995705,4.936994553
544,1.55965595233e+18,10.67846584,-7.067899227,6.253845692
545,1.55965595238e+18,7.594639778,-8.217150688,4.331243038
546,1.55965595244e+18,9.083878517,-8.971347809,3.478881359
547,1.55965595249e+18,7.968146324,-6.811711788,3.565075159
548,1.55965595254e+18,6.40468502,-5.24106741,2.080624819
549,1.55965595259e+18,4.968120098,-2.432583094,0.7494080067
550,1.55965595264e+18,0.9385557175,-0.3591412306,-0.6536370516
551,1.5596559527e+18,10.16609097,3.316070557,5.63851738
552,1.55965595275e+18,-1.965699673,5.102199554,0.7350423932
553,1.5596559528e+18,-1.149251938,-3.181991339,3.162837029
554,1.55965595285e+18,7.063110828,-13.33132172,11.71518707
555,1.5596559529e+18,7.33366394,-16.53964996,3.617749214
556,1.55965595296e+18,11.09028053,-14.53564262,5.669642925
557,1.55965595301e+18,7.151699066,-11.43026829,5.779779434
558,1.55965595306e+18,6.354405403,-10.15890789,5.114171028
559,1.55965595311e+18,6.08624649,-9.342460632,3.498035431
560,1.55965595316e+18,4.92262888,-7.443800449,4.419831276
561,1.55965595322e+18,4.850800991,-2.762993097,5.722316742
562,1.55965595327e+18,6.454965115,0.2346389294,5.075862408
563,1.55965595332e+18,5.166844845,-2.298503876,2.45892024
564,1.55965595337e+18,5.130930901,-4.994457245,2.011190891
565,1.55965595342e+18,2.126116037,-4.292934895,-1.127703428
566,1.55965595348e+18,0.9960182905,-4.798126698,0.7398309112
567,1.55965595353e+18,4.336031914,-5.633728504,2.976083517
568,1.55965595358e+18,2.561874151,-14.3393116,8.873182297
569,1.55965595363e+18,7.518023014,-21.27313232,5.169239521
570,1.55965595368e+18,11.67687798,-10.70240879,10.51086617
571,1.55965595374e+18,7.843644142,-7.558725357,5.305713177
572,1.55965595379e+18,8.638543129,-8.892336845,3.287339211
573,1.55965595384e+18,8.571503639,-7.307326794,2.882706881
574,1.55965595389e+18,8.693612099,-6.883540154,2.616942406
575,1.55965595394e+18,6.038361073,-5.466129303,1.005595446
576,1.559655954e+18,5.056708336,-4.082238674,0.907430172
577,1.55965595405e+18,5.128536701,-3.191568375,0.7015225291
578,1.5596559541e+18,1.649655342,-3.474092722,-0.4932205975
579,1.55965595415e+18,-0.9050358534,-4.723904133,-1.474873304
580,1.5596559542e+18,4.407859802,-3.895485163,5.432609558
581,1.55965595426e+18,8.454184532,-16.40796471,7.762238979
582,1.55965595431e+18,1.620923996,-11.17408085,8.068706512
583,1.55965595436e+18,-0.4189980924,-15.39039803,4.415042877
584,1.55965595441e+18,3.826051235,-11.90672874,9.05993557
585,1.55965595446e+18,6.454965115,-9.842864037,5.887521744
586,1.55965595452e+18,3.428601503,-9.94821167,3.423812866
587,1.55965595457e+18,6.270605564,-10.62100315,3.914639235
588,1.55965595462e+18,6.196382999,-8.825297356,3.581835032
589,1.55965595467e+18,6.76622057,-7.661679268,1.805283189
590,1.55965595472e+18,5.554717541,-3.430995703,-0.6871568561
591,1.55965595478e+18,2.195549965,-2.581028223,-2.425400496
592,1.55965595483e+18,1.951334,-1.034326673,0.5315290093
593,1.55965595488e+18,-2.899466753,0.1077423692,-2.492439985
594,1.55965595493e+18,10.19961071,-30.96515656,9.842864037
595,1.55965595498e+18,-1.652049661,-11.01366425,8.46376133
596,1.55965595504e+18,13.76947403,-15.09590244,4.714327335
597,1.55965595509e+18,0.7422251701,-13.00809479,1.350371003
598,1.55965595514e+18,7.570696831,-10.16848469,7.259441376
599,1.55965595519e+18,7.618582249,-9.160495758,6.110189438
600,1.55965595524e+18,9.529213905,-7.82688427,6.000052452
601,1.5596559553e+18,6.780586243,-7.012830734,4.225894928
602,1.55965595535e+18,3.490852594,-5.329655647,1.403045058
603,1.5596559554e+18,3.196356773,-1.12530911,2.669616461
604,1.55965595545e+18,3.184385538,0.8308133483,-1.503604531
605,1.5596559555e+18,5.231490612,0.002394274808,-1.35755384
606,1.55965595556e+18,-2.188367128,0.07661679387,-1.228263021
607,1.55965595561e+18,1.424593568,-10.02004051,11.71997547
608,1.55965595566e+18,8.56671524,-13.494133,4.532361984
609,1.55965595571e+18,11.10704041,-13.67609787,7.055927753
610,1.55965595576e+18,6.069486618,-9.490905762,6.488484859
611,1.55965595582e+18,5.138113976,-8.557138443,6.931425571
612,1.55965595587e+18,6.071880817,-8.083071709,6.332856655
613,1.55965595592e+18,7.99687767,-8.128562927,6.215537548
614,1.55965595597e+18,6.960156918,-7.103813171,4.0702672
615,1.55965595602e+18,5.918647289,-6.847625732,3.239453793
616,1.55965595608e+18,1.764580488,-3.873936653,3.423812866
617,1.55965595613e+18,8.32968235,1.261782765,7.843644142
618,1.55965595618e+18,-4.927417755,4.558699131,-5.147690773
619,1.55965595623e+18,1.247417212,-0.7470137477,0.5889915824
620,1.55965595628e+18,4.225894928,-6.349617004,7.503657341
621,1.55965595634e+18,7.893924236,-16.77668381,8.497281075
622,1.55965595639e+18,2.293715239,-18.6106987,4.21631813
623,1.55965595644e+18,9.354432106,-10.19482231,0.01915419847
624,1.55965595649e+18,7.276201248,-10.31453609,4.156461239
625,1.55965595654e+18,4.687990189,-10.80296803,3.706337452
626,1.5596559566e+18,8.348835945,-8.284191132,6.196382999
627,1.55965595665e+18,10.77663136,-7.22831583,4.778972626
628,1.5596559567e+18,5.528380394,-6.098217964,2.9258039
629,1.55965595675e+18,5.403878212,-6.138920784,1.9944309
630,1.5596559568e+18,2.415823221,-0.7470137477,-0.08858817071
631,1.55965595686e+18,-2.411034822,2.449343204,-4.132518291
632,1.55965595691e+18,-2.264983892,2.073441982,12.63458824
633,1.55965595696e+18,0.3735068738,-1.151646137,7.053533554
634,1.55965595701e+18,9.155706406,-20.84934425,3.45493865
635,1.55965595706e+18,12.04080772,-19.00814819,1.39825654
636,1.55965595712e+18,2.253012657,-10.78860188,3.811685562
637,1.55965595717e+18,6.352011204,-10.89395046,5.348809719
638,1.55965595722e+18,8.164477348,-10.34566116,5.913858891
639,1.55965595727e+18,8.451789856,-9.191620827,5.049525738
640,1.55965595732e+18,7.484503269,-7.0846591,5.353598595
641,1.55965595738e+18,4.948966026,-3.557892323,4.824463844
642,1.55965595743e+18,4.156461239,-1.671203852,5.118959427
643,1.55965595748e+18,3.608172178,-3.483669758,3.110162973
644,1.55965595753e+18,3.167625666,-5.188393593,0.3615354896
645,1.55965595758e+18,0.4142095447,-3.459727049,0.4549122155
646,1.55965595764e+18,0.4357580245,-3.960130453,1.043903828
647,1.55965595769e+18,3.818868399,-8.978530884,7.601822376
648,1.55965595774e+18,7.553936958,-13.64976025,8.334470749
649,1.55965595779e+18,7.22831583,-17.46623421,5.514014721
650,1.55965595784e+18,7.910684109,-12.06235695,10.0966568
651,1.5596559579e+18,7.901106834,-9.289786339,6.402290821
652,1.55965595795e+18,7.628159523,-9.71117878,5.011217117
653,1.559655958e+18,8.250671387,-7.798152924,3.972101927
654,1.55965595805e+18,6.711152077,-7.276201248,5.363175392
655,1.5596559581e+18,4.553910732,-2.751021862,5.02797699
656,1.55965595816e+18,4.115758419,-0.8571503758,5.236279011
657,1.55965595821e+18,5.17402792,-2.071047783,4.491659641
658,1.55965595826e+18,6.490879059,-2.039922237,-0.4860377908
659,1.55965595831e+18,-3.20353961,2.511594296,-2.808484316
660,1.55965595836e+18,3.246636629,-4.822069645,2.583422422
661,1.55965595842e+18,7.601822376,-6.493273258,6.51242733
662,1.55965595847e+18,11.29858303,-11.92348862,1.75979197
663,1.55965595852e+18,11.42069054,-12.66571331,5.537957668
664,1.55965595857e+18,11.43505669,-7.879558563,7.087053299
665,1.55965595862e+18,8.296162605,-8.10461998,5.463735104
666,1.55965595868e+18,8.372778893,-8.291373253,4.393494129
667,1.55965595873e+18,9.634561539,-7.19000721,3.66802907
668,1.55965595878e+18,8.772623062,-6.605803967,3.361561775
669,1.55965595883e+18,8.097437859,-2.595393896,1.965699673
670,1.55965595888e+18,5.77020216,-0.04788549617,-0.299284339
671,1.55965595894e+18,0.6153286099,-0.2106961906,0.9960182905
672,1.55965595899e+18,4.228289127,3.979284763,4.647287369
673,1.55965595904e+18,-5.135719299,7.886741161,-3.694365978
674,1.55965595909e+18,2.521171331,-5.497254848,7.604216576
675,1.55965595914e+18,10.40073013,-19.89642334,11.65772438
676,1.5596559592e+18,7.884346962,-19.98740578,3.751828671
677,1.55965595925e+18,7.553936958,-11.81814003,8.739103317
678,1.5596559593e+18,6.459753513,-7.977723598,7.192401409
679,1.55965595935e+18,8.10461998,-8.37038517,6.579467297
680,1.5596559594e+18,9.095849991,-7.628159523,4.230683804
681,1.55965595946e+18,7.458166122,-4.56109333,4.201952457
682,1.55965595951e+18,5.013611317,-2.710319042,5.300924301
683,1.55965595956e+18,3.22269392,-0.8308133483,2.640885115
684,1.55965595961e+18,3.538738251,-0.2753416002,0.6943396926
685,1.55965595966e+18,6.644112587,-2.327235222,-1.417410731
686,1.55965595972e+18,0.8763045669,-3.081431627,-2.983266354
687,1.55965595977e+18,-0.1053480953,4.477293968,-1.82443738
688,1.55965595982e+18,0.3974496126,-3.000026226,3.624932051
689,1.55965595987e+18,15.85009956,-19.43672371,5.494860649
690,1.55965595992e+18,12.227561,-13.75032043,7.637736797
691,1.55965595998e+18,7.060716629,-7.836461544,8.669669151
692,1.55965596003e+18,5.815693378,-7.93223238,6.246663094
693,1.55965596008e+18,8.894730568,-6.531581879,5.265010357
694,1.55965596013e+18,9.94821167,-5.712739468,5.691191196
695,1.55965596018e+18,7.276201248,-5.308107376,4.714327335
696,1.55965596024e+18,6.814105988,-2.648067951,4.307300568
697,1.55965596029e+18,6.648900986,-1.953728199,1.352765322
698,1.55965596034e+18,3.052700281,-0.3902668059,0.984046936
699,1.55965596039e+18,1.628106833,1.723877907,3.11734581
700,1.55965596044e+18,-2.583422422,-0.6009629965,0.9194015265
701,1.5596559605e+18,2.600182533,-2.004008055,3.34959054
702,1.55965596055e+18,5.985687256,-12.69683933,10.81733322
703,1.5596559606e+18,8.394327164,-18.71365166,3.220299721
704,1.55965596065e+18,10.31692982,-13.76229191,5.49246645
705,1.5596559607e+18,8.533195496,-11.42069054,6.981705189
706,1.55965596076e+18,7.783787251,-9.095849991,4.941783428
707,1.55965596081e+18,10.36242104,-8.377567291,2.724684715
708,1.55965596086e+18,9.411893845,-6.785374641,2.609759569
709,1.55965596091e+18,7.496474266,-6.9122715,2.128510237
710,1.55965596096e+18,7.482108593,-7.592245579,1.271359921
711,1.55965596102e+18,4.304905891,-4.798126698,-0.6033572555
712,1.55965596107e+18,-5.497254848,0.04788549617,-0.943344295
713,1.55965596112e+18,-8.67445755,-4.163643837,3.806896925
714,1.55965596117e+18,-3.41423583,-1.582615614,4.036747456
715,1.55965596122e+18,7.448588848,-13.51807594,12.58909702
716,1.55965596128e+18,-1.987248063,-25.6594429,1.920208454
717,1.55965596133e+18,8.195602417,-12.36403465,5.684008598
718,1.55965596138e+18,6.146103382,-11.6553297,2.679193497
719,1.55965596143e+18,1.9944309,-10.31932449,3.600989342
720,1.55965596148e+18,7.735901833,-7.905895233,4.956148624
721,1.55965596154e+18,8.803748131,-5.710345268,3.768588543
722,1.55965596159e+18,6.143709183,-5.34641552,2.063864946
723,1.55965596164e+18,7.075081825,-3.723097324,2.48046875
724,1.55965596169e+18,7.577879906,3.37113905,0.9313728809
725,1.55965596174e+18,8.18602562,8.760651588,6.083852291
726,1.5596559618e+18,4.204346657,2.995237827,2.157241583
727,1.55965596185e+18,4.649681568,-7.831672668,2.583422422
728,1.5596559619e+18,-4.477293968,-4.549122334,-3.162837029
729,1.55965596195e+18,2.537931204,-8.020820618,4.314483166
730,1.559655962e+18,12.19164753,-18.20606613,6.344828129
731,1.55965596206e+18,5.521197796,-16.30261803,0.2897072434
732,1.55965596211e+18,8.60741806,-10.90352726,7.118178844
733,1.55965596216e+18,5.296135902,-10.17566776,4.980091572
734,1.55965596221e+18,6.016812801,-10.1062336,5.499649048
735,1.55965596226e+18,8.425453186,-6.933819771,7.130150318
736,1.55965596232e+18,8.63375473,-6.217931747,6.081458092
737,1.55965596237e+18,8.367990494,-3.778165579,5.02558279
738,1.55965596242e+18,6.174834728,-1.872322917,2.549902678
739,1.55965596247e+18,5.80851078,-2.032739401,1.704723716
740,1.55965596252e+18,7.158881664,-1.97288239,1.132491946
741,1.55965596258e+18,-1.838803053,-1.714300752,-4.635315895
742,1.55965596263e+18,-1.170800328,-1.453324795,-1.415016413
743,1.55965596268e+18,0.8308133483,-4.577853203,3.495641232
744,1.55965596273e+18,12.46938324,-19.16856384,9.62977314
745,1.55965596278e+18,9.720755577,-22.78631401,4.764606953
746,1.55965596284e+18,6.533976078,-11.81814003,5.221913338
747,1.55965596289e+18,8.075888634,-10.12538815,5.822876453
748,1.55965596294e+18,5.126142502,-8.889942169,3.557892323
749,1.55965596299e+18,8.154899597,-9.529213905,3.792531252
750,1.55965596304e+18,9.407105446,-8.121379852,2.827638626
751,1.5596559631e+18,10.97056675,-4.786155224,2.315263748
752,1.55965596315e+18,6.665660858,-2.731867552,2.825244188
753,1.5596559632e+18,4.393494129,-1.996825218,-0.2178790122
754,1.55965596325e+18,6.828471661,-3.77337718,5.949772835
755,1.5596559633e+18,-4.060689926,0.7039167881,-2.48046875
756,1.55965596336e+18,-5.940196037,1.261782765,-3.189173937
757,1.55965596341e+18,-0.1723877788,-3.77337718,3.972101927
758,1.55965596346e+18,15.74714565,-21.87170029,12.7710619
759,1.55965596351e+18,7.357606411,-16.93949509,5.21473074
760,1.55965596356e+18,7.553936958,-10.71916866,8.427846909
761,1.55965596362e+18,6.828471661,-7.515628815,8.047157288
762,1.55965596367e+18,5.083045483,-8.739103317,6.44778204
763,1.55965596372e+18,7.012830734,-10.11341667,6.490879059
764,1.55965596377e+18,6.414262295,-7.568302631,5.423032284
765,1.55965596382e+18,4.412648678,-6.514821529,3.940976381
766,1.55965596388e+18,3.955342054,-2.559479713,3.656057596
767,1.55965596393e+18,2.456526041,-0.4142095447,2.305686712
768,1.55965596398e+18,-1.395862222,2.427794695,-3.73267436
769,1.55965596403e+18,-6.495667458,1.956122518,-0.2274561077
770,1.55965596408e+18,-4.264203548,-4.166038036,0.3974496126
771,1.55965596414e+18,12.27544689,-23.30587006,15.0480175
772,1.55965596419e+18,3.397475958,-20.86131668,-1.118126392
773,1.55965596424e+18,8.672063828,-11.48773098,3.79492569
774,1.55965596429e+18,6.749460697,-9.811738014,3.770982742
775,1.55965596434e+18,6.984099388,-8.303344727,4.247443676
776,1.5596559644e+18,10.70959091,-7.82688427,4.944177628
777,1.55965596445e+18,7.925049782,-5.099805355,4.733481407
778,1.5596559645e+18,5.731894016,-3.936187744,4.371945858
779,1.55965596455e+18,4.379128456,-1.946545362,3.75422287
780,1.5596559646e+18,3.289733648,-0.7901107073,3.375927448
781,1.55965596466e+18,0.8212362528,-0.3375927508,-3.596200705
782,1.55965596471e+18,3.845205307,3.684788942,-0.2298503816
783,1.55965596476e+18,-2.901860952,4.522785187,-3.974496126
784,1.55965596481e+18,8.401510239,-17.11667061,10.6449461
785,1.55965596486e+18,9.402317047,-19.87008667,4.467716694
786,1.55965596492e+18,11.20041752,-12.81894779,8.394327164
787,1.55965596497e+18,8.284191132,-9.402317047,6.720729351
788,1.55965596502e+18,6.984099388,-8.265036583,4.786155224
789,1.55965596507e+18,9.210775375,-7.692804813,5.111776829
790,1.55965596512e+18,8.971347809,-5.767807961,5.545140266
791,1.55965596517e+18,9.483722687,-4.022381783,5.729499817
792,1.55965596523e+18,5.193181992,-1.477267504,2.909043789
793,1.55965596528e+18,2.231464148,-0.5626545548,1.774157643
794,1.55965596533e+18,0.8954587579,-2.640885115,0.9792584181
795,1.55965596538e+18,-1.872322917,-2.473285913,2.619336605
796,1.55965596543e+18,1.048692346,-7.283383846,2.803695917
797,1.55965596549e+18,1.776551962,-6.694392204,5.253038883
798,1.55965596554e+18,6.751854897,-14.24114609,10.19721603
799,1.55965596559e+18,1.371919513,-25.57564354,-0.5578660369
800,1.55965596564e+18,8.976136208,-12.59388542,7.788576126
801,1.55965596569e+18,8.509252548,-8.590658188,5.521197796
802,1.55965596575e+18,6.854808807,-9.33767128,5.135719299
803,1.5596559658e+18,7.771816254,-8.461367607,5.573871613
804,1.55965596585e+18,6.65847826,-6.941002846,6.55313015
805,1.5596559659e+18,4.972908974,-2.645673752,6.452570438
806,1.55965596595e+18,4.149278164,-1.881899953,3.416630268
807,1.55965596601e+18,4.221106529,-2.157241583,0.1005595401
808,1.55965596606e+18,5.078257084,-3.390293121,-0.2274561077
809,1.55965596611e+18,3.854782343,-1.221080184,-2.425400496
810,1.55965596616e+18,-3.0096035,2.734261751,-0.59378016
811,1.55965596621e+18,7.589851379,-13.8389082,10.98253822
812,1.55965596627e+18,11.98095131,-13.87482262,8.150111198
813,1.55965596632e+18,8.837267876,-14.98097706,7.65449667
814,1.55965596637e+18,8.892336845,-10.4797411,8.499675751
815,1.55965596642e+18,7.513234138,-9.153312683,6.215537548
816,1.55965596647e+18,8.564320564,-10.46058655,5.751048088
817,1.55965596653e+18,7.2546525,-7.048745155,3.869148016
818,1.55965596658e+18,5.071074009,-7.352818012,2.24822402
819,1.55965596663e+18,2.561874151,-2.332023621,1.146857619
820,1.55965596668e+18,1.695146561,0.6201171875,0.7757450342
821,1.55965596673e+18,0.5435003638,-2.909043789,6.138920784
822,1.55965596679e+18,1.71908927,-1.434170604,3.919427872
823,1.55965596684e+18,-3.75422287,2.37272644,0.3950553536
824,1.55965596689e+18,7.247469902,-13.56596088,11.95700836
825,1.55965596694e+18,8.724737167,-18.03128433,3.634509087
826,1.55965596699e+18,10.14933109,-13.93228531,5.801327705
827,1.55965596705e+18,6.565101624,-9.665687561,7.209161282
828,1.5596559671e+18,6.682421207,-9.138946533,6.567495823
829,1.55965596715e+18,8.15968895,-8.320104599,6.435810566
830,1.5596559672e+18,8.183630943,-5.63851738,5.763019562
831,1.55965596725e+18,6.771008968,-3.126922846,4.89629221
832,1.55965596731e+18,3.675211906,-1.063058019,5.873156071
833,1.55965596736e+18,1.12291491,-2.870735407,1.893871427
834,1.55965596741e+18,4.079844475,-5.274587631,-1.644866824
835,1.55965596746e+18,4.711932659,-7.956175327,-2.164424419
836,1.55965596751e+18,-5.796539307,2.231464148,-2.054287672
837,1.55965596757e+18,0.299284339,-10.6545229,9.608224869
838,1.55965596762e+18,13.84130287,-12.93387222,7.14930439
839,1.55965596767e+18,10.24989033,-15.16533661,6.897905827
840,1.55965596772e+18,9.454991341,-10.71916866,9.167677879
841,1.55965596777e+18,5.628940105,-8.691217422,6.469330311
842,1.55965596783e+18,7.994483471,-9.792584419,6.86917448
843,1.55965596788e+18,8.470944405,-8.605023384,4.848406315
844,1.55965596793e+18,6.51242733,-5.899493217,5.497254848
845,1.55965596798e+18,5.152479172,-3.897879362,3.876330853
846,1.55965596803e+18,2.513988495,-1.82443738,2.106961727
847,1.55965596809e+18,0.01915419847,0.5818088055,-0.1005595401
848,1.55965596814e+18,11.71039772,2.959323645,6.644112587
849,1.55965596819e+18,-5.765413761,5.102199554,0.8475732803
850,1.55965596824e+18,-0.4788549542,-5.846818924,3.727885962
851,1.55965596829e+18,11.75588894,-17.85171318,11.60265541
852,1.55965596835e+18,8.262641907,-20.26992989,3.780560017
853,1.5596559684e+18,8.918673515,-11.95461369,6.095823765
854,1.55965596845e+18,5.796539307,-8.655303001,4.66883564
855,1.5596559685e+18,6.97691679,-7.118178844,6.639324188
856,1.55965596855e+18,9.763853073,-6.261028767,6.27539444
857,1.55965596861e+18,6.533976078,-8.016032219,3.124528646
858,1.55965596866e+18,2.190761566,-4.376734257,5.561900616
859,1.55965596871e+18,1.764580488,-0.7805336118,3.871542454
860,1.55965596876e+18,1.982459545,-2.298503876,0.2897072434
861,1.55965596881e+18,3.34959054,-1.613741279,-0.612934351
862,1.55965596887e+18,-4.932206154,4.544333458,1.843591571
863,1.55965596892e+18,9.004867554,-14.51648808,9.179649353
864,1.55965596897e+18,4.783761024,-18.14381409,2.602576733
865,1.55965596902e+18,8.154899597,-12.68726254,5.691191196
866,1.55965596907e+18,7.264229774,-9.103033066,8.042368889
867,1.55965596913e+18,6.598621368,-9.258660316,4.436591148
868,1.55965596918e+18,8.983319283,-9.189227104,4.381523132
869,1.55965596923e+18,9.857229233,-7.793364525,3.047911882
870,1.55965596928e+18,7.690410614,-7.271412373,1.644866824
871,1.55965596933e+18,6.749460697,-6.59143877,0.7781392932
872,1.55965596939e+18,2.159635782,-4.527573586,1.39825654
873,1.55965596944e+18,-1.127703428,-2.717501879,-2.181184292
874,1.55965596949e+18,-7.000859737,4.551516533,-4.817280769
875,1.55965596954e+18,0.928978622,-6.615381241,8.667274475
876,1.55965596959e+18,15.63940334,-23.26516914,5.688796997
877,1.55965596965e+18,8.772623062,-15.34251308,2.190761566
878,1.5596559697e+18,9.253871918,-10.55396366,3.488458395
879,1.55965596975e+18,8.449396133,-8.303344727,4.089421272
880,1.5596559698e+18,6.948185444,-6.708757877,4.091815472
881,1.55965596985e+18,7.987300873,-6.414262295,3.711125851
882,1.55965596991e+18,5.408666611,-5.425426483,3.110162973
883,1.55965596996e+18,5.257827282,-2.772570133,3.720703125
884,1.55965597001e+18,3.148471355,-0.9098244309,4.058295727
885,1.55965597006e+18,1.798100352,-0.1604164094,6.076669693
886,1.55965597011e+18,-2.214704275,-5.480494976,1.786128998
887,1.55965597017e+18,-2.561874151,-6.636929989,3.217905283
888,1.55965597022e+18,7.707170486,-13.63778973,6.624958515
889,1.55965597027e+18,0.7781392932,-17.62425613,2.528354168
890,1.55965597032e+18,8.64812088,-12.557971,5.327261448
891,1.55965597037e+18,9.055147171,-9.917086601,4.970514297
892,1.55965597043e+18,7.264229774,-8.777411461,4.328848839
893,1.55965597048e+18,8.406298637,-7.762238979,3.663240433
894,1.55965597053e+18,9.000079155,-7.110996246,3.131711483
895,1.55965597058e+18,4.357580185,-3.811685562,3.026363373
896,1.55965597063e+18,2.542719841,-1.132491946,2.624125242
897,1.55965597069e+18,0.4932205975,-1.788523316,1.726272106
898,1.55965597074e+18,2.923409462,-6.840443134,0.4429408312
899,1.55965597079e+18,-2.899466753,3.476486921,-2.595393896
900,1.55965597084e+18,6.648900986,-13.92749691,8.892336845
901,1.55965597089e+18,13.93228531,-14.02326775,8.865999222
902,1.55965597095e+18,9.90750885,-13.56835556,4.077449799
903,1.559655971e+18,9.443019867,-11.18365765,6.888328552
904,1.55965597105e+18,5.164450645,-8.751074791,4.438985348
905,1.5596559711e+18,6.069486618,-8.935433388,3.924216509
906,1.55965597115e+18,7.551542759,-8.99289608,5.363175392
907,1.55965597121e+18,10.01046276,-9.557945251,5.253038883
908,1.55965597126e+18,3.565075159,-2.976083517,-0.4501236677
909,1.55965597131e+18,1.070240855,-0.6608198285,0.09577099234
910,1.55965597136e+18,-2.983266354,1.932179809,0.8858816624
911,1.55965597141e+18,-1.290514112,6.986494064,0.3256213665
912,1.55965597147e+18,-4.585036278,-2.245829821,0.316044271
913,1.55965597152e+18,9.90750885,-20.63864899,14.09749031
914,1.55965597157e+18,1.9944309,-21.10074425,3.466909885
915,1.55965597162e+18,3.100585938,-12.47896004,4.185192585
916,1.55965597167e+18,7.324086666,-11.66730118,5.011217117
917,1.55965597173e+18,4.501236439,-10.35763264,4.733481407
918,1.55965597178e+18,7.963357925,-9.574705124,3.88111949
919,1.55965597183e+18,7.319298267,-7.307326794,4.237866402
920,1.55965597188e+18,6.371165276,-4.970514297,2.291321039
921,1.55965597193e+18,5.564294815,-0.651242733,0.14844504
922,1.55965597199e+18,4.517996788,2.128510237,0.332804203
923,1.55965597204e+18,3.929004908,2.171607256,0.7733507752
924,1.55965597209e+18,-1.75979197,0.2633702159,0.6201171875
925,1.55965597214e+18,5.648094177,-11.06394386,6.270605564
926,1.55965597219e+18,9.411893845,-10.75268841,6.720729351
927,1.55965597225e+18,9.763853073,-19.55404282,9.340065956
928,1.5596559723e+18,5.030371189,-13.85806274,1.321639657
929,1.55965597235e+18,6.727912426,-11.28182316,5.130930901
930,1.5596559724e+18,5.17402792,-10.08947372,3.756617069
931,1.55965597245e+18,6.840443134,-8.552350044,4.647287369
932,1.55965597251e+18,8.102226257,-6.993676662,4.74784708
933,1.55965597256e+18,5.892310143,-3.691971779,3.799714088
934,1.55965597261e+18,5.494860649,-1.498816013,3.028757572
935,1.55965597266e+18,3.833234072,-0.928978622,1.472478986
936,1.55965597271e+18,2.889889717,-1.098972082,0.8499675393
937,1.55965597277e+18,-1.728666425,-0.1340793967,0.4501236677
938,1.55965597282e+18,7.525205612,-3.004814863,4.067873001
939,1.55965597287e+18,3.196356773,-9.464568138,13.28822517
940,1.55965597292e+18,9.201197624,-17.49736023,1.790917516
941,1.55965597297e+18,4.209135056,-12.17249298,2.26737833
942,1.55965597303e+18,8.291373253,-9.799766541,4.881926537
943,1.55965597308e+18,7.113390446,-8.624177933,5.535563469
944,1.55965597313e+18,7.755055904,-8.379961967,5.660065651
945,1.55965597318e+18,8.652909279,-6.44778204,5.537957668
946,1.55965597323e+18,6.265817165,-5.741470814,5.188393593
947,1.55965597329e+18,5.523591995,-3.864359617,5.032765865
948,1.55965597334e+18,1.936968327,-0.5075862408,1.508393168
949,1.55965597339e+18,-0.3040728867,0.907430172,0.1460507661
950,1.55965597344e+18,-4.568276405,-0.7015225291,-1.92978549
951,1.55965597349e+18,5.499649048,-10.73353386,4.635315895
952,1.55965597355e+18,1.087000728,-7.50844574,4.719115734
953,1.5596559736e+18,8.075888634,-18.59393883,8.767834663
954,1.55965597365e+18,5.964138508,-18.59393883,0.2561874092
955,1.5596559737e+18,8.181237221,-11.61941528,6.229903221
956,1.55965597375e+18,7.23071003,-8.111803055,4.453351021
957,1.55965597381e+18,9.213169098,-8.940221786,5.305713177
958,1.55965597386e+18,8.712765694,-8.854028702,4.125335693
959,1.55965597391e+18,5.794145107,-8.621783257,2.657644987
960,1.55965597396e+18,2.985660791,-7.027196407,1.86514008
961,1.55965597401e+18,3.277762175,-5.195576191,-0.241821751
962,1.55965597407e+18,7.472531796,-0.9720755816,0.8595446348
963,1.55965597412e+18,-2.236252785,2.279349566,-1.960911036
964,1.55965597417e+18,1.429382086,-1.659232497,3.043123245
965,1.55965597422e+18,10.89155579,-11.45899963,9.838075638
966,1.55965597427e+18,8.806142807,-13.70482922,5.523591995
967,1.55965597433e+18,7.9729352,-12.50290298,4.723904133
968,1.55965597438e+18,9.976943016,-9.794978142,6.165257454
969,1.55965597443e+18,6.416656494,-9.474145889,4.632921696
970,1.55965597448e+18,7.510839939,-8.997684479,4.348002911
971,1.55965597453e+18,7.65449667,-7.666468143,4.21631813
972,1.55965597459e+18,4.716721535,-4.884320736,2.071047783
973,1.55965597464e+18,2.111750364,-1.917814136,1.702329397
974,1.55965597469e+18,2.652856588,-1.980065227,1.321639657
975,1.55965597474e+18,0.004788549617,0.7015225291,-2.432583094
976,1.55965597479e+18,4.058295727,-6.349617004,-0.07182824612
977,1.55965597485e+18,3.057488918,-8.169265747,8.03758049
978,1.5596559749e+18,10.08708,-18.49816704,10.88916206
979,1.55965597495e+18,1.520364523,-20.1933136,4.185192585
980,1.559655975e+18,8.126168251,-12.98654652,6.842837334
981,1.55965597505e+18,6.787769318,-8.181237221,4.685595989
982,1.55965597511e+18,6.246663094,-8.46376133,4.587430477
983,1.55965597516e+18,8.676852226,-9.316123009,4.017592907
984,1.55965597521e+18,8.439818382,-12.08151054,6.055120945
985,1.55965597526e+18,4.00562191,-4.89629221,0.5387118459
986,1.55965597531e+18,2.063864946,-0.4573064744,0.3208328187
987,1.55965597537e+18,2.899466753,0.8691217303,0.1364736706
988,1.55965597542e+18,6.272999763,-4.328848839,0.1795706153
989,1.55965597547e+18,-5.205153465,6.919454098,-5.435003757
990,1.55965597552e+18,6.361588001,-15.18688488,8.985713005
991,1.55965597557e+18,10.43424988,-17.06639099,9.826104164
992,1.55965597563e+18,4.577853203,-15.76151085,2.719896078
993,1.55965597568e+18,6.80452919,-12.44783497,5.882733345
994,1.55965597573e+18,6.780586243,-9.505270958,3.914639235
995,1.55965597578e+18,6.08624649,-8.868393898,3.907456398
996,1.55965597583e+18,10.441432,-7.752661705,5.219519138
997,1.55965597589e+18,6.565101624,-6.794951916,2.825244188
998,1.55965597594e+18,7.321692467,-3.37113905,1.831620216
999,1.55965597599e+18,7.716747761,-2.174001455,0.7996878028
1000,1.55965597604e+18,1.568249941,-0.5411061049,0.2322446555
1001,1.55965597609e+18,-14.44466019,3.067065954,-3.914639235
1002,1.55965597615e+18,1.812466025,0.7853221297,3.373533249
1003,1.5596559762e+18,3.280156374,-16.60429573,11.65772438
1004,1.55965597625e+18,6.759037971,-21.24918938,6.579467297
1005,1.5596559763e+18,11.23872566,-13.28343678,6.294548512
1006,1.55965597635e+18,3.220299721,-10.55396366,5.188393593
1007,1.55965597641e+18,5.66245985,-9.332882881,4.412648678
1008,1.55965597646e+18,7.671256542,-9.00726223,4.276175022
1009,1.55965597651e+18,8.89951992,-4.479688168,3.936187744
1010,1.55965597656e+18,5.868367672,-2.293715239,5.858790398
1011,1.55965597661e+18,4.235472202,-0.316044271,5.736682415
1012,1.55965597667e+18,5.24106741,0.7446194887,3.581835032
1013,1.55965597672e+18,4.489265442,-1.041509509,-3.007209063
1014,1.55965597677e+18,-0.3663240373,-0.627300024,-1.750214934
1015,1.55965597682e+18,4.913052082,-7.156487465,3.802108288
1016,1.55965597687e+18,4.680807114,-9.773429871,4.462928295
1017,1.55965597693e+18,9.222746849,-17.56918907,6.861991405
1018,1.55965597698e+18,6.672843933,-13.20442581,4.436591148
1019,1.55965597703e+18,8.451789856,-11.01366425,8.008849144
1020,1.55965597708e+18,7.108602047,-8.935433388,6.263422966
1021,1.55965597713e+18,9.014444351,-8.736708641,6.189200401
1022,1.55965597719e+18,8.466156006,-7.170853138,4.441379547
1023,1.55965597724e+18,5.990475655,-4.446168423,4.927417755
1024,1.55965597729e+18,4.398283005,-1.446141958,4.403071404
1025,1.55965597734e+18,4.364762783,-0.4477293789,2.205127001
1026,1.55965597739e+18,4.491659641,-1.980065227,-3.229876757
1027,1.55965597745e+18,3.407052994,-4.470110893,-0.5530774593
1028,1.5596559775e+18,-0.6009629965,-3.943370581,2.358360767
1029,1.55965597755e+18,6.675238132,-10.9897213,5.712739468
1030,1.5596559776e+18,10.80057335,-11.59068394,7.034379482
1031,1.55965597765e+18,6.383136749,-16.95146561,4.436591148
1032,1.5596559777e+18,7.908289909,-11.09746361,8.597841263
1033,1.55965597776e+18,7.048745155,-9.205986977,5.971321583
1034,1.55965597781e+18,6.756643295,-9.538790703,5.073468208
1035,1.55965597786e+18,10.93465328,-10.46537495,6.203566074
1036,1.55965597791e+18,7.778998852,-5.887521744,6.287365437
1037,1.55965597796e+18,4.819674969,-1.757397652,4.142095566
1038,1.55965597802e+18,3.656057596,-0.2130904645,2.008796453
1039,1.55965597807e+18,3.500429869,-1.628106833,-1.97288239
1040,1.55965597812e+18,8.710371971,-3.718308687,0.4237866402
1041,1.55965597817e+18,0.5363175869,0.1628106833,-3.849993944
1042,1.55965597822e+18,3.725491524,-2.219492674,4.254626274
1043,1.55965597828e+18,10.06553173,-10.2570734,7.728719234
1044,1.55965597833e+18,7.846038342,-19.47263718,2.540325642
1045,1.55965597838e+18,10.9945097,-11.57153034,5.162056446
1046,1.55965597843e+18,8.353624344,-9.421471596,5.590631485
1047,1.55965597848e+18,5.257827282,-8.442213058,3.658451796
1048,1.55965597854e+18,11.27464008,-7.989695072,4.17800951
1049,1.55965597859e+18,8.71516037,-4.539545059,4.506025314
1050,1.55965597864e+18,8.758256912,-1.843591571,3.287339211
1051,1.55965597869e+18,9.835680962,-2.442160368,-1.46290195
1052,1.55965597874e+18,2.652856588,-2.37512064,-1.893871427
1053,1.5596559788e+18,-7.790970325,1.242628574,16.77668381
1054,1.55965597885e+18,-8.485309601,8.693612099,-1.063058019
1055,1.5596559789e+18,1.465296149,-14.8828125,8.78219986
1056,1.55965597895e+18,6.019207001,-28.84861755,9.361614227
1057,1.559655979e+18,10.98732662,-15.72080803,1.417410731
1058,1.55965597906e+18,2.171607256,-12.48374844,5.162056446
1059,1.55965597911e+18,8.552350044,-10.11102295,4.194769382
1060,1.55965597916e+18,9.103033066,-10.84367085,2.351177931
1061,1.55965597921e+18,7.850827217,-7.060716629,1.180377483
1062,1.55965597926e+18,6.97691679,-2.688770533,0.9385557175
1063,1.55965597932e+18,5.418243885,0.7134938836,1.010383964
1064,1.55965597937e+18,4.371945858,1.012778282,1.685569525
1065,1.55965597942e+18,2.583422422,-0.03591412306,0.5650488734
1066,1.55965597947e+18,1.182771802,-2.049499273,3.215511084
1067,1.55965597952e+18,5.128536701,-12.19643593,2.650462151
1068,1.55965597958e+18,5.863578796,-9.110215187,7.22831583
1069,1.55965597963e+18,9.07430172,-15.08871937,5.32007885
1070,1.55965597968e+18,7.139727592,-15.96263027,0.5698373914
1071,1.55965597973e+18,9.055147171,-11.06394386,6.0216012
1072,1.55965597978e+18,7.599428177,-10.00327969,3.691971779
1073,1.55965597984e+18,6.93860817,-9.404711723,4.125335693
1074,1.55965597989e+18,7.075081825,-8.097437859,4.32406044
1075,1.55965597994e+18,4.379128456,-4.867560863,4.041535854
1076,1.55965597999e+18,3.313676357,-2.291321039,5.054314137
1077,1.55965598004e+18,3.711125851,-1.78134048,4.393494129
1078,1.5596559801e+18,1.877111435,-0.8763045669,1.041509509
1079,1.55965598015e+18,0.03351984918,-2.288926601,3.000026226
1080,1.5596559802e+18,-0.9098244309,-1.92978549,0.6656084061
1081,1.55965598025e+18,7.78618145,-16.12065315,13.50131607
1082,1.5596559803e+18,5.439792156,-12.99851799,-0.01436564885
1083,1.55965598036e+18,11.50688457,-8.96655941,3.129317284
1084,1.55965598041e+18,6.914665699,-13.88918781,4.367157459
1085,1.55965598046e+18,5.118959427,-11.08549213,4.525179386
1086,1.55965598051e+18,6.08624649,-8.794171333,4.134912491
1087,1.55965598056e+18,8.049551964,-6.237085819,5.363175392
1088,1.55965598062e+18,6.026389599,-3.670423269,3.917033672
1089,1.55965598067e+18,5.080651283,-2.396669149,3.375927448
1090,1.55965598072e+18,5.494860649,-1.807677507,4.019987583
1091,1.55965598077e+18,-0.4333637357,4.276175022,-0.7972934842
1092,1.55965598082e+18,-1.345582485,4.415042877,-1.371919513
1093,1.55965598088e+18,6.146103382,-10.87240219,10.54678059
1094,1.55965598093e+18,6.026389599,-16.71203804,5.365570068
1095,1.55965598098e+18,10.96338463,-16.53964996,1.173194647
1096,1.55965598103e+18,8.351230621,-10.52762604,7.029590607
1097,1.55965598108e+18,4.161249638,-9.823709488,4.817280769
1098,1.55965598114e+18,5.782173634,-9.581888199,5.114171028
1099,1.55965598119e+18,6.756643295,-7.240286827,3.622537851
1100,1.55965598124e+18,6.395108223,-5.418243885,5.308107376
1101,1.55965598129e+18,6.59383297,-2.245829821,4.843617916
1102,1.55965598134e+18,6.383136749,-2.298503876,4.994457245
1103,1.55965598139e+18,4.403071404,-2.047105074,1.604164124
1104,1.55965598145e+18,-2.715107679,0.7518022656,-0.2705530524
1105,1.5596559815e+18,0.948132813,-0.9888355136,3.237059593
1106,1.55965598155e+18,0.08858817071,3.239453793,-2.317657948
1107,1.5596559816e+18,9.699207306,-18.82857704,15.32096481
1108,1.55965598165e+18,8.032792091,-14.76309872,-1.312062621
1109,1.55965598171e+18,9.131764412,-11.56434727,7.12296772
1110,1.55965598176e+18,8.183630943,-10.91549873,6.402290821
1111,1.55965598181e+18,4.826858044,-10.89873886,5.267404556
1112,1.55965598186e+18,7.589851379,-7.166064739,6.423839092
1113,1.55965598191e+18,7.355212212,-7.319298267,5.949772835
1114,1.55965598197e+18,4.482082367,-5.842030525,4.237866402
1115,1.55965598202e+18,5.399089813,-3.294522047,1.836408734
1116,1.55965598207e+18,4.381523132,-0.1891477108,0.7829278708
1117,1.55965598212e+18,6.756643295,2.825244188,5.528380394
1118,1.55965598217e+18,0.3088614643,1.834014535,0.7518022656
1119,1.55965598223e+18,-3.543526649,1.127703428,0.5027977228
1120,1.55965598228e+18,6.146103382,-8.056735039,9.035993576
1121,1.55965598233e+18,8.205180168,-16.86048317,5.126142502
1122,1.55965598238e+18,12.08869362,-16.78147125,6.347222328
1123,1.55965598243e+18,8.025609016,-11.14774323,5.566689014
1124,1.55965598249e+18,8.18602562,-9.404711723,5.734288216
1125,1.55965598254e+18,8.71516037,-8.698400497,7.261835575
1126,1.55965598259e+18,10.39115238,-7.144515991,5.820482254
1127,1.55965598264e+18,9.62977314,-5.209941864,3.079037428
1128,1.55965598269e+18,7.611399651,-3.361561775,1.678386688
1129,1.55965598275e+18,5.037554264,-0.945738554,-0.1005595401
1130,1.5596559828e+18,3.737462997,0.6560313106,1.091789365
1131,1.55965598285e+18,3.411841631,-1.685569525,1.350371003
1132,1.5596559829e+18,0.7541965842,-5.159662247,5.193181992
1133,1.55965598295e+18,-4.728692532,-4.764606953,-0.9696813226
1134,1.55965598301e+18,3.493247032,-6.462147713,8.868393898
1135,1.55965598306e+18,4.474899769,-14.16692448,5.367964268
1136,1.55965598311e+18,11.75349522,-13.37202454,7.29535532
1137,1.55965598316e+18,7.788576126,-10.77902508,7.374366283
1138,1.55965598321e+18,7.905895233,-10.37918091,5.760625362
1139,1.55965598327e+18,10.2474966,-8.059128761,5.248250484
1140,1.55965598332e+18,8.786988258,-7.381549358,5.24106741
1141,1.55965598337e+18,9.816526413,-1.446141958,3.708731651
1142,1.55965598342e+18,8.772623062,1.65444386,5.205153465
1143,1.55965598347e+18,4.975303173,-0.4788549542,1.78134048
1144,1.55965598353e+18,4.458139896,-0.6799740195,-1.302485466
1145,1.55965598358e+18,1.089395046,0.4668835998,0.2370332032
1146,1.55965598363e+18,-3.742251635,0.8044763207,-2.746233225
1147,1.55965598368e+18,-2.123721838,-3.344801903,1.467690468
1148,1.55965598373e+18,9.775823593,-16.4941597,9.596253395
1149,1.55965598379e+18,11.43026829,-22.3098526,7.592245579
1150,1.55965598384e+18,9.251478195,-13.17090607,5.423032284
1151,1.55965598389e+18,10.77663136,-10.31932449,7.965752125
1152,1.55965598394e+18,6.459753513,-9.433443069,4.599401951
1153,1.55965598399e+18,8.030397415,-9.182044029,4.857983589
1154,1.55965598405e+18,7.381549358,-5.700768471,6.079063892
1155,1.5596559841e+18,4.022381783,-4.613767624,5.420638084
1156,1.55965598415e+18,3.744645834,-6.12934351,3.22508812
1157,1.5596559842e+18,2.877918243,-2.250618219,1.295302629
1158,1.55965598425e+18,1.987248063,-3.596200705,-3.356773376
1159,1.55965598431e+18,-1.158828974,-3.909850836,1.101366401
1160,1.55965598436e+18,-0.4333637357,0.4381522834,0.9098244309
1161,1.55965598441e+18,5.324867249,-10.11581135,8.779806137
1162,1.55965598446e+18,9.459779739,-18.21085358,2.528354168
1163,1.55965598451e+18,6.59143877,-10.33129597,7.731113434
1164,1.55965598457e+18,9.227535248,-9.593858719,9.81413269
1165,1.55965598462e+18,7.266623974,-8.643332481,7.264229774
1166,1.55965598467e+18,9.040781975,-9.344854355,7.108602047
1167,1.55965598472e+18,8.401510239,-7.44140625,4.630527496
1168,1.55965598477e+18,6.270605564,-5.98089838,5.727105141
1169,1.55965598483e+18,4.046324253,-0.8954587579,4.802915096
1170,1.55965598488e+18,3.905062199,0.9553156495,5.037554264
1171,1.55965598493e+18,2.209915638,0.2849186957,2.255406857
1172,1.55965598498e+18,6.490879059,-2.901860952,0.5315290093
1173,1.55965598503e+18,-1.460507631,-3.787742853,-2.257801056
1174,1.55965598509e+18,-1.692752242,-3.261002302,2.765387297
1175,1.55965598514e+18,7.130150318,-11.86123753,11.42787361
1176,1.55965598519e+18,6.205960274,-17.76791382,6.251451492
1177,1.55965598524e+18,9.785401344,-11.10943508,8.913885117
1178,1.55965598529e+18,7.982511997,-9.663292885,9.476539612
1179,1.55965598535e+18,6.622564316,-8.717555046,7.743084908
1180,1.5596559854e+18,8.669669151,-8.923461914,6.696786404
1181,1.55965598545e+18,9.306546211,-9.27063179,5.23867321
1182,1.5596559855e+18,5.454157829,-6.23469162,4.036747456
1183,1.55965598555e+18,3.684788942,-11.8827858,2.171607256
1184,1.55965598561e+18,4.029564381,-5.727105141,-1.623318315
1185,1.55965598566e+18,3.000026226,1.300091267,6.653689861
1186,1.55965598571e+18,-6.438204765,6.981705189,-6.988888264
1187,1.55965598576e+18,-8.435029984,6.306519985,-0.3687183261
1188,1.55965598581e+18,3.356773376,-13.14696312,8.70079422
1189,1.55965598587e+18,17.32497215,-26.09998894,5.207547665
1190,1.55965598592e+18,8.095043182,-12.9314785,4.678412914
1191,1.55965598597e+18,10.12059975,-9.143735886,5.825270653
1192,1.55965598602e+18,6.785374641,-8.351230621,4.235472202
1193,1.55965598607e+18,7.534782887,-10.05116558,4.735875607
1194,1.55965598613e+18,8.528407097,-7.077476501,4.474899769
1195,1.55965598618e+18,6.548341751,-6.390319347,2.118933201
1196,1.55965598623e+18,3.028757572,-3.047911882,3.689577579
1197,1.55965598628e+18,1.939362645,1.71669507,2.379909277
1198,1.55965598633e+18,2.279349566,0.5602602959,-0.1819648892
1199,1.55965598639e+18,8.01124382,-0.6799740195,-1.280937076
1200,1.55965598644e+18,-5.267404556,2.997632027,-2.67201066
1201,1.55965598649e+18,7.139727592,-11.49251938,7.592245579
1202,1.55965598654e+18,10.47255802,-17.77509689,5.377541065
1203,1.55965598659e+18,11.59786701,-15.04562283,3.598595142
1204,1.55965598665e+18,8.583475113,-11.46139336,6.237085819
1205,1.5596559867e+18,5.236279011,-8.980924606,3.536343813
1206,1.55965598675e+18,10.55635738,-8.425453186,4.304905891
1207,1.5596559868e+18,10.44382668,-4.168432236,4.187586784
1208,1.55965598685e+18,7.869981289,0.02394274808,3.917033672
1209,1.55965598691e+18,4.767001152,0.5051919818,1.221080184
1210,1.55965598696e+18,4.271386147,-2.719896078,3.016786337
1211,1.55965598701e+18,-1.771763325,-1.381496549,-6.371165276
1212,1.55965598706e+18,-3.555498123,4.053507328,5.329655647
1213,1.55965598711e+18,-0.1891477108,2.609759569,3.931399345
1214,1.55965598717e+18,8.174054146,-17.05681419,11.49730778
1215,1.55965598722e+18,16.38881111,-19.38883781,8.997684479
1216,1.55965598727e+18,5.245856285,-14.34170628,2.054287672
1217,1.55965598732e+18,5.51640892,-8.564320564,5.090228081
1218,1.55965598737e+18,9.622590065,-7.752661705,6.97691679
1219,1.55965598743e+18,9.282603264,-6.555524349,4.676018715
1220,1.55965598748e+18,9.359220505,-5.849213123,3.861965179
1221,1.55965598753e+18,9.201197624,-4.474899769,6.684815407
1222,1.55965598758e+18,2.784541607,-3.567469358,4.618556023
1223,1.55965598763e+18,-3.280156374,0.2897072434,1.474873304
1224,1.55965598769e+18,1.000806928,0.8308133483,-2.0351336
1225,1.55965598774e+18,1.431776285,-3.378321648,-3.629720688
1226,1.55965598779e+18,8.832479477,-13.74074268,4.027170181
1227,1.55965598784e+18,3.320859194,-1.853168726,2.676799297
1228,1.55965598789e+18,9.792584419,-18.81421089,9.469356537
1229,1.55965598795e+18,9.624984741,-13.97538185,5.38472414
1230,1.559655988e+18,7.735901833,-11.78701496,6.713546753
1231,1.55965598805e+18,4.731087208,-9.732727051,3.644086361
1232,1.5596559881e+18,6.881145954,-9.847652435,5.612180233
1233,1.55965598815e+18,10.79099655,-7.101418972,5.700768471
1234,1.55965598821e+18,7.273807049,-6.160469055,4.297723293
1235,1.55965598826e+18,6.268211365,-3.720703125,2.911438227
1236,1.55965598831e+18,5.801327705,-0.3926610649,0.7853221297
1237,1.55965598836e+18,3.96491909,0.09337671846,-0.09337671846
1238,1.55965598841e+18,-10.29059315,2.16203022,-5.964138508
1239,1.55965598847e+18,-4.936994553,5.437397957,0.02154847234
1240,1.55965598852e+18,6.794951916,-22.9898262,8.435029984
1241,1.55965598857e+18,9.517242432,-23.32502556,8.827691078
1242,1.55965598862e+18,8.032792091,-14.54043102,7.206767082
1243,1.55965598867e+18,6.328068256,-11.04957867,7.072687626
1244,1.55965598873e+18,6.948185444,-8.257853508,6.191594601
1245,1.55965598878e+18,8.444606781,-7.716747761,4.491659641
1246,1.55965598883e+18,9.165284157,-6.514821529,3.763799906
1247,1.55965598888e+18,6.694392204,-2.26977253,3.000026226
1248,1.55965598893e+18,5.34641552,1.18756032,4.144489765
1249,1.55965598899e+18,2.18357873,2.044710636,-1.960911036
1250,1.55965598904e+18,3.014391899,-2.499622822,-1.704723716
1251,1.55965598909e+18,-4.245049,-1.319245458,5.411061287
1252,1.55965598914e+18,-1.893871427,-9.335277557,5.961744308
1253,1.55965598919e+18,3.823656797,-11.76546669,11.42547894
1254,1.55965598925e+18,4.613767624,-18.98899269,4.273780346
1255,1.5596559893e+18,10.83169937,-11.69124413,6.402290821
1256,1.55965598935e+18,9.787795067,-7.54675436,7.292961121
1257,1.5596559894e+18,8.569109917,-7.747873306,5.918647289
1258,1.55965598945e+18,10.41509533,-8.523618698,5.379935265
1259,1.55965598951e+18,8.260248184,-6.435810566,4.592218876
1260,1.55965598956e+18,10.37918091,-5.504437923,2.880312681
1261,1.55965598961e+18,4.252232075,-2.755810261,0.5075862408
1262,1.55965598966e+18,0.4908263385,-1.175588965,0.6009629965
1263,1.55965598971e+18,6.23469162,-2.33441782,12.60825157
1264,1.55965598977e+18,-2.937775135,4.527573586,-2.856369734
1265,1.55965598982e+18,-1.795706153,-2.525959969,4.127729893
1266,1.55965598987e+18,8.363202095,-6.565101624,9.529213905
1267,1.55965598992e+18,5.358386993,-20.95229912,4.261809349
1268,1.55965598997e+18,12.41670895,-12.63458824,7.908289909
1269,1.55965599003e+18,7.537177086,-8.916279793,6.962551117
1270,1.55965599008e+18,7.134938717,-8.411087036,5.514014721
1271,1.55965599013e+18,8.662486076,-9.41907692,5.032765865
1272,1.55965599018e+18,8.162082672,-7.848433018,4.525179386
1273,1.55965599023e+18,6.644112587,-4.652075768,1.407833576
1274,1.55965599029e+18,4.120546818,-2.087807655,0.4309694767
1275,1.55965599034e+18,3.952947617,0.4022381604,1.90823698
1276,1.55965599039e+18,2.420611858,0.3543526828,0.651242733
1277,1.55965599044e+18,-2.078230619,2.731867552,-1.134886265
1278,1.55965599049e+18,-3.737462997,1.573038578,1.553884387
1279,1.55965599055e+18,9.129369736,-15.61306572,8.813325882
1280,1.5596559906e+18,10.93465328,-20.48062706,3.550709486
1281,1.55965599065e+18,11.03760719,-13.21639729,6.306519985
1282,1.5596559907e+18,6.651295185,-9.893143654,4.247443676
1283,1.55965599075e+18,5.681613922,-8.940221786,3.73267436
1284,1.55965599081e+18,8.279402733,-8.406298637,3.996044636
1285,1.55965599086e+18,8.432636261,-6.431022167,4.201952457
1286,1.55965599091e+18,6.440599442,-2.147664547,4.60179615
1287,1.55965599096e+18,4.56109333,1.201925993,3.215511084
1288,1.55965599101e+18,3.780560017,-1.106154919,0.1604164094
1289,1.55965599107e+18,9.361614227,-1.867534399,5.111776829
1290,1.55965599112e+18,-2.286532402,-2.296109438,0.1149251908
1291,1.55965599117e+18,0.009577099234,-1.793311834,2.760598898
1292,1.55965599122e+18,7.731113434,-6.852414608,9.10063839
1293,1.55965599127e+18,7.266623974,-14.80858994,2.964112282
1294,1.55965599133e+18,12.36164093,-14.27466679,6.984099388
1295,1.55965599138e+18,8.865999222,-8.779806137,5.578660488
1296,1.55965599143e+18,7.482108593,-9.299363136,5.06867981
1297,1.55965599148e+18,7.314509392,-9.105426788,4.048718929
1298,1.55965599153e+18,9.852440834,-8.348835945,4.146883965
1299,1.55965599159e+18,5.514014721,-5.549929142,2.150058746
1300,1.55965599164e+18,5.322473049,0.9409499764,1.592192769
1301,1.55965599169e+18,2.947352171,3.131711483,2.126116037
1302,1.55965599174e+18,-0.8643332124,1.613741279,-0.5889915824
1303,1.55965599179e+18,-8.583475113,9.86680603,-4.297723293
1304,1.55965599185e+18,0.1077423692,-6.478907585,5.308107376
1305,1.5596559919e+18,6.337645531,-19.14701653,13.76229191
1306,1.55965599195e+18,14.95464039,-23.11432838,2.219492674
1307,1.559655992e+18,5.202759266,-12.98654652,2.686376333
1308,1.55965599205e+18,7.300143719,-8.490098,3.220299721
1309,1.55965599211e+18,7.058321953,-7.568302631,3.907456398
1310,1.55965599216e+18,9.222746849,-6.292154312,4.913052082
1311,1.55965599221e+18,6.311308384,-6.732700825,4.041535854
1312,1.55965599226e+18,7.223526955,-3.876330853,2.406246185
1313,1.55965599231e+18,4.613767624,-1.343188167,-1.453324795
1314,1.55965599237e+18,1.288119793,0.5770202279,-3.787742853
1315,1.55965599242e+18,-2.834821463,-0.2609759569,-3.641691923
1316,1.55965599247e+18,-3.416630268,2.094990492,0.8116591573
1317,1.55965599252e+18,8.70079422,-12.2610817,9.641744614
1318,1.55965599257e+18,8.602629662,-17.98100471,2.803695917
1319,1.55965599263e+18,12.6058569,-16.05600739,4.869955063
1320,1.55965599268e+18,7.860404015,-11.52843285,5.573871613
1321,1.55965599273e+18,7.75984478,-9.991309166,3.974496126
1322,1.55965599278e+18,6.993676662,-9.615407944,4.383917332
1323,1.55965599283e+18,7.987300873,-7.213950157,3.852388144
1324,1.55965599289e+18,6.16765213,-3.028757572,4.565882206
1325,1.55965599294e+18,6.103006363,-0.5961744189,2.272166729
1326,1.55965599299e+18,3.510006905,-1.486844659,1.048692346
1327,1.55965599304e+18,-0.29689008,-5.260221958,1.046298146
1328,1.55965599309e+18,0.7757450342,-0.9026415944,1.932179809
1329,1.55965599315e+18,1.168406129,-5.688796997,3.378321648
1330,1.5596559932e+18,2.813272953,-9.122186661,9.653716087
1331,1.55965599325e+18,7.980117798,-11.74391747,7.345634937
1332,1.5596559933e+18,9.675264359,-18.03607178,5.59781456
1333,1.55965599335e+18,9.246688843,-11.98334503,8.420664787
1334,1.55965599341e+18,8.102226257,-9.555550575,4.941783428
1335,1.55965599346e+18,6.759037971,-10.39594078,4.838829517
1336,1.55965599351e+18,9.725543976,-9.445414543,4.767001152
1337,1.55965599356e+18,8.348835945,-8.11898613,5.162056446
1338,1.55965599361e+18,3.715914488,-6.502850533,-0.8020820618
1339,1.55965599367e+18,0.01675992459,-5.901887417,-3.694365978
1340,1.55965599372e+18,-6.823683262,0.9577099085,-2.715107679
1341,1.55965599377e+18,4.441379547,-8.341653824,6.581861496
1342,1.55965599382e+18,0.1699935049,-0.3471698463,8.813325882
1343,1.55965599387e+18,6.40468502,-33.39295197,9.328094482
1344,1.55965599393e+18,9.33767128,-17.75833702,1.594586968
1345,1.55965599398e+18,5.104593754,-13.19005966,3.488458395
1346,1.55965599403e+18,7.755055904,-7.841249943,3.83802247
1347,1.55965599408e+18,6.749460697,-8.420664787,4.553910732
1348,1.55965599413e+18,6.87156868,-6.651295185,3.153259993
1349,1.55965599419e+18,6.684815407,-2.626519442,2.846792698
1350,1.55965599424e+18,7.197190285,0.4094209969,3.016786337
1351,1.55965599429e+18,5.06867981,-2.116539001,0.8858816624
1352,1.55965599434e+18,-0.4309694767,-3.368744612,-4.683201313
1353,1.55965599439e+18,4.647287369,1.628106833,-3.062277555
1354,1.55965599445e+18,-2.078230619,-2.078230619,0.1747820675
1355,1.5596559945e+18,10.09426212,-23.09996414,14.72478962
1356,1.55965599455e+18,-1.630501151,-20.63146591,-0.3471698463
1357,1.5596559946e+18,4.731087208,-12.43586349,7.992089272
1358,1.55965599465e+18,8.458972931,-8.978530884,3.799714088
1359,1.55965599471e+18,4.156461239,-7.853221416,4.462928295
1360,1.55965599476e+18,8.892336845,-8.07828331,5.157268047
1361,1.55965599481e+18,5.803721905,-9.428654671,3.074248791
1362,1.55965599486e+18,2.710319042,-7.635342598,0.05985686928
1363,1.55965599491e+18,-2.846792698,-0.2801301479,-1.266571403
1364,1.55965599497e+18,-5.839636326,11.13577175,-5.782173634
1365,1.55965599502e+18,-2.827638626,-13.95383358,7.71914196
1366,1.55965599507e+18,8.049551964,-14.95703506,4.532361984
1367,1.55965599512e+18,9.031204224,-16.02488136,3.433390141
1368,1.55965599517e+18,5.791750908,-13.26428223,7.558725357
1369,1.55965599523e+18,6.522004604,-10.40791225,5.02558279
1370,1.55965599528e+18,6.186806202,-11.81095791,4.098998547
1371,1.55965599533e+18,7.927443981,-9.751881599,3.423812866
1372,1.55965599538e+18,6.344828129,-5.717528343,3.146077156
1373,1.55965599543e+18,3.45733285,-3.493247032,1.403045058
1374,1.55965599549e+18,-1.345582485,-1.285725594,2.300898075
1375,1.55965599554e+18,-4.134912491,2.379909277,-2.135693073
1376,1.55965599559e+18,-3.289733648,-5.684008598,-0.3447755575
1377,1.55965599564e+18,6.888328552,-14.60028744,7.163670063
1378,1.55965599569e+18,8.332076073,-19.42235756,3.0957973
1379,1.55965599575e+18,5.70316267,-13.21400261,8.1453228
1380,1.5596559958e+18,5.221913338,-10.08947372,5.379935265
1381,1.55965599585e+18,5.190787792,-9.852440834,4.611373425
1382,1.5596559959e+18,7.908289909,-9.838075638,4.666441441
1383,1.55965599595e+18,6.450176239,-8.499675751,4.731087208
1384,1.55965599601e+18,5.758230686,-6.955368519,5.470917702
1385,1.55965599606e+18,1.412622094,-3.617749214,0.3663240373
1386,1.55965599611e+18,-7.922655106,1.54670155,-6.782980442
1387,1.55965599616e+18,3.397475958,-6.811711788,2.75820446
1388,1.55965599621e+18,5.27937603,-4.620950222,4.127729893
1389,1.55965599627e+18,6.522004604,-16.20684624,6.237085819
1390,1.55965599632e+18,6.835654736,-16.46303368,2.810878515
1391,1.55965599637e+18,3.87872529,-11.19323444,4.237866402
1392,1.55965599642e+18,7.518023014,-11.79419804,4.460534096
1393,1.55965599647e+18,5.497254848,-11.43745041,3.885908127
1394,1.55965599653e+18,8.468549728,-10.38636398,4.92023468
1395,1.55965599658e+18,7.625765324,-7.206767082,3.471698523
1396,1.55965599663e+18,6.246663094,-4.302511692,1.812466025
1397,1.55965599668e+18,4.079844475,-2.343995094,-2.044710636
1398,1.55965599673e+18,-2.516382933,-0.1245022863,-4.13730669
1399,1.55965599679e+18,-10.9992981,8.640937805,25.59958649
1400,1.55965599684e+18,0.1436564922,18.65140152,-0.9098244309
1401,1.55965599689e+18,10.61621475,-38.50712204,10.75029373
1402,1.55965599694e+18,8.786988258,-17.84453011,1.40065074
1403,1.55965599699e+18,3.87872529,-13.77186871,3.96491909
1404,1.55965599705e+18,4.577853203,-10.3097477,1.984853864
1405,1.5596559971e+18,6.119766235,-6.495667458,5.487678051
1406,1.55965599715e+18,9.17725563,-4.257020473,5.332049847
1407,1.5596559972e+18,9.790189743,-6.023995399,6.411868095
1408,1.55965599725e+18,10.36960411,-4.618556023,3.20353961
1409,1.5596559973e+18,2.703136206,-1.628106833,2.382303476
1410,1.55965599736e+18,-3.94576478,-0.4477293789,-5.66485405
1411,1.55965599741e+18,-1.640078187,-0.3735068738,2.336812258
1412,1.55965599746e+18,-9.471751213,2.05668211,-6.727912426
1413,1.55965599751e+18,5.478100777,-9.955394745,6.996070862
1414,1.55965599756e+18,10.28341007,-30.57489014,3.703943014
1415,1.55965599762e+18,7.920260906,-12.60346222,6.80452919
1416,1.55965599767e+18,8.650514603,-9.387951851,5.863578796
1417,1.55965599772e+18,5.973715782,-9.110215187,3.689577579
1418,1.55965599777e+18,8.983319283,-6.656084061,4.632921696
1419,1.55965599782e+18,8.916279793,-4.278569221,6.002447128
1420,1.55965599788e+18,6.943397045,-1.163617611,4.944177628
1421,1.55965599793e+18,7.039167881,-0.1197137386,2.288926601
1422,1.55965599798e+18,6.787769318,-0.8595446348,6.423839092
1423,1.55965599803e+18,-7.134938717,3.701548815,-5.332049847
1424,1.55965599808e+18,-3.20353961,-2.212309837,-0.2490045726
1425,1.55965599814e+18,8.344047546,-9.28499794,9.64413929
1426,1.55965599819e+18,7.448588848,-20.99539566,7.486897469
1427,1.55965599824e+18,12.26587009,-12.41431522,6.962551117
1428,1.55965599829e+18,7.628159523,-7.834067345,6.435810566
1429,1.55965599834e+18,6.493273258,-7.486897469,5.193181992
1430,1.5596559984e+18,9.823709488,-7.328875065,6.387925148
1431,1.55965599845e+18,8.830085754,-4.345608711,4.867560863
1432,1.5596559985e+18,7.199584484,-1.189954638,3.883513689
1433,1.55965599855e+18,4.532361984,-0.167599231,3.107768774
1434,1.5596559986e+18,2.511594296,-2.808484316,2.35357213
1435,1.55965599866e+18,-0.1292908341,-3.931399345,-0.8810931444
1436,1.55965599871e+18,5.652883053,-0.4884320498,6.80452919
1437,1.55965599876e+18,4.944177628,-8.626572609,6.000052452
1438,1.55965599881e+18,-1.304879785,-4.000833035,4.036747456
1439,1.55965599886e+18,12.84288979,-24.95552635,7.458166122
1440,1.55965599892e+18,11.54758739,-12.9506321,5.224307537
1441,1.55965599897e+18,9.462174416,-8.394327164,5.633728504
1442,1.55965599902e+18,8.174054146,-9.294574738,5.470917702
1443,1.55965599907e+18,9.572310448,-7.515628815,3.227482557
1444,1.55965599912e+18,5.820482254,-2.973689318,2.37512064
1445,1.55965599918e+18,2.897072554,-0.4549122155,1.762186289
1446,1.55965599923e+18,2.233858347,-0.6632141471,0.01197137404
1447,1.55965599928e+18,-1.565855742,-7.391126156,3.265790939
1448,1.55965599933e+18,4.869955063,-10.07989693,0.07661679387
1449,1.55965599938e+18,-0.3256213665,-2.801301479,4.185192585
1450,1.55965599944e+18,5.202759266,-12.80218697,4.125335693
1451,1.55965599949e+18,9.383162498,-18.98659897,4.271386147
1452,1.55965599954e+18,10.57072353,-11.38477707,4.946571827
1453,1.55965599959e+18,7.283383846,-10.85564232,5.071074009
1454,1.55965599964e+18,8.813325882,-9.366402626,5.377541065
1455,1.5596559997e+18,7.0846591,-7.798152924,3.359167576
1456,1.55965599975e+18,5.035160065,-4.012804508,2.901860952
1457,1.5596559998e+18,4.149278164,-0.4908263385,2.518777132
1458,1.55965599985e+18,0.04788549617,-1.817254543,-3.763799906
1459,1.5596559999e+18,-5.411061287,-6.119766235,-1.268965602
1460,1.55965599996e+18,4.678412914,-4.759818554,8.844450951
1461,1.55965600001e+18,8.135746002,-16.22360611,7.570696831
1462,1.55965600006e+18,0.6081457734,-18.15578651,1.343188167
1463,1.55965600011e+18,8.138139725,-9.126976013,4.965725899
1464,1.55965600016e+18,7.558725357,-11.99771118,5.873156071
1465,1.55965600022e+18,6.272999763,-10.8197279,4.743058205
1466,1.55965600027e+18,9.28499794,-10.16609097,3.759011507
1467,1.55965600032e+18,8.413481712,-6.787769318,4.53715086
1468,1.55965600037e+18,4.235472202,-4.506025314,3.864359617
1469,1.55965600042e+18,3.057488918,-0.8284190893,4.565882206
1470,1.55965600048e+18,-1.989642382,-1.460507631,-1.522758722
1471,1.55965600053e+18,3.533949614,0.04788549617,11.67687798
1472,1.55965600058e+18,0.7134938836,-2.535537004,4.616161823
1473,1.55965600063e+18,8.341653824,-12.63698196,5.013611317
1474,1.55965600068e+18,8.15968895,-17.86847305,6.261028767
1475,1.55965600074e+18,6.778192043,-11.4901247,4.580247879
1476,1.55965600079e+18,3.861965179,-9.605830193,6.232297421
1477,1.55965600084e+18,8.58108139,-10.64255142,6.134131908
1478,1.55965600089e+18,10.79339123,-8.317710876,4.690384388
1479,1.55965600094e+18,9.148524284,-7.233104229,3.136499882
1480,1.559656001e+18,1.941756845,-7.115784645,1.829225898
1481,1.55965600105e+18,-2.025556564,-5.020794392,-0.4788549542
1482,1.5596560011e+18,-2.243435383,0.7589851022,-2.717501879
1483,1.55965600115e+18,9.871595383,4.343214512,13.50370979
1484,1.5596560012e+18,4.831646442,-2.964112282,7.72153616
1485,1.55965600126e+18,7.051139355,-6.004841328,-1.534730196
1486,1.55965600131e+18,8.150111198,-18.47183037,2.468497276
1487,1.55965600136e+18,10.05356026,-10.61382008,6.727912426
1488,1.55965600141e+18,10.23791885,-9.409500122,7.23071003
1489,1.55965600146e+18,8.164477348,-8.973741531,5.423032284
1490,1.55965600152e+18,10.67128277,-8.559532166,4.405465603
1491,1.55965600157e+18,7.211555958,-6.557918549,2.743839025
1492,1.55965600162e+18,5.837242126,-5.585843086,-1.479661822
1493,1.55965600167e+18,2.880312681,-3.411841631,-0.4285751879
1494,1.55965600172e+18,-4.348002911,0.6225114465,-6.170046329
1495,1.55965600178e+18,11.50209618,-9.58907032,1.185166001
1496,1.55965600183e+18,2.008796453,-7.494080067,4.331243038
1497,1.55965600188e+18,0.2298503816,-12.70641613,3.749434233
1498,1.55965600193e+18,9.356825829,-15.17491341,8.662486076
1499,1.55965600198e+18,8.482915878,-12.26826382,10.23791885
1500,1.55965600204e+18,7.496474266,-9.347249031,7.070293427
1501,1.55965600209e+18,6.064698219,-9.658504486,5.253038883
1502,1.55965600214e+18,8.334470749,-9.256266594,4.393494129
1503,1.55965600219e+18,8.442213058,-5.298530102,1.48445034
1504,1.55965600224e+18,5.925830364,-6.773403645,-2.078230619
1505,1.5596560023e+18,-1.721483588,-5.729499817,-6.330462456
1506,1.55965600235e+18,0.7350423932,-9.443019867,3.30888772
1507,1.5596560024e+18,-9.96257782,3.969707727,-4.412648678
1508,1.55965600245e+18,7.692804813,-22.4654808,11.00648117
1509,1.5596560025e+18,-0.6967339516,-21.4263649,-3.373533249
1510,1.55965600256e+18,8.32968235,-14.98576641,7.664073467
1511,1.55965600261e+18,5.992869854,-15.28265572,2.88510108
1512,1.55965600266e+18,5.023188591,-10.70240879,3.162837029
1513,1.55965600271e+18,4.28335762,-6.174834728,2.449343204
1514,1.55965600276e+18,2.291321039,-5.267404556,4.010410309
1515,1.55965600282e+18,5.514014721,-3.533949614,4.819674969
1516,1.55965600287e+18,0.5794144869,-2.169213057,0.3040728867
1517,1.55965600292e+18,1.606558442,-1.144463301,2.243435383
1518,1.55965600297e+18,-2.027950764,0.7996878028,-0.3639297783
1519,1.55965600302e+18,3.246636629,-3.196356773,2.82045579
1520,1.55965600308e+18,12.11742496,-16.74555779,8.028003693
1521,1.55965600313e+18,7.968146324,-25.45114136,2.846792698
1522,1.55965600318e+18,8.07828331,-14.82295513,4.180403709
1523,1.55965600323e+18,6.811711788,-13.6545496,1.630501151
1524,1.55965600328e+18,4.331243038,-10.78141975,1.805283189
1525,1.55965600334e+18,5.106987953,-5.825270653,2.492439985
1526,1.55965600339e+18,3.804502726,-4.982485771,0.9337671995
1527,1.55965600344e+18,-0.5865973234,-4.948966026,-0.7853221297
1528,1.55965600349e+18,-4.819674969,-1.630501151,-3.869148016
1529,1.55965600354e+18,7.33366394,-3.256213665,-1.482056141
1530,1.5596560036e+18,0.4668835998,-9.373585701,2.870735407
1531,1.55965600365e+18,3.363956213,-16.0775547,6.201171875
1532,1.5596560037e+18,14.95224571,-16.1254406,0.7829278708
1533,1.55965600375e+18,4.611373425,-14.29621506,2.650462151
1534,1.5596560038e+18,6.371165276,-11.41350842,3.280156374
1535,1.55965600386e+18,9.478934288,-7.29535532,2.621730804
1536,1.55965600391e+18,6.265817165,-1.898659945,2.399063349
1537,1.55965600396e+18,2.710319042,-1.963305354,3.64648056
1538,1.55965600401e+18,2.767781734,-3.093403101,-1.690358043
1539,1.55965600406e+18,1.714300752,-3.691971779,9.651321411
1540,1.55965600412e+18,-6.768614769,3.883513689,0.3663240373
1541,1.55965600417e+18,7.594639778,-26.61715317,9.658504486
1542,1.55965600422e+18,3.703943014,-18.7375946,-5.449369431
1543,1.55965600427e+18,6.313702583,-14.68648148,2.676799297
1544,1.55965600432e+18,5.06867981,-13.26907063,2.078230619
1545,1.55965600438e+18,4.587430477,-8.439818382,3.543526649
1546,1.55965600443e+18,8.035185814,-5.013611317,4.314483166
1547,1.55965600448e+18,6.548341751,-3.411841631,0.8164477348
1548,1.55965600453e+18,3.280156374,-3.632114887,0.3256213665
1549,1.55965600458e+18,6.462147713,0.5722316504,14.82534981
1550,1.55965600464e+18,-6.000052452,17.562006,-1.71669507
1551,1.55965600469e+18,7.836461544,-25.97788239,11.11901188
1552,1.55965600474e+18,4.901080608,-24.86933327,-4.611373425
1553,1.55965600479e+18,3.632114887,-13.11344337,2.444554567
1554,1.55965600484e+18,2.482862949,-14.73436737,0.1795706153
1555,1.5596560049e+18,6.749460697,-9.651321411,1.659232497
1556,1.55965600495e+18,5.904281616,-4.759818554,2.205127001
1557,1.559656005e+18,7.197190285,-1.608952641,4.38870573
1558,1.55965600505e+18,8.63375473,-0.2705530524,2.727078915
1559,1.5596560051e+18,3.174808502,0.8020820618,0.01675992459
1560,1.55965600516e+18,0.8786988258,-1.101366401,1.640078187
1561,1.55965600521e+18,-0.4429408312,1.92978549,0.1987248063
1562,1.55965600526e+18,3.445361376,-3.514795303,-2.181184292
1563,1.55965600531e+18,2.427794695,-13.93946838,7.324086666
1564,1.55965600536e+18,8.217150688,-23.20770645,4.565882206
1565,1.55965600542e+18,0.6727912426,-16.31698227,-1.295302629
1566,1.55965600547e+18,6.773403645,-13.01527786,5.506832123
1567,1.55965600552e+18,6.172440529,-14.10706711,1.889082789
1568,1.55965600557e+18,7.19000721,-11.64814663,2.612153769
1569,1.55965600562e+18,8.305739403,-7.108602047,3.378321648
1570,1.55965600568e+18,7.278595448,-3.684788942,3.478881359
1571,1.55965600573e+18,3.699154615,-0.7398309112,2.497228622
1572,1.55965600578e+18,1.029538155,0.950527072,1.750214934
1573,1.55965600583e+18,2.245829821,0.943344295,-0.9960182905
1574,1.55965600588e+18,-4.726298332,-0.6392713785,-2.82045579
1575,1.55965600594e+18,12.96260357,-0.4956148863,-4.204346657
1576,1.55965600599e+18,0.3591412306,-0.4046324492,0.2059076279
1577,1.55965600604e+18,9.079090118,-25.24283981,12.25150394
1578,1.55965600609e+18,7.606611252,-18.36648178,-3.782954216
1579,1.55965600614e+18,0.4405465722,-11.93306541,6.411868095
1580,1.5596560062e+18,6.265817165,-12.43346882,6.383136749
1581,1.55965600625e+18,4.623344421,-9.835680962,5.281770229
1582,1.5596560063e+18,9.062330246,-7.18761301,6.347222328
1583,1.55965600635e+18,8.095043182,-6.873962879,4.166038036
1584,1.5596560064e+18,7.965752125,-6.110189438,1.805283189
1585,1.55965600646e+18,2.22667551,-4.063084126,-2.243435383
1586,1.55965600651e+18,1.735849261,-0.1652049571,5.310501575
1587,1.55965600656e+18,0.8571503758,0.2825244367,3.313676357
1588,1.55965600661e+18,-4.982485771,9.929058075,-4.474899769
1589,1.55965600666e+18,1.637683988,-1.426987767,1.652049661
1590,1.55965600672e+18,8.114197731,-15.32096481,9.744698524
1591,1.55965600677e+18,9.306546211,-24.83102417,6.838048935
1592,1.55965600682e+18,6.466936111,-15.69925976,2.954535007
1593,1.55965600687e+18,6.624958515,-11.34886265,5.695979595
1594,1.55965600692e+18,5.854001999,-11.20281219,4.776578426
1595,1.55965600698e+18,8.296162605,-11.18844604,4.577853203
1596,1.55965600703e+18,7.132544518,-8.401510239,3.739857197
1597,1.55965600708e+18,8.109408379,-1.877111435,4.32406044
1598,1.55965600713e+18,9.31133461,-0.986441195,2.126116037
1599,1.55965600718e+18,6.093429565,-3.821262598,1.247417212
1600,1.55965600724e+18,4.00562191,-3.174808502,0.2561874092
1601,1.55965600729e+18,-2.250618219,-1.757397652,-0.7110996246
1602,1.55965600734e+18,-9.184437752,0.962498486,0.5482889414
1603,1.55965600739e+18,-1.752609134,-9.375980377,2.535537004
1604,1.55965600744e+18,7.446194649,-11.50209618,10.40073013
1605,1.55965600749e+18,2.298503876,-21.79268837,5.102199554
1606,1.55965600755e+18,11.83729458,-14.88041782,6.969734192
1607,1.5596560076e+18,4.436591148,-10.65931129,6.682421207
1608,1.55965600765e+18,6.256239891,-9.804554939,5.904281616
1609,1.5596560077e+18,7.841249943,-10.46537495,5.442186832
1610,1.55965600775e+18,8.06391716,-6.708757877,5.937801361
1611,1.55965600781e+18,8.578686714,-3.237059593,2.497228622
1612,1.55965600786e+18,8.58108139,-1.819648862,5.456552505
1613,1.55965600791e+18,4.345608711,5.19797039,5.660065651
1614,1.55965600796e+18,3.629720688,5.997658253,3.404658794
1615,1.55965600801e+18,5.525986195,1.522758722,0.9768640995
1616,1.55965600807e+18,1.795706153,-4.467716694,-5.1333251
1617,1.55965600812e+18,-0.7877163887,-7.395915031,0.02154847234
1618,1.55965600817e+18,9.234718323,-4.81488657,-2.818061352
1619,1.55965600822e+18,6.184412003,-15.43588924,9.778218269
1620,1.55965600827e+18,12.49811459,-15.95784187,4.058295727
1621,1.55965600833e+18,1.850774407,-10.22594738,4.520390987
1622,1.55965600838e+18,10.58748341,-10.85803604,10.4222784
1623,1.55965600843e+18,9.340065956,-9.613013268,6.771008968
1624,1.55965600848e+18,11.21957207,-8.897125244,5.051919937
1625,1.55965600853e+18,8.60741806,-9.783006668,3.718308687
1626,1.55965600859e+18,5.38711834,-4.427014351,3.069460392
1627,1.55965600864e+18,4.122941017,-1.477267504,4.010410309
1628,1.55965600869e+18,3.292127848,-0.7278595567,1.668809533
1629,1.55965600874e+18,1.161223292,-2.966506481,-3.083826065
1630,1.55965600879e+18,2.918621063,-2.698347807,-3.057488918
1631,1.55965600885e+18,-2.516382933,-4.939388752,0.3256213665
1632,1.5596560089e+18,7.822095871,-18.71125793,10.77902508
1633,1.55965600895e+18,7.302538395,-11.77025509,9.443019867
1634,1.559656009e+18,8.286584854,-20.81343079,4.881926537
1635,1.55965600905e+18,1.44135344,-14.41353416,7.352818012
1636,1.55965600911e+18,6.589044094,-9.742303848,5.188393593
1637,1.55965600916e+18,5.514014721,-10.53959751,3.644086361
1638,1.55965600921e+18,9.608224869,-10.8149395,5.267404556
1639,1.55965600926e+18,8.6888237,-8.75586319,5.059102535
1640,1.55965600931e+18,7.40070343,-4.659258842,3.483669758
1641,1.55965600937e+18,3.818868399,-2.059076309,1.879505754
1642,1.55965600942e+18,-3.380716085,-1.551490068,-2.719896078
1643,1.55965600947e+18,-1.206714511,-2.238646984,16.91315651
1644,1.55965600952e+18,-3.119740009,5.475706577,1.848380208
1645,1.55965600957e+18,7.247469902,-16.82696342,9.938634872
1646,1.55965600963e+18,9.517242432,-16.87005997,6.469330311
1647,1.55965600968e+18,3.026363373,-13.54441261,2.463708878
1648,1.55965600973e+18,5.499649048,-12.61543369,7.503657341
1649,1.55965600978e+18,6.201171875,-11.20760059,5.473312378
1650,1.55965600983e+18,7.367183685,-8.832479477,5.224307537
1651,1.55965600989e+18,8.535589218,-7.055927753,5.291347504
1652,1.55965600994e+18,4.575459003,-6.864386082,3.366350412
1653,1.55965600999e+18,1.850774407,-5.363175392,3.296916485
1654,1.55965601004e+18,1.33600533,-3.984073162,-1.084606528
1655,1.55965601009e+18,13.12302017,-1.249811411,4.699961662
1656,1.55965601015e+18,-3.373533249,20.84934425,-4.683201313
1657,1.5596560102e+18,0.9146129489,-12.65853119,7.434223175
1658,1.55965601025e+18,11.79898643,-26.29153252,-0.7015225291
1659,1.5596560103e+18,5.351204395,-14.66253853,3.239453793
1660,1.55965601035e+18,3.292127848,-9.608224869,2.494834423
1661,1.55965601041e+18,6.794951916,-6.409473896,3.828445435
1662,1.55965601046e+18,7.501263142,-4.92023468,3.459727049
1663,1.55965601051e+18,10.02004051,-3.565075159,2.444554567
1664,1.55965601056e+18,7.161275864,-5.837242126,0.5147690773
1665,1.55965601061e+18,3.179596901,-4.374340057,2.118933201
1666,1.55965601067e+18,4.42940855,0.05506832153,0.3040728867
1667,1.55965601072e+18,1.321639657,3.988861799,9.466962814
1668,1.55965601077e+18,-4.21631813,-2.75820446,5.588237286
1669,1.55965601082e+18,5.130930901,-11.75588894,7.819701672
1670,1.55965601087e+18,9.984126091,-22.21168709,4.489265442
1671,1.55965601093e+18,7.632947922,-14.81098366,-0.06943397224
1672,1.55965601098e+18,2.832427025,-10.71198559,1.819648862
1673,1.55965601103e+18,8.257853508,-9.409500122,4.939388752
1674,1.55965601108e+18,9.194015503,-8.391933441,4.280963421
1675,1.55965601113e+18,7.381549358,-6.237085819,2.767781734
1676,1.55965601119e+18,7.65210247,-2.540325642,3.0981915
1677,1.55965601124e+18,4.70953846,-1.431776285,1.194743156
1678,1.55965601129e+18,-1.762186289,-1.290514112,-1.63289547
1679,1.55965601134e+18,-3.342407703,1.613741279,5.609786034
1680,1.55965601139e+18,2.808484316,-17.17173958,12.3831892
1681,1.55965601145e+18,6.979310989,-11.92588329,6.893116951
1682,1.5596560115e+18,3.790137053,-16.55162239,1.376708031
1683,1.55965601155e+18,6.462147713,-11.75349522,3.143682718
1684,1.5596560116e+18,3.706337452,-11.03760719,6.586649895
1685,1.55965601165e+18,9.838075638,-10.88676739,7.778998852
1686,1.55965601171e+18,6.737489223,-10.4797411,6.483695984
1687,1.55965601176e+18,7.680833817,-8.487704277,4.206740856
1688,1.55965601181e+18,6.866780281,-4.00562191,4.807703972
1689,1.55965601186e+18,8.272219658,-0.2705530524,1.235445857
1690,1.55965601191e+18,6.900300026,-0.4189980924,0.627300024
1691,1.55965601197e+18,3.430995703,-3.134105682,0.8978530765
1692,1.55965601202e+18,-0.610540092,-4.108575344,-0.8356019258
1693,1.55965601207e+18,-4.101392746,-3.107768774,-3.433390141
1694,1.55965601212e+18,13.63300037,-10.47255802,6.943397045
1695,1.55965601217e+18,1.54909575,-8.123774529,6.44538784
1696,1.55965601223e+18,4.999245644,-18.45746422,-0.8260248303
1697,1.55965601228e+18,8.772623062,-9.69681263,7.54914856
1698,1.55965601233e+18,5.123748302,-11.66730118,5.525986195
1699,1.55965601238e+18,9.086273193,-11.34886265,5.506832123
1700,1.55965601243e+18,12.26587009,-10.34566116,4.77418375
1701,1.55965601249e+18,10.06553173,-7.544359684,3.77337718
1702,1.55965601254e+18,6.526793003,-2.099778891,1.252205729
1703,1.55965601259e+18,5.865973473,2.339206457,-1.431776285
1704,1.55965601264e+18,2.921015263,-0.4309694767,-2.423006058
1705,1.55965601269e+18,-5.98329258,1.834014535,0.5602602959
1706,1.55965601275e+18,-2.391880512,-7.376760483,5.877944469
1707,1.5596560128e+18,7.992089272,-12.63937664,7.757450581
1708,1.55965601285e+18,3.002420664,-19.19729614,8.652909279
1709,1.5596560129e+18,10.73832226,-13.76947403,8.339259148
1710,1.55965601295e+18,8.238699913,-10.91071033,8.669669151
1711,1.55965601301e+18,9.718361855,-8.921068192,6.950579643
1712,1.55965601306e+18,7.805335999,-11.01366425,4.077449799
1713,1.55965601311e+18,7.307326794,-5.928224564,1.97288239
1714,1.55965601316e+18,6.773403645,-1.721483588,1.319245458
1715,1.55965601321e+18,4.381523132,-0.4908263385,-0.4381522834
1716,1.55965601327e+18,2.600182533,-2.542719841,0.1005595401
1717,1.55965601332e+18,2.178790092,-2.14287591,5.157268047
1718,1.55965601337e+18,-1.087000728,-2.540325642,2.303292274
1719,1.55965601342e+18,2.37512064,-8.37038517,6.27539444
1720,1.55965601347e+18,7.348029613,-12.21559048,6.043149471
1721,1.55965601352e+18,-0.1149251908,-16.24994278,-4.120546818
1722,1.55965601358e+18,9.905115128,-9.897932053,8.099831581
1723,1.55965601363e+18,8.892336845,-8.535589218,7.307326794
1724,1.55965601368e+18,9.016839027,-8.696005821,6.083852291
1725,1.55965601373e+18,11.55237579,-7.9729352,5.411061287
1726,1.55965601378e+18,8.861210823,-7.264229774,4.187586784
1727,1.55965601384e+18,3.41423583,-4.379128456,2.434977531
1728,1.55965601389e+18,3.466909885,-2.679193497,-0.5889915824
1729,1.55965601394e+18,1.024749637,-4.28575182,-2.99044919
1730,1.55965601399e+18,3.028757572,-8.473338127,4.582642078
1731,1.55965601404e+18,-8.473338127,10.97774982,0.03830839694
1732,1.5596560141e+18,6.40707922,-26.57884407,9.756669998
1733,1.55965601415e+18,7.71914196,-23.62670326,-0.1819648892
1734,1.5596560142e+18,3.766194344,-12.00728798,6.586649895
1735,1.55965601425e+18,7.541965485,-11.36083412,4.980091572
1736,1.5596560143e+18,4.640104771,-7.592245579,3.122134447
1737,1.55965601436e+18,8.454184532,-3.720703125,6.007235527
1738,1.55965601441e+18,9.026415825,-4.417437077,5.011217117
1739,1.55965601446e+18,7.113390446,-2.612153769,4.091815472
1740,1.55965601451e+18,8.614601135,-0.4142095447,3.32804203
1741,1.55965601456e+18,6.000052452,-0.986441195,0.2154847383
1742,1.55965601462e+18,-0.5363175869,-1.146857619,2.18357873
1743,1.55965601467e+18,-4.939388752,5.729499817,-2.094990492
1744,1.55965601472e+18,5.34641552,-17.45905113,8.365595818
1745,1.55965601477e+18,10.93225861,-18.766325,7.917866707
1746,1.55965601482e+18,4.613767624,-16.01530457,1.924996972
1747,1.55965601488e+18,5.849213123,-13.4462471,5.276981831
1748,1.55965601493e+18,6.170046329,-11.35365105,4.304905891
1749,1.55965601498e+18,8.212362289,-6.110189438,4.470110893
1750,1.55965601503e+18,9.869200706,-3.703943014,4.0702672
1751,1.55965601508e+18,6.06230402,-2.114144564,1.778946161
1752,1.55965601514e+18,2.358360767,-0.8882759809,1.158828974
1753,1.55965601519e+18,8.710371971,5.396695614,1.853168726
1754,1.55965601524e+18,9.107821465,0.6440598965,0.3687183261
1755,1.55965601529e+18,-1.577827096,-4.841223717,5.458946705
1756,1.55965601534e+18,-2.827638626,-5.121353626,2.803695917
1757,1.5596560154e+18,0.6751855016,-6.811711788,3.96491909
1758,1.55965601545e+18,7.577879906,-15.63222027,10.33129597
1759,1.5596560155e+18,11.22196579,-21.13426399,3.34959054
1760,1.55965601555e+18,10.57790565,-12.88119888,4.359974384
1761,1.5596560156e+18,4.38870573,-10.29298782,0.5626545548
1762,1.55965601566e+18,5.830059052,-11.10943508,2.913832426
1763,1.55965601571e+18,7.89152956,-7.740690231,3.785348415
1764,1.55965601576e+18,5.997658253,-4.149278164,4.338426113
1765,1.55965601581e+18,5.861184597,-2.954535007,4.331243038
1766,1.55965601586e+18,4.654470444,-2.846792698,2.959323645
1767,1.55965601592e+18,-0.7326480746,-3.536343813,-1.649655342
1768,1.55965601597e+18,-5.554717541,2.645673752,3.584229469
1769,1.55965601602e+18,-7.609005451,-3.143682718,-2.360754967
1770,1.55965601607e+18,6.081458092,-27.85738754,11.60744381
1771,1.55965601612e+18,7.697593689,-18.52689934,0.1867534369
1772,1.55965601618e+18,6.114977837,-8.760651588,6.452570438
1773,1.55965601623e+18,7.82688427,-8.645726204,7.180429935
1774,1.55965601628e+18,6.653689861,-9.153312683,6.59143877
1775,1.55965601633e+18,8.150111198,-8.89951992,4.640104771
1776,1.55965601638e+18,5.485283375,-5.578660488,3.296916485
1777,1.55965601644e+18,5.506832123,-6.919454098,0.4118152559
1778,1.55965601649e+18,5.001639843,-4.00562191,-2.966506481
1779,1.55965601654e+18,-0.2657645047,-3.186779737,-4.666441441
1780,1.55965601659e+18,8.454184532,-4.565882206,0.1867534369
1781,1.55965601664e+18,-3.871542454,5.514014721,2.887495518
1782,1.5596560167e+18,8.578686714,-17.01611137,11.4853363
1783,1.55965601675e+18,15.72080803,-14.64338493,6.12934351
1784,1.5596560168e+18,5.600208759,-12.392766,1.065452337
1785,1.55965601685e+18,9.505270958,-10.12299347,5.561900616
1786,1.5596560169e+18,7.046350956,-8.552350044,5.020794392
1787,1.55965601696e+18,7.343240738,-8.250671387,3.56268096
1788,1.55965601701e+18,7.858009815,-5.652883053,3.086220264
1789,1.55965601706e+18,4.506025314,-3.014391899,7.012830734
1790,1.55965601711e+18,3.002420664,0.7326480746,5.894704342
1791,1.55965601716e+18,-0.2346389294,-3.557892323,0.7685621977
1792,1.55965601722e+18,0.3256213665,-4.869955063,-6.416656494
1793,1.55965601727e+18,7.515628815,-16.32416534,-0.4381522834
1794,1.55965601732e+18,0.4501236677,-4.762212753,2.205127001
1795,1.55965601737e+18,5.66245985,-15.99136162,5.566689014
1796,1.55965601742e+18,5.236279011,-13.69046307,1.424593568
1797,1.55965601748e+18,7.637736797,-10.71916866,5.911464691
1798,1.55965601753e+18,9.071907043,-9.943423271,4.489265442
1799,1.55965601758e+18,7.302538395,-10.08947372,4.618556023
1800,1.55965601763e+18,9.73751545,-6.656084061,3.193962574
1801,1.55965601768e+18,10.02243423,-5.267404556,3.131711483
1802,1.55965601774e+18,7.067899227,-0.6560313106,2.027950764
1803,1.55965601779e+18,2.628913641,-3.052700281,0.4166038036
1804,1.55965601784e+18,-5.952167034,-0.5961744189,-2.542719841
1805,1.55965601789e+18,6.083852291,-7.989695072,5.327261448
1806,1.55965601794e+18,0.948132813,-11.11901188,6.80452919
1807,1.559656018e+18,2.315263748,-15.23955917,8.152505875
1808,1.55965601805e+18,10.48931789,-15.17251968,7.745479107
1809,1.5596560181e+18,6.208354473,-11.8348999,8.921068192
1810,1.55965601815e+18,8.401510239,-9.165284157,7.946598053
1811,1.5596560182e+18,7.688016415,-10.93944168,4.958543301
1812,1.55965601826e+18,8.583475113,-8.980924606,3.373533249
1813,1.55965601831e+18,3.768588543,-6.706363678,4.702355862
1814,1.55965601836e+18,2.564268351,-1.695146561,1.431776285
1815,1.55965601841e+18,3.440572977,-3.993650436,0.4285751879
1816,1.55965601846e+18,-0.5411061049,-5.523591995,-1.838803053
1817,1.55965601852e+18,8.877970695,-2.844398499,-0.07661679387
1818,1.55965601857e+18,2.683982134,-6.091034889,4.570670605
1819,1.55965601862e+18,6.294548512,-11.79180336,8.044763565
1820,1.55965601867e+18,0.4405465722,-16.18529701,0.2490045726
1821,1.55965601872e+18,17.14300728,-9.115004539,6.890722752
1822,1.55965601878e+18,8.154899597,-9.258660316,4.264203548
1823,1.55965601883e+18,9.924268723,-8.655303001,3.847599506
1824,1.55965601888e+18,10.90831566,-10.17327404,3.375927448
1825,1.55965601893e+18,7.194795609,-5.925830364,2.571451187
1826,1.55965601898e+18,4.956148624,-6.818894863,1.37910223
1827,1.55965601904e+18,-0.5243461728,-3.261002302,-1.197137356
1828,1.55965601909e+18,1.82443738,-2.858764172,-3.510006905
1829,1.55965601914e+18,0.651242733,-2.35357213,4.652075768
1830,1.55965601919e+18,7.609005451,-13.52046967,3.215511084
1831,1.55965601924e+18,7.455771923,-13.51568127,5.633728504
1832,1.5596560193e+18,1.144463301,-15.43828392,6.474119186
1833,1.55965601935e+18,12.24671555,-10.85803604,3.988861799
1834,1.5596560194e+18,5.518803596,-11.29139996,6.186806202
1835,1.55965601945e+18,8.851634026,-11.16929245,4.757423878
1836,1.5596560195e+18,9.730332375,-11.33210278,2.415823221
1837,1.55965601956e+18,8.054340363,-8.310527802,2.212309837
1838,1.55965601961e+18,9.067118645,-4.527573586,-1.235445857
1839,1.55965601966e+18,4.676018715,-4.075055599,-2.679193497
1840,1.55965601971e+18,1.702329397,-1.819648862,-0.4932205975
1841,1.55965601976e+18,0.483643502,-1.254600048,0.8691217303
1842,1.55965601982e+18,-1.642472506,-4.721509933,-0.481249243
1843,1.55965601987e+18,13.6162405,-8.281796455,18.71604538
1844,1.55965601992e+18,3.636903524,-10.31453609,9.998491287
1845,1.55965601997e+18,-8.38235569,-22.25957298,-3.083826065
1846,1.55965602002e+18,11.81574631,-9.845257759,4.972908974
1847,1.55965602008e+18,6.756643295,-11.69124413,2.554691315
1848,1.55965602013e+18,4.477293968,-11.61941528,3.280156374
1849,1.55965602018e+18,7.980117798,-10.15411949,4.824463844
1850,1.55965602023e+18,4.824463844,-8.111803055,5.463735104
1851,1.55965602028e+18,3.356773376,-3.787742853,5.480494976
1852,1.55965602034e+18,3.383110285,0.1316851079,3.510006905
1853,1.55965602039e+18,11.42787361,-1.855562925,5.514014721
1854,1.55965602044e+18,-4.268991947,1.228263021,4.407859802
1855,1.55965602049e+18,-0.09816526622,0.4309694767,-0.7853221297
1856,1.55965602054e+18,5.17402792,-2.504411459,8.813325882
1857,1.5596560206e+18,-0.1580221355,-5.255433083,3.917033672
1858,1.55965602065e+18,0.167599231,-28.95396614,3.787742853
1859,1.5596560207e+18,13.04400921,-17.97860909,3.639297724
1860,1.55965602075e+18,7.367183685,-10.24270725,4.458139896
1861,1.5596560208e+18,7.194795609,-7.355212212,2.628913641
1862,1.55965602086e+18,8.221940041,-3.857176781,1.740637779
1863,1.55965602091e+18,9.024022102,-2.604970932,3.167625666
1864,1.55965602096e+18,7.707170486,2.466103077,5.312895775
1865,1.55965602101e+18,9.076695442,2.952140808,2.736656189
1866,1.55965602106e+18,8.449396133,-1.007989645,-0.8954587579
1867,1.55965602112e+18,3.387898922,-5.454157829,-4.644893169
1868,1.55965602117e+18,3.450150013,-2.621730804,-6.143709183
1869,1.55965602122e+18,-1.845985889,-2.50201726,0.1556278616
1870,1.55965602127e+18,13.27385998,-18.66097832,13.55398941
1871,1.55965602132e+18,3.052700281,-17.92593575,-2.609759569
1872,1.55965602138e+18,14.80140686,-9.251478195,5.444581032
1873,1.55965602143e+18,7.46774292,-11.4901247,4.098998547
1874,1.55965602148e+18,7.115784645,-10.17327404,2.887495518
1875,1.55965602153e+18,9.672870636,-9.938634872,3.107768774
1876,1.55965602158e+18,7.40309763,-6.873962879,3.316070557
1877,1.55965602164e+18,7.743084908,-1.307274103,3.749434233
1878,1.55965602169e+18,5.391906738,0.984046936,3.170019865
1879,1.55965602174e+18,1.889082789,0.5985686779,0.8236305118
1880,1.55965602179e+18,-1.245022893,-4.161249638,-2.063864946
1881,1.55965602184e+18,11.41590214,-3.888302326,-0.7733507752
1882,1.5596560219e+18,-2.669616461,-2.523565531,-2.14287591
1883,1.55965602195e+18,7.757450581,-18.48140717,12.82373619
1884,1.559656022e+18,4.245049,-11.69124413,2.877918243
1885,1.55965602205e+18,7.036773682,-11.25069714,3.340013266
1886,1.5596560221e+18,4.831646442,-11.98573971,6.703969479
1887,1.55965602216e+18,6.335251331,-10.65931129,4.60419035
1888,1.55965602221e+18,7.472531796,-11.09506989,4.489265442
1889,1.55965602226e+18,7.690410614,-8.212362289,4.096604347
1890,1.55965602231e+18,6.423839092,-3.665634632,5.193181992
1891,1.55965602236e+18,6.043149471,0.2466102988,8.968953133
1892,1.55965602242e+18,4.331243038,1.551490068,3.727885962
1893,1.55965602247e+18,4.479688168,-2.695953369,-0.08619388938
1894,1.55965602252e+18,4.656864643,-7.285778046,-5.008822918
1895,1.55965602257e+18,-4.084632874,-3.404658794,-1.946545362
1896,1.55965602262e+18,2.075836182,-13.16611671,1.343188167
1897,1.55965602268e+18,12.99851799,-21.9315567,19.76952744
1898,1.55965602273e+18,2.67201066,-9.320911407,-2.875524044
1899,1.55965602278e+18,4.946571827,-7.960963726,8.219545364
1900,1.55965602283e+18,7.458166122,-11.56674194,6.890722752
1901,1.55965602288e+18,8.025609016,-10.0918684,4.74784708
1902,1.55965602294e+18,11.17408085,-8.372778893,4.778972626
1903,1.55965602299e+18,7.877163887,-3.433390141,6.352011204
1904,1.55965602304e+18,5.355992794,-0.5339232683,5.480494976
1905,1.55965602309e+18,3.775771379,-7.575485706,1.54670155
1906,1.55965602314e+18,5.399089813,-6.72551775,-2.300898075
1907,1.5596560232e+18,0.1532335877,-4.508419514,4.664047241
1908,1.55965602325e+18,-6.648900986,8.016032219,-7.778998852
1909,1.5596560233e+18,5.195576191,-14.09749031,4.103786945
1910,1.55965602335e+18,9.474145889,-19.72164154,13.87721634
1911,1.5596560234e+18,2.700742006,-16.66654778,4.115758419
1912,1.55965602346e+18,2.296109438,-11.26745701,7.273807049
1913,1.55965602351e+18,8.791776657,-9.84046936,5.329655647
1914,1.55965602356e+18,6.045543671,-9.981731415,3.478881359
1915,1.55965602361e+18,9.273026466,-8.573898315,4.77418375
1916,1.55965602366e+18,5.870761871,-6.850020409,4.029564381
1917,1.55965602372e+18,2.724684715,-2.535537004,1.922602654
1918,1.55965602377e+18,1.774157643,-0.5889915824,-0.2705530524
1919,1.55965602382e+18,-2.751021862,1.613741279,-6.493273258
1920,1.55965602387e+18,2.842004299,-7.024802208,-2.341600657
1921,1.55965602392e+18,6.134131908,-2.379909277,9.557945251
1922,1.55965602398e+18,3.701548815,-15.65855694,5.327261448
1923,1.55965602403e+18,11.96658516,-15.41194725,1.146857619
1924,1.55965602408e+18,0.44533512,-10.55396366,5.435003757
1925,1.55965602413e+18,9.694418907,-10.85564232,7.175641537
1926,1.55965602418e+18,6.876357079,-11.06633854,5.830059052
1927,1.55965602424e+18,11.29858303,-10.14933109,4.764606953
1928,1.55965602429e+18,7.209161282,-8.377567291,2.35596633
1929,1.55965602434e+18,2.976083517,-8.126168251,-0.2609759569
1930,1.55965602439e+18,4.517996788,-4.755029678,-1.819648862
1931,1.55965602444e+18,4.465322495,0.8499675393,0.964892745
1932,1.5596560245e+18,-0.4429408312,2.083019018,0.7853221297
1933,1.55965602455e+18,-0.9816526771,-3.816473961,10.33608437
1934,1.5596560246e+18,1.637683988,-9.411893845,5.825270653
1935,1.55965602465e+18,4.664047241,-12.43586349,4.32406044
1936,1.5596560247e+18,-1.699935079,-15.44307232,-1.46290195
1937,1.55965602476e+18,12.31136131,-11.09506989,5.118959427
1938,1.55965602481e+18,8.281796455,-11.02563572,2.130904675
1939,1.55965602486e+18,8.083071709,-9.01923275,2.954535007
1940,1.55965602491e+18,9.809344292,-7.194795609,3.402264595
1941,1.55965602496e+18,8.753468513,-6.256239891,3.768588543
1942,1.55965602502e+18,8.394327164,-3.893090725,3.984073162
1943,1.55965602507e+18,9.656110764,-4.063084126,4.903474808
1944,1.55965602512e+18,6.703969479,-2.86355257,2.569056988
1945,1.55965602517e+18,0.483643502,-1.625712633,-2.157241583
1946,1.55965602522e+18,-10.95380688,1.070240855,-6.402290821
1947,1.55965602528e+18,0.09577099234,-3.929004908,18.46943665
1948,1.55965602533e+18,8.193208694,-12.10305882,20.30344963
1949,1.55965602538e+18,3.126922846,-12.79500484,-3.24424243
1950,1.55965602543e+18,16.07995033,-11.54519272,7.36239481
1951,1.55965602548e+18,6.715940952,-8.851634026,6.565101624
1952,1.55965602554e+18,12.87162113,-8.071100235,7.350423813
1953,1.55965602559e+18,8.296162605,-9.364008904,4.656864643
1954,1.55965602564e+18,10.05595398,-5.873156071,4.824463844
1955,1.55965602569e+18,12.18446445,-3.387898922,3.428601503
1956,1.55965602574e+18,7.067899227,-1.386285067,0.962498486
1957,1.5596560258e+18,3.040729046,-3.41423583,-1.50599885
1958,1.55965602585e+18,0.5722316504,-4.340820312,-1.92978549
1959,1.5596560259e+18,2.466103077,-7.620976925,1.834014535
1960,1.55965602595e+18,-6.656084061,-0.22266756,-1.161223292
1961,1.559656026e+18,4.944177628,-7.838855743,12.01686573
1962,1.55965602606e+18,3.665634632,-14.13579845,6.522004604
1963,1.55965602611e+18,10.89634418,-15.19646263,9.234718323
1964,1.55965602616e+18,7.556331158,-9.71117878,8.851634026
1965,1.55965602621e+18,7.096630573,-7.999272346,7.805335999
1966,1.55965602626e+18,9.335277557,-8.988107681,7.024802208
1967,1.55965602632e+18,8.995290756,-9.960183144,5.09262228
1968,1.55965602637e+18,5.159662247,-10.56114578,3.622537851
1969,1.55965602642e+18,1.819648862,-7.283383846,3.0957973
1970,1.55965602647e+18,1.051086664,-4.036747456,1.304879785
1971,1.55965602652e+18,1.345582485,1.453324795,2.729473352
1972,1.55965602658e+18,-1.620923996,-2.748627424,0.1340793967
1973,1.55965602663e+18,3.146077156,-4.43180275,2.839609861
1974,1.55965602668e+18,4.022381783,-7.755055904,5.774991035
1975,1.55965602673e+18,11.46857643,-20.65780258,10.85564232
1976,1.55965602678e+18,5.779779434,-10.85324764,9.565128326
1977,1.55965602684e+18,12.32812119,-9.445414543,8.976136208
1978,1.55965602689e+18,5.552323341,-8.870788574,4.563488007
1979,1.55965602694e+18,9.445414543,-8.856422424,4.075055599
1980,1.55965602699e+18,7.04156208,-7.18761301,2.722290516
1981,1.55965602704e+18,5.142902374,-8.526012421,-1.065452337
1982,1.5596560271e+18,1.434170604,-6.883540154,0.4788549542
1983,1.55965602715e+18,0.2537931204,-3.177202702,-1.218685865
1984,1.5596560272e+18,-5.454157829,-2.523565531,2.470891714
1985,1.55965602725e+18,5.739076614,-5.123748302,4.719115734
1986,1.5596560273e+18,0.2394274771,-3.533949614,3.351984739
1987,1.55965602736e+18,7.376760483,-15.69686604,10.63057995
1988,1.55965602741e+18,3.565075159,-16.96583176,-1.683175206
1989,1.55965602746e+18,11.27942848,-10.86521912,4.982485771
1990,1.55965602751e+18,6.900300026,-9.435836792,1.39825654
1991,1.55965602756e+18,7.458166122,-7.618582249,3.510006905
1992,1.55965602762e+18,9.191620827,-6.663266659,3.560286522
1993,1.55965602767e+18,8.111803055,-4.795732498,2.770175934
1994,1.55965602772e+18,6.158074856,-5.051919937,1.455719113
1995,1.55965602777e+18,-6.122160912,-0.3064671755,-6.076669693
1996,1.55965602782e+18,1.54909575,-15.32096481,0.8427847624
1997,1.55965602788e+18,-2.509200096,-3.227482557,2.518777132
1998,1.55965602793e+18,5.367964268,-16.4175415,3.294522047
1999,1.55965602798e+18,7.477320194,-18.00973511,0.5722316504
2000,1.55965602803e+18,8.573898315,-13.24752235,4.759818554
2001,1.55965602808e+18,7.371972084,-11.99771118,3.852388144
2002,1.55965602814e+18,9.534002304,-11.3201313,4.764606953
2003,1.55965602819e+18,9.249083519,-8.75586319,2.073441982
2004,1.55965602824e+18,6.261028767,-4.628133297,0.7015225291
2005,1.55965602829e+18,1.410227895,-4.771789551,-0.2154847383
2006,1.55965602834e+18,-5.085439682,-1.18756032,-3.617749214
2007,1.5596560284e+18,19.20208359,-6.064698219,-2.597788095
2008,1.55965602845e+18,-2.284138203,1.345582485,0.3208328187
2009,1.5596560285e+18,8.578686714,-14.90436077,8.844450951
2010,1.55965602855e+18,4.89629221,-16.76231766,-1.673598051
2011,1.5596560286e+18,7.489291668,-8.15968895,2.37512064
2012,1.55965602866e+18,8.164477348,-11.02084732,3.318464994
2013,1.55965602871e+18,4.017592907,-10.55875206,2.463708878
2014,1.55965602876e+18,6.313702583,-9.241900444,2.88510108
2015,1.55965602881e+18,4.752635479,-8.418270111,3.438178539
2016,1.55965602886e+18,0.7613793612,-8.832479477,1.007989645
