"Time (s)","Acceleration x (m/s^2)","Acceleration y (m/s^2)","Acceleration z (m/s^2)"
5.199427300E-2,-4.783761024E0,-4.388705730E0,4.972908974E0
1.039873150E-1,-5.983292580E0,-4.970514297E0,5.463735104E0
1.559807410E-1,-5.542746067E0,-4.709538460E0,4.786155224E0
2.079744960E-1,-3.325647593E0,-4.587430477E0,5.487678051E0
2.599684860E-1,-9.170072675E-1,-3.560286522E0,5.118959427E0
3.119616120E-1,1.963305324E-1,-3.574652195E0,6.929031372E0
3.639549700E-1,-1.235445857E0,-3.974496126E0,6.838048935E0
4.159483970E-1,-1.137280560E1,-7.348029613E0,4.053507328E0
4.679416560E-1,-7.113390446E0,-4.060689926E0,5.241067410E0
5.199350480E-1,-7.594639778E0,-8.272219658E0,4.465322495E0
5.719284080E-1,-4.649681568E0,-9.198803902E0,3.806896925E0
6.239224280E-1,-5.473312378E0,-9.201197624E0,2.564268351E0
6.759160180E-1,-7.649707794E0,-6.756643295E0,1.436564922E0
7.279094440E-1,-1.001525116E1,-7.790970325E0,9.505270720E-1
7.799026700E-1,-8.803748131E0,-9.747093201E0,2.892283916E0
8.318967280E-1,-7.225921154E0,-1.022834206E1,3.672817469E0
8.838930490E-1,-6.220325947E0,-9.984126091E0,3.093403101E0
9.358867100E-1,-5.243461609E0,-9.775823593E0,3.747040033E0
9.878800360E-1,-3.263396502E0,-1.004398251E1,4.929811954E0
1.039873362E0,-1.041509509E0,-9.148524284E0,7.304932594E0
1.091866755E0,-4.829252243E0,-6.385530949E0,3.897879362E0
1.143860014E0,-4.953754425E0,-6.984099388E0,3.196356773E0
1.195853441E0,-5.456552505E0,-8.250671387E0,4.132518291E0
1.247847393E0,-5.461340904E0,-6.952973843E0,4.422225475E0
1.299841116E0,-5.952167034E0,-4.781366825E0,3.086220264E0
1.351834475E0,-6.258634567E0,-3.835628271E0,3.459727049E0
1.403827734E0,-4.527573586E0,-1.944151163E0,4.122941017E0
1.455821193E0,-4.427014351E0,-2.075836182E0,5.561900616E0
1.507814419E0,1.750214934E0,-3.074248791E0,7.209161282E0
1.559807844E0,-4.692778587E0,-2.286532402E0,4.012804508E0
1.611801070E0,-7.348029613E0,-2.205127001E0,5.458946705E0
1.663795222E0,-1.547419834E1,-3.926610708E0,-1.194743156E0
1.715788745E0,-1.294584370E1,-5.470917702E0,-1.834014535E0
1.767782103E0,-8.430241585E0,-8.418270111E0,1.199531674E0
1.819775529E0,-1.600093842E1,-7.656890869E0,1.005595401E-1
1.871769352E0,-1.183011150E1,-8.272219658E0,3.340013266E0
1.923768040E0,-1.629782867E1,-1.011820507E1,5.150084972E0
1.975765095E0,-1.489717770E1,-9.974549294E0,5.456552505E0
2.027758922E0,-9.804554939E0,-5.279376030E0,3.220299721E0
2.079752214E0,-2.226675510E0,-2.399063349E0,3.380716085E0
2.131745441E0,-2.018373728E0,1.000806928E0,1.563461423E0
2.183738767E0,2.253012657E0,1.963305354E0,5.842030644E-1
2.235732060E0,5.284164429E0,4.067873001E0,-1.692752242E0
2.287725619E0,6.632141113E0,5.755836487E0,-2.868341208E0
2.339719011E0,7.039167881E0,4.163643837E0,-3.387898922E0
2.391713096E0,3.028757572E0,6.967339516E-1,1.103281784E1
2.443706489E0,-1.834493446E1,6.684815407E0,-1.214615631E1
2.495699848E0,1.031692982E1,-5.726865768E1,2.740726280E1
2.547693107E0,-1.605840111E1,-1.402087307E1,4.479688168E0
2.599686500E0,-3.079037428E0,-9.974549294E0,6.356799603E0
2.651679859E0,-4.221106529E0,-4.019987583E0,7.388731956E0
2.703673085E0,-1.613741279E0,-5.202759266E0,1.061621475E1
2.755666777E0,-3.091008663E0,-4.149278164E0,9.821314812E0
2.807660762E0,-4.197163582E0,-4.407859802E0,7.010436535E0
2.857668122E0,-1.951334000E0,-8.497281075E0,5.652883053E0
2.909661381E0,-1.743032098E0,-8.789382935E0,6.404685020E0
2.961654706E0,-3.718308687E0,-8.964164734E0,5.763019562E0
3.013648166E0,-5.288952827E0,-8.351230621E0,5.933012962E0
3.065641459E0,-5.267404556E0,-7.364789486E0,6.134131908E0
3.117635148E0,-4.905869007E0,-7.012830734E0,6.282577038E0
3.169629102E0,-5.116565228E0,-6.352011204E0,6.129343510E0
3.221622428E0,-5.935407162E0,-6.332856655E0,6.428627968E0
3.273615754E0,-5.533169270E0,-5.442186832E0,6.749460697E0
3.325609378E0,-6.627352715E0,-5.552323341E0,6.900300026E0
3.377607731E0,-6.222720146E0,-3.866753817E0,7.467742920E0
3.429605190E0,-5.904281616E0,-2.382303476E0,7.642525196E0
3.481600117E0,-7.968146324E0,-2.327235222E0,8.973741531E0
3.533593410E0,-8.279402733E0,-7.996878028E-1,1.061382008E1
3.585586769E0,-6.395108223E0,1.192348838E0,9.847652435E0
3.637580128E0,-5.566689014E0,3.011997700E0,7.714353561E0
3.689573455E0,-2.260195494E0,5.255433083E0,5.815693378E0
3.741566979E0,-1.041509509E0,4.484476566E0,4.063084126E0
3.793561063E0,-2.437371731E0,2.241041183E0,2.940169573E0
3.845554456E0,-5.200365067E0,-1.582615614E0,2.482862949E0
3.897547782E0,-5.942590237E0,-4.582642078E0,3.445361376E0
3.949541174E0,-8.497281075E0,-7.518023014E0,1.632895470E0
4.001534501E0,-3.150865555E0,6.172440529E0,1.345343018E1
4.053527727E0,-2.882706881E0,3.270579338E0,5.312895775E0
4.105521086E0,-1.281655312E1,5.909070015E0,1.004398251E1
4.157514646E0,-1.057072353E1,3.917033672E0,1.215333939E1
4.209508697E0,-4.388705730E0,4.000833035E0,1.675513458E1
4.261502155E0,-1.819648862E0,4.472505569E0,1.408073044E1
4.313495482E0,2.083019018E0,8.564320564E0,9.545973778E0
4.365488808E0,1.296260357E1,1.502407455E1,1.108549237E0
4.417482365E0,1.934813499E1,2.198423195E1,1.204320192E0
4.469480419E0,1.317569447E1,1.124351406E1,9.957788467E0
4.521477974E0,-7.149304390E0,-3.972101927E0,2.233858347E0
4.573472167E0,-8.238699913E0,-3.654142380E1,1.898659897E1
4.625465527E0,-1.807438087E1,-2.964112282E0,2.885101080E0
4.677458853E0,2.786935806E0,-3.543526828E-1,1.549095750E0
4.729452112E0,3.239453793E0,4.345608711E0,3.009603500E0
4.781445672E0,2.202732801E0,8.676852226E0,3.474092722E0
4.833439065E0,1.058269501E0,9.445414543E0,3.208328247E0
4.885432356E0,2.513988614E-1,8.672063828E0,2.102173328E0
4.937426575E0,9.577099234E-3,7.814912796E0,2.578634024E0
4.989419834E0,-8.212362528E-1,6.627352715E0,2.710319042E0
5.041413126E0,-2.576239586E0,3.057488918E0,4.383917332E0
5.093406586E0,-5.174027920E0,6.273000240E-1,4.453351021E0
5.145400012E0,-6.251451492E0,-3.261002302E0,7.259441376E0
5.197393171E0,-4.597007751E0,-4.963331699E0,8.372778893E0
5.249386730E0,-4.630527496E0,-1.022355366E1,1.166730118E1
5.301380153E0,-5.889915943E0,-1.128182316E1,1.508393097E1
5.353374340E0,-8.652909279E0,-9.529213905E0,1.336484241E1
5.405367632E0,-5.525986195E0,-7.020013809E0,1.330977345E1
5.457360858E0,-5.451763630E0,-6.057515144E0,1.014454269E1
5.509354416E0,-5.523591995E0,-4.324060440E0,9.098244667E0
5.561350473E0,-6.502850533E0,-4.403071404E0,9.299363136E0
5.613344967E0,-5.676825523E0,-3.859570980E0,8.588263512E0
5.665338194E0,-5.631334305E0,-3.172414064E0,7.970541000E0
5.717331553E0,-4.917840481E0,-2.528354168E0,7.642525196E0
5.769324946E0,-3.399870157E0,-8.379961848E-1,7.158881664E0
5.821318238E0,-4.383917332E0,1.314456820E0,7.393520832E0
5.873311598E0,-6.265817165E0,3.612960577E0,8.842057228E0
5.925305254E0,-7.297749519E0,5.832453251E0,9.519637108E0
5.977299140E0,-8.162082672E0,7.003253937E0,9.050358772E0
6.029292699E0,-5.329655647E0,6.215537548E0,6.143709183E0
6.081285959E0,-5.609786034E0,3.272973776E0,7.362394810E0
6.133279218E0,-3.603383541E0,5.770202279E-1,3.648874760E0
6.185272644E0,-4.098998547E0,-5.011217117E0,5.779779434E0
6.237265937E0,-1.502407455E1,-2.935380936E0,-3.070657349E1
6.289259296E0,9.239506721E0,2.602576733E0,1.202644253E1
6.341253184E0,1.135604572E1,3.905062199E0,2.332023621E0
6.393246972E0,6.670449734E0,1.216291547E0,5.588237286E0
6.445240331E0,2.961717844E0,1.805283189E0,7.922655106E0
6.497233657E0,-1.027143836E0,5.487678051E0,9.399923325E0
6.549226983E0,-1.507674885E1,8.487704277E0,7.659285069E0
6.601224070E0,-9.811738014E0,9.577099234E-2,1.936728859E1
6.653222357E0,-5.432609558E0,8.698400497E0,1.708315086E1
6.705217151E0,4.221106529E0,8.739103317E0,1.102084732E1
6.757210442E0,1.457873917E1,1.459549904E1,3.718308687E0
6.809203634E0,2.127073669E1,2.535297585E1,3.677606106E0
6.861197059E0,1.548616982E1,7.745479107E0,2.003529167E1
6.913190351E0,-1.269683933E1,2.154847383E0,-2.592520714E1
6.965183609E0,-8.971347809E0,-2.051414680E1,2.607365370E0
7.017176968E0,-1.397298813E1,-3.672817469E0,1.819648892E-1
7.069170954E0,5.042342663E0,-9.792584181E-1,-3.567469418E-1
7.121164577E0,4.010410309E0,3.486064196E0,2.226675600E-1
7.173158037E0,5.456552505E0,9.919480324E0,1.915419847E-1
7.225151363E0,1.936968327E0,1.047974110E1,-1.101366401E0
7.277144656E0,2.707924843E0,8.051946640E0,-1.043903828E0
7.329138015E0,1.786128998E0,4.491659641E0,3.478881359E0
7.381131274E0,1.041509509E0,4.836435020E-1,6.684815407E0
7.433124667E0,-4.070267200E0,-4.331243038E0,9.706390381E0
7.485118818E0,-2.480468750E0,-1.006553173E1,1.370722294E1
7.537112375E0,-2.585816860E0,-1.217009926E1,1.479901218E1
7.589105635E0,-4.575459003E0,-1.041749001E1,1.102563572E1
7.641099027E0,-6.282577038E0,-9.445414543E0,9.368797302E0
7.693094615E0,-8.253065109E0,-7.891529560E0,7.474925995E0
7.745089609E0,-6.411868095E0,-6.878751755E0,7.671256542E0
7.797083035E0,-6.560312748E0,-6.002447128E0,7.142121792E0
7.849076362E0,-6.732700825E0,-6.031178474E0,7.065505028E0
7.901069854E0,-6.227508545E0,-5.794145107E0,6.936213970E0
7.953063080E0,-6.747066498E0,-6.179623127E0,7.285778046E0
8.005056340E0,-6.239480019E0,-5.171633720E0,7.937020779E0
8.057049599E0,-7.762238979E0,-5.054314137E0,8.590658188E0
8.109043918E0,-6.186806202E0,-3.450150013E0,8.794171333E0
8.161037275E0,-6.617775440E0,-2.106961727E0,9.510059357E0
8.213030634E0,-3.691971779E0,-6.656084061E-1,1.158829021E1
8.265024027E0,-1.517970204E0,-5.961744189E-1,1.120999432E1
8.317017253E0,4.719115734E0,6.584255695E-1,1.334568787E1
8.369010812E0,3.421418667E0,3.553103924E0,8.109408379E0
8.421004205E0,2.183578730E0,5.782173634E0,6.761432171E0
8.472997496E0,-9.220352173E0,3.998438835E0,2.171607256E0
8.524991715E0,-1.668809509E1,-5.327261448E0,7.757450342E-1
8.576985173E0,-1.228741837E1,-1.038157558E1,9.811738014E0
8.628978400E0,-4.266597748E0,-8.786988258E-1,3.416630268E0
8.680971726E0,-3.223412323E1,-2.129228592E1,-4.346566391E1
8.732968180E0,8.231516838E0,1.408551884E1,-4.685595989E0
8.784966634E0,-2.633702382E-2,-9.696813226E-1,-1.623318315E0
8.836961693E0,-5.298530102E0,3.344801903E0,1.386285067E0
8.888955119E0,-5.944984436E0,2.588211060E0,5.102199554E0
8.940948411E0,-9.287391663E0,3.256213665E0,4.108575344E0
8.992941869E0,-1.207672215E1,-8.236305118E-1,4.637710094E0
9.044935097E0,-2.111511040E1,-3.272973776E0,4.132518291E0
9.096928489E0,-2.067456245E1,-8.353624344E0,9.739910126E0
9.148921715E0,-1.932419205E1,-7.860404015E0,1.069043732E1
9.200915573E0,-1.725314522E1,-8.039975166E0,9.450202942E0
9.252909558E0,-1.491393757E1,-7.410280704E0,7.343240738E0
9.304902751E0,-1.020200539E1,-4.474899769E0,6.756643295E0
9.356896177E0,-5.837242126E0,-1.628106833E0,2.990449190E0
9.408889436E0,-1.956122518E0,5.578660369E-1,1.853168726E0
9.460882729E0,8.068706393E-1,3.706337452E0,1.960911036E0
9.512876088E0,1.322597408E1,1.713343048E1,1.436564922E-1
9.564860815E0,1.698259163E1,2.641603470E1,-1.661626697E0
9.616854537E0,1.275430202E1,4.846012115E0,2.143354797E1
9.668848357E0,7.441406250E0,-7.785224152E1,-1.785889626E1
9.720841750E0,-2.939451218E1,-1.240952587E1,4.324060440E0
9.772835043E0,3.778165579E0,-5.887521744E0,-9.194015265E-1
9.824830065E0,4.300117493E0,3.371139050E0,-1.429382086E0
9.876825724E0,3.091008663E0,9.287391663E0,-1.110943556E0
9.928819150E0,3.474092722E0,1.188518047E1,-5.435003638E-1
9.980812376E0,4.048718929E0,1.195461369E1,-1.810071707E0
1.003280584E1,4.800520897E0,1.188996887E1,-1.733454943E0
1.008479906E1,5.193181992E0,7.683228016E0,1.132491946E0
1.013679235E1,3.323253393E0,6.040755272E0,5.820482254E0
1.018878581E1,3.615355015E0,2.413429022E0,8.315316200E0
1.024077947E1,2.346389294E-1,-2.071047783E0,9.821314812E0
1.029277339E1,-2.461314440E0,-5.640911579E0,9.201197624E0
1.034476678E1,-2.535537004E0,-7.834067345E0,9.646533012E0
1.039676007E1,-4.118152618E0,-9.524425507E0,1.156195259E1
1.044875347E1,-5.365570068E0,-9.739910126E0,9.641744614E0
1.050074679E1,-7.573091030E0,-1.036721039E1,8.140534401E0
1.055274015E1,-6.830865860E0,-7.867587090E0,5.925830364E0
1.060473341E1,-4.656864643E0,-5.777385235E0,5.569083214E0
1.065672747E1,-5.748653889E0,-5.691191196E0,6.026389599E0
1.070872112E1,-8.356019020E0,-7.472531796E0,6.203566074E0
1.076071448E1,-9.395133972E0,-8.688823700E0,5.856396198E0
1.081270781E1,-7.245075703E0,-7.343240738E0,5.636122704E0
1.086470310E1,-6.653689861E0,-5.777385235E0,5.257827282E0
1.091670182E1,-8.042368889E0,-4.802915096E0,5.427821159E0
1.096869841E1,-8.348835945E0,-5.095016956E0,8.102226257E0
1.102069217E1,-6.423839092E0,-3.713520288E0,8.607418060E0
1.107268536E1,-8.178842545E0,-2.413429022E0,8.080677032E0
1.112467886E1,-6.883540154E0,6.344828010E-1,7.151699066E0
1.117667208E1,-6.423839092E0,1.838803053E0,6.237085819E0
1.122866541E1,-6.062304020E0,3.181991339E0,6.076669693E0
1.128065887E1,-7.201978683E0,4.400677204E0,4.992063046E0
1.133265302E1,-8.147717476E0,4.829252243E0,7.015225410E0
1.138464651E1,-6.917059898E0,8.353624344E0,5.770202160E0
1.143663987E1,-6.390319347E0,1.128900528E1,5.743865490E0
1.148863326E1,-6.900300026E0,1.133210278E1,7.762238979E0
1.154062652E1,-8.547560692E0,4.314483166E0,7.340846539E0
1.159261985E1,-6.500456333E0,-3.330436230E0,-9.337671846E-2
1.164461328E1,-1.239994907E1,-5.003316116E1,1.823719215E1
1.169660667E1,1.182053471E1,-4.166038036E0,-3.725491524E0
1.174860085E1,4.783761024E0,-1.687963724E0,4.980091453E-1
1.180059421E1,2.700742006E0,-2.839609861E0,5.384724140E0
1.185258747E1,-1.371919513E0,-2.633702278E0,2.185972929E0
1.190458086E1,-4.362368584E0,-6.352011204E0,5.358386993E0
1.195657598E1,-1.075268841E1,-5.628940105E0,4.613767624E0
1.200857484E1,-1.575432777E1,-7.000859737E0,5.772596359E0
1.206057090E1,-2.397626877E1,-1.545025539E1,1.107831001E1
1.211256432E1,-2.287250710E1,-7.577879906E0,9.859623909E0
1.216455755E1,-2.359557915E1,-6.167652130E0,1.117168617E1
1.221655094E1,-1.660668945E1,8.020820618E-1,6.759037971E0
1.226854433E1,-4.671230316E0,3.430995703E0,3.593806505E0
1.232053756E1,-5.698373914E-1,4.089421272E0,5.123748183E-1
1.237253099E1,2.906649590E0,6.289760113E0,6.967339516E-1
1.242452480E1,1.712145996E1,2.219492722E1,-5.937801600E-1
1.247651856E1,2.101694489E1,2.249900055E1,4.022381604E-1
1.252851192E1,8.447001457E0,2.681587934E-1,2.626280022E1
1.258050518E1,2.707206535E1,-3.237538528E1,-7.139727592E0
1.263249854E1,-3.141767311E1,-8.643332481E0,8.770228386E0
1.268449186E1,5.997658253E0,-4.067873001E0,-1.879505754E0
1.273648526E1,4.496448040E0,3.770982742E0,1.994430900E0
1.278847858E1,5.885127544E0,8.581081390E0,-3.974496126E-1
1.284047241E1,2.303292274E0,9.771035194E0,-3.687183261E-1
1.289246623E1,9.337671995E-1,9.368797302E0,2.207521439E0
1.294445955E1,7.302538157E-1,6.567495823E0,4.482082367E0
1.299645288E1,-3.261002302E0,3.998438835E0,6.325674057E0
1.304844727E1,-5.458946705E0,-1.829225898E0,1.073592854E1
1.310044343E1,-4.865166187E0,-3.011997700E0,1.144463348E1
1.315243685E1,-5.674431324E0,-4.702355862E0,1.202165413E1
1.320443034E1,-7.889135361E0,-4.927417755E0,1.092028713E1
1.325642357E1,-9.680052757E0,-4.522785187E0,9.900326729E0
1.330841693E1,-8.420664787E0,-3.727885962E0,8.382355690E0
1.336041029E1,-7.230710030E0,-3.445361376E0,7.869981289E0
1.341240358E1,-7.913078308E0,-3.603383541E0,7.079870701E0
1.346439767E1,-8.830085754E0,-3.316070557E0,6.076669693E0
1.351639122E1,-8.684034348E0,-3.749434233E0,5.854001999E0
1.356838455E1,-8.454184532E0,-4.319271564E0,5.691191196E0
1.362037791E1,-7.838855743E0,-4.716721535E0,5.751048088E0
1.367237120E1,-6.438204765E0,-4.300117493E0,5.734288216E0
1.372436463E1,-6.395108223E0,-3.557892323E0,6.974522591E0
1.377635785E1,-8.882759094E0,-3.035940409E0,9.352037430E0
1.382835131E1,-8.243488312E0,-3.876330853E0,1.165772438E1
1.388034560E1,-6.486090660E0,-9.433442950E-1,1.160026169E1
1.393233919E1,-4.687990189E0,6.440598965E-1,1.061382008E1
1.398433232E1,-3.864359617E0,1.661626697E0,8.923461914E0
1.403632561E1,-3.165231228E0,3.361561775E0,8.442213058E0
1.408832013E1,-1.972882390E0,5.523591995E0,5.652883053E0
1.414031882E1,-1.956122518E0,3.395081758E0,6.878751755E0
1.419231578E1,-2.001613855E0,4.379128456E0,2.830032825E0
1.424430994E1,-1.216291547E0,2.032739401E0,1.733454943E0
1.429630346E1,-2.200338602E0,-5.695979595E0,4.259414673E0
1.434829679E1,-2.842004299E0,-8.425453186E0,3.074248791E0
1.440028998E1,-3.160442710E-1,1.361145210E1,1.519167328E1
1.445228338E1,9.696812630E0,1.099450970E1,-3.914639235E0
1.450427677E1,5.456552505E0,1.127703428E0,9.687235832E0
1.455627085E1,-1.788523316E0,-3.002420664E0,8.480521202E0
1.460826445E1,-1.690118599E1,-1.481816673E1,1.905842781E0
1.466025770E1,-2.061949539E1,-1.472478962E1,6.924242973E0
1.471225103E1,-1.362581825E1,-1.228502369E1,1.580700207E1
1.476424429E1,-1.819648933E1,-7.867587090E0,1.201447105E1
1.481623768E1,-1.503843975E1,-8.645726204E0,8.609811783E0
1.486823101E1,-1.209108734E1,-5.267404556E0,5.700768471E0
1.492022486E1,-3.263396502E0,-9.217957854E-1,3.351984739E0
1.497221862E1,1.048692346E0,2.695953369E0,1.738243461E0
1.502421191E1,3.672817469E0,4.999245644E0,-3.759011328E-1
1.507620547E1,4.630527496E0,7.910684109E0,-2.178790122E-1
1.512819876E1,2.827638626E0,6.316096783E0,1.539518714E0
1.518019308E1,2.576239586E0,-1.063058019E0,1.366652107E1
1.523219167E1,-1.808635139E1,3.079037428E0,-1.949897385E1
1.528418843E1,1.133928585E1,-2.490524673E1,1.505041122E1
1.533618199E1,-9.756669998E0,-9.411893845E0,2.853975534E0
1.538817541E1,-1.484450400E-1,-5.930618763E0,1.102324104E1
1.544016861E1,-3.067065954E0,-2.906649590E0,7.790970325E0
1.549216197E1,-4.364762783E0,-5.140508175E0,9.675264359E0
1.554415533E1,-5.504437923E0,-5.236279011E0,1.110943508E1
1.559614875E1,-5.502043724E0,-6.265817165E0,1.135365105E1
1.564814241E1,-5.880339146E0,-6.026389599E0,9.701601982E0
1.570013640E1,-6.352011204E0,-5.300924301E0,8.413481712E0
1.575212972E1,-5.418243885E0,-4.348002911E0,7.496474266E0
1.580412311E1,-6.402290821E0,-4.968120098E0,6.775797844E0
1.585611664E1,-7.738296032E0,-6.134131908E0,6.107795238E0
1.590810977E1,-5.954561234E0,-5.717528343E0,5.535563469E0
1.596010306E1,-5.703162670E0,-6.419050694E0,5.906675816E0
1.601209642E1,-4.898686409E0,-6.045543671E0,5.506832123E0
1.606409064E1,-4.977697372E0,-6.232297421E0,5.645699978E0
1.611608403E1,-4.498842239E0,-5.865973473E0,5.360781193E0
1.616807732E1,-4.209135056E0,-5.865973473E0,5.468523502E0
1.622007095E1,-4.211529255E0,-5.875550270E0,5.830059052E0
1.627206454E1,-4.017592907E0,-5.367964268E0,5.547534943E0
1.632406103E1,-4.790944099E0,-5.686402798E0,5.777385235E0
1.637605485E1,-5.032765865E0,-5.456552505E0,5.569083214E0
1.642804821E1,-5.379935265E0,-5.763019562E0,5.719922543E0
1.648004157E1,-5.245856285E0,-5.798933506E0,6.002447128E0
1.653203480E1,-5.209941864E0,-5.643305779E0,5.837242126E0
1.658402816E1,-5.631334305E0,-5.566689014E0,5.741470814E0
1.663602152E1,-6.320885658E0,-5.241067410E0,5.387118340E0
1.668801530E1,-7.319298267E0,-5.183605194E0,5.320078850E0
1.674000906E1,-6.198777676E0,-4.649681568E0,5.748653889E0
1.679200235E1,-6.804529190E0,-4.932206154E0,5.858790398E0
1.684399591E1,-6.850020409E0,-4.898686409E0,6.076669693E0
1.689403084E1,-8.142929077E0,-4.999245644E0,6.000052452E0
1.694602403E1,-5.700768471E0,-2.152452946E0,3.426207304E0
1.699801752E1,-7.704776287E0,-4.668835640E0,1.159068394E1
1.705001082E1,-5.569083214E0,-7.802941799E0,2.899466753E0
1.710200477E1,-4.288146019E0,-7.417463303E0,-4.237866402E-1
1.715399869E1,-3.830839634E0,-5.662459850E0,1.965699673E0
1.720599178E1,-5.166844845E0,-3.780560017E0,2.365543604E0
1.725798508E1,-9.790189743E0,-3.651269197E0,4.336031914E0
1.730997877E1,-9.488511086E0,-4.348002911E0,6.373559475E0
1.736197705E1,-8.961771011E0,-3.004814863E0,5.193181992E0
1.741397448E1,-8.293767929E0,-5.154873848E0,6.129343510E0
1.746596850E1,-1.459549904E1,-9.634561539E0,7.829278469E0
1.751796193E1,-1.134167957E1,-7.012830734E0,3.323253393E0
1.756995512E1,-1.037199879E1,-1.118844604E1,7.127756119E0
1.762194845E1,-9.349642754E0,-1.553884387E0,9.385557175E-1
1.767394188E1,1.534251308E1,-5.937801361E0,8.763046265E0
1.772593520E1,-1.246938324E1,8.655303001E0,5.425426483E0
1.777792846E1,-1.750214934E0,4.992063046E0,4.580247879E0
1.782992268E1,-2.444554567E0,2.849187136E0,5.741470814E0
1.788191620E1,-1.045100975E1,-2.406246185E0,8.449396133E0
1.793390950E1,-2.539846802E1,-7.304932594E0,5.389512539E0
1.798590286E1,-1.419326115E1,-6.993676662E0,1.278782177E1
1.803789611E1,-1.085085297E1,-1.118126392E0,1.041509533E1
1.808988947E1,-3.632114887E0,3.878725171E-1,5.506832123E0
1.814188290E1,2.530748367E0,3.466909885E0,1.221080184E0
1.819387629E1,1.305119228E1,8.514040947E0,-5.746259689E-1
1.824587044E1,1.980544090E1,2.722769356E1,-4.216318130E0
1.829786380E1,7.563514233E0,8.449396133E0,1.385087967E1
1.834985716E1,-1.274711895E1,-7.996877670E0,-1.885251999E1
1.840185072E1,-5.267404318E-1,-2.609998894E1,1.826831698E0
1.845384691E1,-2.024359322E1,1.185166001E0,2.473285913E0
1.850584120E1,1.771763325E0,9.984126091E-1,-3.074248791E0
1.855783456E1,2.616942406E0,6.253845692E0,1.795706153E0
1.860982792E1,1.613741279E0,8.159688950E0,1.786128998E0
1.866182128E1,-1.292908341E-1,6.038361073E0,2.564268351E0
1.871381447E1,-9.289786220E-1,4.271386147E0,2.832427025E0
1.876580787E1,-5.985686779E-1,3.687183261E-1,4.158855438E0
1.881780142E1,1.843591630E-1,-1.853168726E0,7.846038342E0
1.886979547E1,-1.953728199E0,-5.190787792E0,9.124581337E0
1.892178890E1,-4.355185986E0,-9.917086601E0,1.196179676E1
1.897378223E1,-3.112557158E-2,-1.073353386E1,1.197376823E1
1.902577565E1,-2.166818619E0,-1.296499825E1,1.361863518E1
1.907776895E1,-2.011190891E0,-1.101605797E1,9.593858719E0
1.912976217E1,-2.918621063E0,-9.749486923E0,7.058321953E0
1.918175553E1,-2.664827824E0,-1.002722263E1,6.854808807E0
1.923374925E1,-3.000026226E0,-1.009905148E1,5.973715782E0
1.928574324E1,-2.039922237E0,-9.955394745E0,4.936994553E0
1.933773656E1,-1.896265626E0,-1.028101635E1,5.286558628E0
1.938972999E1,-1.352765322E0,-1.002961731E1,4.795732498E0
1.944172345E1,-5.482889414E-1,-1.035284424E1,4.726298332E0
1.949372084E1,-8.140534163E-1,-1.094423008E1,4.063084126E0
1.954571883E1,-9.696813226E-1,-1.082691097E1,3.342407703E0
1.959771426E1,-1.845985889E0,-1.026186180E1,2.705530643E0
1.964970761E1,-2.614548206E0,-9.921875000E0,2.490045786E0
1.970170097E1,-3.423812866E0,-8.415876389E0,5.269798756E0
1.975369430E1,-6.976916790E0,-6.225114346E0,7.637736797E0
1.980568766E1,-1.186842060E1,-7.642525196E0,7.558725357E0
1.985768098E1,-7.374366283E0,-4.178009510E0,1.024989033E1
1.990967494E1,-7.450983047E0,-2.434977531E0,6.814105988E0
1.996166866E1,-2.614548206E0,8.092648983E-1,7.108602047E0
2.001366199E1,3.759011328E-1,3.567469358E0,2.786935806E0
2.006565531E1,9.002473354E-1,-6.823683381E-1,4.225894928E0
2.011764861E1,-2.162030220E0,-2.734261751E0,1.640078187E0
2.016964210E1,-5.518803596E0,-1.088437366E1,1.675992310E-1
2.022163532E1,-6.981705189E0,-1.025946712E1,-3.438178539E0
2.027362875E1,1.779664421E1,-3.909850836E0,6.818894863E0
2.032562307E1,-1.801691818E1,5.458946705E0,4.331243038E0
2.037761626E1,-1.654443860E0,-8.236305237E0,6.131737709E0
2.042960966E1,-1.352286434E1,-1.155955887E1,3.423812866E0
2.048160298E1,-1.919011307E1,-1.253163433E1,7.496474266E0
2.053359637E1,-1.667372894E1,-9.304151535E0,8.992896080E0
2.058559359E1,-1.688681984E1,-9.433443069E0,8.339259148E0
2.063759175E1,-1.273275375E1,-9.912297249E0,8.391933441E0
2.068958634E1,-1.243346882E1,-7.877163887E0,6.016812801E0
2.074157967E1,-7.987300873E0,-4.903474808E0,3.510006905E0
2.079357289E1,-3.280156374E0,-8.834874034E-1,5.363175869E-1
2.084556648E1,-1.714300752E0,8.858817071E-2,2.411034822E0
2.089755964E1,1.599375606E0,2.542719841E0,1.132491946E0
2.094955300E1,1.279261017E1,1.386285114E1,8.523618579E-1
2.100154640E1,2.600421906E1,2.655729675E1,3.438178539E0
2.105354055E1,1.000327969E1,7.333663940E0,1.849577332E1
2.110553394E1,1.178701496E1,-1.642951393E1,-1.555799770E1
2.115752736E1,-2.676080894E1,-1.047974110E1,1.472957897E1
2.120952059E1,2.853975534E0,-4.582642078E0,-5.839636326E0
2.126151402E1,3.589017868E0,3.450150013E0,1.094183564E0
2.131350764E1,2.834821463E0,7.589851379E0,-3.438178539E0
2.136550073E1,3.222693920E0,9.009655952E0,-2.130904645E-1
2.141749423E1,1.790917516E0,8.578686714E0,1.273754239E0
2.146948834E1,2.097384691E0,4.115758419E0,1.520364523E0
2.152148177E1,-7.494080067E-1,-2.104567528E0,4.999245644E0
2.157347500E1,-4.424619675E0,-7.498868465E0,1.271838760E1
2.162546849E1,-2.102412796E1,-1.643669701E1,1.643190765E1
2.167746411E1,-2.332023621E1,-8.933039665E0,2.156044388E1
2.172945897E1,-1.260825157E1,-2.087807655E0,2.021246719E1
2.178145236E1,-1.199292278E1,-3.387898922E0,1.268965626E1
2.183344589E1,-7.264229774E0,-3.311282158E0,4.041535854E0
2.188543901E1,-2.782147408E0,-1.826831698E0,2.887495518E0
2.193743244E1,1.510787368E0,4.189980984E0,2.502017260E0
2.198942577E1,6.182017326E0,9.668081284E0,2.844398499E0
2.204141929E1,1.264895344E1,9.478934288E0,3.466909885E0
2.209341348E1,6.885934353E0,4.525179386E0,4.036747456E0
2.214540664E1,1.092747021E1,-2.873129845E-1,2.147664547E0
2.219740023E1,1.206714511E0,-1.472478986E0,-7.130150318E0
2.224939352E1,-3.419024467E0,-6.703969836E-2,-1.757397652E0
2.230138688E1,-1.376708031E0,8.763045669E-1,-5.865973234E-1
2.235338021E1,-7.877163887E-1,1.704723716E0,1.166011810E0
2.240537363E1,8.212362528E-1,3.371139050E0,3.581835032E0
2.245736725E1,2.229069948E0,5.758230686E0,4.917840481E0
2.250936118E1,1.910631299E0,6.969734192E0,7.826884270E0
2.256135440E1,-2.075836182E0,6.574678421E0,1.268726254E1
2.261334769E1,-6.960156918E0,5.080651283E0,1.532335854E1
2.266534099E1,-7.324086666E0,7.580274105E0,1.575432777E1
2.271733728E1,-8.087860107E0,7.087053299E0,1.506238270E1
2.276933590E1,-1.238079548E1,3.117345810E0,1.268965626E1
2.282133129E1,-7.412674904E0,5.260221958E0,1.016848469E1
2.287332452E1,-7.118178844E0,6.751855016E-1,7.012830734E0
2.292531781E1,-3.873936653E0,-8.978530765E-1,5.123748183E-1
2.297731110E1,2.705530643E0,-5.976109982E0,-6.356799603E0
2.302930456E1,-1.055635738E1,2.167776489E1,7.173247337E0
2.308129819E1,3.375927508E-1,1.046537495E1,3.811685562E0
2.313329111E1,-5.777385235E0,5.540351868E0,1.253881741E1
2.318528497E1,-8.008849144E0,5.509226322E0,5.712739468E0
2.323727882E1,-7.376760483E0,2.911438227E0,2.887495518E0
2.328927225E1,-1.359708691E1,-5.004034638E-1,-1.101366401E0
2.334126548E1,-1.323794556E1,-9.512454033E0,7.568302631E0
2.339325877E1,-1.960671616E1,-1.155955887E1,7.965752125E0
2.344525216E1,-1.621881676E1,-1.047974110E1,6.347222328E0
2.349724549E1,-7.881952763E0,-1.013017654E1,1.190194035E1
2.354923881E1,-1.013257122E1,-3.876330853E0,7.616188049E0
2.360123286E1,-1.747820616E0,7.661679387E-2,5.921041489E0
2.365322645E1,8.571503639E0,6.689603806E0,4.197163582E0
2.370521995E1,2.196986580E1,2.581507111E1,4.000833035E0
2.375721321E1,1.185166073E1,1.557954597E1,3.126922846E0
2.380920820E1,-4.585036278E0,-1.528265572E1,4.755747986E1
2.386120389E1,8.140534163E-1,-5.749132538E1,1.704244804E1
2.391319731E1,-1.590756226E1,-6.105400562E0,2.853975534E0
2.396519074E1,4.070267081E-1,-5.705556870E0,-1.685569525E0
2.401718386E1,5.755836487E0,2.497228622E0,-1.491633177E0
2.406917722E1,3.770982742E0,8.609811783E0,1.022355318E0
2.412116252E1,4.656864643E0,1.173912907E1,3.359167576E0
2.417315605E1,5.791750908E0,7.237892628E0,2.681587696E0
2.422515016E1,3.131711483E0,5.193181992E0,4.958543301E0
2.427714359E1,-1.357553840E0,-1.441353440E0,9.897932053E0
2.432913698E1,-6.529187202E0,-5.930618763E0,1.031692982E1
2.438113031E1,1.213897347E0,-9.811738014E0,1.486605263E1
2.443312360E1,-3.325647593E0,-1.137519932E1,1.549574661E1
2.448511696E1,-5.597814560E0,-6.933819771E0,9.270631790E0
2.453711028E1,-5.435003757E0,-6.050332546E0,8.660092354E0
2.458910361E1,-3.833234072E0,-4.082238674E0,7.180429935E0
2.464109783E1,-4.668835640E0,-4.400677204E0,7.027196407E0
2.469309132E1,-5.236279011E0,-5.480494976E0,7.477320194E0
2.474508461E1,-5.765413761E0,-6.627352715E0,7.707170486E0
2.479707801E1,-4.695172787E0,-6.701575279E0,7.364789486E0
2.484907336E1,-4.829252243E0,-6.919454098E0,7.158881664E0
2.490107202E1,-4.774183750E0,-6.732700825E0,6.890722752E0
2.495306861E1,-5.561900616E0,-6.787769318E0,7.048745155E0
2.500506234E1,-5.791750908E0,-5.626545906E0,6.883540154E0
2.505705563E1,-6.000052452E0,-4.802915096E0,7.012830734E0
2.510904905E1,-4.630527496E0,-3.354378939E0,7.106207848E0
2.516104231E1,-4.381523132E0,-2.930592299E0,7.628159523E0
2.521303564E1,-4.838829517E0,-2.592999697E0,7.549148560E0
2.526502930E1,-5.485283375E0,-1.290514112E0,7.252258301E0
2.531702325E1,-5.619362831E0,-1.029538140E-1,8.083071709E0
2.536901667E1,-7.422251701E0,8.523618579E-1,9.476539612E0
2.542101007E1,-7.529994488E0,2.360754967E0,1.043424988E1
2.547300342E1,-7.927443981E0,3.023969173E0,9.905115128E0
2.552499675E1,-2.734261751E0,4.264203548E0,8.569109917E0
2.557699011E1,-1.151646137E0,4.383917332E0,5.456552505E0
2.562898340E1,-1.029538155E0,1.644866824E0,4.297723293E0
2.568097716E1,-8.451790214E-1,-1.709512234E0,3.663240433E0
2.573297105E1,-2.858764172E0,-6.380742550E0,3.189173937E0
2.578496444E1,-4.745931625E1,-7.424645996E1,6.960635376E1
2.583695770E1,5.937801600E-1,2.341840172E1,-9.407105446E0
2.588895109E1,7.975329399E0,-3.952947617E0,1.075747681E1
2.594094618E1,-6.768614769E0,6.687209606E0,5.765413761E0
2.599294503E1,-1.284288979E1,-6.215537548E0,5.185999393E0
2.604494112E1,-1.920208359E1,-1.206235695E1,6.186806202E0
2.609693442E1,-2.098821259E1,-1.072874546E1,1.031692982E1
2.614892778E1,-1.574714565E1,-7.707170486E0,1.014933109E1
2.620092117E1,-1.035284424E1,-5.849213123E0,1.009426212E1
2.625291440E1,-4.508419514E0,-1.259388566E0,8.976136208E0
2.630490772E1,3.615354896E-1,2.480468750E0,5.267404556E0
2.635690131E1,7.972935200E0,9.110215187E0,2.954535007E0
2.640889527E1,1.332413960E1,2.221887016E1,5.521197796E0
2.646088876E1,1.102324104E1,1.372398281E1,7.726325035E0
2.651288212E1,-1.437283134E1,-6.043149471E0,2.496510315E1
2.656487544E1,-1.344145870E1,-4.315680313E1,1.818930626E1
2.661686874E1,-1.535927296E1,-5.904281616E0,2.059076309E0
2.666886216E1,9.251478195E0,-8.954587579E-1,-2.286532402E0
2.672085549E1,3.998438835E0,5.250644684E0,1.419804931E0
2.677284878E1,3.696760416E0,9.847652435E0,1.472478986E0
2.682484280E1,5.391906738E0,1.108549213E1,3.830839634E0
2.687683646E1,4.817280769E0,8.123774529E0,6.905088425E0
2.692882978E1,6.680026650E-1,5.365570068E0,7.673650742E0
2.698082307E1,-2.121327400E0,3.246636629E0,8.406298637E0
2.703281750E1,-3.562680960E0,2.236252785E0,8.696005821E0
2.708481355E1,-6.292154312E0,1.221080124E-1,8.968953133E0
2.713680708E1,-7.848433018E0,2.466102988E-1,8.260248184E0
2.718880051E1,-6.158074856E0,6.703969836E-2,8.260248184E0
2.724079377E1,-5.344021320E0,-6.392713785E-1,8.116591454E0
2.729278709E1,-3.160442829E0,-1.031932473E0,6.337645531E0
2.734478055E1,-5.439792156E0,-2.990449190E0,7.314509392E0
2.739677384E1,-3.493247032E0,-3.397475958E0,7.194795609E0
2.744876813E1,-4.398283005E0,-6.591438770E0,9.981731415E0
2.750076159E1,-5.435003638E-1,-6.866780281E0,1.043424988E1
2.755275478E1,-8.164477348E-1,-8.432636261E0,1.045340347E1
2.760474807E1,-1.034326673E0,-6.495667458E0,8.150111198E0
2.765674150E1,-1.786128998E0,-6.138920784E0,8.116591454E0
2.770873482E1,-2.590605259E0,-5.401484013E0,7.908289909E0
2.776072808E1,-3.883513689E0,-5.842030525E0,8.087860107E0
2.781272151E1,-4.055901527E0,-6.691998005E0,8.425453186E0
2.786471576E1,-4.216318130E0,-5.830059052E0,8.518829346E0
2.791670915E1,-6.095823765E0,-5.652883053E0,9.419076920E0
2.796870251E1,-7.039167881E0,-4.795732498E0,1.127224541E1
2.802069587E1,-8.188420296E0,-4.618556023E0,1.220361900E1
2.807269019E1,-6.488484859E0,-4.431802750E0,1.448296833E1
2.812468901E1,-3.569863796E0,-2.581028223E0,1.432255173E1
2.817668560E1,-5.698373914E-1,-2.892283916E0,1.460986519E1
2.822867916E1,8.016032219E0,2.322446585E0,8.549955368E0
2.828067256E1,7.336058140E0,4.187586784E0,4.257020473E0
2.833266582E1,5.123748183E-1,-5.681613922E0,-6.919454336E-1
2.838465918E1,-3.117345810E0,-5.255433083E0,-3.395081758E0
2.843665267E1,-8.631361008E0,-6.031178474E0,-8.379961550E-2
2.848864586E1,-5.372752666E0,-7.453377247E0,2.085413456E0
2.854063952E1,-1.107831001E1,-6.004841328E0,4.968120098E0
2.859263354E1,-2.947352171E0,5.008822918E0,-1.841197395E1
2.864462690E1,-1.843112755E1,-7.829278469E0,-2.027711296E1
2.869662019E1,-8.906702042E0,-2.296109438E0,-1.409749031E1
2.874861352E1,1.847901344E1,-1.450212288E1,2.208479118E1
2.880060694E1,-9.833286285E0,-3.383110285E0,8.372778893E0
2.885260020E1,-1.556278610E1,-2.217098475E0,-1.321639657E0
2.890459359E1,-1.436085987E1,-9.284997940E0,1.175588965E0
2.895658772E1,-1.527307892E1,-7.237892628E0,-1.580221355E-1
2.900858117E1,-1.307513428E1,-6.591438770E0,2.322446555E-1
2.906057457E1,-1.004877090E1,-7.659285069E0,2.387091875E0
2.911256806E1,-9.845257759E0,-7.503657341E0,3.000026226E0
2.916456185E1,-1.010144520E1,-9.778218269E0,1.551490068E0
2.921655817E1,-1.208390522E1,-8.315316200E0,3.830839694E-2
2.926855206E1,-1.406636429E1,-9.476539612E0,-2.135693073E0
2.932054526E1,-1.044382668E1,-9.361614227E0,2.966506481E0
2.937253858E1,-7.295355320E0,-5.664854050E0,3.177202702E0
2.942453191E1,-6.170046329E0,-1.841197371E0,3.380716085E0
2.947652520E1,3.351984918E-2,2.154847383E0,2.322446585E0
2.952851876E1,4.264203548E0,5.621757030E0,1.771763414E-1
2.958051225E1,1.075029373E1,1.251247978E1,-9.912297726E-1
2.963250624E1,8.978530884E0,8.830085754E0,-9.354432106E0
2.968449966E1,-9.170072675E-1,-5.470917702E0,1.777509689E1
2.973649296E1,4.108575344E0,-1.775354767E1,-2.383979416E1
2.978848635E1,-1.119802284E1,-2.534818649E1,1.465296149E0
2.984047951E1,-9.902720451E0,-6.759037971E0,4.819674969E0
2.989247300E1,3.009603500E0,-5.384724140E0,6.993676662E0
2.994446629E1,1.285725594E0,5.267404765E-2,8.904308319E0
2.999646011E1,-2.892283916E0,-5.176422119E0,1.006313705E1
3.004845393E1,-7.640130997E0,-4.869955063E0,1.143026829E1
3.010044723E1,-9.064723969E0,-7.407886028E0,1.061142635E1
3.015244055E1,-7.029590607E0,-5.315289974E0,8.949799538E0
3.020443444E1,-5.549929142E0,-4.941783428E0,7.790970325E0
3.025643276E1,-6.668055534E0,-4.910657406E0,6.057515144E0
3.030843039E1,-5.808510780E0,-5.470917702E0,5.875550270E0
3.036042501E1,-5.293741703E0,-5.822876453E0,5.121353626E0
3.041241827E1,-4.326454639E0,-5.830059052E0,5.025582790E0
3.046441173E1,-4.170826912E0,-5.973715782E0,4.860377789E0
3.051640509E1,-4.434196949E0,-6.138920784E0,4.580247879E0
3.056839838E1,-4.304905891E0,-6.627352715E0,5.123748302E0
3.062039158E1,-3.766194344E0,-6.045543671E0,5.004034519E0
3.067238576E1,-3.543526649E0,-5.980898380E0,5.320078850E0
3.072437935E1,-3.699154615E0,-5.873156071E0,5.346415520E0
3.077637254E1,-4.278569221E0,-6.447782040E0,5.717528343E0
3.082836610E1,-3.648874760E0,-6.256239891E0,5.571477413E0
3.088035943E1,-2.513988495E0,-6.110189438E0,5.310501575E0
3.093235259E1,-2.466103077E0,-7.276201248E0,6.486090660E0
3.098434605E1,-1.972882390E0,-8.018425941E0,7.527599812E0
3.103633944E1,-2.171607256E0,-8.406298637E0,7.424646378E0
3.108833356E1,-2.051893473E0,-7.728719234E0,6.205960274E0
3.114032698E1,-2.782147408E0,-7.362394810E0,6.184412003E0
3.119232044E1,-3.620143414E0,-7.118178844E0,6.136526108E0
3.124431380E1,-3.732674360E0,-6.950579643E0,5.901887417E0
3.129630732E1,-3.110162973E0,-7.228315830E0,5.918647289E0
3.134830571E1,-3.150865555E0,-7.568302631E0,6.234691620E0
3.140030303E1,-3.122134447E0,-7.400703430E0,5.909070015E0
3.145033583E1,-3.366350412E0,-7.805335999E0,5.842030525E0
3.150232922E1,-4.422225475E0,-8.293767929E0,6.426233768E0
3.155432255E1,-5.882733345E0,-8.248276711E0,8.470944405E0
3.160631584E1,-7.391126156E0,-6.873962879E0,9.627379417E0
3.165830920E1,-7.874769688E0,-6.514821529E0,1.081493950E1
3.171030259E1,-6.988888264E0,-3.459727049E0,1.040791225E1
3.176229631E1,-8.609811783E0,-7.134938836E-1,7.558725357E0
3.181429033E1,-6.730306625E0,1.948939681E0,4.082238674E0
3.186628353E1,-3.351984739E0,2.521171331E0,3.486064196E0
3.191827679E1,-4.539545059E0,-2.432583094E0,4.429408550E0
3.197027025E1,-5.640911579E0,-4.048718929E0,3.268185139E0
3.202226354E1,-2.561874151E0,-4.096604347E0,3.016786337E0
3.207425696E1,-1.862745762E0,-4.659258842E0,3.383110285E0
3.212625029E1,2.585816681E-1,-2.549902678E0,4.017592907E0
3.217824401E1,1.467690468E0,6.536370516E-1,4.587430477E0
3.223023783E1,6.608198285E-1,1.975276709E0,5.384724140E0
3.228223126E1,-1.977671027E0,-4.082238674E0,8.066311836E0
3.233422458E1,-6.462147713E0,-9.035993576E0,7.984906673E0
3.238621811E1,-1.193546009E1,-1.311104870E1,7.031985283E0
3.243821420E1,-1.014693642E1,-9.392740250E0,7.271412373E0
3.249020856E1,-1.264655972E1,-9.557945251E0,4.139701366E0
3.254220195E1,-1.090592194E1,-1.061621475E1,6.359193802E0
3.259419527E1,-9.177255630E0,-9.615407944E0,1.939362645E0
3.264618860E1,-9.766246796E0,-1.363300037E1,-1.412622094E0
3.269818186E1,-1.310626030E1,-1.983656693E1,3.292127848E0
3.275017532E1,-7.417463303E0,-1.418368435E1,9.402317047E0
3.280216904E1,-4.474899769E0,-4.834040642E0,8.382355690E0
3.285416293E1,7.637736797E-1,2.633702382E-2,-2.624125242E0
3.290615642E1,-2.525959969E0,-3.261002302E0,1.733454943E0
3.295814978E1,-1.195940304E1,-2.753416002E-1,3.553103924E0
3.301014294E1,-8.107014656E0,2.779752970E0,4.726298332E0
3.306213633E1,3.656057596E0,6.584255695E-1,7.831672668E0
3.311412959E1,-2.008796453E0,4.867560863E0,6.057515144E0
3.316612292E1,4.611373425E0,7.333663940E0,3.198751211E0
3.321811717E1,7.154093266E0,1.025228500E1,6.991282701E-1
3.327011066E1,7.891529560E0,1.202165413E1,-1.939362645E0
3.332210395E1,5.068679810E0,3.876330853E0,7.273807049E0
3.337409741E1,-1.520603943E1,-7.565908432E0,1.132252598E1
3.342609074E1,2.111032104E1,-4.555586624E1,2.800822639E1
3.347808812E1,-1.644866753E1,-1.279739857E1,1.462901950E0
3.353008618E1,1.532335877E0,-5.928224564E0,5.327261448E0
3.358208064E1,-6.177229285E-1,-2.432583094E0,7.307326794E0
3.363407400E1,-9.122186899E-1,-2.777358770E0,9.198803902E0
3.368606729E1,-7.348029613E0,-5.384724140E0,1.009186840E1
3.373806068E1,-6.375953674E0,-3.964919090E0,9.605830193E0
3.379005404E1,-7.529994488E0,-6.103006363E0,9.318517685E0
3.384204734E1,-5.944984436E0,-4.005621910E0,7.079870701E0
3.389404076E1,-6.246663094E0,-4.948966026E0,7.103813171E0
3.394603468E1,-5.916253090E0,-5.174027920E0,6.028783798E0
3.399802837E1,-4.968120098E0,-5.001639843E0,5.202759266E0
3.405002170E1,-5.200365067E0,-5.724710941E0,5.387118340E0
3.410201496E1,-5.229096413E0,-6.174834728E0,5.502043724E0
3.415400855E1,-4.230683804E0,-5.736682415E0,5.257827282E0
3.420600167E1,-3.505218267E0,-5.559505939E0,5.154873848E0
3.425799503E1,-4.395888329E0,-6.272999763E0,5.514014721E0
3.430998843E1,-4.319271564E0,-6.433416367E0,5.818087578E0
3.436198254E1,-4.240260601E0,-6.261028767E0,5.616968632E0
3.441397600E1,-4.058295727E0,-5.763019562E0,5.456552505E0
3.446596946E1,-3.861965179E0,-5.537957668E0,5.444581032E0
3.451796275E1,-3.524372578E0,-5.351204395E0,4.958543301E0
3.456995841E1,-2.753416061E0,-5.916253090E0,5.255433083E0
3.462195334E1,-2.988054991E0,-7.896318436E0,6.881145954E0
3.467394673E1,-1.934574008E0,-8.300951004E0,7.125361919E0
3.472594006E1,-6.823683381E-1,-8.365595818E0,7.376760483E0
3.477793331E1,-9.672870040E-1,-8.291373253E0,6.931425571E0
3.482992674E1,-1.769369125E0,-8.178842545E0,6.304125786E0
3.488192003E1,-2.411034822E0,-7.910684109E0,6.342433929E0
3.493391332E1,-2.657644987E0,-7.501263142E0,6.505244732E0
3.498590754E1,-2.437371731E0,-7.453377247E0,6.620169640E0
3.503790103E1,-2.250618219E0,-7.561120033E0,6.502850533E0
3.508989436E1,-2.063864946E0,-7.711959362E0,6.672843933E0
3.514188775E1,-2.688770533E0,-7.886741161E0,6.847625732E0
3.519388105E1,-3.940976381E0,-7.549148560E0,7.079870701E0
3.524587437E1,-5.396695614E0,-7.450983047E0,7.280989647E0
3.529786776E1,-3.756617069E0,-5.806116581E0,7.661679268E0
3.534986122E1,-3.612960577E0,-4.520390987E0,5.964138508E0
3.540185541E1,-2.219492674E0,-4.489265442E0,6.064698219E0
3.545384873E1,-2.782147408E0,-6.644112587E0,5.001639843E0
3.550584209E1,-2.657644987E0,-5.377541065E0,1.970488191E0
3.555783542E1,-3.232270956E0,-4.371945858E0,1.462901950E0
3.560983191E1,-6.723123550E0,-4.187586784E0,3.435784340E0
3.566183046E1,-9.912297249E0,-5.504437923E0,4.817280769E0
3.571382548E1,-1.102802944E1,-5.894704342E0,8.997684479E0
3.576581868E1,-1.279261017E1,-6.677632332E0,9.055147171E0
3.581781224E1,-1.075508213E1,-5.650488377E0,1.219643593E1
3.586980537E1,-2.849187136E0,-2.298503876E0,1.298654652E1
3.592179889E1,4.692778587E-1,-7.733507752E-1,8.073494911E0
3.597379208E1,-6.531581879E0,-6.093429565E0,4.283357620E0
3.602578544E1,-1.223474407E1,-8.470944405E0,-5.746259689E-1
3.607777910E1,-1.420762634E1,-4.462928295E0,-2.746233225E0
3.612977342E1,1.066409969E1,-6.064698219E0,6.838048935E0
3.618176631E1,-1.087000751E1,8.516435623E0,5.027977228E-1
3.623375981E1,9.194015265E-1,3.940976381E0,1.146857619E0
3.628575320E1,-5.470917702E0,-7.661679387E-2,1.134886265E0
3.633774679E1,-8.296162605E0,-3.148471355E0,2.928198099E0
3.638974015E1,-1.754045677E1,-8.384750366E0,9.026415944E-1
3.644173311E1,-1.716934395E1,-1.119562912E1,7.190007210E0
3.649372716E1,-1.476788712E1,-8.066311836E0,1.019242764E1
3.654572075E1,-1.698977470E1,-6.282577038E0,7.182824612E0
3.659771411E1,-1.339117908E1,-5.700768471E0,7.915472507E0
3.664970750E1,-1.008708000E1,-3.148471355E0,5.272192955E0
3.670170269E1,-4.992063046E0,2.897072434E-1,1.723877907E0
3.675369828E1,7.182824425E-3,4.142095566E0,1.254600048E0
3.680569161E1,4.637710094E0,6.033572674E0,2.873129770E-2
3.685768480E1,6.296942711E0,8.303344727E0,-1.903448462E0
3.690967823E1,1.066409969E1,1.062579155E1,-8.107014656E0
3.696167159E1,6.933819771E0,1.429382086E0,5.854001999E0
3.701366488E1,-3.345280838E1,-7.362394810E0,-2.485257339E1
3.706565817E1,1.209348202E1,-3.595721817E1,1.837366486E1
3.711765186E1,-5.911464691E0,-1.061621475E1,5.923435688E0
3.716964598E1,1.901054144E0,-4.759818554E0,8.121379852E0
3.722163931E1,8.667274714E-1,-5.818088055E-1,9.454991341E0
3.727363247E1,-8.595446348E-1,-4.695172787E0,1.323315716E1
3.732562596E1,-4.388705730E0,-5.559505939E0,1.278542709E1
3.737761925E1,-4.625739098E0,-6.371165276E0,1.191630554E1
3.742961268E1,-3.261002302E0,-4.975303173E0,9.366402626E0
3.748160607E1,-2.418217659E0,-3.840416908E0,8.334470749E0
3.753359983E1,-5.250644684E0,-5.588237286E0,7.230710030E0
3.758559372E1,-5.530774593E0,-6.067092419E0,6.258634567E0
3.763758684E1,-4.204346657E0,-6.598621368E0,6.519610405E0
3.768958030E1,-3.395081758E0,-6.648900986E0,6.663266659E0
3.774157569E1,-3.356773376E0,-6.215537548E0,5.909070015E0
3.779357428E1,-3.234665155E0,-5.777385235E0,5.437397957E0
3.784557090E1,-3.835628271E0,-6.359193802E0,5.636122704E0
3.789756477E1,-3.153259993E0,-5.980898380E0,5.391906738E0
3.794955806E1,-3.442967176E0,-6.483695984E0,6.055120945E0
3.800155132E1,-3.031152010E0,-5.753442287E0,5.674431324E0
3.805354451E1,-3.651269197E0,-6.057515144E0,6.354405403E0
3.810553790E1,-3.567469358E0,-6.371165276E0,6.359193802E0
3.815753136E1,-3.756617069E0,-6.284971237E0,6.244268894E0
3.820952538E1,-3.459727049E0,-6.162863255E0,6.263422966E0
3.826151894E1,-3.344801903E0,-6.632141113E0,6.680026531E0
3.831351226E1,-3.232270956E0,-7.024802208E0,7.355212212E0
3.836550552E1,-2.573845387E0,-7.204372883E0,7.587456703E0
3.841749898E1,-2.674404860E0,-7.106207848E0,7.230710030E0
3.846949221E1,-2.770175934E0,-6.720729351E0,6.677632332E0
3.852148567E1,-3.356773376E0,-7.027196407E0,6.476513386E0
3.857347913E1,-3.220299721E0,-6.792557716E0,6.047938347E0
3.862547331E1,-3.184385538E0,-6.936213970E0,6.189200401E0
3.867746657E1,-2.652856588E0,-6.981705189E0,6.349617004E0
3.872749761E1,-2.712713242E0,-6.826077461E0,6.411868095E0
3.877949104E1,-4.582642078E0,-7.343240738E0,6.584255695E0
3.883148619E1,-7.008042336E0,-6.624958515E0,6.689603806E0
3.888348508E1,-6.529187202E0,-6.665660858E0,9.718361855E0
3.893548110E1,-6.869174480E0,-6.359193802E0,1.164814663E1
3.898747443E1,-6.907482624E0,-5.200365067E0,1.178701496E1
3.903946766E1,-5.753442287E0,-2.923409462E0,9.670475960E0
3.909146112E1,-6.708757877E0,-8.140534163E-1,6.912271500E0
3.914345444E1,-3.344801903E0,2.116539001E0,4.118152618E0
3.919544767E1,-2.209915638E0,3.656057596E0,3.493247032E0
3.924744113E1,-2.638490915E0,1.625712633E0,2.719896078E0
3.929943475E1,-1.611346960E0,5.626545548E-1,1.063058019E0
3.935142874E1,-2.384697676E0,-4.424619675E0,2.897072434E-1
3.940342203E1,-5.530774593E0,-1.124112034E1,-1.288119793E0
3.945541535E1,-8.147717476E0,-2.164903259E1,6.124555111E0
3.950740875E1,-1.863703537E1,5.458946824E-1,4.249837875E0
3.955940204E1,-8.430241585E0,-5.241067410E0,6.095823765E0
3.961139546E1,-1.993473244E1,-1.220601273E1,6.847625732E0
3.966338876E1,-2.123961258E1,-8.181237221E0,9.474145889E0
3.971538278E1,-1.689160919E1,-5.765413761E0,8.684034348E0
3.976737650E1,-1.389637089E1,-6.225114346E0,1.035044956E1
3.981936973E1,-1.343906403E1,-6.251451492E0,6.220325947E0
3.987136315E1,-9.435836792E0,-1.426987767E0,5.044736862E0
3.992335754E1,-1.321639657E0,1.108549237E0,3.495641232E0
3.997535357E1,2.418217510E-1,4.340820312E0,1.855562925E0
4.002734713E1,4.474899769E0,6.363982677E0,-9.026415944E-1
4.007934048E1,8.389538765E0,9.538790703E0,-4.517996788E0
4.013133374E1,8.394327164E0,7.290566921E0,-6.488484859E0
4.018332734E1,1.601769805E0,-4.544333458E0,1.497140026E1
4.023532050E1,-1.792832947E1,-1.617572021E1,-1.773199844E1
4.028731379E1,-2.339206457E0,-2.735698318E1,1.234727478E1
4.033930758E1,-9.284997940E0,-9.593858719E0,3.093403101E0
4.039130150E1,-5.631334305E0,-5.897099018E0,8.923461914E0
4.044329486E1,-2.375120640E0,-2.511594296E0,7.223526955E0
4.049528815E1,-2.992843628E0,-5.370358467E0,1.151885605E1
4.054728157E1,-5.861184597E0,-6.138920784E0,1.015890789E1
4.059927480E1,-7.613793850E0,-8.054340363E0,8.801354408E0
4.065126829E1,-7.544359684E0,-6.639324188E0,7.862798691E0
4.070326159E1,-5.104593754E0,-5.552323341E0,6.684815407E0
4.075525551E1,-6.021601200E0,-7.240286827E0,6.677632332E0
4.080724910E1,-5.229096413E0,-6.431022167E0,4.783761024E0
4.085924249E1,-5.401484013E0,-6.895511627E0,4.503631115E0
4.091123582E1,-4.687990189E0,-6.694392204E0,4.225894928E0
4.096323020E1,-4.831646442E0,-7.060716629E0,4.280963421E0
4.101522899E1,-4.846012115E0,-7.005648136E0,3.854782343E0
4.106722598E1,-4.546727657E0,-6.833260536E0,3.759011507E0
4.111922018E1,-4.604190350E0,-7.024802208E0,4.082238674E0
4.117121354E1,-4.273780346E0,-6.727912426E0,4.194769382E0
4.122320686E1,-4.211529255E0,-6.711152077E0,4.570670605E0
4.127520019E1,-4.379128456E0,-6.792557716E0,4.697566986E0
4.132719361E1,-4.585036278E0,-6.873962879E0,5.085439682E0
4.137918694E1,-4.841223717E0,-6.871568680E0,5.150084972E0
4.143118119E1,-4.673624516E0,-6.644112587E0,5.109382629E0
4.148317452E1,-5.083045483E0,-6.988888264E0,5.214730740E0
4.153516791E1,-5.097411156E0,-6.996070862E0,4.855589390E0
4.158716117E1,-5.097411156E0,-6.960156918E0,5.032765865E0
4.163915456E1,-4.903474808E0,-6.869174480E0,5.011217117E0
4.169114792E1,-5.281770229E0,-6.917059898E0,4.819674969E0
4.174314114E1,-5.164450645E0,-6.747066498E0,4.577853203E0
4.179513484E1,-4.929811954E0,-6.914665699E0,4.606584549E0
4.184712892E1,-4.855589390E0,-6.979310989E0,4.498842239E0
4.189912218E1,-4.963331699E0,-7.115784645E0,4.350397110E0
4.195111567E1,-4.874743462E0,-7.336058140E0,4.745452881E0
4.200310900E1,-4.934600353E0,-7.474925995E0,4.795732498E0
4.205510309E1,-6.263422966E0,-7.460560322E0,5.042342663E0
4.210710188E1,-8.413481712E0,-7.762238979E0,5.944984436E0
4.215909880E1,-9.749486923E0,-6.919454098E0,1.042227840E1
4.221109219E1,-9.031204224E0,-5.657671452E0,1.286922741E1
4.226308562E1,-6.126949310E0,-2.573845387E0,1.094183540E1
4.231507894E1,-5.944984436E0,-1.750214934E0,8.181237221E0
4.236707224E1,-2.808484316E0,-2.633702159E-1,6.660872459E0
4.241906556E1,-5.631334305E0,-1.467690468E0,5.525986195E0
4.247105889E1,-5.739076614E0,-1.702329397E0,4.776578426E0
4.252305291E1,-6.869174480E0,-4.371945858E0,3.021574736E0
4.257504653E1,-5.296135902E0,-5.904281616E0,2.533142805E0
4.262703996E1,-5.317684174E0,-1.953728199E0,-1.771763325E0
4.267903325E1,7.324086666E0,1.322357941E1,9.383162498E0
4.273102651E1,-2.827638626E0,1.305837440E1,4.024775982E0
4.278301997E1,7.446194887E-1,3.689577579E0,1.107352066E1
4.283501323E1,-6.984099388E0,2.147664547E0,1.036002731E1
4.288700655E1,-1.608952713E1,-3.445361376E0,1.459789371E1
4.293900097E1,-1.659950638E1,-8.858817071E-2,1.269444466E1
4.299099423E1,-4.391099930E0,-1.053480953E-1,1.126266861E1
4.304298782E1,-3.715914488E0,2.140481710E0,6.828471661E0
4.309498095E1,-1.266571403E0,3.308887720E0,4.319271564E0
4.314697474E1,6.656084061E-1,6.009629726E0,5.379935265E0
4.319897110E1,8.219545364E0,1.166490650E1,7.046350956E0
4.325096496E1,2.196268272E1,2.862594986E1,2.106961906E-1
4.330295828E1,1.643909073E1,2.058597565E1,3.797319889E0
4.335495168E1,-3.316070557E0,-7.101418972E0,2.796991920E1
4.340694497E1,1.571841431E1,-5.397892380E1,1.750933075E1
4.345893846E1,-1.990600014E1,-7.817307472E0,2.808484316E0
4.351093169E1,5.506832123E0,-4.268991947E0,-8.739103079E-1
4.356292581E1,4.968120098E0,4.393494129E0,1.867534399E0
4.361491940E1,2.442160368E0,8.600234985E0,1.503604531E0
4.366691259E1,2.025556564E0,9.000079155E0,9.146129489E-1
4.371890605E1,2.214704275E0,6.287365437E0,1.436564922E0
4.377089937E1,1.738243461E0,3.876330853E0,4.558699131E0
4.382289260E1,2.413429022E0,-1.743032098E0,6.055120945E0
4.387488599E1,-3.268185139E0,-9.196409225E0,5.202759266E0
4.392687942E1,-2.772570133E0,-1.448536301E1,1.146857643E1
4.397887367E1,-7.182824425E-3,-1.520603943E1,1.203123093E1
4.403086706E1,-1.503604531E0,-1.453085423E1,8.451789856E0
4.408286026E1,-3.184385538E0,-1.301288319E1,6.833260536E0
4.413485358E1,-4.893897533E0,-1.189715195E1,5.650488377E0
4.418684731E1,-3.062277555E0,-1.067128277E1,5.004034519E0
4.423884576E1,-1.024749637E0,-1.034805584E1,5.106987953E0
4.429084305E1,-1.046298146E0,-1.019003391E1,4.187586784E0
4.434283721E1,-1.683175206E0,-1.000088596E1,3.284945011E0
4.439483040E1,-1.642472506E0,-1.042467213E1,3.126922846E0
4.444682370E1,-1.944151163E0,-1.156195259E1,3.397475958E0
4.449881705E1,-1.884294271E0,-1.231614971E1,3.165231228E0
4.455081038E1,-1.968093872E0,-1.192588329E1,3.885908127E0
4.460280371E1,-2.099778891E0,-1.061142635E1,3.474092722E0
4.465479703E1,-3.433390141E0,-9.119792938E0,3.531555414E0
4.470679148E1,-3.071854591E0,-8.028003693E0,4.211529255E0
4.475878461E1,-2.667222023E0,-6.091034889E0,3.785348415E0
4.481077807E1,-3.893090725E0,-5.537957668E0,4.522785187E0
4.486277143E1,-3.902667999E0,-4.917840481E0,5.798933506E0
4.491476479E1,-4.664047241E0,-3.845205307E0,6.725517750E0
4.496675808E1,-7.063110828E0,-3.229876757E0,6.967339516E0
4.501875140E1,-7.563514233E0,-2.274561167E0,7.747873306E0
4.507074503E1,-7.415069103E0,-1.592192769E0,9.083878517E0
4.512273922E1,-7.008042336E0,-5.985686928E-2,8.200390816E0
4.517473238E1,-5.935407162E0,1.738243461E0,7.264229774E0
4.522672580E1,-5.020794392E0,3.210722446E0,6.866780281E0
4.527871939E1,-3.914639235E0,3.775771379E0,5.308107376E0
4.533071541E1,-6.091034889E0,2.865947008E0,4.642498970E0
4.538270981E1,-4.295329094E0,2.351177931E0,2.753416061E0
4.543470310E1,-3.280156374E0,7.518022656E-1,4.098998547E0
4.548669643E1,-4.273780346E0,-1.561067224E0,4.216318130E0
4.553868978E1,-3.184385538E0,-5.389512539E0,3.301704884E0
4.559068308E1,-7.623371124E0,-5.518803596E0,-5.911464691E0
4.564267647E1,7.877163887E-1,-5.724710941E0,4.357580185E0
4.569466996E1,-4.769395351E0,-7.999272346E0,7.846038342E0
4.574666421E1,-1.476549244E1,-9.905115128E0,5.679219723E0
4.579865748E1,-9.232323647E0,-8.485309601E0,7.587456703E0
4.585065073E1,-1.447099686E1,-1.020679379E1,3.689577579E0
4.590264409E1,-1.161702156E1,-8.700794220E0,8.547560692E0
4.595463749E1,-1.346540165E1,-7.134938717E0,5.260221958E0
4.600663353E1,-1.152603912E1,-5.650488377E0,5.983292580E0
4.605862682E1,-2.880312681E0,-3.991255999E0,7.398309231E0
4.611062074E1,-8.803748131E0,-2.525959969E0,5.770202160E0
4.616261446E1,-4.012804508E0,1.891477108E-1,4.357580185E0
4.621460779E1,3.351984620E-1,3.627326250E0,3.996044636E0
4.626660125E1,5.250644684E0,7.223526955E0,5.717528343E0
4.631859464E1,1.488760090E1,1.801931190E1,1.673598051E0
4.637059216E1,1.653246689E1,2.623167419E1,2.490045726E-1
4.642259011E1,1.372877216E1,6.756643295E0,2.042555809E1
4.647458470E1,-9.883566856E0,-2.137847900E1,-1.960432243E1
4.652657783E1,-2.876242256E1,-1.614938354E1,4.185192585E0
4.657857126E1,-6.847625971E-1,-7.798152924E0,3.208328187E-1
4.663056452E1,6.428627968E0,2.442160368E0,4.673624516E0
4.668255784E1,2.909043789E0,4.556304932E0,3.493247032E0
4.673455127E1,3.155654192E0,1.009426212E1,4.388705730E0
4.678654463E1,2.882706881E0,8.334470749E0,4.980091572E0
4.683853832E1,3.634509087E0,7.130150318E0,5.904281616E0
4.689053227E1,2.169213057E0,3.380716085E0,5.650488377E0
4.694252553E1,-1.345582485E0,-6.967339516E-1,6.538764477E0
4.699451889E1,-5.650488377E0,-5.751048088E0,7.103813171E0
4.704651228E1,-3.988861799E0,-8.391933441E0,7.448588848E0
4.709850551E1,2.011190802E-1,-1.106154919E1,1.152843285E1
4.715049880E1,-1.563461423E0,-1.068325424E1,7.441406250E0
4.720249229E1,-1.970488191E0,-1.189715195E1,6.584255695E0
4.725448658E1,-3.220299721E0,-1.210784817E1,5.020794392E0
4.730647990E1,-3.948159218E0,-1.226347542E1,4.534756660E0
4.735847330E1,-2.308080912E0,-1.137280560E1,4.721509933E0
4.741046659E1,-5.554717779E-1,-1.043664360E1,4.134912491E0
4.746246244E1,-4.118152559E-1,-9.938634872E0,4.031958580E0
4.751445723E1,-5.770202279E-1,-9.696812630E0,3.924216509E0
4.756645059E1,-6.727912426E-1,-9.601041794E0,3.416630268E0
4.761844392E1,-5.267404318E-1,-9.766246796E0,2.906649590E0
4.767043728E1,-5.099805593E-1,-1.006553173E1,2.569056988E0
4.772243060E1,-7.877163887E-1,-1.032890129E1,2.480468750E0
4.777442390E1,-1.759791970E0,-1.098732662E1,3.083826065E0
4.782641736E1,-2.739050388E0,-1.116929245E1,3.155654192E0
4.787841151E1,-3.150865555E0,-1.059227180E1,3.759011507E0
4.793040490E1,-3.756617069E0,-9.452596664E0,4.458139896E0
4.798239833E1,-3.720703125E0,-7.546754360E0,4.336031914E0
4.803439165E1,-4.453351021E0,-6.586649895E0,4.795732498E0
4.808638488E1,-4.113364220E0,-5.288952827E0,5.049525738E0
4.813837834E1,-5.593026161E0,-4.934600353E0,5.324867249E0
4.819037160E1,-5.269798756E0,-4.762212753E0,6.352011204E0
4.824236502E1,-5.166844845E0,-4.563488007E0,7.965752125E0
4.829435907E1,-6.177228928E0,-4.721509933E0,9.045570374E0
4.834635260E1,-6.246663094E0,-2.150058746E0,1.183011150E1
4.839834596E1,-6.936213970E0,-1.211503029E0,9.960183144E0
4.845033928E1,-5.071074009E0,1.721483588E0,7.946598053E0
4.850233594E1,-4.070267200E0,2.296109438E0,4.592218876E0
4.855433426E1,-3.249030828E0,1.177983165E0,2.820455790E0
4.860633029E1,-2.631308079E0,-4.166038036E-1,1.187560320E0
4.865832365E1,-2.102173328E0,-3.002420664E0,-3.136500120E-1
4.871031697E1,-4.494053841E0,-6.869174480E0,7.757450342E-1
4.876231026E1,7.494080067E-1,-5.323670197E1,7.108841705E1
4.881430372E1,-2.642082214E1,9.308940887E0,-7.422251999E-2
4.886629695E1,-1.305358601E1,-8.186025620E0,3.804502726E0
4.891829081E1,-1.907279396E1,-4.300117493E0,-3.878725171E-1
4.897028466E1,-1.405439281E1,-5.375146866E0,-9.433442950E-1
4.902227795E1,-1.440395737E1,-4.479688168E0,3.007209063E0
4.907427131E1,-1.276866722E1,-3.940976381E0,4.156461239E0
4.912626470E1,-1.523955917E1,-4.738269806E0,3.378321648E0
4.917825796E1,-1.237600613E1,-6.035966873E0,6.229903221E0
4.923025129E1,-9.428654671E0,-6.507638931E0,5.547534943E0
4.928224475E1,-1.133449650E1,-6.404685020E0,4.391099930E0
4.933423864E1,-9.438231468E0,-5.971321583E0,4.319271564E0
4.938623232E1,-7.039167881E0,-4.058295727E0,5.083045483E0
4.943822562E1,-8.051946640E0,-2.090201855E0,3.237059593E0
4.949021898E1,-6.881145954E0,-1.410227895E0,5.102199554E0
4.954221237E1,-3.232271075E-1,-1.987248063E0,5.564294815E0
4.959420882E1,-2.027950764E0,2.078230619E0,8.391933441E0
4.964620728E1,3.790137053E0,4.175615311E0,8.312922478E0
4.969820227E1,7.101418972E0,8.696005821E0,6.680026531E0
4.975019573E1,1.771284485E1,1.718371010E1,1.640078187E0
4.980218909E1,1.679823112E1,1.530181026E1,4.831646442E0
4.985418235E1,4.506025314E0,7.206767201E-1,2.427794647E1
4.990617571E1,-8.839662552E0,-2.523565531E0,-1.043424988E1
4.995816917E1,-6.318490982E0,-1.879026794E1,8.044763207E-1
5.001016236E1,-1.452606487E1,-6.680026650E-1,1.400650740E0
5.006215628E1,2.664827824E0,-4.549122155E-1,6.464542150E-1
5.011414997E1,6.031178474E0,4.015198708E0,3.490852594E0
5.016614333E1,6.057515144E0,9.062330246E0,5.042342663E0
5.021813679E1,6.103006363E0,7.096630573E0,7.664073467E0
5.027013008E1,2.346389294E0,4.371945858E0,8.913885117E0
5.032212334E1,-1.625712633E0,1.266571403E0,9.148524284E0
5.037411673E1,-4.704750061E0,-4.333637357E-1,9.598648071E0
5.042610999E1,-5.736682415E0,-1.611346960E0,1.021158218E1
5.047810408E1,-6.672843933E0,-2.679193497E0,9.579493523E0
5.053009776E1,-6.691998005E0,-2.899466753E0,9.210775375E0
5.058209103E1,-5.142902374E0,-1.917814136E0,8.576292038E0
5.063408448E1,-6.431022167E0,-2.834821463E0,8.590658188E0
5.068608004E1,-7.257047176E0,-3.754222870E0,9.299363136E0
5.073807523E1,-5.499649048E0,-4.268991947E0,9.754275322E0
5.079006842E1,-3.976890564E0,-4.225894928E0,9.174860954E0
5.084206188E1,-3.718308687E0,-4.589824677E0,8.707977295E0
5.089405511E1,-3.960130453E0,-5.205153465E0,8.526012421E0
5.094604837E1,-3.878725290E0,-4.757423878E0,7.604216576E0
5.099804180E1,-3.464515686E0,-4.565882206E0,7.213950157E0
5.105003522E1,-3.555498123E0,-4.652075768E0,7.355212212E0
5.110202911E1,-4.005621910E0,-4.984879971E0,7.383943558E0
5.115402283E1,-4.060689926E0,-4.913052082E0,7.199584484E0
5.120601606E1,-3.608172178E0,-4.623344421E0,7.103813171E0
5.125800968E1,-3.979284763E0,-4.884320736E0,7.360000610E0
5.131000301E1,-4.046324253E0,-4.778972626E0,7.424646378E0
5.136199634E1,-4.364762783E0,-5.095016956E0,7.731113434E0
5.141398956E1,-3.931399345E0,-4.726298332E0,7.642525196E0
5.146598276E1,-4.805309772E0,-5.020794392E0,7.563514233E0
5.151797701E1,-6.095823765E0,-4.589824677E0,6.763826370E0
5.156997043E1,-6.680026531E0,-3.419024467E0,6.301731110E0
5.162196379E1,-5.842030525E0,-3.969707727E0,8.552350044E0
5.167395718E1,-4.558699131E0,-3.878725290E0,6.660872459E0
5.172595260E1,-4.920234680E0,-4.441379547E0,5.039948463E0
5.177795126E1,-5.540351868E0,-4.359974384E0,4.527573586E0
5.182994799E1,-5.463735104E0,-3.881119490E0,4.240260601E0
5.188194162E1,-6.696786404E0,-2.209915638E0,3.553103924E0
5.193393484E1,2.561874151E0,-1.316851139E0,1.043903828E1
5.198592823E1,-4.182797909E0,-8.990502357E0,1.156195259E1
5.203792142E1,-2.047344398E1,-1.243825722E1,1.572320271E1
5.208991492E1,-1.443987179E1,-5.075862408E0,7.084659100E0
5.214190877E1,-8.825297356E0,-4.470110893E0,7.360000610E0
5.219390256E1,-9.811738014E0,-5.214730740E0,6.320885420E-1
5.224589619E1,-1.101605797E1,-3.763799906E0,-3.478881359E0
5.229788921E1,-3.957736254E0,7.853221297E-1,-6.253845692E0
5.234988254E1,5.279376030E0,2.042316437E0,-1.345582485E0
5.240187586E1,3.423812985E-1,-5.739076614E0,9.251478195E0
5.245386929E1,-1.008947372E1,4.051113129E0,2.401457548E0
5.250586252E1,-9.713572502E0,-4.134912491E0,3.407052994E0
5.255785630E1,-1.444705391E1,-2.535537004E0,3.577046633E0
5.260985022E1,-8.257853508E0,1.101366401E0,2.147664547E0
5.266184352E1,-1.348934460E1,-3.454938650E0,3.574652195E0
5.271383691E1,-1.709991074E1,-4.915446281E0,8.277008057E0
5.276583034E1,-1.579503059E1,-6.454965115E0,1.088437366E1
5.281782546E1,-1.790199280E1,-6.411868095E0,9.979337692E0
5.286982435E1,-9.364008904E0,-2.837215662E0,5.973715782E0
5.292182034E1,-4.714327335E0,-1.383890867E0,5.341627121E0
5.297381376E1,-1.398256540E0,1.132491946E0,3.114951611E0
5.302580709E1,1.745426297E0,3.189173937E0,2.236252785E0
5.307780025E1,3.847599506E0,5.442186832E0,-9.792584181E-1
5.312979361E1,5.700768471E0,5.997658253E0,-4.510813713E0
5.318178700E1,5.784567833E0,3.124528646E0,-3.407052994E0
5.323378029E1,-1.067846537E0,-1.735849261E0,6.308914185E0
5.328378252E1,-1.125309181E1,-5.432609558E0,9.352037430E0
5.333577598E1,1.660190201E1,-7.264948273E1,3.116148758E1
5.338776927E1,-4.467716694E0,-1.266810799E1,7.666468143E0
5.343976259E1,-7.182824425E-3,-4.417437077E0,7.884346962E0
5.349175599E1,1.723877788E-1,-1.958516836E0,6.986494064E0
5.354374925E1,-5.219519138E-1,-2.875524044E0,9.577098846E0
5.359574271E1,-3.562680960E0,-4.549122334E0,1.095141315E1
5.364773600E1,-5.832453251E0,-7.649707794E0,1.129618835E1
5.369972998E1,-5.700768471E0,-6.589044094E0,1.075747681E1
5.375172367E1,-4.259414673E0,-4.467716694E0,8.502069473E0
5.380371697E1,-5.092622280E0,-3.799714088E0,6.500456333E0
5.385571026E1,-7.649707794E0,-5.803721905E0,6.162863255E0
5.390770465E1,-6.431022167E0,-5.899493217E0,5.506832123E0
5.395970084E1,-4.321666241E0,-6.019207001E0,5.358386993E0
5.401169430E1,-4.012804508E0,-6.569890022E0,6.136526108E0
5.406368772E1,-4.134912491E0,-6.952973843E0,6.110189438E0
5.411568088E1,-3.703943014E0,-6.148497581E0,5.365570068E0
5.416767434E1,-3.165231228E0,-6.114977837E0,5.985687256E0
5.421966780E1,-2.564268351E0,-5.135719299E0,5.947378635E0
5.427166106E1,-3.711125851E0,-5.956955910E0,7.391126156E0
5.432365518E1,-3.830839634E0,-5.978504181E0,8.748680115E0
5.437564860E1,-3.038334846E0,-6.299336910E0,4.637710094E0
5.442764203E1,-7.453377247E0,-5.751048088E0,1.731060743E0
5.447963529E1,-1.020679379E1,-5.691191196E0,3.445361376E0
5.453162865E1,-9.694418907E0,-4.721509933E0,-4.692778587E-1
5.458362201E1,-1.361384678E1,-3.284945011E0,-3.804502726E0
5.463561530E1,-9.648927689E0,-2.423006058E0,-3.196356773E0
5.468760879E1,-5.310501575E0,-5.363175869E-1,-2.025556564E0
5.473960294E1,-2.940169573E0,-7.996878028E-1,-1.795706153E-1
5.479159630E1,-3.840416908E0,-3.711125851E0,3.948159218E0
5.484358973E1,-6.392713547E0,-6.785374641E0,8.863605499E0
5.489558305E1,-8.051946640E0,-6.328068256E0,9.328094482E0
5.494757741E1,-8.719948769E0,-4.913052082E0,6.838048935E0
5.499957620E1,-1.024510193E1,-4.819674969E0,6.363982677E0
5.505157282E1,-8.796566010E0,-5.511620522E0,7.453377247E0
5.510356638E1,-6.840443134E0,-5.983292580E0,7.948992252E0
5.515555980E1,-6.490879059E0,-5.145296574E0,9.184437752E0
5.520755300E1,-7.989695072E0,-4.285751820E0,8.775016785E0
5.525954642E1,-9.761458397E0,-1.316851139E0,6.261028767E0
5.531153982E1,-5.947378635E0,1.570644259E0,5.219519138E0
5.536353311E1,-3.074248791E0,3.464515686E0,3.988861799E0
5.541552683E1,-4.065478802E0,2.049499273E0,3.895485163E0
5.546752072E1,-3.471698523E0,-4.812492430E-1,2.018373728E0
5.551951404E1,-1.640078187E0,-1.589798450E0,-4.692778587E-1
5.557150740E1,2.873129770E-2,-4.652075768E0,-2.765387297E0
5.562350080E1,-1.623318315E0,-1.162659836E1,-6.256239891E0
5.567549412E1,3.234665298E1,-9.342460632E0,-8.516435623E0
5.572748735E1,-1.266331959E1,-1.265853119E1,1.764580488E0
5.577948077E1,-3.268185139E0,-1.578784847E1,4.510813713E0
5.583147473E1,-4.620950222E0,-1.482056141E1,2.128510237E0
5.588346842E1,-6.929031372E0,-1.670724869E1,9.385557175E-1
5.593546174E1,-1.143984509E1,-1.565855694E1,2.837215662E0
5.598745513E1,-1.015651417E1,-1.291471863E1,3.979284763E0
5.603944903E1,-1.110704041E1,-1.105436707E1,5.004034519E0
5.609144538E1,-1.028819847E1,-1.002243423E1,3.943370581E0
5.614343921E1,-9.692024231E0,-1.075029373E1,2.669616461E0
5.619543250E1,-1.119084072E1,-1.194982529E1,2.482862949E0
5.624742583E1,-1.248853779E1,-1.080775642E1,2.863552570E0
5.629941912E1,-7.321692467E0,-7.541965485E0,2.786935806E0
5.635141241E1,-6.967339516E0,-4.664047241E0,4.110970020E0
5.640340581E1,-5.842030525E0,-1.426987767E0,-7.158881426E-1
5.645539946E1,-1.436564922E0,1.855562925E0,-1.149251938E0
5.650739355E1,1.575432777E0,3.634509087E0,-1.347976685E0
5.655938674E1,1.685569525E0,4.077449799E0,2.372726440E0
5.661138017E1,6.522004604E0,7.649707794E0,-6.632141471E-1
5.666337346E1,9.045570374E0,1.000088596E1,-4.491659641E0
5.671536672E1,7.443800449E0,5.877944469E0,-1.336005330E0
5.676736021E1,-4.094209969E-1,-1.108549237E0,9.816526413E0
5.681935340E1,-1.130815983E1,-8.607418060E0,6.881145954E0
5.687134726E1,1.920926666E1,-5.089509964E1,-8.449396133E0
5.692334121E1,-4.132518291E0,-1.074071693E1,8.856422424E0
5.697533447E1,-8.722343445E0,-5.090228081E0,1.037918091E1
5.702732780E1,-4.012804508E0,-5.162056446E0,6.596227169E0
5.707932159E1,-3.524372578E0,-6.033572674E0,9.239506721E0
5.713132001E1,-4.331243038E0,-8.976136208E0,1.217967606E1
5.718331743E1,-7.869981289E0,-8.056735039E0,9.905115128E0
5.723531216E1,-7.860404015E0,-8.447001457E0,8.288979530E0
5.728730552E1,-7.055927753E0,-6.196382999E0,7.173247337E0
5.733929888E1,-6.158074856E0,-5.700768471E0,6.086246490E0
5.739129221E1,-6.126949310E0,-6.158074856E0,5.073468208E0
5.744328557E1,-6.186806202E0,-6.771008968E0,4.252232075E0
5.749527876E1,-5.415849686E0,-6.744672298E0,4.163643837E0
5.754727298E1,-4.568276405E0,-6.883540154E0,4.343214512E0
5.759926653E1,-4.221106529E0,-7.034379482E0,3.955342054E0
5.765125976E1,-4.403071404E0,-7.518023014E0,3.802108288E0
5.770325322E1,-4.422225475E0,-7.917866707E0,4.043930054E0
5.775524658E1,-3.378321648E0,-7.539571285E0,4.197163582E0
5.780723987E1,-2.214704275E0,-7.194795609E0,4.620950222E0
5.785923323E1,-2.403851986E0,-7.211555958E0,4.874743462E0
5.791122662E1,-3.244242430E0,-7.508445740E0,4.585036278E0
5.796322087E1,-3.524372578E0,-7.767027378E0,4.680807114E0
5.801521443E1,-3.428601503E0,-7.865192890E0,4.948966026E0
5.806720746E1,-3.672817469E0,-7.858009815E0,5.446975231E0
5.811920089E1,-4.087027073E0,-7.752661705E0,5.391906738E0
5.817119464E1,-4.582642078E0,-7.817307472E0,4.824463844E0
5.822319286E1,-4.271386147E0,-7.462954521E0,4.218712330E0
5.827519019E1,-4.247443676E0,-7.328875065E0,4.381523132E0
5.832718421E1,-4.857983589E0,-7.005648136E0,4.788549423E0
5.837917757E1,-5.547534943E0,-7.266623974E0,4.656864643E0
5.843117110E1,-5.157268047E0,-7.774210453E0,4.134912491E0
5.848316442E1,-4.024775982E0,-7.913078308E0,4.230683804E0
5.853515765E1,-4.757423878E0,-8.114197731E0,4.855589390E0
5.858715088E1,-4.946571827E0,-8.142929077E0,4.582642078E0
5.863914480E1,-5.073468208E0,-8.463761330E0,4.149278164E0
5.869113859E1,-5.111776829E0,-7.915472507E0,4.223500729E0
5.874313185E1,-4.570670605E0,-7.455771923E0,4.158855438E0
5.879512524E1,-4.494053841E0,-6.964945316E0,3.476486921E0
5.884711863E1,-4.862771988E0,-6.852414608E0,3.172414064E0
5.889911189E1,-7.340846539E0,-6.505244732E0,3.316070557E0
5.895110528E1,-1.112140656E1,-5.557111740E0,4.393494129E0
5.900309861E1,-1.153561592E1,-5.150084972E0,7.793364525E0
5.905509246E1,-8.937828064E0,-4.786155224E0,7.769421577E0
5.910708652E1,-8.238699913E0,-1.534730196E0,5.947378635E0
5.915907958E1,-3.998438835E0,1.759791970E0,8.164477348E-1
5.921107307E1,-1.807677507E0,-1.987248063E-1,1.462901950E0
5.926306666E1,-6.031178474E0,-3.414235830E0,-2.248224020E0
5.931506292E1,-1.405678749E1,-1.078620815E1,-1.247417212E0
5.936705694E1,-9.550762177E0,-1.800015831E1,2.636096478E0
5.941905027E1,-6.924242973E0,7.901107073E-1,6.634535313E0
5.947104373E1,2.492439985E0,3.160442710E-1,1.072874546E1
5.952303695E1,-3.174808502E0,1.019961119E0,8.377567291E0
5.957503028E1,-4.728692532E0,-1.192348838E0,7.575485706E0
5.962702364E1,-8.751074791E0,-2.710319042E0,2.253012657E0
5.967901736E1,-1.106394386E1,-2.504411459E0,4.221106529E0
5.973101121E1,-9.217958450E0,-3.730280161E0,3.785348415E0
5.978300491E1,-1.317090607E1,-2.516382933E0,3.694365978E0
5.983499803E1,-1.180616951E1,-2.944957912E-1,3.902667999E0
5.988699133E1,-1.086761379E1,7.374366522E-1,6.375953674E0
5.993898479E1,-7.977723598E0,1.539518714E0,5.736682415E0
5.999097794E1,-6.402290821E0,2.145270348E0,4.424619675E0
6.004297130E1,-3.471698523E0,2.765387297E0,5.791750908E0
6.009496552E1,1.314456820E0,5.267404556E0,7.448588848E0
6.014695895E1,4.965725899E0,8.518829346E0,7.127756119E0
6.019895247E1,1.445184231E1,1.397777653E1,5.487678051E0
6.025094580E1,1.665936470E1,2.477116776E1,-1.268965602E0
6.030293909E1,8.109408379E0,9.265843391E0,3.838022470E0
6.035493664E1,3.110162973E0,-1.259149075E1,3.422376251E1
6.040693460E1,5.075862408E0,-2.401696968E1,-5.909070015E0
6.045892912E1,-9.308940887E0,-3.962524891E0,4.539545059E0
6.051092228E1,-3.797319889E0,-3.567469418E-1,2.152452946E0
6.056092467E1,4.790944099E0,1.616135478E0,-1.675992459E-2
6.061291803E1,5.473312378E0,5.971321583E0,1.762186289E0
6.066491129E1,6.395108223E0,9.988914490E0,1.199531674E0
6.071690475E1,6.378347874E0,8.657697678E0,4.237866402E-1
6.076889808E1,4.465322495E0,4.051113129E0,1.582615614E0
6.082089203E1,1.197137356E0,-2.968900681E0,6.043149471E0
6.087288578E1,-6.442993641E0,-1.018763924E1,5.688796997E0
6.092487905E1,-7.039167881E-1,-1.488760090E1,7.010436535E0
6.097687240E1,4.230683804E0,-1.830901909E1,9.510059357E0
6.102886576E1,-3.088614643E-1,-1.939841461E1,5.803721905E0
6.108085916E1,-4.984879971E0,-1.722201920E1,5.736682415E0
6.113285242E1,-4.637710094E0,-1.221798420E1,2.279349566E0
6.118484577E1,5.482889414E-1,-1.023313046E1,6.035966873E0
6.123683989E1,5.193181992E0,-9.502876282E0,1.003440571E1
6.128883345E1,1.649655342E0,-1.031214142E1,6.177228928E0
6.134082671E1,-2.140481710E0,-1.067367744E1,1.857957244E0
6.139282017E1,-4.405465603E0,-1.063536835E1,-9.960182905E-1
6.144481582E1,-6.237085819E0,-9.105426788E0,1.537124395E0
6.149681065E1,-6.268211365E0,-7.166064739E0,4.477293789E-1
6.154880408E1,-4.585036278E0,-6.761432171E0,-8.427847624E-1
6.160079743E1,-3.114951611E0,-7.652102470E0,-8.212362528E-1
6.165279076E1,-1.230657220E0,-9.244295120E0,2.983266354E0
6.170478412E1,-2.387091875E0,-6.421444893E0,3.581835032E0
6.175677741E1,-4.963331699E0,-5.913858891E0,4.010410309E0
6.180877070E1,-6.751854897E0,-5.238673210E0,3.634509087E0
6.186076502E1,-8.767834663E0,-5.276981831E0,3.493247032E0
6.191275842E1,-1.040312386E1,-5.564294815E0,3.792531252E0
6.196475177E1,-1.055156898E1,-6.100612164E0,5.590631485E0
6.201674517E1,-1.088676739E1,-6.593832970E0,5.224307537E0
6.206873849E1,-9.907508850E0,-6.055120945E0,6.929031372E0
6.212073179E1,-1.388200569E1,-6.205960274E0,6.289760113E0
6.217272511E1,-1.206475067E1,-3.756617069E0,8.241093636E0
6.222471857E1,-1.318287754E1,-3.198751211E0,5.846818924E0
6.227671279E1,-6.203566074E0,2.561874092E-1,5.856396198E0
6.232870615E1,-3.184385538E0,2.446948767E0,2.533142805E0
6.238069947E1,-8.164477348E-1,1.412622184E-1,2.746233225E0
6.243269276E1,2.940169573E0,-4.460534096E0,3.131711483E0
6.248468925E1,-5.013611317E0,-1.056354046E1,-1.170800328E0
6.253668764E1,-8.310527802E0,-8.104619980E0,-5.961744189E-1
6.258868370E1,7.443800449E0,1.927630615E1,4.350397110E0
6.264067720E1,8.930644989E-1,2.748627424E0,2.355966330E0
6.269267049E1,-6.742278099E0,3.691971779E0,7.565908432E0
6.274466375E1,-9.263449669E0,-4.678412914E0,7.606611252E0
6.279665727E1,-1.228741837E1,-7.477320194E0,7.580274105E0
6.284865050E1,-1.780143356E1,-9.143735886E0,2.925803900E0
6.290064432E1,-1.417171288E1,-1.063776302E1,6.186806202E0
6.295263821E1,-1.660668945E1,-7.563514233E0,4.015198708E0
6.300463144E1,-7.522811413E0,-7.879558563E0,7.901106834E0
6.305662486E1,-7.649707794E0,-6.893116951E0,6.732700825E0
6.310861822E1,-1.090831566E1,-5.724710941E0,8.382355690E0
6.316061148E1,-7.589851379E0,-2.439765930E0,6.498061657E0
6.321260484E1,-2.944957972E0,8.523618579E-1,4.359974384E0
6.326459826E1,1.596981287E0,2.734261751E0,3.378321648E0
6.331659212E1,3.445361376E0,6.069486618E0,1.810071707E0
6.336858587E1,1.241431522E1,1.714300728E1,1.843591630E-1
6.342057913E1,1.698977470E1,2.279589081E1,1.407833576E0
6.347257259E1,1.210545349E1,6.000052452E0,1.665936470E1
6.352456585E1,-2.227393913E1,-1.752130318E1,-1.289316940E1
6.357656214E1,-5.166844845E0,-2.608801842E1,7.613793850E0
6.362856066E1,-1.402566147E1,-9.313728809E-1,-2.561874092E-1
6.368055582E1,-3.184385598E-1,-3.359167576E0,1.798100352E0
6.373254925E1,5.083045483E0,1.522758722E0,-1.130097747E0
6.378454257E1,3.988861799E0,8.250671387E0,-5.913859010E-1
6.383653583E1,4.915446281E0,8.748680115E0,3.759011328E-1
6.388852922E1,3.799714088E0,2.360754967E0,1.968093872E0
6.394052255E1,1.699935079E0,-4.245049000E0,8.272219658E0
6.399251604E1,-3.409447432E0,-9.215563774E0,3.567469358E0
6.404451023E1,-3.203539610E0,-2.263547325E1,1.014693642E1
6.409650352E1,-1.920208454E0,-1.934334564E1,1.036242104E1
6.414849684E1,-2.576239586E0,-1.836169434E1,7.362394810E0
6.420049017E1,-3.390293121E0,-1.414537525E1,5.880339146E0
6.425248366E1,-3.114951611E0,-1.161462688E1,3.378321648E0
6.430447689E1,-1.671203852E0,-9.469356537E0,2.564268351E0
6.435647021E1,-6.464541703E-2,-9.624984741E0,2.298503876E0
6.440846394E1,5.865973234E-1,-9.265843391E0,3.778165579E0
6.446045796E1,-3.998439014E-1,-9.399923325E0,4.178009510E0
6.451245118E1,-7.877163887E-1,-9.862017632E0,2.588211060E0
6.456444471E1,-1.197137356E0,-1.115492630E1,1.412622094E0
6.461643790E1,-1.534730196E0,-1.070719719E1,1.118126392E0
6.466843292E1,-1.395862222E0,-1.030974770E1,1.963305354E0
6.472042862E1,-1.316851139E0,-1.004398251E1,2.705530643E0
6.477242184E1,-1.853168726E0,-9.828497887E0,2.609759569E0
6.482441533E1,-3.126922846E0,-9.572310448E0,2.612153769E0
6.487640863E1,-4.106181145E0,-9.213169098E0,3.620143414E0
6.492840195E1,-4.982485771E0,-8.367990494E0,4.448562622E0
6.498039528E1,-6.268211365E0,-7.388731956E0,5.090228081E0
6.503238870E1,-6.850020409E0,-5.949772835E0,6.483695984E0
6.508438279E1,-8.054340363E0,-4.606584549E0,6.555524349E0
6.513637625E1,-7.405491829E0,-3.849993944E0,9.428654671E0
6.518836961E1,-6.998465061E0,-1.977671027E0,7.769421577E0
6.524036290E1,-7.501263142E0,-1.292908430E0,7.565908432E0
6.529235626E1,-6.974522591E0,-7.685621977E-1,6.591438770E0
6.534434962E1,-8.882759094E0,-2.051893473E0,4.154066563E0
6.539634298E1,-6.531581879E0,-2.250618339E-1,3.792531252E0
6.544833650E1,-4.553910732E0,-1.166011810E0,1.541913033E0
6.550033079E1,-4.903474808E0,-4.331243038E0,7.422251999E-2
6.555232401E1,-3.205934048E0,-3.555498123E0,1.683175206E0
6.560431737E1,1.580221415E0,6.088640690E0,2.263307953E1
6.565631066E1,1.125309110E0,3.021574736E0,5.355992794E0
6.570830592E1,-2.830032825E0,5.011217117E0,8.648120880E0
6.576030477E1,-6.914665699E0,1.424593568E0,1.535687828E1
6.581230066E1,-1.873759460E1,-4.383917332E0,1.377426338E1
6.586429392E1,-1.445184231E1,-5.183605194E0,1.552926636E1
6.591628731E1,-1.082691097E1,-1.764580488E0,1.234009266E1
6.596828084E1,-5.231490612E0,8.308133483E-1,8.791776657E0
6.602027410E1,-1.867534399E0,2.770175934E0,6.301731110E0
6.607226739E1,1.915419847E-1,4.075055599E0,3.222693920E0
6.612426085E1,1.652049661E0,6.062304020E0,1.333611012E0
6.617625460E1,2.612153769E0,7.134938717E0,9.313728809E-1
6.622824852E1,5.418243885E0,7.465348721E0,-1.723877907E0
6.628024175E1,6.363982677E0,6.699181080E0,-6.225114346E0
6.633223508E1,6.198777676E0,1.479661822E0,-5.418243885E0
6.638422864E1,-1.513181686E0,-1.349652672E1,3.446319199E1
6.643622169E1,-1.044622135E1,-6.847625971E-1,-1.042706680E1
6.648821499E1,4.654470444E0,-9.917086601E0,7.520417213E0
6.654020844E1,-2.262589693E0,1.144463301E0,7.046350956E0
6.659220260E1,-8.308133483E-1,-1.206714511E0,4.036747456E0
6.664419599E1,-1.939362645E0,-9.146129489E-1,6.950579643E0
6.669618935E1,-2.164424419E0,-5.059102535E0,1.045340347E1
6.674818274E1,-4.415042877E0,-7.309720993E0,1.168406105E1
6.680017713E1,-5.126142502E0,-7.573091030E0,1.024031353E1
6.685217319E1,-4.000833035E0,-7.948992252E0,1.078381348E1
6.690416678E1,-1.965699673E0,-6.979310989E0,1.064015770E1
6.695616017E1,-1.810071707E0,-6.050332546E0,8.549955368E0
6.700815353E1,-2.727078915E0,-5.743865490E0,6.775797844E0
6.706014679E1,-3.081431627E0,-7.283383846E0,6.866780281E0
6.711214005E1,-1.855562925E0,-7.747873306E0,6.751854897E0
6.716413338E1,1.316851079E-1,-8.085466385E0,6.711152077E0
6.721612723E1,-8.858817071E-2,-8.650514603E0,6.119766235E0
6.726812108E1,-7.805336118E-1,-7.312115192E0,4.297723293E0
6.732011438E1,-1.795706153E0,-7.719141960E0,4.486870766E0
6.737210774E1,-2.272166729E0,-7.482108593E0,4.419831276E0
6.742410106E1,-1.810071707E0,-7.223526955E0,4.570670605E0
6.747609442E1,-1.513181686E0,-7.805335999E0,4.822069645E0
6.752808755E1,-9.098244309E-1,-8.104619980E0,5.284164429E0
6.758008104E1,-1.438959122E0,-8.250671387E0,5.485283375E0
6.763207496E1,-1.774157643E0,-7.934626579E0,5.212336063E0
6.768406898E1,-1.783734679E0,-7.951386452E0,5.418243885E0
6.773606204E1,-1.525153041E0,-7.913078308E0,5.660065651E0
6.778805540E1,-1.965699673E0,-8.545166969E0,6.201171875E0
6.783807090E1,-1.256994247E0,-8.638543129E0,6.507638931E0
6.789006965E1,6.488484740E-1,-8.217150688E0,6.732700825E0
6.794206624E1,-6.249057055E-1,-8.150111198E0,5.947378635E0
6.799405987E1,-1.321639657E0,-8.075888634E0,5.166844845E0
6.804605326E1,-1.331216812E0,-8.382355690E0,5.458946705E0
6.809804645E1,-1.556278586E0,-8.056735039E0,5.245856285E0
6.815003985E1,-2.688770533E0,-8.387145042E0,5.320078850E0
6.820203320E1,-3.359167576E0,-8.372778893E0,5.075862408E0
6.825402653E1,-3.581835032E0,-8.581081390E0,4.951360226E0
6.830602009E1,-4.453351021E0,-8.327287674E0,4.778972626E0
6.835801421E1,-4.625739098E0,-8.068706512E0,4.608979225E0
6.841000760E1,-4.544333458E0,-7.450983047E0,4.266597748E0
6.846200089E1,-4.077449799E0,-7.249864101E0,4.118152618E0
6.851399425E1,-3.680000305E0,-7.412674904E0,4.273780346E0
6.856598768E1,-4.245049000E0,-7.218738556E0,4.115758419E0
6.861798087E1,-6.093429565E0,-7.046350956E0,5.202759266E0
6.866997423E1,-7.192401409E0,-6.045543671E0,5.741470814E0
6.872196769E1,-8.054340363E0,-4.936994553E0,8.585869789E0
6.877396181E1,-1.191151714E1,-5.418243885E0,8.123774529E0
6.882595533E1,-9.239506721E0,-2.432583094E0,7.671256542E0
6.887794853E1,-5.753442287E0,8.858817071E-2,5.516408920E0
6.892994252E1,-3.340013266E0,-3.974496126E-1,4.245049000E0
6.898193887E1,-3.845205307E0,-1.300091267E0,2.420611858E0
6.903393270E1,-4.094210148E0,-2.873129845E0,9.577099234E-3
6.908592592E1,-1.327625370E1,-9.718361855E0,3.706337452E0
6.913791922E1,-2.746233225E0,-4.166038036E-1,1.423396397E1
6.918991254E1,-8.530800819E0,5.765413761E0,1.353722954E1
6.924190594E1,-5.944984436E0,2.358360767E0,1.595305347E1
6.929389926E1,-7.664073467E0,2.071047783E0,1.217249298E1
6.934589275E1,-3.328042030E0,3.340013266E0,7.415069103E0
6.939788687E1,-3.878725171E-1,4.570670605E0,3.919427872E0
6.944988016E1,1.841197371E0,5.348809719E0,1.848380208E0
6.950187362E1,3.411841631E0,6.340039730E0,-1.513181686E0
6.955386691E1,6.272999763E0,7.460560322E0,-5.887521744E0
6.960586024E1,8.336864471E0,6.665660858E0,-7.429434776E0
6.965785363E1,3.407052994E0,-5.066285610E0,1.967854500E1
6.970984693E1,-3.669704819E1,2.767781734E0,-2.342797852E1
6.976184075E1,1.124351406E1,-2.561155701E1,2.193873978E1
6.981383470E1,-6.603409767E0,-8.303344727E0,4.996851444E0
6.986582793E1,-6.201171875E-1,-4.273780346E0,5.885127544E0
6.991782132E1,2.159635782E0,-1.869928598E0,7.960963726E0
6.996981504E1,-5.243461728E-1,-5.157268047E0,9.256266594E0
7.002181350E1,-4.139701366E0,-7.041562080E0,1.096577835E1
7.007381096E1,-6.162863255E0,-8.966559410E0,1.124112034E1
7.012580568E1,-5.142902374E0,-6.842837334E0,8.734314919E0
7.017779894E1,-4.407859802E0,-5.473312378E0,7.103813171E0
7.022979230E1,-4.786155224E0,-5.734288216E0,6.466936111E0
7.028178583E1,-5.025582790E0,-6.311308384E0,5.686402798E0
7.033377895E1,-4.980091572E0,-6.936213970E0,5.403878212E0
7.038577221E1,-4.403071404E0,-6.670449734E0,5.044736862E0
7.043776630E1,-3.960130453E0,-6.845231533E0,4.913052082E0
7.048976019E1,-4.010410309E0,-6.945791245E0,4.762212753E0
7.054175335E1,-3.390293121E0,-6.888328552E0,4.948966026E0
7.059374667E1,-2.894678354E0,-7.034379482E0,5.432609558E0
7.064574000E1,-2.439765930E0,-6.759037971E0,5.123748302E0
7.069773332E1,-2.516382933E0,-7.082264900E0,5.375146866E0
7.074972675E1,-2.353572130E0,-7.168458939E0,5.578660488E0
7.080172008E1,-1.721483588E0,-7.020013809E0,5.466129303E0
7.085371426E1,-1.549095750E0,-7.127756119E0,5.049525738E0
7.090570782E1,-2.856369734E0,-8.315316200E0,5.391906738E0
7.095770101E1,-2.181184292E0,-7.987300873E0,5.037554264E0
7.100969434E1,-1.874717116E0,-8.526012421E0,5.353598595E0
7.106168803E1,-1.834014535E0,-8.968953133E0,5.542746067E0
7.111368635E1,-1.757397652E0,-8.767834663E0,5.288952827E0
7.116568374E1,-1.503604531E0,-8.387145042E0,4.941783428E0
7.121767770E1,-2.059076309E0,-8.710371971E0,5.061496735E0
7.126967102E1,-2.094990492E0,-8.614601135E0,4.738269806E0
7.132166438E1,-1.810071707E0,-8.549955368E0,4.565882206E0
7.137365768E1,-1.491633177E0,-8.669669151E0,4.553910732E0
7.142565110E1,-1.522758722E0,-8.858817101E0,4.486870766E0
7.147764446E1,-1.644866824E0,-9.031204224E0,4.431802750E0
7.152963775E1,-1.644866824E0,-9.007262230E0,4.424619675E0
7.158163190E1,-1.259388566E0,-8.808537483E0,4.359974384E0
7.163362529E1,-1.321639657E0,-8.590658188E0,4.565882206E0
7.168561875E1,-2.633702278E0,-8.782199860E0,4.893897533E0
7.173761208E1,-4.652075768E0,-9.318517685E0,4.996851444E0
7.178960534E1,-5.966532707E0,-8.305739403E0,5.492466450E0
7.184159883E1,-4.728692532E0,-8.028003693E0,7.510839939E0
7.189359206E1,-6.052726746E0,-6.826077461E0,7.910684109E0
7.194558558E1,-8.590658188E0,-6.294548512E0,9.292180061E0
7.199757987E1,-1.051086617E1,-4.683201313E0,9.577098846E0
7.204957313E1,-8.863605499E0,-2.528354168E0,8.547560692E0
7.210156659E1,-9.359220505E0,-1.247417212E0,7.379155159E0
7.215355994E1,-7.168458939E0,1.285725594E0,4.494053841E0
7.220555600E1,-3.639297724E0,8.475732803E-1,1.273754239E0
7.225755029E1,4.788549542E-1,-2.755810261E0,-3.696760416E0
7.230954372E1,-3.153259993E0,-8.887548447E0,-1.903448462E0
7.236153708E1,8.528407097E0,-1.382214832E1,7.987300873E0
7.241353047E1,-4.733481407E0,6.727912426E-1,2.540325642E0
7.246552366E1,-1.292908341E-1,-3.124528646E0,1.350370979E1
7.251751719E1,-5.351204395E0,-5.514014721E0,1.372877216E1
7.256951061E1,-1.602967072E1,-1.081493950E1,9.079090118E0
7.262150480E1,-1.483253288E1,-8.514040947E0,7.465348721E0
7.267349813E1,-1.362102985E1,-7.649707794E0,8.255459785E0
7.272549165E1,-1.183729458E1,-5.794145107E0,6.957762718E0
7.277748514E1,-1.132491970E1,-7.182824612E0,7.371972084E0
7.282947817E1,-6.766220570E0,-3.251425266E0,3.598595142E0
7.288147146E1,-1.316851079E-1,2.911438227E0,3.404658794E0
7.293346476E1,1.728666425E0,6.387925148E0,4.340820312E0
7.298545884E1,4.520390987E0,7.846038342E0,5.257827282E0
7.303745246E1,1.311823177E1,1.307752895E1,1.192348838E0
7.308944579E1,1.398974800E1,2.060512924E1,-2.583422422E0
7.314143922E1,9.481328011E0,1.087958431E1,8.755863190E0
7.319343267E1,1.601769805E0,-1.005834866E1,4.577135086E1
7.324543006E1,1.798100352E0,-7.568302917E1,2.174480438E1
7.329742809E1,-1.927630615E1,-1.149251908E-1,7.901107073E-1
7.334942365E1,-3.852388144E0,-2.279349566E0,1.096577883E0
7.340141684E1,4.613767624E0,2.396669149E0,3.256213665E-1
7.345341013E1,3.244242430E0,5.487678051E0,4.429408312E-1
7.350540352E1,3.102980137E0,7.740690231E0,1.537124395E0
7.355739678E1,2.454131603E0,4.017592907E0,1.228263021E0
7.360939021E1,-1.256994247E0,-3.055094719E0,5.743865490E0
7.366138436E1,-5.904281616E0,-8.997684479E0,6.014418125E0
7.371337772E1,-2.700742006E0,-1.492351532E1,5.597814560E0
7.376537121E1,2.633702278E0,-2.039682770E1,9.375980377E0
7.381736454E1,6.392713785E-1,-2.208000183E1,1.025467873E1
7.386935776E1,-2.360754967E0,-1.522998238E1,7.340846539E0
7.392135126E1,-2.506805658E0,-1.185884285E1,1.300091267E0
7.397334455E1,-6.632141471E-1,-8.985713005E0,1.891477108E0
7.402533784E1,6.895511150E-1,-8.861210823E0,4.587430477E0
7.407733203E1,-1.316851079E-1,-9.308940887E0,5.868367672E0
7.412932548E1,-7.110996246E-1,-9.220352173E0,4.189980984E0
7.418131901E1,-1.446141958E0,-9.775823593E0,2.478074312E0
7.423331220E1,-2.097384691E0,-1.184447765E1,1.980065227E0
7.428530559E1,-7.470137477E-1,-1.222516727E1,1.616135478E0
7.433730292E1,-1.436564922E-1,-1.086282444E1,1.673598051E0
7.438930100E1,-4.764606953E-1,-1.016848469E1,1.577827096E0
7.444129550E1,-1.063058019E0,-9.763853073E0,1.879505754E0
7.449328885E1,-1.089395046E0,-9.634561539E0,2.518777132E0
7.454528225E1,-1.505998850E0,-9.043175697E0,2.458920240E0
7.459727561E1,-2.490045786E0,-8.116591454E0,2.865947008E0
7.464926883E1,-2.959323645E0,-7.134938717E0,3.371139050E0
7.470126226E1,-4.151672363E0,-6.986494064E0,4.187586784E0
7.475325598E1,-4.731087208E0,-6.612987041E0,4.431802750E0
7.480524987E1,-5.660065651E0,-6.823683262E0,4.817280769E0
7.485724333E1,-6.316096783E0,-6.907482624E0,4.968120098E0
7.490923665E1,-6.155680656E0,-6.684815407E0,6.081458092E0
7.496122991E1,-6.347222328E0,-6.589044094E0,6.478907585E0
7.501322327E1,-5.104593754E0,-6.012023926E0,9.014444351E0
7.506325100E1,-6.730306625E0,-4.917840481E0,1.019003391E1
7.511524439E1,-5.154873848E0,-3.249030828E0,8.968953133E0
7.516723785E1,-5.365570068E0,-9.984126091E-1,7.403097630E0
7.521923200E1,-5.011217117E0,-4.292934895E0,2.863552570E0
7.527122536E1,-7.529994488E0,-1.291232395E1,-2.853975534E0
7.532321862E1,-6.665660858E0,-1.161941528E1,-1.929785490E0
7.537521211E1,-6.153286099E-1,-1.278542757E0,-6.657999420E1
7.542720767E1,-1.824676895E1,7.170853138E0,-9.131764412E0
7.547920263E1,-1.070719719E1,-1.417650127E1,5.746259540E-2
7.553119602E1,-1.706160164E1,-6.112583637E0,-1.204320192E0
7.558318935E1,-7.889135361E0,-7.711959362E0,-7.398309112E-1
7.563518277E1,-1.225389862E1,-5.183605194E0,-1.644866824E0
7.568717607E1,-1.305837440E1,-5.897099018E0,3.782954216E-1
7.573916932E1,-1.405199909E1,-5.856396198E0,7.422251999E-2
7.579116288E1,-1.158829021E1,-7.039167881E0,2.561874151E0
7.584315710E1,-1.152603912E1,-7.731113434E0,3.890696526E0
7.589515036E1,-1.030016994E1,-7.714353561E0,4.429408550E0
7.594714375E1,-1.022115898E1,-8.226728439E0,3.414235830E0
7.599913718E1,-9.026415825E0,-8.842057228E0,4.685595989E0
7.605113040E1,-1.144702816E1,-9.522030830E0,4.338426113E0
7.610312373E1,-1.137519932E1,-6.392713547E0,3.359167576E0
7.615511709E1,-7.180429935E0,-3.009603500E0,5.035160065E0
7.620711075E1,-2.628913641E0,2.346389294E-1,3.792531252E0
7.625910473E1,2.339206457E0,2.463708878E0,4.149278164E0
7.631109809E1,8.901913643E0,6.313702583E0,3.505218267E0
7.636309145E1,1.509829712E1,1.819409370E1,-1.280937076E0
7.641508464E1,1.238079548E1,1.984375000E1,-3.208328247E0
7.646708100E1,8.506858826E0,1.075029373E0,2.278870773E1
7.651907955E1,-1.118126297E1,-1.154040432E1,-1.577827072E1
7.657107475E1,-1.102324104E1,-1.877111435E1,-8.092648983E-1
7.662306811E1,-9.378374100E0,-4.357580245E-1,2.554691315E0
7.667506160E1,4.944177628E0,-2.150058746E0,1.233051538E0
7.672705479E1,3.399870157E0,3.577046633E0,5.746259540E-2
7.677904812E1,2.719896078E0,7.855615616E0,1.819648862E0
7.683104141E1,4.379128456E0,6.272999763E0,2.739050388E0
7.688303474E1,3.754222870E0,-4.166038036E-1,7.635342598E0
7.693502866E1,9.457385540E-1,-6.763826370E0,1.042946148E1
7.698702251E1,1.436564922E0,-1.056832886E1,6.972128391E0
7.703901577E1,-1.747820675E-1,-1.739440727E1,6.545947552E0
7.709100913E1,-1.881899953E0,-1.814381409E1,4.608979225E0
7.714300249E1,-4.257020473E0,-1.859633255E1,6.885934353E0
7.719499595E1,-4.719115734E0,-1.295302677E1,4.319271564E0
7.724698921E1,-1.312062621E0,-1.086282444E1,2.542719841E0
7.729898257E1,1.723877788E-1,-1.041749001E1,3.402264595E0
7.735097675E1,2.178790122E-1,-1.028819847E1,5.176422119E0
7.740297001E1,1.915419847E-2,-8.959376335E0,4.731087208E0
7.745496354E1,-3.136500120E-1,-9.055147171E0,3.253819466E0
7.750695676E1,-1.613741279E0,-1.010144520E1,3.605777979E0
7.755895182E1,-2.035133600E0,-1.177504349E1,3.411841631E0
7.761094751E1,-2.102173328E0,-1.298175812E1,3.421418667E0
7.766294077E1,-1.948939681E0,-1.223235035E1,3.205934048E0
7.771493413E1,-2.423006058E0,-1.146857643E1,3.179596901E0
7.776692752E1,-3.510006905E0,-1.015890789E1,2.889889717E0
7.781892081E1,-4.482082367E0,-9.320911407E0,3.311282158E0
7.787091411E1,-5.130930901E0,-8.114197731E0,4.716721535E0
7.792290753E1,-4.259414673E0,-6.031178474E0,6.026389599E0
7.797490145E1,-6.311308384E0,-4.879531860E0,6.426233768E0
7.802689514E1,-5.281770229E0,-1.929785490E0,7.865192890E0
7.807888863E1,-4.292934895E0,4.860377908E-1,7.182824612E0
7.813088196E1,-4.592218876E0,1.003201127E0,5.940196037E0
7.818287515E1,-4.321666241E0,1.941756845E0,3.773377180E0
7.823486854E1,-4.618556023E0,1.987248063E-1,3.605777979E0
7.828686184E1,-3.311282158E0,-7.925049663E-1,-3.830839694E-2
7.833885509E1,-3.691971779E0,-4.340820312E0,-2.418217659E0
7.839084935E1,-5.569083214E0,-9.603436470E0,-2.346389294E0
7.844284290E1,2.538410187E1,-1.085324764E1,6.974522591E0
7.849483613E1,-1.783734703E1,-7.800547123E0,3.433390141E0
7.854682959E1,-6.921848297E0,-7.623371124E0,7.230709791E-1
7.859882478E1,-1.097056675E1,-9.433443069E0,5.818088055E-1
7.865082353E1,-8.655303001E0,-1.128661156E1,1.283331275E0
7.870282019E1,-8.217150688E0,-1.184447765E1,1.333611012E0
7.875481382E1,-1.027383327E1,-9.912297249E0,1.206714511E0
7.880680711E1,-9.871595383E0,-1.002961731E1,1.398256540E0
7.885880060E1,-7.793364525E0,-1.181335163E1,2.825244188E0
7.891079390E1,-1.140632534E1,-1.289077568E1,4.321666241E0
7.896278719E1,-1.592911053E1,-1.600572777E1,6.984099388E0
7.901478091E1,-1.721483612E1,-2.140721130E1,4.778972626E0
7.906677490E1,-1.120760059E1,-2.166818619E1,-1.211503029E0
7.911876823E1,2.221887112E0,-1.662105560E1,-5.106987953E0
7.917076155E1,-1.290274715E1,-1.411425018E1,-6.296942711E0
7.922275484E1,8.825297356E0,-7.676044941E0,-7.489291668E0
7.927474820E1,2.600182533E0,-3.174808502E0,-2.250618219E0
7.932674160E1,-1.398256540E0,-1.604164124E0,-4.788549617E-3
7.937873496E1,-2.418217659E0,9.098244309E-1,1.391073704E0
7.943072875E1,-4.549122334E0,5.339232683E-1,2.724684715E0
7.948272256E1,-3.883513689E0,3.112557232E-1,3.624932051E0
7.953471596E1,-3.854782343E0,-2.286532402E0,3.689577579E0
7.958670912E1,-6.009629726E0,-5.147690773E0,3.802108288E0
7.963870268E1,-7.199584484E0,-7.937020779E0,4.161249638E0
7.969069776E1,-7.726325035E0,-9.754275322E0,3.936187744E0
7.974269655E1,-4.726298332E0,-1.111422348E1,4.620950222E0
7.979469268E1,-3.620143414E0,-1.613022995E1,1.040073013E1
7.984668590E1,-2.406246185E0,-1.297457504E1,9.421471596E0
7.989867926E1,-1.110943556E0,-1.074550533E1,8.068706512E0
7.995067266E1,-2.942563772E0,-9.450202942E0,4.185192585E0
8.000266592E1,-4.098998547E0,-9.445414543E0,2.602576733E0
8.005465937E1,-4.379128456E0,-9.914691925E0,1.810071707E0
8.010665270E1,-3.296916485E0,-1.053002071E1,2.073441982E0
8.015864675E1,-2.669616461E0,-1.174631214E1,2.741444588E0
8.021064064E1,-3.897879362E0,-1.339117908E1,2.609759569E0
8.026263377E1,-4.589824677E0,-1.287162113E1,4.465322495E0
8.031462703E1,-2.822849989E0,-1.032650757E1,5.190787792E0
8.036662042E1,-2.059076279E-1,-7.166064739E0,5.631334305E0
8.041861365E1,1.484450400E-1,-5.478100777E0,5.669642925E0
8.047060704E1,-3.423812985E-1,-5.224307537E0,3.648874760E0
8.052260026E1,-1.175588965E0,-5.810904980E0,1.252205729E0
8.057459448E1,-2.628913641E0,-5.885127544E0,2.166818619E0
8.062658797E1,-4.015198708E0,-5.487678051E0,4.577853203E0
8.067858123E1,-7.134938717E0,-4.458139896E0,4.319271564E0
8.073057463E1,-7.611399651E0,-3.945764780E0,4.010410309E0
8.078256892E1,-8.743891716E0,-4.903474808E0,3.387898922E0
8.083456501E1,-1.117168617E1,-6.160469055E0,3.213116884E0
8.088655867E1,-1.330737972E1,-6.785374641E0,2.892283916E0
8.093855219E1,-1.046537495E1,-3.840416908E0,6.787769318E0
8.099054532E1,-1.215094471E1,-1.015172482E0,5.786962032E0
8.104253861E1,-1.347258472E1,-3.567469418E-1,5.636122704E0
8.109453204E1,-1.443747711E1,2.226675600E-1,4.965725899E0
8.114652526E1,-1.098732662E1,1.881899953E0,3.684788942E0
8.119851935E1,-8.559532166E0,5.506832004E-1,3.052700281E0
8.125051294E1,-4.551516533E0,-1.292908341E-1,7.470137477E-1
8.130250647E1,-1.764580488E0,-1.254839420E1,-2.710319042E0
8.135449969E1,-5.126142502E0,-1.177743816E1,-1.422917557E1
8.140649328E1,1.041270161E1,-4.980091453E-1,7.134938836E-1
8.145848638E1,2.588211060E0,-2.683982134E0,5.001639843E0
8.151047964E1,-5.435003638E-1,-3.500429869E0,1.572320271E1
8.156247303E1,-1.294823837E1,-1.381735992E1,1.035763264E1
8.161446731E1,-2.281983376E1,-1.255797100E1,8.403904438E-1
8.166646071E1,-1.190672874E1,-1.264177132E1,9.663292885E0
8.171845406E1,-1.738722420E1,-8.516435623E0,3.356773376E0
8.177044732E1,-1.494985199E1,-6.031178474E0,2.703136206E0
8.182244178E1,-1.342709351E1,-4.817280769E0,1.247417212E0
8.187444057E1,-4.348002911E0,6.416656375E-1,1.886688590E0
8.192643712E1,1.869928598E0,3.929004908E0,4.120546818E0
8.197843068E1,3.210722446E0,7.367183685E0,6.079063892E0
8.203042411E1,1.727229881E1,1.926672935E1,4.381522834E-1
8.208241734E1,1.553884315E1,2.253252029E1,-6.280182838E0
8.213441086E1,8.751074791E0,-1.750214934E0,2.130425644E1
8.218640422E1,2.597788095E0,-1.605840111E1,-2.116539001E1
8.223839738E1,-1.844788742E1,-1.244544029E1,2.269772530E0
8.229039087E1,-3.004814863E0,-5.138113976E0,2.415823221E0
8.234236180E1,1.668809533E0,1.963305324E-1,8.475732803E-1
8.239435522E1,1.448536277E0,2.068653345E0,-5.219519138E-1
8.244634838E1,1.189954638E0,6.471724987E0,1.606558442E0
8.249834178E1,1.510787368E0,6.929031372E0,1.704723716E0
8.255033517E1,9.960182905E-1,1.910631299E0,6.636929989E0
8.260232843E1,-7.374366522E-1,-7.067899227E0,1.154279900E1
8.265432182E1,-1.750214934E0,-9.601041794E0,7.647313595E0
8.270631551E1,5.525986195E0,-1.677907753E1,8.312922478E0
8.275830953E1,2.212309837E0,-1.857957268E1,7.855615616E0
8.281030286E1,-1.197137356E0,-1.658035278E1,8.619389534E0
8.286229612E1,-4.091815472E0,-1.305358601E1,3.143682718E0
8.291429001E1,-2.944957972E0,-1.049171257E1,1.599375606E0
8.296628633E1,1.843591630E-1,-9.814132690E0,4.197163582E0
8.301828009E1,-3.088614643E-1,-9.603436470E0,5.300924301E0
8.307027348E1,-1.307274103E0,-9.246688843E0,4.003227711E0
8.312226681E1,-2.217098475E0,-9.574705124E0,2.968900681E0
8.317426014E1,-2.827638626E0,-1.066888809E1,2.624125242E0
8.322625353E1,-2.906649590E0,-1.178222656E1,2.870735407E0
8.327824682E1,-2.717501879E0,-1.235685253E1,3.799714088E0
8.333024054E1,-3.148471355E0,-1.137041092E1,4.031958580E0
8.338223446E1,-4.946571827E0,-1.150688457E1,4.156461239E0
8.343422779E1,-5.109382629E0,-1.093225861E1,6.237085819E0
8.348622122E1,-6.677632332E0,-1.008229160E1,7.010436535E0
8.353821447E1,-4.000833035E0,-6.792557716E0,7.472531796E0
8.359020783E1,-9.098244458E-2,-7.087053657E-1,4.302511692E0
8.364220119E1,9.033598900E0,3.493247032E0,7.034379482E0
8.369419445E1,7.539571285E0,-3.555498123E0,2.566662550E0
8.374618834E1,-3.196356773E0,-8.595446587E0,-5.138113976E0
8.379818219E1,-5.748653889E0,-1.738004112E1,-2.387091875E0
8.385017562E1,-5.408666611E0,-2.119172668E1,2.880312681E0
8.390216884E1,-2.717501879E0,-2.122524643E1,-3.311282158E0
8.395416263E1,-2.304489517E1,-7.977723598E0,-2.894678354E0
8.400616106E1,-9.162889481E0,-2.394274808E-3,-3.148471355E0
8.405815851E1,-8.059128761E0,-5.990475655E0,-1.762186289E0
8.411015318E1,-1.800015831E1,-1.116929245E1,-3.689577579E0
8.416214653E1,-1.247177792E1,-1.167208958E1,7.901107073E-1
8.421413983E1,-1.220601273E1,-7.958569527E0,1.379102230E0
8.426613322E1,-1.473197269E1,-8.616994858E0,3.112557158E-2
8.431812655E1,-1.004158878E1,-8.650514603E0,2.339206457E0
8.437011980E1,-1.035284424E1,-9.737515450E0,2.396669149E0
8.442211406E1,-1.208629894E1,-1.005834866E1,4.024775982E0
8.447410761E1,-9.229928970E0,-7.867587090E0,2.789330244E0
8.452610087E1,-7.585062504E0,-2.676799297E0,2.827638626E0
8.457809427E1,-2.880312681E0,-8.068706393E-1,1.470084786E0
8.463008756E1,-1.369525194E0,3.567469418E-1,2.772570133E0
8.468208092E1,2.755810261E0,3.890696526E0,5.080651283E0
8.473407428E1,9.603436470E0,8.365595818E0,4.891503334E0
8.478606767E1,1.800015831E1,2.258758926E1,-1.204320192E0
8.483806185E1,1.504083443E1,2.110313797E1,-1.972882390E0
8.489005531E1,2.990449190E0,-5.231490612E0,2.758922768E1
8.494204860E1,4.352791786E0,-2.641603470E1,-1.128900528E1
8.499404200E1,-1.910631371E1,-1.130576611E1,-1.975276709E0
8.504603552E1,-4.055901527E0,-2.439765930E0,7.565908432E-1
8.509803391E1,3.493247032E0,-2.681587934E-1,-4.980091453E-1
8.515003130E1,2.549902678E0,3.033546209E0,-1.723877907E0
8.520202526E1,3.239453793E0,7.266623974E0,1.245022863E-1
8.525401862E1,5.444581032E0,2.645673752E0,1.189954638E0
8.530601194E1,5.308107376E0,-8.784594536E0,7.582668304E0
8.535800524E1,3.483669758E0,-1.503365135E1,6.548341751E0
8.540999866E1,-3.641691923E0,-3.013194847E1,7.269018173E0
8.546199192E1,-4.570670605E0,-2.754373741E1,8.899519920E0
8.551398581E1,-6.538764477E0,-1.553884315E1,4.848406315E0
8.556597973E1,-1.752609134E0,-1.210784817E1,3.299310684E0
8.561797292E1,-1.589798450E0,-9.732727051E0,2.822849989E0
8.566996635E1,-1.070240855E0,-8.332076073E0,4.101392746E0
8.572195964E1,-1.529941559E0,-7.439012051E0,3.912245035E0
8.577395290E1,-2.293715239E0,-8.150111198E0,3.727885962E0
8.582594636E1,-3.045517445E0,-1.006553173E1,3.842811108E0
8.587793965E1,-2.940169573E0,-1.180138016E1,2.983266354E0
8.592993384E1,-1.494027495E0,-1.400650787E1,2.264983892E0
8.598192740E1,2.561874092E-1,-1.364257812E1,1.769369125E0
8.603392065E1,3.878725171E-1,-1.244065189E1,1.673598051E0
8.608591405E1,-4.142095447E-1,-1.170800400E1,2.264983892E0
8.613790754E1,-7.494080067E-1,-1.096817303E1,2.985660791E0
8.618990373E1,-1.551490068E0,-9.534002304E0,2.863552570E0
8.624189802E1,-2.679193497E0,-7.951386452E0,4.580247879E0
8.629389128E1,-4.958543301E0,-5.875550270E0,6.205960274E0
8.634588474E1,-7.106207848E0,-4.084632874E0,7.391126156E0
8.639787803E1,-8.212362289E0,-4.137306690E0,7.489291668E0
8.644987129E1,-6.471724987E0,-1.913025618E0,7.630553722E0
8.650186475E1,-7.977723598E0,-1.156434774E0,6.929031372E0
8.655385837E1,-1.158829021E1,-3.950553536E-1,8.425453186E0
8.660585243E1,-9.543579102E0,3.340013266E0,7.793364525E0
8.665784582E1,-7.122967720E0,4.467716694E0,5.269798756E0
8.670983918E1,3.112557232E-1,4.843617916E0,2.861158371E0
8.676183240E1,-5.865973234E-1,-3.328042030E-1,5.796539307E0
8.681382570E1,-1.014693642E1,-5.152479172E0,4.067873001E0
8.686581899E1,-1.452127647E1,-1.466972160E1,3.806896925E0
8.691781242E1,1.371680069E1,6.196382999E0,-5.212336063E0
8.696980630E1,7.513234138E0,8.956981659E0,-6.249057055E-1
8.702180003E1,9.033598900E0,3.744645834E0,5.439792156E0
8.707379338E1,6.385530949E0,3.246636629E0,8.114197731E0
8.712578668E1,4.884320498E-1,2.492439985E0,1.199771118E1
8.717778024E1,-6.409473896E0,2.274561077E-1,1.404481602E1
8.722977769E1,-1.781340480E0,6.471724987E0,9.857229233E0
8.728177564E1,1.095380688E1,9.634561539E0,2.774964571E0
8.733377024E1,1.431058025E1,1.207672215E1,7.082264900E0
8.738576326E1,2.215422440E1,1.775115395E1,1.843591630E-1
8.743775675E1,1.246698856E1,7.012830734E0,2.928198099E0
8.748975008E1,1.252205729E0,-7.103813171E0,2.775682831E1
8.754174334E1,1.312780857E1,-4.114561081E1,-5.209941864E0
8.759373670E1,-1.799776459E1,2.705530524E-1,9.337671846E-2
8.764573006E1,-9.792584181E-1,-6.488484740E-1,-1.867534369E-1
8.769772408E1,6.284971237E0,3.244242430E0,2.035133600E0
8.774971774E1,4.041535854E0,4.721509933E0,1.867534399E0
8.780171103E1,3.208328247E0,4.233078003E0,3.220299721E0
8.785370439E1,4.166038036E-1,-3.129317284E0,4.798126698E0
8.790569791E1,-5.303318501E0,-1.326667690E1,6.390319347E0
8.795769101E1,-2.727078915E0,-1.765538216E1,1.238079548E1
8.800968443E1,-3.823656797E0,-1.770566177E1,6.536370277E0
8.806167786E1,-8.233911514E0,-1.885012627E1,2.796513081E0
8.811367228E1,-1.118126297E1,-1.302964306E1,2.145270348E0
8.816566553E1,-6.948185444E0,-1.062579155E1,2.394274771E-1
8.821765882E1,-2.571451187E0,-1.024031353E1,1.326428294E0
8.826965215E1,-1.060663700E0,-9.574705124E0,3.371139050E0
8.832164804E1,4.405465722E-1,-8.616994858E0,4.958543301E0
8.837364280E1,-1.197137386E-1,-8.480521202E0,3.632114887E0
8.842563619E1,-1.532335877E0,-9.507665634E0,2.585816860E0
8.847762938E1,-2.937775135E0,-1.148773098E1,2.796513081E0
8.852962288E1,-2.059076309E0,-1.262501144E1,2.861158371E0
8.858161610E1,-1.652049661E0,-1.341272736E1,3.749434233E0
8.863360949E1,-1.745426297E0,-1.332413960E1,4.608979225E0
8.868560289E1,-3.770982742E0,-1.189715195E1,5.442186832E0
8.873759707E1,-5.705556870E0,-8.830085754E0,4.628133297E0
8.878959046E1,-6.646506786E0,-7.556331158E0,4.879531860E0
8.884158382E1,-6.282577038E0,-5.217124939E0,4.498842239E0
8.889357725E1,-7.508445740E0,-4.561093330E0,4.649681568E0
8.894557041E1,-6.557918549E0,-1.429382086E0,5.411061287E0
8.899756383E1,-5.892310143E0,-6.344828010E-1,5.794145107E0
8.904955712E1,-5.008822918E0,1.977671027E0,5.454157829E0
8.910155082E1,-4.249837875E0,1.007989645E0,5.435003757E0
8.915354480E1,-3.940976381E0,1.259388566E0,2.389486313E0
8.920553819E1,-2.784541607E0,-2.308080912E0,2.803695917E0
8.925753152E1,-9.002473354E-1,-6.261028767E0,1.230657220E0
8.930952481E1,-4.170826912E0,-8.423058510E0,2.779752970E0
8.936152150E1,-1.288119793E0,1.366173172E1,1.545743847E1
8.941351976E1,-7.079870701E0,1.017087936E1,5.006428719E0
8.946551575E1,-3.268185139E0,4.738269806E0,5.861184597E0
8.951750918E1,-9.251478195E0,-5.607391834E0,6.952973843E0
8.956950250E1,-1.332892799E1,-7.855615616E0,2.485257149E0
8.961957165E1,-1.736088753E1,-1.409988403E1,1.644866824E0
8.967156501E1,-1.259628010E1,-9.768641472E0,3.519583941E0
8.972355820E1,-9.845257759E0,-4.654470444E0,2.518777132E0
8.977555212E1,-9.706390381E0,-5.272192955E0,4.419831276E0
8.982754594E1,-9.469356537E0,-6.323279858E0,3.232270956E0
8.987953924E1,-1.475352097E1,-1.065691757E1,3.550709486E0
8.993153253E1,-9.390345573E0,-1.067607117E1,4.948966026E0
8.998352595E1,-1.149491310E1,-9.198803902E0,5.463735104E0
9.003551925E1,-8.559532166E0,-7.436617374E0,4.412648678E0
9.008751271E1,-5.964138508E0,-3.454938650E0,-9.577099234E-2
9.013950590E1,-2.983266354E0,1.652049571E-1,-8.691217303E-1
9.019149985E1,6.320885420E-1,2.834821463E0,6.208354473E0
9.024349354E1,3.847599506E0,7.027196407E0,1.031453609E1
9.029548707E1,1.454761410E1,1.156913567E1,8.952193260E0
9.034748029E1,1.581657982E1,1.895786858E1,5.482889414E-1
9.039947355E1,1.049889469E1,1.168884945E1,3.320859194E0
9.045146984E1,-5.178816319E0,-1.023313046E1,4.131800079E1
9.050346849E1,1.712145996E1,-5.961504745E1,-2.461314440E0
9.055546362E1,-1.896265602E1,-1.869928598E0,7.972934842E-1
9.060745698E1,-4.632921696E0,-2.846792698E0,-6.823683381E-1
9.065945031E1,5.305713177E0,2.126116037E0,-3.351984918E-2
9.071144360E1,4.113364220E0,4.944177628E0,1.893871427E0
9.076343699E1,5.609786034E0,6.536370277E0,4.743058205E0
9.081543032E1,3.454938650E0,7.948992252E-1,6.035966873E0
9.086742361E1,-1.843591630E-1,-7.137333393E0,8.039975166E0
9.091941776E1,-1.259388566E0,-1.249571991E1,8.966559410E0
9.097141132E1,1.594586968E0,-1.430100346E1,9.816526413E0
9.102340461E1,-6.871568561E-1,-1.513660526E1,5.988081455E0
9.107539797E1,-2.607365370E0,-1.681978035E1,5.978504181E0
9.112739150E1,-6.033572674E0,-1.471281910E1,4.520390987E0
9.117938489E1,-4.290540695E0,-1.119323444E1,2.162030220E0
9.123137792E1,-8.643332124E-1,-1.049889469E1,2.676799297E0
9.128337141E1,1.364736706E-1,-9.534002304E0,3.883513689E0
9.133536556E1,3.495641351E-1,-9.186832428E0,4.795732498E0
9.138735895E1,-2.585816681E-1,-9.510059357E0,4.144489765E0
9.143935234E1,-2.561874092E-1,-9.806949615E0,2.633702278E0
9.149134560E1,-1.333611012E0,-1.100887585E1,2.384697676E0
9.154334073E1,-1.630501151E0,-1.127464008E1,2.272166729E0
9.159533628E1,-1.383890867E0,-1.102802944E1,2.104567528E0
9.164732958E1,-1.106154919E0,-1.126985168E1,3.311282158E0
9.169932297E1,-2.063864946E0,-1.144463348E1,3.340013266E0
9.175131636E1,-4.743058205E0,-1.044382668E1,2.985660791E0
9.180330965E1,-6.335251331E0,-8.640937805E0,3.816473961E0
9.185530305E1,-6.193988800E0,-6.589044094E0,9.014444351E0
9.190729660E1,-7.666468143E0,-5.140508175E0,9.727938652E0
9.195929066E1,-6.019207001E0,-1.711906433E0,1.017087936E1
9.201128395E1,-7.257047176E0,-5.171633363E-1,7.391126156E0
9.206327731E1,-6.641718388E0,-3.830839694E-2,6.174834728E0
9.211527073E1,-5.648094177E0,9.768640995E-1,4.637710094E0
9.216726396E1,-4.003227711E0,1.513181686E0,3.220299721E0
9.221925735E1,-5.554717779E-1,1.007989645E0,2.317657948E0
9.227125065E1,1.879505754E0,6.153286099E-1,-1.867534369E-1
9.232324414E1,1.987248063E0,-1.968093872E0,7.757450342E-1
9.237523839E1,2.267378330E0,-7.436617374E0,4.812492430E-1
9.242723175E1,-7.934626579E0,-1.302964306E1,-7.099024773E0
9.247922497E1,4.719115734E0,4.120546818E0,-4.292934895E0
9.253121853E1,-1.546940994E1,-8.710371971E0,8.281796455E0
9.258321372E1,-1.237361240E1,-1.013735962E1,3.181991339E0
9.263521251E1,-8.111803055E0,-1.140871906E1,-5.147690773E-1
9.268720837E1,-1.031214142E1,-1.127464008E1,-2.667222023E0
9.273920163E1,-7.479714394E0,-1.487802410E1,-1.058269501E0
9.279119505E1,-6.574678421E0,-1.289556408E1,-1.312062621E0
9.284318845E1,-9.481328011E0,-1.332413960E1,-6.129343510E-1
9.289518170E1,-6.038361073E0,-1.190194035E1,2.224281311E0
9.294717506E1,-7.733507633E0,-1.100408745E1,8.858817071E-2
9.299916842E1,-6.431022167E0,-1.046058655E1,-1.592192769E0
9.305116238E1,-6.457359314E0,-1.171518707E1,1.324033976E0
9.310315607E1,-7.541965485E0,-1.150209618E1,1.479661822E0
9.315514956E1,-1.384130287E1,-1.424593544E1,-1.807677507E0
9.320714272E1,-8.406298637E0,-1.200728798E1,1.434170604E0
9.325913614E1,-9.893143654E0,-9.067118645E0,2.427794695E0
9.331112950E1,-6.517216206E0,-7.846038342E0,3.907456398E0
9.336312276E1,-6.421444893E0,-4.673624516E0,3.141288519E0
9.341511609E1,-1.735849261E0,-1.812466025E0,2.214704275E0
9.346711001E1,-2.655250788E0,5.051919818E-1,1.173194647E0
9.351910400E1,3.519583941E-1,2.226675510E0,2.830032825E0
9.357109712E1,3.222693920E0,5.566689014E0,4.496448040E0
9.362309055E1,7.781393051E0,1.007750225E1,4.606584549E0
9.367508487E1,1.788523293E1,2.180226707E1,-5.961744189E-1
9.372708090E1,1.464577866E1,2.261392593E1,-3.986467600E0
9.377907449E1,1.293866062E1,2.260195494E0,2.336812210E1
9.383106775E1,8.140534163E-2,3.591412306E0,-1.806480408E1
9.388306111E1,-1.106154919E0,-1.794030190E1,1.108549237E0
9.393505450E1,-1.484210968E1,4.884320498E-1,4.280963421E0
9.398704779E1,-2.600182533E0,-3.703943014E0,-1.532335877E-1
9.403904115E1,2.916226625E0,2.554691315E0,-1.592192769E0
9.409103497E1,4.529967785E0,4.769395351E0,-5.937801600E-1
9.414302876E1,4.386311531E0,3.478881359E0,1.154040456E0
9.419502256E1,1.980065227E0,-7.577879906E0,9.814132690E0
9.424701548E1,-2.478074312E0,-1.315414619E1,1.072395706E1
9.429900894E1,-1.592192769E0,-1.806001472E1,1.965699673E0
9.435100206E1,6.002447128E0,-2.444315147E1,5.315289974E0
9.440299536E1,-1.857957244E0,-2.648307419E1,1.388679409E1
9.445498885E1,-4.077449799E0,-1.311583710E1,3.011997700E0
9.450698277E1,-1.879505754E0,-1.063057995E1,2.181184292E0
9.455897643E1,-4.070267081E-2,-8.442213058E0,3.363956213E0
9.461096992E1,-6.177229285E-1,-7.865192890E0,5.947378635E0
9.466296308E1,-6.919454336E-1,-8.186025620E0,5.090228081E0
9.471495760E1,-1.419804931E0,-9.562733650E0,3.857176781E0
9.476695642E1,-2.334417820E0,-1.193306541E1,3.203539610E0
9.481895338E1,-1.735849261E0,-1.345343018E1,2.001613855E0
9.487094761E1,3.351984620E-1,-1.381017685E1,1.508393168E0
9.492294087E1,1.319245458E0,-1.252923965E1,1.496421814E0
9.497493416E1,4.716721475E-1,-1.141111374E1,1.601769805E0
9.502692749E1,-6.009629965E-1,-1.011820507E1,1.120520592E0
9.507892081E1,-1.175588965E0,-8.667274475E0,1.094183564E0
9.513091454E1,-1.170800328E0,-7.862798691E0,1.594586968E0
9.518290869E1,-2.339206457E0,-8.176448822E0,3.170019865E0
9.523490192E1,-2.439765930E0,-7.316903591E0,4.422225475E0
9.528689518E1,-3.454938650E0,-6.481301785E0,4.671230316E0
9.533888864E1,-6.150891781E0,-6.316096783E0,5.334444046E0
9.539088186E1,-6.414262295E0,-5.061496735E0,4.934600353E0
9.544287522E1,-7.065505028E0,-5.298530102E0,5.346415520E0
9.549486848E1,-7.601822376E0,-4.889109135E0,5.492466450E0
9.554686217E1,-9.093455315E0,-4.652075768E0,5.344021320E0
9.559885619E1,-9.074301720E0,-4.625739098E0,6.150891781E0
9.565084951E1,-9.510059357E0,-4.199557781E0,7.072687626E0
9.570284297E1,-9.093455315E0,-2.858764172E0,8.511647224E0
9.575483613E1,-7.431828976E0,-6.009629965E-1,7.367183685E0
9.580683059E1,-4.843617916E0,2.502017260E0,6.900300026E0
9.585882941E1,-2.236252785E0,3.184385538E0,6.088640690E0
9.591082610E1,-2.126116037E0,2.537931204E0,4.927417755E0
9.596281956E1,-1.331216812E0,5.147690773E-1,2.140481710E0
9.601481288E1,2.047105074E0,-2.664827824E0,2.202732801E0
9.606680624E1,1.484450400E-1,-9.160495758E0,1.077423692E0
9.611879957E1,-5.241067410E0,-1.150927925E1,-7.472531796E0
9.617079292E1,-1.961389923E1,-1.401847935E1,-1.842394447E1
9.622278625E1,-8.868393898E0,-1.447099686E1,5.461340904E0
9.627477997E1,-5.674431324E0,-1.042227840E1,-1.575432777E0
9.632677393E1,-5.106987953E0,-1.528026199E1,7.178035736E0
9.637876735E1,-7.647313595E0,-1.624754906E1,-1.513181686E0
9.643076048E1,-7.084659100E0,-1.418128967E1,-7.805336118E-1
9.648275394E1,-7.113390446E0,-1.421480942E1,8.906702399E-1
9.653474740E1,-9.696813226E-1,-1.406397057E1,1.307274103E0
9.658674056E1,-6.205960274E0,-1.281415844E1,3.000026226E0
9.663873398E1,-8.794171333E0,-9.648927689E0,2.097384691E0
9.669072790E1,-3.395081758E0,-9.284997940E0,3.160442829E0
9.674272146E1,-4.355185986E0,-8.243488312E0,8.523618579E-1
9.679471505E1,-3.905062199E0,-8.346442223E0,-2.226675600E-1
9.684670831E1,-4.185192585E0,-9.028810501E0,-1.070240855E0
9.689870234E1,-2.094990492E0,-8.949799538E0,-1.867534369E-1
9.695063961E1,-3.007209063E0,-8.542772293E0,-7.877163887E-1
9.700263344E1,-3.790137053E0,-8.305739403E0,-3.615354896E-1
9.705462673E1,-4.036747456E0,-7.582668304E0,-2.202732861E-1
9.710662009E1,-3.723097324E0,-7.290566921E0,5.578660369E-1
9.715861348E1,-4.635315895E0,-7.659285069E0,7.110996246E-1
9.721060678E1,-5.339232922E0,-7.573091030E0,8.068706393E-1
9.726260004E1,-5.839636326E0,-7.541965485E0,1.874717116E0
9.731459399E1,-6.004841328E0,-6.993676662E0,1.714300752E0
9.736658778E1,-6.502850533E0,-7.106207848E0,1.458113313E0
9.741858101E1,-5.399089813E0,-7.417463303E0,1.838803053E0
9.747057447E1,-5.394300938E0,-8.231516838E0,2.183578730E0
9.752256772E1,-5.135719299E0,-8.487704277E0,1.834014535E0
9.757456112E1,-5.791750908E0,-8.624177933E0,1.537124395E0
9.762655444E1,-4.812492371E0,-8.593051910E0,1.551490068E0
9.767854770E1,-5.688796997E0,-8.751074791E0,2.621730804E0
9.773054182E1,-8.135746002E0,-8.140534401E0,2.336812258E0
9.778253571E1,-7.369577885E0,-7.987300873E0,4.948966026E0
9.783452874E1,-9.780612946E0,-9.198803902E0,5.882733345E0
9.788652213E1,-1.092986488E1,-7.441406250E0,5.071074009E0
9.793851589E1,-1.246938324E1,-7.951386452E0,4.989668846E0
9.799051427E1,-1.145181656E1,-8.480521202E0,3.395081758E0
9.804251160E1,-8.202785492E0,-6.964945316E0,2.116539001E0
9.809450546E1,-5.911464691E0,-5.035160065E0,2.830032825E0
9.814649882E1,-1.903448462E0,-1.692752242E0,2.844398499E0
9.819849211E1,3.639297783E-1,1.084606528E0,3.040729046E0
9.825048554E1,2.624125242E0,4.216318130E0,3.747040033E0
9.830247880E1,1.001764584E1,1.117408085E1,4.565882206E0
9.835447205E1,1.842394447E1,2.400020981E1,2.106961906E-1
9.840646584E1,1.408073044E1,1.644866753E1,-2.473285913E0
9.845845983E1,7.379155159E0,-3.538738251E0,2.875284576E1
9.851045322E1,1.171518707E1,-1.749975395E1,-9.488511086E0
9.856244652E1,-8.794171333E0,-1.084367085E1,-5.569083214E0
9.861443981E1,-1.010862827E1,2.681587696E0,3.768588543E0
9.866643320E1,-1.539518714E0,-1.027143836E0,9.170072675E-1
9.871842656E1,2.425400496E0,3.335224867E0,6.033572555E-1
9.877041982E1,3.026363373E0,7.613793850E0,2.011190891E0
9.882241331E1,4.367157459E0,5.815693378E0,4.292934895E0
9.887440756E1,3.019180536E0,-1.410227895E0,8.178842545E0
9.892640082E1,-3.280156374E0,-9.033598900E0,7.982511997E0
9.897839418E1,5.435003638E-1,-1.288598728E1,9.495694160E0
9.903038780E1,3.742251635E0,-1.445663166E1,9.095849991E0
9.908238392E1,1.675992310E-1,-1.706639099E1,5.516408920E0
9.913437819E1,-3.086220264E0,-1.718610382E1,5.183605194E0
9.918637151E1,-4.994457245E0,-1.370004082E1,4.240260601E0
9.923836484E1,-2.789330244E0,-1.178701496E1,3.023969173E0
9.929035816E1,1.652049571E-1,-1.111182976E1,4.034353256E0
9.934235162E1,1.687963724E0,-9.909903526E0,5.458946705E0
9.939434488E1,1.070240855E0,-8.954587936E0,5.154873848E0
9.944633834E1,1.077423692E-1,-8.772623062E0,3.720703125E0
9.949833252E1,-7.613793612E-1,-9.943423271E0,3.258608103E0
9.955032595E1,-7.254652381E-1,-1.134407425E1,3.208328247E0
9.960231921E1,1.987248063E-1,-1.236882401E1,2.298503876E0
9.965431263E1,1.776551962E0,-1.176546669E1,2.784541607E0
9.970630589E1,1.635289669E0,-1.060903168E1,1.549095750E0
9.975829915E1,-4.788549617E-3,-9.926663399E0,1.007989645E0
9.981029258E1,-1.577827096E0,-9.289786339E0,9.122186899E-1
9.986228624E1,-2.174001455E0,-8.595446587E0,1.276148438E0
9.991428022E1,-1.975276709E0,-7.905895233E0,1.592192769E0
9.996627358E1,-2.947352171E0,-7.867587090E0,2.434977531E0
1.000182669E2,-3.421418667E0,-7.996877670E0,3.581835032E0
1.000702604E2,-3.816473961E0,-7.371972084E0,3.929004908E0
1.001222581E2,-4.915446281E0,-6.998465061E0,3.864359617E0
1.001742560E2,-6.251451492E0,-7.132544518E0,4.209135056E0
1.002262513E2,-6.062304020E0,-7.374366283E0,4.936994553E0
1.002782445E2,-6.251451492E0,-7.233104229E0,5.767807961E0
1.003302379E2,-7.795758724E0,-8.176448822E0,6.086246490E0
1.003822312E2,-1.033368969E1,-7.529994488E0,8.755863190E0
1.004342246E2,-8.921068192E0,-4.498842239E0,1.118605232E1
1.004862180E2,-9.237112045E0,-2.154847383E-1,8.284191132E0
1.005382119E2,-6.608198643E0,-4.788549542E-1,6.852414608E0
1.005902055E2,-3.100585938E0,-4.764606953E-1,2.051893473E0
1.006421990E2,-6.691998005E0,-8.049551964E0,-1.247417212E0
1.006941922E2,-1.007271385E1,-1.452845955E1,-8.332076073E0
1.007461856E2,-7.733507633E0,-7.939415455E0,-5.341866684E1
1.007981790E2,1.460507661E-1,1.453085423E1,7.096630573E0
1.008501722E2,-5.339232683E-1,-2.930592299E0,7.661679268E0
1.009021656E2,-9.126976013E0,-2.396669149E0,1.069283104E1
1.009541598E2,-1.282612991E1,-3.375927448E0,7.218738556E0
1.010061533E2,-1.924278641E1,-6.179623127E0,3.787742853E0
1.010581466E2,-1.691315651E1,-1.158829021E1,7.597033978E0
1.011101400E2,-1.400650787E1,-6.993676662E0,6.373559475E0
1.011621334E2,-1.257233715E1,-4.369551659E0,4.932206154E0
1.012141310E2,-2.542719841E0,-2.233858347E0,7.877163887E0
1.012661290E2,-5.530774593E0,-4.740664065E-1,5.231490612E0
1.013181234E2,-6.799740195E-1,2.200338602E0,4.448562622E0
1.013701165E2,3.957736254E0,8.006455421E0,4.884320736E0
1.014221100E2,1.607037163E1,2.213507080E1,7.422251701E-1
1.014741033E2,1.736088753E1,2.047105026E1,2.188367128E0
1.015260966E2,1.209348202E1,1.766974807E0,2.888453102E1
1.015780901E2,1.068804264E1,-1.888843346E1,-1.397298813E1
1.016300837E2,-2.898030281E1,-7.422251701E0,5.432609558E0
1.016820776E2,8.834874034E-1,-6.404685020E0,-3.718308687E0
1.017340711E2,4.721509933E0,2.154847383E0,9.002473354E-1
1.017860643E2,3.402264595E0,4.374340057E0,-1.711906433E0
1.018380576E2,3.759011507E0,9.955394745E0,-8.954587579E-1
1.018900510E2,3.361561775E0,6.471724987E0,9.194015265E-1
1.019420443E2,2.813272953E0,-2.825244367E-1,3.866753817E0
1.019940376E2,7.996878028E-1,-7.606611252E0,9.110215187E0
1.020460316E2,-2.320052385E0,-1.415495300E1,6.043149471E0
1.020980253E2,-1.005595446E0,-1.882618332E1,1.225868702E1
1.021500187E2,-1.412622094E0,-1.911349487E1,6.632141113E0
1.022020120E2,-3.778165579E0,-1.924518013E1,8.645726204E0
1.022540055E2,-3.699154615E0,-1.238558388E1,4.031958580E0
1.023060012E2,-2.111750364E0,-1.081015110E1,1.455719113E0
1.023579961E2,-2.106961906E-1,-9.258660316E0,1.929785490E0
1.024099894E2,6.775797606E-1,-8.382355690E0,4.180403709E0
1.024619828E2,4.453351200E-1,-9.150918007E0,5.700768471E0
1.025139761E2,-6.703969240E-1,-9.565128326E0,4.175615311E0
1.025659696E2,-1.288119793E0,-1.077663136E1,2.952140808E0
1.026179629E2,-1.383890867E0,-1.239994907E1,1.917814136E0
1.026699565E2,-1.675992459E-2,-1.184447765E1,1.154040456E0
1.027219504E2,3.759011328E-1,-1.070240879E1,1.122914910E0
1.027739437E2,-1.867534369E-1,-9.828497887E0,1.556278586E0
1.028259371E2,-7.518022656E-1,-8.777411461E0,1.812466025E0
1.028779304E2,-1.170800328E0,-8.408693314E0,2.650462151E0
1.029299237E2,-1.604164124E0,-8.719948769E0,3.134105682E0
1.029819171E2,-3.553103924E0,-8.624177933E0,2.995237827E0
1.030339103E2,-4.448562622E0,-8.286584854E0,3.924216509E0
1.030859042E2,-5.626545906E0,-7.173247337E0,4.831646442E0
1.031378981E2,-6.426233768E0,-6.761432171E0,5.497254848E0
1.031898914E2,-6.277788639E0,-6.016812801E0,6.519610405E0
1.032418848E2,-6.893116951E0,-5.985687256E0,6.560312748E0
1.032938781E2,-6.665660858E0,-5.133325100E0,6.533976078E0
1.033458746E2,-7.798152924E0,-4.843617916E0,7.067899227E0
1.033978732E2,-6.794951916E0,-3.572257996E0,7.348029613E0
1.034498680E2,-8.205180168E0,-4.309694767E-1,6.838048935E0
1.035018616E2,-7.278595448E0,2.106961727E0,6.861991405E0
1.035538547E2,-4.664047241E0,4.151672363E0,4.970514297E0
1.036058484E2,-2.253012657E0,3.550709486E0,3.957736254E0
1.036578414E2,-1.881899953E0,-6.057515144E-1,2.396669149E0
1.037098347E2,2.633702159E-1,-3.016786337E0,-2.786935806E0
1.037618281E2,-3.351984620E-1,-6.253845692E0,-2.916226625E0
1.038138223E2,-1.668809533E0,-9.380768776E0,-5.913858891E0
1.038658159E2,-7.460560322E0,-1.081733322E1,-1.147336483E1
1.039178091E2,-5.585843086E0,-1.516294193E1,-6.253845692E0
1.039698025E2,-3.852388144E0,-1.115253162E1,5.042342663E0
1.040217960E2,-2.849186957E-1,-2.204408836E1,-4.932206154E0
1.040737893E2,-8.956981659E0,-3.111120605E1,-2.602576733E0
1.041257824E2,1.065212822E1,-3.311281967E1,7.656890869E0
1.041777758E2,-1.315414619E1,-1.398974800E1,8.121379852E0
1.042278293E2,-1.930264282E1,-1.517970204E0,-3.541132450E0
1.042798231E2,7.685622215E0,6.809317589E0,3.902667999E0
1.043318164E2,3.251425266E0,-2.284138203E0,-1.638162804E1
1.043838097E2,-2.879354858E1,-9.586676598E0,-1.630022240E1
1.044358049E2,-9.349642754E0,-4.170826912E0,-7.348029613E0
1.044878005E2,1.364257812E1,-3.069939232E1,2.615745163E1
1.045397937E2,1.029538140E-1,-1.262501144E1,7.709565163E-1
1.045917872E2,-1.968093872E0,-9.201197624E0,-3.787742853E0
1.046437805E2,-2.604970932E0,-8.485309601E0,-3.517189741E0
1.046957738E2,-5.657671452E0,-1.094901848E1,5.267404318E-1
1.047477671E2,-9.598648071E0,-1.363300037E1,-1.254600048E0
1.047997604E2,-9.550762177E0,-1.375510883E1,3.007209063E0
1.048517545E2,-1.067846584E1,-1.137759399E1,2.490045786E0
1.049037481E2,-1.197137451E1,-9.941028595E0,3.275367975E0
1.049557415E2,-1.257952023E1,-1.101366425E1,1.424593568E0
1.050077347E2,-6.941002846E0,-6.785374641E0,3.237059593E0
1.050597281E2,-3.713520288E0,-6.033572555E-1,2.842004299E0
1.051117215E2,4.575459003E0,5.353598595E0,4.218712330E0
1.051637149E2,1.535448456E1,1.772721100E1,3.471698463E-1
1.052157081E2,8.669669151E0,1.263698196E1,7.719141960E0
1.052677023E2,-2.928198099E0,-9.112609863E0,2.903297615E1
1.053196958E2,4.383917332E0,-5.876987076E1,2.338009262E1
1.053716891E2,-1.588601303E1,-3.696760416E0,-1.544307232E0
1.054236825E2,7.544359684E0,-6.273000240E-1,-4.575459003E0
1.054756780E2,1.132491946E0,2.288926601E0,-6.201171875E-1
1.055276765E2,2.174001455E0,5.274587631E0,-6.153286099E-1
1.055796732E2,3.057488918E0,7.012830734E0,2.597788095E0
1.056316668E2,2.648067951E0,1.036720991E0,7.937020779E0
1.056836602E2,9.624984860E-1,-3.605777979E0,8.722343445E0
1.057356535E2,8.595446348E-1,-8.217150688E0,1.103042412E1
1.057876468E2,9.361614585E-1,-1.048931789E1,1.029059315E1
1.058396402E2,-9.696813226E-1,-1.394665051E1,1.077184200E1
1.058916338E2,-1.733454943E0,-1.306555748E1,7.858009815E0
1.059436278E2,-1.185166001E0,-1.150927925E1,6.780586243E0
1.059956211E2,-1.245022893E0,-1.212221336E1,7.005648136E0
1.060476145E2,-2.980872154E0,-1.197616291E1,5.837242126E0
1.060996079E2,-2.432583094E0,-1.142547894E1,4.886714935E0
1.061516011E2,-1.161223292E0,-1.095620155E1,3.869148016E0
1.062035945E2,-6.249057055E-1,-1.003440571E1,3.428601503E0
1.062555879E2,-3.328042030E-1,-9.385557175E0,3.457332850E0
1.063075816E2,-4.405465722E-1,-1.024510193E1,3.304099321E0
1.063595756E2,5.746259540E-2,-1.191391182E1,3.079037428E0
1.064115690E2,3.256213665E-1,-9.996097565E0,1.771763325E0
1.064635622E2,-3.615354896E-1,-9.414288521E0,1.508393168E0
1.065155556E2,-1.005595446E0,-9.323306084E0,1.369525194E0
1.065675508E2,-1.015172482E0,-9.064723969E0,1.304879785E0
1.066195497E2,-1.987248063E-1,-8.032792091E0,1.599375606E0
1.066715456E2,9.337671846E-2,-7.858009815E0,2.348783493E0
1.067235388E2,-5.051919818E-1,-8.916279793E0,3.921822071E0
1.067755322E2,-3.179596901E0,-9.208380699E0,2.789330244E0
1.068275256E2,-4.374340057E0,-9.016839027E0,2.636096478E0
1.068795189E2,-4.922628880E0,-9.500482559E0,3.289733648E0
1.069315122E2,-4.381523132E0,-1.042946148E1,5.796539307E0
1.069835056E2,-5.130930901E0,-9.196409225E0,5.959350109E0
1.070354996E2,-5.990475655E0,-8.193208694E0,7.747873306E0
1.070874933E2,-6.251451492E0,-6.881145954E0,7.008042336E0
1.071394865E2,-6.349617004E0,-5.940196037E0,7.400703430E0
1.071914799E2,-9.186832428E0,-6.445387840E0,6.873962879E0
1.072434733E2,-9.747093201E0,-4.467716694E0,7.592245579E0
1.072954668E2,-7.103813171E0,-1.872322917E0,7.113390446E0
1.073474601E2,-5.152479172E0,4.381522834E-1,4.824463844E0
1.073994532E2,-4.429408550E0,2.873129845E-1,2.959323645E0
1.074514474E2,-5.968926907E0,-3.064671755E0,3.397475958E0
1.075034409E2,-2.159635782E0,-5.138113976E0,-8.379961848E-1
1.075554343E2,-2.286532402E0,-9.203592300E0,-2.774964571E0
1.076074278E2,4.903474808E0,-2.779513550E1,-1.019961071E1
1.076594220E2,-1.228023529E1,1.896265626E0,3.162837029E0
