"Time (s)","Gyroscope x (rad/s)","Gyroscope y (rad/s)","Gyroscope z (rad/s)"
5.199292700E-2,-2.236225009E-1,-1.966882229E0,1.214231014E0
1.039861270E-1,-6.724099070E-2,-2.167246103E0,1.529437423E0
1.559795520E-1,1.771050990E-1,-1.713373184E0,1.365114570E0
2.079730790E-1,3.194366992E-1,-3.932933509E-1,1.089003563E0
2.599661050E-1,5.069723725E-1,-5.741094947E-1,9.533914328E-1
3.119595310E-1,3.139389455E-1,-1.586313248E0,6.815564036E-1
3.639537510E-1,8.058839291E-2,-2.197178364E0,3.345849216E-1
4.159472430E-1,-2.388941199E-1,-1.833102822E0,-3.019366562E-1
4.679404350E-1,-6.267935634E-1,6.079148054E-1,-5.304002762E-1
5.199338940E-1,-4.313166738E-1,1.782608628E0,-1.957381487E0
5.719271870E-1,-3.347999454E-1,2.566672266E-1,-2.397204399E0
6.239205460E-1,-7.507991791E-1,1.194345474E0,-3.149179459E0
6.759139050E-1,-7.043734193E-1,1.621340156E0,-3.683075666E0
7.279073640E-1,-6.506173015E-1,2.843681574E0,-3.427734137E0
7.799016160E-1,-3.311347663E-1,3.976836681E0,-2.085663080E0
8.318948750E-1,5.859724805E-2,1.874849200E0,-1.200519443E0
8.838882340E-1,1.099099293E-1,-5.673899651E-1,-3.208734691E-1
9.358814260E-1,3.573103547E-1,-7.427083254E-1,3.571869433E-1
9.878767150E-1,5.735566616E-1,2.627758980E-1,9.888215661E-1
1.039872241E0,4.654335082E-1,7.951632887E-2,1.012645364E0
1.091865500E0,4.061795771E-1,-8.288402557E-1,8.593181968E-1
1.143858893E0,2.534632683E-1,-1.685273290E0,5.050163865E-1
1.195852219E0,-4.321871791E-3,-9.882761240E-1,5.358693376E-2
1.247845545E0,2.980564237E-1,-9.552893639E-1,4.530928135E-1
1.299838938E0,5.002527833E-1,-1.568598151E0,6.613978148E-1
1.351832330E0,8.924282789E-1,-4.659863412E-1,7.389777303E-1
1.403826481E0,1.120891929E0,1.316518426E0,1.232556939E0
1.455820073E0,1.075077057E0,1.825369120E0,1.464074850E0
1.507813232E0,1.088515997E0,1.108213425E0,1.520274401E0
1.559806691E0,6.364757419E-1,6.378471851E-1,1.338236570E0
1.611799883E0,-3.622889221E-1,-3.737457097E-1,1.308915019E0
1.663793275E0,-1.127092123E0,1.048959494E0,6.094743013E-1
1.715786701E0,-1.505828619E0,4.839091301E-1,2.857157290E-1
1.767780091E0,-1.395872951E0,-3.774108887E-1,-6.214191914E-1
1.819774176E0,-2.239477873E0,-2.656225264E-1,-7.442030907E-1
1.871767602E0,-2.381198406E0,-1.625408530E0,-5.517805219E-1
1.923760893E0,-1.996964335E0,2.395630181E-1,1.549905688E-1
1.975754253E0,-1.075779557E0,-1.768961906E0,9.772152305E-1
2.027749674E0,-2.077400088E-1,-3.908499181E-1,2.324784040E0
2.079748629E0,9.467952847E-1,-1.775681376E0,3.642420053E0
2.131744320E0,2.115380526E0,-2.800102472E0,4.759692669E0
2.183737778E0,2.934550762E0,-4.360252380E0,4.429825783E0
2.235730971E0,3.224100828E0,-4.499529839E0,2.740783215E0
2.287724298E0,2.502669096E0,-3.439678431E0,1.559369802E0
2.339717557E0,1.117226720E0,-2.535597801E0,5.887048841E-1
2.391710917E0,-7.446905375E-1,-1.874641657E0,-5.481153727E-1
2.443704509E0,-2.728169918E0,-8.654921651E-1,-1.830932379E0
2.495698098E0,-4.919954777E0,-2.240836918E-1,-2.827253580E0
2.547692053E0,-5.413533688E0,-1.880426556E-1,-3.700790882E0
2.599685279E0,-8.753133774E0,-4.671182632E0,-2.330620050E0
2.651678638E0,-1.375103474E0,9.026248932E0,-1.514504194E0
2.703671897E0,-4.074929059E-1,1.177852035E0,2.838521481E0
2.755665290E0,-1.271057874E-1,8.009482026E-1,1.602130413E0
2.807658649E0,-5.944177508E-1,-1.519118071E0,1.360537410E-1
2.859651875E0,-7.410253286E-1,1.965153590E-2,2.087467015E-1
2.911645864E0,-7.220885754E-1,1.030633569E0,-2.964388430E-1
2.963639585E0,-7.489666343E-1,1.789938927E0,-4.332726598E-1
3.014108781E0,-4.844619334E-1,6.928250194E-1,-4.259423018E-1
3.066102340E0,-4.111581147E-1,-1.238119960E0,-5.194046497E-1
3.118096664E0,-2.303420156E-1,-2.216115236E0,-5.163503289E-1
3.170092754E0,-2.578309774E-1,-1.908850074E0,-2.823889554E-1
3.222086481E0,-1.093906909E-1,-1.040810585E0,5.328577477E-3
3.274079540E0,-4.280637950E-2,-2.833376229E-1,2.515072823E-1
3.326072933E0,-1.582599133E-1,1.167791039E-1,3.516891897E-1
3.378066259E0,-1.226312015E-2,1.442680508E-1,3.394718766E-1
3.430059585E0,-4.581489338E-5,2.994278371E-1,2.985438704E-1
3.482052911E0,-4.586071149E-2,2.169610113E-1,1.128408611E-1
3.534046732E0,-1.326035708E-1,1.021183431E-1,-3.254506737E-2
3.586040654E0,-3.286913037E-1,2.392759174E-2,-2.268002182E-1
3.638034080E0,-3.274695873E-1,6.057950482E-2,-2.976605892E-1
3.690027206E0,-2.523331642E-1,3.189755082E-1,-3.746296167E-1
3.742020565E0,-4.708243906E-2,1.496723771E0,-1.425008029E-1
3.794013957E0,3.640298843E-1,1.647607446E0,-4.292977601E-2
3.846007250E0,6.841232181E-1,1.152806520E0,2.026380450E-1
3.898000643E0,9.064782262E-1,7.148161530E-1,4.622557759E-1
3.949994563E0,1.055529356E0,6.091364622E-1,6.949954033E-1
4.001988219E0,1.082407355E0,8.027807474E-1,9.197938442E-1
4.053981679E0,1.158765554E0,3.825055063E-1,1.001649737E0
4.105974938E0,1.182589412E0,4.295421243E-1,1.106718659E0
4.157969426E0,1.241232395E0,2.163501382E-1,1.236222029E0
4.209968347E0,1.318201423E0,2.175718695E-1,1.307082415E0
4.261965140E0,1.386007428E0,-2.375227362E-1,1.095112205E0
4.313959268E0,1.528339028E0,-5.976094678E-2,1.568532705E0
4.365952627E0,2.171580076E0,-9.858326316E-1,1.566089272E0
4.417945953E0,2.426921844E0,-8.520531654E-1,1.848309040E0
4.469939312E0,2.404930592E0,-1.504457235E0,1.536156893E0
4.521932639E0,1.860038877E0,-5.698334575E-1,8.880288601E-1
4.573926394E0,1.015823007E0,1.545592904E0,3.620738685E-1
4.625920247E0,4.727638960E-1,1.830866933E0,-5.187938213E-1
4.677913640E0,2.302503884E-1,5.504934192E-1,-1.030698895E0
4.729907066E0,-4.769330099E-2,2.090197653E-1,-6.336364746E-1
4.781900325E0,-9.365022779E-1,-7.808690518E-2,5.893157125E-1
4.833893685E0,-4.459774494E-1,-7.078889608E-1,-9.445669055E-1
4.885886978E0,-1.913886547E0,3.715099096E-1,-1.797636002E-1
4.937880337E0,-2.083707333E0,-8.349488974E-1,-3.923446834E-1
4.989874061E0,-1.301799655E0,-2.532543421E0,4.152191579E-1
5.041867980E0,-7.945829630E-2,-2.821482658E0,1.056627631E0
5.093861306E0,9.712299109E-1,-3.255197048E0,1.888626099E0
5.145854733E0,1.822165132E0,-4.828175068E0,1.243552446E0
5.197847992E0,1.235123634E0,-7.018126965E0,-1.361787796E0
5.249842380E0,-7.031517625E-1,-5.199581146E0,-3.342212915E0
5.301841101E0,-2.497873783E0,1.112489462E0,-3.803416252E0
5.353837725E0,-1.934656024E0,2.301843882E0,-2.672704697E0
5.405831418E0,1.786734939E0,1.207263374E1,1.637560606E0
5.457824711E0,2.415926218E0,-2.459239721E0,2.153741598E0
5.509818037E0,2.464184523E0,-3.462891102E0,9.338437319E-1
5.561811363E0,1.373790145E0,7.890546322E-2,1.032193065E0
5.613804889E0,3.756363094E-1,1.421587229E0,1.092668653E0
5.665798082E0,-3.775605559E-1,1.906614304E0,5.770984292E-1
5.717791771E0,-1.030575395E0,1.177241206E0,-3.437766433E-2
5.769785759E0,-1.835695982E0,5.993626714E-1,-6.263061166E-1
5.821779018E0,-2.604164362E0,1.213893056E0,-1.158980608E0
5.873772310E0,-2.897990465E0,1.383713603E0,-1.567649364E0
5.925765937E0,-3.442882299E0,8.257065713E-2,-2.178514719E0
5.977759263E0,-3.971891642E0,-1.373732090E0,-2.392317533E0
6.029752355E0,-4.439814568E0,-1.094566703E0,-1.878579855E0
6.081745914E0,-4.246780872E0,1.168689132E0,-6.177539825E-1
6.133739802E0,-2.755048037E0,2.563905239E0,1.409406513E-1
6.185733590E0,-1.084331632E0,-2.112555206E-1,2.426539920E-2
6.237726816E0,2.137570232E-1,5.468282700E-1,8.012859821E-1
6.289720075E0,1.299264550E0,5.120089054E-1,6.681173444E-1
6.341714001E0,1.764743924E0,1.240771174E0,8.941375017E-1
6.393710323E0,2.139815092E0,7.856765985E-1,8.416031003E-1
6.445704118E0,2.128819466E0,6.213538051E-1,9.057439566E-1
6.497697378E0,1.849043369E0,3.641795218E-1,1.087781787E0
6.549690704E0,1.603475451E0,-4.696515203E-1,1.186741948E0
6.601684163E0,1.403111696E0,-6.968933940E-1,1.070066690E0
6.653677456E0,1.084850788E0,-4.494929910E-1,1.119546771E0
6.705670715E0,7.751421332E-1,-9.669996798E-3,1.768896461E0
6.757664669E0,1.011547089E0,-9.106962085E-1,2.115257025E0
6.809658424E0,1.448315620E0,-1.361514807E0,2.168402433E0
6.861651783E0,1.596755981E0,-1.332193255E0,2.011409998E0
6.913645143E0,1.856984496E0,-1.813555002E0,1.489120245E0
6.965638435E0,1.182589412E0,-9.241352677E-1,7.414212227E-1
7.017631728E0,1.001360863E-1,2.868726969E0,2.109759331E0
7.069625188E0,3.310431540E-1,6.136245251E0,6.198280334E0
7.121618480E0,1.103176713E0,-3.478162766E0,-5.881227553E-2
7.173612566E0,-9.200088382E-1,1.655548692E0,6.320763230E-1
7.225606156E0,-1.441076875E0,1.386157155E0,-1.612853527E0
7.277599548E0,-1.511326432E0,-5.961006284E-1,-3.849231243E0
7.329592808E0,-2.335994720E0,2.099647760E0,-3.133908033E0
7.381586465E0,-2.375700712E0,-7.469843626E-1,-1.650727034E0
7.433584885E0,-7.886728644E-1,-7.133867741E-1,-6.189756989E-1
7.485582408E0,9.797820449E-1,-3.714567661E0,-3.850143254E-1
7.537576301E0,1.771463394E0,-4.470208168E0,-3.899012506E-1
7.589569659E0,1.123946309E0,-7.397474289E0,-2.410643578E0
7.641562785E0,-6.548933983E-1,-4.960122108E0,-3.991562843E0
7.693556276E0,-1.867460847E0,2.248698711E0,-4.610369205E0
7.745549535E0,-1.237048030E0,-4.998710379E-2,-3.130242586E0
7.797542759E0,5.918826461E-1,1.240250111E1,2.338222980E0
7.849536218E0,2.731132746E0,-4.055430412E0,3.066985130E0
7.901530436E0,2.594298840E0,-4.490366936E0,1.191628933E0
7.953523761E0,1.550330162E0,-2.144644022E0,1.211176515E0
8.005517288E0,-1.662011594E-1,5.095654726E-1,8.483226299E-1
8.057510547E0,-2.188775778E0,2.031841755E0,7.444755435E-1
8.109503840E0,-4.267550468E0,1.761839271E0,-3.593579829E-1
8.161497199E0,-5.478896141E0,2.724562645E0,-1.119274259E0
8.213490458E0,-5.292582512E0,2.438678026E0,-2.399037123E0
8.265484049E0,-4.758075237E0,4.038857818E-1,-2.456458330E0
8.317478234E0,-4.375062466E0,5.168958902E-1,-2.137586594E0
8.369471559E0,-3.251070499E0,2.700128078E0,-7.955157757E-1
8.421464852E0,-2.041557550E0,2.527864218E0,-8.749282360E-1
8.473458476E0,-1.040349364E0,1.998854995E0,-2.976605892E-1
8.525454632E0,-2.230116278E-1,1.448789090E-1,-1.015728414E-1
8.577448860E0,1.483944356E-1,1.534310281E-1,4.347668588E-1
8.629442219E0,3.964057267E-1,2.212370634E-1,9.191829562E-1
8.681435612E0,7.122231126E-1,-1.678840965E-1,1.259434938E0
8.733429071E0,1.005438328E0,-3.713022172E-1,1.430477142E0
8.785422264E0,1.266277790E0,-4.067323804E-1,1.629619241E0
8.837415524E0,1.497795820E0,-1.550559253E-1,1.783557296E0
8.889408948E0,1.798341393E0,-6.791782975E-1,1.819598436E0
8.941403267E0,2.117824078E0,-7.915775180E-1,1.868467569E0
8.993396526E0,2.322463751E0,-1.125110030E0,1.926499724E0
9.045389818E0,3.112923622E0,-1.802559495E0,1.439640164E0
9.097383244E0,3.671865225E0,-1.750635982E0,6.876650453E-1
9.149376504E0,4.081144810E0,-1.292487025E0,-1.052079082E0
9.201369996E0,2.870409966E0,6.567839980E-1,-1.516336799E0
9.253363322E0,1.814224005E0,2.605444193E0,-2.096658707E0
9.305356911E0,1.346912146E0,2.890431285E-1,-1.856588721E0
9.357350965E0,9.089217186E-1,-1.336469412E0,-8.517153263E-1
9.409344357E0,2.411650181E0,-1.716427445E0,1.110994577E0
9.461337584E0,2.824594975E0,-1.980321288E0,1.514165759E0
9.513331075E0,2.428143501E0,-1.006084633E1,2.260032177E0
9.565328962E0,-2.411130905E0,-1.359071255E0,-1.674550891E0
9.617326650E0,-3.332315683E0,1.443578362E0,-2.865127087E0
9.669320944E0,-3.381795883E0,8.241610527E-1,-2.639718056E0
9.721314236E0,-3.412950039E0,2.259083509E0,-2.145527840E0
9.773307595E0,-3.978610992E0,1.811319351E0,-2.251818657E0
9.825301087E0,-4.711038589E0,2.817414284E0,-2.113762856E0
9.877294214E0,-5.013416767E0,8.204958439E-1,-1.337964058E0
9.929287706E0,-4.159427166E0,-1.108616590E0,4.592014551E-1
9.981280899E0,-2.616992474E0,-1.735364199E0,1.950323462E0
1.003327492E1,-1.019579887E0,-2.868519306E0,3.386467695E0
1.008526881E1,6.951188445E-1,-3.828188658E0,4.573379040E0
1.013726197E1,2.401265383E0,-4.597878933E0,5.233724117E0
1.018925529E1,3.355437040E0,-5.730422974E0,4.391340733E0
1.024124872E1,3.238761663E0,-4.789079666E0,2.987572670E0
1.029324185E1,1.778182864E0,-3.579566479E0,1.740796804E0
1.034523537E1,2.072360367E-2,-5.856872082E0,-1.246334314E0
1.039722000E1,-3.092245579E0,-1.929008603E0,-2.673315525E0
1.044921395E1,-3.832003355E0,3.846722364E0,-4.862656593E0
1.050120754E1,7.140556574E-1,8.712264061E0,9.075765610E-1
1.055320093E1,4.696897030E0,-2.627227545E0,3.955794096E0
1.060519436E1,4.295558453E0,-2.546593189E0,1.578917503E0
1.065719018E1,2.574751139E0,1.638157368E-1,1.935051918E0
1.070918491E1,1.073244333E0,3.427992463E-1,1.850141644E0
1.076117840E1,-1.093906909E-1,2.817127407E-1,8.806985021E-1
1.081317156E1,-1.844858885E0,1.304911971E0,1.513253748E-1
1.086516502E1,-3.343922138E0,2.107588768E0,-6.043149233E-1
1.091715831E1,-3.967615366E0,1.711748242E0,-1.699596286E0
1.096915154E1,-4.250446320E0,1.357446432E0,-1.678826928E0
1.102114500E1,-4.072684288E0,8.400436044E-1,-2.064282894E0
1.107313888E1,-3.990217447E0,1.176019430E0,-1.505952001E0
1.112513257E1,-4.008543491E0,1.240160227E0,-1.359955192E0
1.117712597E1,-3.749536514E0,1.304911971E0,-1.159591436E0
1.122911926E1,-3.024439812E0,2.016570091E0,-5.029113293E-1
1.128111265E1,-2.486267328E0,2.212046862E0,-3.184300065E-1
1.133310604E1,-1.640829802E0,1.000090241E0,-2.219132930E-1
1.138509934E1,-9.407783151E-1,-3.438133001E-1,2.789962292E-1
1.143709270E1,-4.771315753E-1,-2.460748404E-1,6.797237992E-1
1.148908688E1,-2.926502824E-1,3.574600220E-1,8.739789724E-1
1.154108031E1,6.898195297E-2,1.815308183E-1,4.640883803E-1
1.159307373E1,5.540089607E-1,1.015074775E-1,5.477769375E-1
1.164506696E1,1.123335361E0,3.776185513E-1,9.356763363E-1
1.169706378E1,1.480691552E0,3.415775001E-1,1.208122134E0
1.174906210E1,1.482524157E0,-3.340394199E-1,1.284480333E0
1.180105800E1,1.589425564E0,-1.027371407E0,1.041966915E0
1.185305132E1,1.745196223E0,-1.513907313E-1,1.317467213E0
1.190504458E1,1.836215138E0,-7.921883464E-1,1.792109370E0
1.195703804E1,2.034135580E0,-1.837378740E0,1.589302182E0
1.200903134E1,1.596145034E0,-9.149723053E-1,2.004079819E0
1.206102459E1,1.324920893E0,-9.760588408E-1,1.867245793E0
1.211301832E1,8.539437652E-1,-9.424612522E-1,1.962540746E0
1.216501237E1,7.067252994E-1,-8.789312243E-1,2.187950134E0
1.221700570E1,8.759349585E-1,-9.717828035E-1,2.320507765E0
1.226899906E1,9.046456218E-1,9.266825393E-3,2.468337059E0
1.232099245E1,1.207023978E0,1.546203732E0,2.203221798E0
1.237298571E1,4.690986872E-1,3.078864813E0,2.746891737E0
1.242497903E1,-1.881510735E0,2.103312969E0,3.028500795E0
1.247697246E1,1.670059800E0,-3.436013222E0,1.619234443E0
1.252896608E1,9.962753654E-1,2.467388630E0,1.037690759E0
1.258096004E1,-1.271256328E0,9.591622949E-1,-7.112163901E-1
1.263295340E1,-1.997575164E0,1.868129730E0,-1.846814871E0
1.268494675E1,-2.579118967E0,2.444786549E0,-3.325108528E0
1.273693998E1,-2.304840326E0,2.304287672E0,-4.550504208E0
1.278893663E1,-1.763613820E0,3.097801447E0,-5.216958523E0
1.284093509E1,-1.058064461E0,2.367206812E0,-5.051414013E0
1.289293011E1,6.902319193E-1,3.375745058E0,-3.038613081E0
1.294492341E1,2.141036749E0,7.178704739E-1,-8.883672357E-1
1.299691676E1,3.134914637E0,-1.390225410E0,1.180022478E0
1.304891009E1,3.646208763E0,-4.238079071E0,2.572184324E0
1.310090362E1,4.535017490E0,-7.070661068E0,1.610071540E0
1.315289671E1,3.753721237E0,-5.886193752E0,9.674413204E-1
1.320489010E1,2.195403814E0,-4.697449684E0,4.030018747E-1
1.325688425E1,5.094158053E-1,-6.965592861E0,-2.056952477E0
1.330887774E1,-2.812469482E0,-1.745748997E0,-3.580450535E0
1.336087107E1,-1.698251247E0,3.149725199E0,-4.169324875E0
1.341286440E1,-4.057412624E0,5.937102795E0,-1.446698070E0
1.346485772E1,3.513651133E0,-5.686116815E-1,3.143343210E0
1.351685111E1,3.135525465E0,-3.393252611E0,1.278371692E0
1.356884441E1,2.053683043E0,1.687026471E-1,1.486065865E0
1.362083777E1,3.542560339E-1,2.289626598E0,9.711065292E-1
1.367283182E1,-1.074557781E0,2.400193453E0,4.646992385E-1
1.372482541E1,-2.486267328E0,2.174784184E0,2.313487232E-1
1.377681880E1,-3.222970963E0,1.706250429E0,-4.577072859E-1
1.382881206E1,-3.867433548E0,1.825980067E0,-5.432283878E-1
1.388080738E1,-3.547951221E0,1.376383305E0,-6.641797423E-1
1.393280281E1,-3.152721405E0,2.464334249E0,-9.213539958E-1
1.398479607E1,-2.364705086E0,3.316491127E0,-8.651544452E-1
1.403678950E1,-1.744066000E0,3.599321842E0,-7.716920376E-1
1.408878279E1,-1.007362604E0,1.839419127E0,-8.950867653E-1
1.414077611E1,-8.167726398E-1,6.396797299E-1,-7.460356355E-1
1.419276951E1,-6.768845320E-1,4.839091301E-1,-5.401740670E-1
1.424476286E1,-4.013842642E-1,6.500644684E-1,-2.921628058E-1
1.429675708E1,-1.332144290E-1,1.002857462E-1,-2.726151049E-1
1.434875048E1,1.642769277E-1,-7.503257692E-2,-7.835996151E-2
1.440074377E1,4.599356949E-1,3.858835623E-2,9.146057814E-2
1.445273709E1,7.421554327E-1,1.415374782E-2,2.728875279E-1
1.450473045E1,8.001877069E-1,2.547307871E-3,4.995185435E-1
1.455672381E1,9.052564502E-1,-1.813231409E-1,7.218735218E-1
1.460871710E1,1.024375200E0,-1.119612217E0,9.094091058E-1
1.466071076E1,1.470306873E0,-1.647399664E0,9.827129245E-1
1.471270498E1,1.734811544E0,-1.516674519E0,1.180022478E0
1.476469844E1,2.051239729E0,-1.566154718E0,1.533102512E0
1.481669150E1,2.139204264E0,-1.764074922E0,1.705977440E0
1.486868496E1,2.244884014E0,-1.969936490E0,1.252715468E0
1.492068058E1,1.806282759E0,-1.558824182E0,5.654920340E-1
1.497267907E1,1.576597452E0,-9.528459311E-1,-9.332188405E-3
1.502467560E1,9.076999426E-1,-1.804392099E0,-8.297241926E-1
1.507666912E1,-1.191645339E-1,-1.994371176E0,-1.223121405E0
1.512866265E1,-1.434357405E0,1.670209527E0,-1.883157045E-1
1.518065604E1,-3.795962334E0,3.293278217E0,1.198348403E0
1.523264917E1,3.896862268E-1,-2.767115831E0,-9.909926057E-1
1.528464253E1,-4.273048401E0,1.433804512E0,1.754588261E-2
1.533663618E1,-5.177739620E0,2.946306944E0,-1.951272845E0
1.538863007E1,-4.698210239E0,7.495420456E0,-3.021508694E0
1.544062366E1,-3.162495136E0,2.637820005E0,-3.732555866E0
1.549261686E1,-1.521711230E0,5.504934192E-1,-1.409435272E0
1.554461018E1,7.537618876E-1,1.918220758E0,4.188843369E-1
1.559660347E1,2.086669922E0,-2.802833021E-1,1.948490977E0
1.564859687E1,3.350549936E0,-1.713373184E0,3.278344393E0
1.570059026E1,3.980352163E0,-3.511149645E0,3.914866209E0
1.575258421E1,4.223476410E0,-5.665060520E0,2.591732025E0
1.580457784E1,3.484940529E0,-5.106118679E0,8.122815490E-1
1.585657126E1,1.646235943E0,-3.038950682E0,-1.895374358E-1
1.590856459E1,-7.019299865E-1,-1.640680194E0,-1.465023994E0
1.596055804E1,-3.129508495E0,-3.676370382E-1,-2.447295427E0
1.601255347E1,-2.970683575E0,8.883019686E-1,-3.343434811E0
1.606455219E1,-7.003005028E0,-5.023652077E0,-1.205096692E-1
1.611654791E1,8.301200271E-1,4.281047344E0,-1.780841470E0
1.616854120E1,-8.760265708E-1,1.216947436E0,3.402961254E0
1.622053453E1,-6.945996284E-1,7.844548225E-1,6.204699278E-1
1.627252786E1,-1.513159037E0,1.650661707E0,8.006750941E-1
1.632452112E1,-1.761170268E0,7.154270411E-1,-6.003400311E-2
1.637651461E1,-1.737957358E0,9.603840113E-1,-2.402392626E-1
1.642850794E1,-1.279808521E0,1.061787605E0,-6.797525287E-2
1.648050182E1,-8.112748265E-1,1.069728851E0,-3.437766433E-2
1.653249558E1,-5.150051713E-1,7.343639135E-1,4.198049009E-2
1.658448890E1,-3.073110282E-1,6.445666552E-1,-1.760984063E-1
1.663648233E1,-2.386956103E-2,4.338181615E-1,-2.032776177E-2
1.668847572E1,2.241417170E-1,-4.048998058E-1,2.814396620E-1
1.674046892E1,2.278069109E-1,-6.510784626E-1,4.304907918E-1
1.679246231E1,2.339155674E-1,-3.505328000E-1,6.418501735E-1
1.684445577E1,1.966527998E-1,-2.534052134E-1,5.960353017E-1
1.689644999E1,1.716073155E-1,-8.053036779E-2,5.544964671E-1
1.694844324E1,1.819920391E-1,-1.758253425E-1,3.706260026E-1
1.700043650E1,1.453401148E-1,-1.184040084E-1,2.612811327E-1
1.705243013E1,1.819920391E-1,-2.921768464E-2,5.847385526E-2
1.710442442E1,6.776022911E-2,1.735895723E-1,-1.608267725E-1
1.715642071E1,-2.448042482E-2,2.334543765E-1,-3.110996187E-1
1.720841404E1,-4.524984211E-2,-2.371989749E-2,-5.145177841E-1
1.726040740E1,-5.746714771E-2,1.038470946E-4,-4.754223526E-1
1.731240059E1,5.248859897E-2,1.338833272E-1,-4.277748764E-1
1.736439408E1,8.975137025E-2,5.688194036E-1,-2.976605892E-1
1.741638737E1,9.586003423E-2,8.821932077E-1,-2.158046365E-1
1.746838070E1,4.943427071E-2,8.547043204E-1,-1.186770722E-1
1.752037479E1,8.506298065E-3,2.053545713E-1,5.053260550E-2
1.757236828E1,-7.396051288E-2,7.462941110E-2,1.641535312E-1
1.762436160E1,-6.968445331E-2,1.723678410E-1,3.779563904E-1
1.767639653E1,-5.319108814E-2,1.320507377E-1,5.508312583E-1
1.772838979E1,-5.685628206E-2,-1.770470738E-1,7.066018581E-1
1.778038301E1,-3.360216916E-1,7.789570093E-1,4.292690456E-1
1.783237644E1,6.584669352E-1,1.451519608E0,9.026896358E-1
1.788436983E1,9.113650918E-1,2.517803311E-1,1.610992104E-1
1.793636398E1,1.111316606E-1,2.261239886E-1,4.066670537E-1
1.798835761E1,-1.649794281E-1,2.884322405E-1,1.568231732E-1
1.804035070E1,-3.341891170E-1,3.678447306E-1,-2.035873383E-1
1.809234403E1,-1.753641367E-1,-1.061867028E-1,-6.159213781E-1
1.814433875E1,2.149787396E-1,7.129836082E-1,-5.108525753E-1
1.819633764E1,4.513836205E-1,1.373328805E0,-1.516637951E-1
1.824833396E1,1.353020787E0,1.544982076E0,4.879121184E-1
1.830032749E1,2.183186531E0,-3.043941408E-2,1.252715468E0
1.835232085E1,1.972438097E0,-1.627241254E0,1.504391789E0
1.840431404E1,1.657842398E0,9.090713263E-1,2.864788771E0
1.845630743E1,8.881522417E-1,-2.494669914E0,2.200778246E0
1.850830079E1,-1.264949143E-1,-2.029801369E0,-1.556653857E0
1.856029415E1,-1.188178658E0,4.347528145E-2,-3.398102820E-1
1.861228764E1,-1.186957002E0,1.372107148E0,-4.351052642E-1
1.866428176E1,-1.284695387E0,2.088041306E0,-1.201741099E0
1.871627515E1,-7.807316184E-1,1.701363564E0,-4.980243742E-1
1.876826838E1,-2.828764319E-1,-1.754301190E0,1.822041869E0
1.882026180E1,1.745196223E0,-3.540471077E0,2.939314365E0
1.887225506E1,3.061610937E0,-4.422560692E0,3.958848476E0
1.892424842E1,3.736616850E0,-6.087168694E0,3.504364729E0
1.897624182E1,3.096430063E0,-6.271038532E0,1.887404442E0
1.902823547E1,1.114172339E0,-5.756690502E0,-6.825056672E-1
1.908022936E1,-2.408076763E0,-2.589964867E0,-3.014178276E0
1.913222279E1,-4.008543491E0,2.653702497E0,-3.463164330E0
1.918421611E1,-3.197314501E0,-1.781790018E0,-2.826031685E0
1.923621014E1,5.216330886E-1,1.328459072E1,2.893499613E0
1.928820659E1,2.859414339E0,-2.078059912E0,2.804313183E0
1.934020009E1,2.169136763E0,-5.369401932E0,8.599290848E-1
1.939219354E1,5.026962757E-1,-6.419155002E-1,1.693760157E0
1.944418680E1,-9.688780904E-1,1.118598104E0,1.018143177E0
1.949618020E1,-1.905334473E0,3.458535671E-1,1.690404713E-1
1.954817346E1,-3.114236832E0,-5.032491088E-1,-3.416428864E-1
1.960016685E1,-4.236396313E0,-2.729529142E-1,-5.597218275E-1
1.965216061E1,-4.753799438E0,8.101111650E-1,-1.129048228E0
1.970415442E1,-4.838098526E0,1.081335306E0,-1.753352404E0
1.975614782E1,-4.481352806E0,-4.021326080E-2,-2.121093273E0
1.980814118E1,-4.382392883E0,1.105159044E0,-2.062450171E0
1.986013454E1,-3.446547508E0,1.574303627E0,-1.336742282E0
1.991212783E1,-2.826519251E0,1.357446432E0,-1.199908614E0
1.996412119E1,-2.399524450E0,6.256299019E-1,-9.451777339E-1
2.001611445E1,-1.726350904E0,-5.426315963E-2,-7.270988822E-1
2.006810844E1,-9.762085080E-1,-5.588378310E-1,-3.740187287E-1
2.012010216E1,-4.362035990E-1,-1.042032242E0,-7.591649890E-2
2.017209548E1,1.581682861E-1,-1.029814959E0,3.040416837E-1
2.022408891E1,6.700733900E-1,-8.166229725E-1,4.982968569E-1
2.027608293E1,1.112950683E0,1.619831324E-1,6.247459054E-1
2.032808148E1,1.418994188E0,8.809715509E-1,6.760585904E-1
2.038007881E1,1.652344704E0,1.424030781E0,7.475298643E-1
2.043207317E1,1.661507726E0,1.530321240E0,1.192239761E0
2.048406656E1,1.339581609E0,1.574303627E0,1.665049434E0
2.053605996E1,1.415328979E0,2.559018373E0,2.079826832E0
2.058805332E1,1.833771586E0,1.844305992E0,2.040731668E0
2.064004664E1,2.453188896E0,-6.394720674E-1,2.617999315E0
2.069203993E1,2.808712721E0,-9.461264014E-1,2.771326303E0
2.074403422E1,3.024959087E0,-2.192902327E0,2.459785223E0
2.079602764E1,2.775115013E0,-1.513620257E0,1.179411650E0
2.084802090E1,1.428157091E0,-4.519364238E-1,-1.482997555E-2
2.090001430E1,1.826028973E-1,3.488755465E0,-4.363270104E-1
2.095200749E1,-1.878410578E-3,3.987221241E0,-1.205406427E0
2.100400102E1,-8.801040798E-2,2.705626011E0,-1.061853051E0
2.105599428E1,-1.100824952E0,-3.016635776E-1,-9.054715037E-1
2.110798797E1,-2.037281275E0,3.055364788E-1,-4.707496643E0
2.115998199E1,-3.568720341E0,-1.745138168E0,-2.288470507E0
2.121197525E1,-3.281002998E0,2.175395012E0,-3.736220837E0
2.126396857E1,-2.556516886E0,1.149752140E0,-2.507160187E0
2.131596196E1,-9.810953736E-1,5.132306814E-1,-6.189756989E-1
2.136795575E1,6.226243824E-2,4.164268449E-2,1.332127929E0
2.141995434E1,1.266888618E0,-1.677942991E0,2.807367325E0
2.147195146E1,2.500836372E0,-2.049349070E0,3.729163170E0
2.152394522E1,3.053058624E0,-3.225264549E0,4.401725769E0
2.157593855E1,3.137969017E0,-3.831243038E0,4.655234814E0
2.162793191E1,3.142855883E0,-5.580150604E0,3.511695147E0
2.167992540E1,2.738463163E0,-4.423171520E0,2.647320747E0
2.173191866E1,1.549108386E0,-3.409745932E0,1.788444161E0
2.178391189E1,-3.317456245E-1,-4.677291393E0,-9.488429427E-1
2.183590558E1,-2.816134453E0,-2.514828444E0,-3.440562248E0
2.188789963E1,-3.381185055E0,2.430736542E0,-4.663514614E0
2.193989286E1,-5.470954895E0,2.576122522E0,-1.461969733E0
2.199188628E1,5.163598061E0,-6.535219550E-1,2.420078754E0
2.204387951E1,3.893609285E0,-3.497099638E0,9.900433421E-1
2.209587296E1,1.977935791E0,1.750232816E0,1.591745615E0
2.214786656E1,-1.167210788E-1,1.499778032E0,1.217896104E0
2.219985965E1,-1.946262479E0,1.719078660E0,2.020271868E-1
2.225185341E1,-4.064132214E0,2.753884315E0,2.460094839E-1
2.230384736E1,-5.632223129E0,2.521144867E0,-1.139432907E0
2.235584065E1,-6.497208595E0,4.027538300E0,-1.526721478E0
2.240783395E1,-5.290138721E0,5.788052082E0,-2.405145645E0
2.245982770E1,-2.082485437E0,3.204092026E0,-1.364842176E0
2.251182383E1,6.260910630E-1,-1.323030233E0,9.808803797E-1
2.256381799E1,2.506334305E0,-1.963217020E0,2.785987139E0
2.261581128E1,4.036551952E0,-3.433569670E0,3.590496540E0
2.266780481E1,4.473320484E0,-4.654078484E0,3.070650339E0
2.271979793E1,4.174607277E0,-5.743250847E0,1.946047544E0
2.277179136E1,3.265639782E0,-7.883723259E0,1.240498066E0
2.282378472E1,2.790997505E0,-8.206259727E0,-8.721322753E-3
2.287577847E1,1.512456536E0,-2.297971249E0,-7.130489349E-1
2.292777243E1,6.309779882E-1,2.053221941E0,-8.358328938E-1
2.297976562E1,5.344613194E-1,6.429460526E0,-2.105821848E0
2.303175915E1,-3.119994141E-2,6.541859627E0,-7.503117323E-1
2.308375241E1,9.463829547E-2,-1.978164911E-1,-1.528554082E0
2.313574577E1,-7.202559114E-1,-1.872808933E0,-8.749282360E-1
2.318773912E1,-1.519267678E0,-1.650454044E0,-9.057725966E-2
2.323973258E1,-2.353098631E0,-9.913304448E-1,4.747828096E-2
2.329172644E1,-3.489308119E0,2.309174538E0,1.268907636E-1
2.334372006E1,-3.814899206E0,4.665892601E0,-7.900179625E-1
2.339571338E1,-2.510091066E0,4.509510994E0,-1.764958858E0
2.344770661E1,-9.951453209E-1,3.197983503E0,-1.855366945E0
2.349970010E1,9.280569851E-2,2.644539595E0,-8.822585940E-1
2.355169809E1,1.119670153E0,9.976468086E-1,-7.041871548E-2
2.360369581E1,1.834382534E0,-1.673056006E0,4.439298213E-1
2.365569028E1,2.090334892E0,-2.212450027E0,7.133213878E-1
2.370768334E1,1.791011095E0,-2.100050688E0,9.595000744E-1
2.375967673E1,4.037361145E-1,-1.422601342E0,-2.032776177E-2
2.381167009E1,-1.721464157E0,1.747789264E0,-7.680267692E-1
2.386366365E1,-2.309528738E-1,5.517151356E-1,-3.226148605E0
2.391565707E1,-2.306061983E0,1.390433073E0,-2.322679043E0
2.396765003E1,-2.552240610E0,2.962800264E0,-2.637274504E0
2.401964415E1,-2.012846708E0,1.689757109E0,-3.389860392E0
2.407163781E1,-2.346379042E0,2.523588181E0,-3.457055569E0
2.412363113E1,-2.863781929E0,-4.904209673E-1,-2.461956024E0
2.417562436E1,-1.855243564E0,1.699243933E-1,-9.635037184E-1
2.422761778E1,-5.522680283E-1,-6.718478799E-1,1.222782969E0
2.427961108E1,2.064266354E-1,-2.666933775E0,2.979631424E0
2.433160447E1,1.756191730E0,-2.925329924E0,3.807353735E0
2.438359783E1,2.180132389E0,-5.209354877E0,4.492133617E0
2.443559204E1,2.808101892E0,-7.916709900E0,2.909381866E0
2.448758540E1,2.800771236E0,-9.009548187E0,2.093575746E-1
2.453957886E1,6.431953311E-1,-6.582580090E0,-2.688587189E0
2.459157225E1,-4.022593498E0,-1.084182024E0,-4.197424412E0
2.464356821E1,-3.298107147E0,4.747137547E0,-8.969193697E-1
2.469556277E1,3.684693336E0,8.483189583E0,-8.202515543E-2
2.474755626E1,3.557633400E0,-1.867922068E0,3.344318151E0
2.479954952E1,3.133081913E0,-2.866686821E0,1.903897762E0
2.485154278E1,1.274829984E0,-2.534052134E-1,1.465907335E0
2.490353617E1,-1.058064461E0,1.230386496E0,1.411540389E0
2.495552144E1,-2.472217560E0,1.392876625E0,3.712368608E-1
2.500751523E1,-4.266939640E0,2.873614073E0,-2.652847171E-1
2.505950918E1,-5.227830410E0,3.370247364E0,-1.389276743E0
2.511150250E1,-4.375673294E0,2.064217567E0,-2.378267527E0
2.516349596E1,-3.917524576E0,-1.494072556E0,-2.361163378E0
2.521548922E1,-3.185708046E0,6.983228326E-1,-1.298257828E0
2.526748252E1,-1.721464157E0,3.696449518E0,-1.974786818E-1
2.531947594E1,-9.951453209E-1,2.420351982E0,-1.919808984E-1
2.537146920E1,-4.087146521E-1,6.903815866E-1,-2.029764652E-1
2.542346283E1,-3.726736009E-1,3.104234040E-1,-2.781128883E-1
2.547545691E1,-5.052313805E-1,3.366905749E-1,1.091756672E-1
2.552745027E1,-3.671758473E-1,-2.289706320E-1,3.272545338E-1
2.557944360E1,-3.486513346E-2,-4.690406621E-1,6.375740767E-1
2.563143696E1,3.566994965E-1,-2.992201149E-1,6.846107244E-1
2.568343397E1,6.719059348E-1,1.045618057E-1,8.226662874E-1
2.573543217E1,8.588307500E-1,2.713280022E-1,8.348836303E-1
2.578742793E1,9.327453971E-1,5.022350550E-1,1.075564504E0
2.583942128E1,1.034149051E0,2.547307871E-3,1.012034535E0
2.589141454E1,1.076298714E0,-4.079541266E-1,1.103664279E0
2.594340797E1,1.075687885E0,-4.336104691E-1,9.454501867E-1
2.599540130E1,1.032927394E0,-1.638951525E-2,9.326220155E-1
2.604739456E1,9.400758147E-1,1.467114985E-1,8.929157853E-1
2.609938848E1,8.576090336E-1,1.479332447E-1,8.037294149E-1
2.615138223E1,9.003695846E-1,2.087326534E-2,7.603580356E-1
2.620337559E1,1.050642490E0,-6.004805677E-3,1.109772921E0
2.625536898E1,1.546665072E0,-8.728225827E-1,1.332127929E0
2.630736234E1,2.085448265E0,-1.813555002E0,1.766453147E0
2.635935564E1,2.539931774E0,-2.205730438E0,9.882107377E-1
2.641134913E1,2.010311842E0,-1.249115586E0,4.030018747E-1
2.646334229E1,1.425102830E0,-9.998825788E-1,-5.230698586E-1
2.651533634E1,6.847341061E-1,2.609432936E-1,-1.026422858E0
2.656733000E1,-5.424941182E-1,1.720911264E0,-8.333894014E-1
2.661932336E1,-2.664029121E0,-5.253948212E0,-1.659279227E0
2.667131665E1,-5.010362625E0,1.463736892E0,-9.974024445E-2
2.672331001E1,-4.897963524E0,3.624367476E0,-3.424068928E0
2.677530680E1,-4.104449272E0,5.716580868E0,-3.196827173E0
2.682730515E1,-2.762989283E0,2.417297602E0,-3.202935696E0
2.687930004E1,-1.547978401E0,9.927598834E-1,-1.255497336E0
2.693129333E1,1.984854043E-1,-1.453755498E0,1.095723033E0
2.698328676E1,1.309038401E0,-2.207563162E0,2.743226528E0
2.703528009E1,2.216173410E0,-3.969298601E0,3.542849064E0
2.708727338E1,2.973646164E0,-5.718205452E0,3.242914200E0
2.713926681E1,3.318785191E0,-6.849528313E0,2.003468752E0
2.719126053E1,2.466017008E0,-7.673585415E0,-7.692485452E-1
2.724325438E1,3.664733171E-1,-4.816568851E0,-2.245098829E0
2.729524767E1,-2.426402569E0,9.854295254E-1,-2.910331249E0
2.734724110E1,-2.744052410E0,2.205938339E0,-1.540771365E0
2.739923433E1,4.580832481E0,8.379343033E0,2.855014801E0
2.745122772E1,3.858789921E0,-5.310758591E0,1.740796804E0
2.750322114E1,2.981587410E0,-2.216115236E0,6.974388957E-1
2.755521437E1,8.863196373E-1,2.342161179E0,1.551428437E0
2.760720786E1,-4.282623529E-1,1.303079486E0,7.371451259E-1
2.765920201E1,-1.660988450E0,1.491225958E0,1.574340165E-1
2.771119537E1,-2.381198406E0,3.168661833E0,-1.235639900E-1
2.776318873E1,-2.360429287E0,2.471053600E0,-9.360147715E-1
2.781518202E1,-2.262079716E0,2.149738550E0,-9.903817773E-1
2.786717741E1,-2.241921186E0,2.728228092E0,-1.123550415E0
2.791917270E1,-1.871126056E0,2.593226910E0,-9.983230233E-1
2.797116600E1,-1.380601287E0,7.893417478E-1,-1.164478421E0
2.802315942E1,-1.127702951E0,-1.636080295E-1,-1.196854234E0
2.807515268E1,-1.000032187E0,-5.447879434E-1,-1.223732352E0
2.812714601E1,-1.260871649E0,-6.296982169E-1,-1.425928712E0
2.817913947E1,-1.471620202E0,-1.101286173E0,-1.094228864E0
2.823113302E1,-1.652436256E0,-1.973601818E0,-1.104613543E0
2.828312704E1,-1.472841978E0,-2.213671923E0,-4.418247640E-1
2.833512057E1,-1.152137637E0,-1.155653238E0,-3.239277899E-1
2.838711370E1,-5.626527071E-1,2.646085024E-1,1.042887494E-1
2.843910706E1,-3.738953471E-1,1.053846478E0,3.159578145E-2
2.849110042E1,-2.114052027E-1,1.295138240E0,3.953703493E-2
2.854309374E1,-1.655903012E-1,1.063009381E0,1.449155621E-2
2.859508707E1,-8.434522152E-2,6.292950511E-1,1.696513146E-1
2.864708069E1,1.196837798E-1,5.468282700E-1,4.207169414E-1
2.869907478E1,3.066085577E-1,8.076677322E-1,5.954243541E-1
2.875106807E1,7.091687918E-1,7.777352929E-1,9.918760061E-1
2.880306143E1,1.477026343E0,6.134125590E-1,1.474459529E0
2.885505479E1,2.331626654E0,-5.304142833E-2,1.955210447E0
2.890705054E1,3.610167742E0,-7.072781324E-1,2.287521124E0
2.895904940E1,4.861830711E0,-1.953443289E0,1.613125801E0
2.901104479E1,5.481858730E0,-2.787274122E0,2.044706494E-1
2.906303808E1,4.420785904E0,-1.144046783E0,-1.965322733E0
2.911503144E1,2.126376152E0,3.900478601E0,-2.963476658E0
2.916702480E1,1.414718151E0,4.560213089E0,-2.761890888E0
2.921901816E1,1.385396600E0,2.781984091E0,-3.700179815E0
2.927101159E1,1.560104012E0,2.701062858E-1,-2.779605865E0
2.932300485E1,1.210078239E0,1.811319351E0,-1.709370136E0
2.937499870E1,3.597339630E0,2.411799908E0,1.490342021E0
2.942699255E1,-2.088593960E0,5.059289932E0,-7.527551651E-1
2.947898581E1,-1.741011739E0,-5.820219994E0,-1.868195057E0
2.953097911E1,-5.147196293E0,-6.358068585E-1,-1.211205274E-1
2.958297253E1,-2.309727192E0,1.570027590E0,-2.454625845E0
2.963496583E1,-2.376922369E0,1.984194160E0,-1.655614018E0
2.968695918E1,-2.885162354E0,2.004676461E-1,-2.605509520E0
2.973895268E1,-2.618214369E0,3.592925966E-1,-1.749076366E0
2.979094670E1,-2.442285061E0,3.831163645E-1,-8.193394542E-1
2.984294016E1,-2.445339441E0,-7.182736993E-1,-3.960098922E-1
2.989493348E1,-2.182667255E0,-1.127553344E0,8.901711553E-2
2.994692701E1,-1.877845526E0,-2.143422365E0,4.152191579E-1
2.999892156E1,-1.126481295E0,-2.471457005E0,1.058460236E0
3.005091765E1,-4.673577249E-1,-2.145254850E0,1.945436597E0
3.010291105E1,7.386887819E-2,-3.555131912E0,2.936259985E0
3.015490417E1,1.345690250E0,-4.307106972E0,3.234362364E0
3.020689750E1,1.756802559E0,-3.351102829E0,3.449386835E0
3.025889089E1,2.261377335E0,-5.284491062E0,2.404196262E0
3.031088412E1,2.177077770E0,-5.213019848E0,1.043799400E0
3.036287774E1,1.059194565E0,-5.876420021E0,-1.400573552E-1
3.041487143E1,-1.111820579E0,-3.506262779E0,-2.044124365E0
3.046686515E1,-5.521045685E0,-2.183739424E0,-3.965906382E0
3.051885865E1,-5.446520329E0,1.643942237E0,-2.813203573E0
3.057085190E1,-8.972434998E0,-5.609471798E0,-2.709356785E0
3.062284523E1,-7.701484114E-2,7.031774044E0,2.417635441E0
3.067483852E1,2.638479471E-1,-8.154012561E-1,2.238651752E0
3.072683188E1,-5.027878881E-1,7.386399508E-1,-1.849516667E-2
3.077882528E1,-1.743455172E0,2.381256580E0,-3.361450732E-1
3.083081929E1,-1.682368636E0,3.282282829E0,-1.124161243E0
3.088281282E1,-1.012860417E0,1.890731812E0,-1.314140439E0
3.093480621E1,-3.024241030E-1,7.416942716E-1,-6.574602127E-1
3.098679947E1,1.502270401E-1,1.845851392E-1,-4.888614118E-1
3.103879452E1,3.139389455E-1,1.008031487E0,3.465010971E-2
3.109079328E1,3.768580258E-1,5.413304567E-1,3.028199375E-1
3.114279014E1,3.786906302E-1,1.936442801E-3,4.103322327E-1
3.119478390E1,2.705674767E-1,-1.293995827E-1,6.039764881E-1
3.124677719E1,1.373988688E-1,-1.135170907E-1,6.192481518E-1
3.129877062E1,6.673702504E-3,-1.959839016E-1,5.037946105E-1
3.135076411E1,-2.309528738E-1,-2.399661988E-1,5.288400650E-1
3.140275724E1,-2.309528738E-1,-5.912137032E-1,3.040416837E-1
3.145475076E1,-3.109762371E-1,-5.661681890E-1,1.030670181E-1
3.150674488E1,-4.441448450E-1,-2.399661988E-1,-2.001805231E-3
3.155873827E1,-6.744410396E-1,-2.332466692E-1,-1.596050411E-1
3.161073166E1,-7.049843073E-1,-8.825964332E-1,-3.563036621E-1
3.166272495E1,-5.534897447E-1,-1.589978337E0,-4.491551518E-1
3.171471828E1,-6.157979965E-1,-1.533167958E0,-4.589290023E-1
3.176671154E1,-5.944177508E-1,-1.171535611E0,-4.876396656E-1
3.181870497E1,-4.417013824E-1,-3.957368433E-1,-4.070054591E-1
3.187069862E1,-1.900248975E-1,3.275276124E-1,-7.835996151E-2
3.192269247E1,-1.350470334E-1,7.160379291E-1,8.779538423E-2
3.197468603E1,-9.595166147E-2,7.930069566E-1,1.366646141E-1
3.202667926E1,-1.267545391E-3,3.861706853E-1,1.213929728E-1
3.207867268E1,5.920811370E-2,-1.984273493E-1,1.128408611E-1
3.213066741E1,7.570147514E-2,-2.619573474E-1,1.672078669E-1
3.218266626E1,1.202946380E-1,6.485556066E-2,3.235893548E-1
3.223270129E1,1.428966522E-1,3.275276124E-1,3.999475539E-1
3.228469481E1,2.693457603E-1,5.370543599E-1,4.940207899E-1
3.233668814E1,4.935332835E-1,8.815823793E-1,7.805166245E-1
3.238868143E1,1.062859774E0,6.244081259E-1,1.002871513E0
3.244067479E1,1.648068547E0,1.161682457E-1,1.389549136E0
3.249266818E1,2.396989584E0,-3.340394199E-1,1.964984298E0
3.254466151E1,2.982198238E0,-7.836362720E-1,2.036455631E0
3.259665556E1,2.843532085E0,-5.808289647E-1,2.545917273E0
3.264864925E1,2.188073397E0,-1.319975972E0,2.432296038E0
3.270064251E1,8.716588616E-1,2.169610113E-1,2.139691591E0
3.275263570E1,-6.566801458E-4,9.945924878E-1,1.584415317E0
3.280462920E1,-4.508643746E-1,2.413956076E-1,1.101831675E0
3.285662252E1,-5.571548939E-1,-1.003547788E0,4.567579925E-1
3.290861585E1,-8.454833627E-1,-1.129385948E0,1.171169207E-1
3.296060921E1,-1.273088932E0,-1.206965804E0,-4.876396656E-1
3.301260319E1,-2.588892937E0,8.015590310E-1,-1.095450521E0
3.306459678E1,-4.131327629E0,3.391016960E0,-2.141252041E0
3.311659024E1,-4.287708759E0,3.896202326E0,-3.251804829E0
3.316858350E1,-3.504579782E0,3.433777332E0,-3.429566622E0
3.322057753E1,-2.044611931E0,1.518103957E0,-2.467453957E0
3.327257388E1,-1.084942460E0,-1.416168809E-1,-1.725863576E0
3.332456751E1,-4.966792464E-1,-1.139159799E0,-1.675462872E-1
3.337656093E1,4.532161951E-1,-9.620088935E-1,1.051740766E0
3.342855422E1,8.893739581E-1,-1.120223045E0,1.754846692E0
3.348054748E1,5.493205786E-2,-1.092410386E-1,3.016894341E0
3.353254084E1,-3.914118931E-2,1.518103957E0,5.178746700E0
3.358453427E1,1.267499566E0,2.425849915E0,5.159198761E0
3.363652822E1,2.809323549E0,-7.585907578E-1,3.542849064E0
3.368852184E1,1.481913328E0,-3.181893349E0,1.577695727E0
3.374051534E1,1.334694743E0,-2.826980352E0,2.838831246E-1
3.379250863E1,1.825219512E0,-3.360876799E0,1.046853781E0
3.384450186E1,2.118434906E0,-4.585050583E0,7.310364842E-1
3.389649525E1,1.852097631E0,-3.026733398E0,-3.318690360E-1
3.394848861E1,1.312092781E0,-2.236274004E0,-4.051728845E-1
3.400048200E1,2.369698882E-1,-3.321781158E0,-1.769235015E0
3.405247629E1,-1.209558964E0,-3.166621685E0,-2.587794542E0
3.410446958E1,-3.555892229E0,-2.334012270E0,-3.312891245E0
3.415646287E1,-5.070838451E0,7.013771534E-1,-3.490653276E0
3.420845633E1,-5.879012585E0,-2.817817688E0,-1.030698895E0
3.426045022E1,-9.707106948E-1,8.409885406E0,-6.617362499E-1
3.431244887E1,4.440532327E-1,1.717569828E-1,1.571587086E0
3.436444590E1,1.147968546E-1,-9.485698938E-1,6.491805315E-1
3.441643959E1,-7.165907621E-1,8.968539834E-1,1.446058452E-1
3.446843292E1,-1.392818570E0,2.341550350E0,-3.117104769E-1
3.452042628E1,-1.028132081E0,1.243214607E0,-6.507407427E-1
3.457241970E1,-7.483556867E-1,7.734592557E-1,-5.328437090E-1
3.462441293E1,-2.541657686E-1,7.722374797E-1,-1.055391878E-2
3.467640625E1,-9.411906451E-2,4.216008484E-1,-5.514708161E-2
3.472839978E1,-1.267545391E-3,6.726664901E-1,3.950605989E-1
3.478039386E1,1.624443382E-1,-1.700037904E-2,3.419153094E-1
3.483238729E1,-9.778425843E-2,2.420064807E-1,5.019620657E-1
3.488438061E1,-2.981480360E-1,1.063944027E-1,4.634775221E-1
3.493637391E1,-3.525150716E-1,-2.033142895E-1,4.610340595E-1
3.498836743E1,-2.902068198E-1,-5.001947880E-1,4.060561955E-1
3.504036069E1,-3.586237133E-1,-3.340394199E-1,2.350139171E-1
3.509235398E1,-3.097544909E-1,-2.008708119E-1,4.198049009E-2
3.514434757E1,-1.619251072E-1,-2.686768472E-1,-1.589941680E-1
3.519634166E1,-1.313818395E-1,-1.605537087E-1,-1.791527271E-1
3.524833492E1,-1.790293306E-1,-3.847412765E-1,-3.807382584E-1
3.530032848E1,-2.688265145E-1,-7.506495118E-1,-6.733427048E-1
3.535232197E1,-4.966792464E-1,-1.311423779E0,-9.885491729E-1
3.540431819E1,-8.161618114E-1,-1.413438320E0,-1.022146821E0
3.545631232E1,-7.587404847E-1,-1.544163465E0,-8.804260492E-1
3.550830565E1,-6.170197129E-1,-1.321808577E0,-7.307640314E-1
3.556029897E1,-4.227645695E-1,-1.251235306E-1,-3.544710279E-1
3.561229230E1,-2.028530687E-1,7.129836082E-1,-1.431116760E-1
3.566428566E1,-1.592831127E-2,8.766955137E-1,-7.286217809E-2
3.571627902E1,1.123533919E-1,7.258117795E-1,-4.170804471E-2
3.576827247E1,2.058157623E-1,4.435920119E-1,7.557807863E-2
3.582026663E1,2.888934314E-1,2.859887779E-1,2.344030440E-1
3.587225998E1,3.884644806E-1,3.275276124E-1,4.066670537E-1
3.592425324E1,5.362938643E-1,5.865345001E-1,5.031837225E-1
3.597624670E1,6.352540255E-1,1.064231038E0,7.114888430E-1
3.602823996E1,8.484460115E-1,8.974649310E-1,8.831419349E-1
3.608023329E1,1.079352975E0,1.143356487E-1,1.039523482E0
3.613222675E1,1.185643673E0,-5.976094678E-2,9.949303269E-1
3.618422040E1,1.005438328E0,2.847670615E-1,9.949303269E-1
3.623621432E1,6.615212560E-1,8.528717160E-1,5.667137504E-1
3.628820775E1,4.758182168E-1,1.366609335E0,1.189495176E-1
3.634020098E1,1.459509730E-1,1.524212599E0,1.665969938E-1
3.639219460E1,-2.059074044E-1,1.511384487E0,6.885856390E-2
3.644419275E1,-1.045037657E-1,5.431630015E-1,-8.938650489E-1
3.649619028E1,1.502270401E-1,3.904467523E-1,-1.104002714E0
3.654818434E1,7.238295078E-1,1.621340156E0,-5.352871418E-1
3.660017760E1,1.756802559E0,9.964250326E-1,7.365342975E-1
3.665217116E1,3.173399210E0,-5.166881680E-1,9.301785827E-1
3.670416442E1,3.923541784E0,5.874691159E-2,5.282292366E-1
3.675615781E1,3.138579845E0,2.045891523E0,2.429551482E-1
3.680815107E1,2.112936974E0,2.091095686E0,5.422791243E-1
3.686014436E1,1.112339854E0,-3.163243532E-1,9.515588284E-1
3.691213845E1,-1.106124297E-1,-3.147684813E0,1.872132778E0
3.696413234E1,-5.241681933E-1,-3.939042389E-1,-1.806497693E0
3.701612520E1,-1.542480588E0,1.003144622E0,-3.159865439E-1
3.706811876E1,-2.177169323E0,1.658603072E0,-2.017857075E0
3.712011211E1,-3.297496319E0,1.058733225E0,-2.362385035E0
3.717210574E1,-3.831392527E0,9.121256471E-1,-2.071613312E0
3.722409893E1,-3.585213900E0,3.098125160E-1,-9.732775092E-1
3.727609209E1,-2.078820229E0,-1.207576752E0,5.380030274E-1
3.732808634E1,-6.829931736E-1,-3.456458747E-1,1.982699394E0
3.738007973E1,3.909079432E-1,-2.062177181E0,3.109134912E0
3.743207306E1,1.853319287E0,-2.868519306E0,4.230072975E0
3.748406662E1,2.839866638E0,-4.154390812E0,4.663786888E0
3.753606267E1,2.965704918E0,-4.715775967E0,3.970454931E0
3.758805717E1,2.186851740E0,-4.090860367E0,2.399920464E0
3.764005046E1,8.331743479E-1,-3.089041710E0,3.803998530E-1
3.769204372E1,-1.073336005E0,-1.535000443E0,-1.044137955E0
3.774403714E1,-3.958452702E0,-1.674277782E0,-2.901778936E0
3.779603054E1,-5.240658760E0,-3.776979819E-2,-3.929254293E0
3.784802380E1,-8.993204117E0,-4.993108749E0,-7.869636416E-1
3.790001709E1,2.607936263E-1,3.957288742E0,-2.200807035E-1
3.795201108E1,4.752073288E-1,-7.152193785E-1,2.552636623E0
3.800400487E1,-7.300297618E-1,7.826222777E-1,9.540023208E-1
3.805599829E1,-1.853410959E0,1.324459672E0,5.838180184E-1
3.810799139E1,-1.950538516E0,2.124693155E0,2.771635950E-1
3.815998488E1,-1.508882880E0,1.664711714E0,1.989728510E-1
3.821197824E1,-7.306406498E-1,3.806728721E-1,1.782034487E-1
3.826397170E1,-3.531259298E-1,4.533658326E-1,3.254219592E-1
3.831596506E1,-1.490969360E-1,8.931888342E-1,1.775925756E-1
3.836795901E1,1.251815557E-1,3.977771401E-1,2.460094839E-1
3.841995263E1,2.510198057E-1,-6.669610143E-1,1.782034487E-1
3.847194586E1,2.546849847E-1,-5.796073079E-1,1.788143069E-1
3.852393929E1,2.901151776E-1,-1.086301655E-1,1.928642094E-1
3.857593637E1,1.367879957E-1,2.560563982E-1,2.490638196E-1
3.862793453E1,-2.386956103E-2,1.992459148E-1,1.476601809E-1
3.867993012E1,2.377793007E-2,-5.915008113E-2,-2.765814587E-2
3.873192375E1,-1.348484959E-2,-7.503257692E-2,-2.860541344E-1
3.878391678E1,3.966042772E-2,1.070052609E-1,-3.477515280E-1
3.883591024E1,-1.026711762E-1,2.835453153E-1,-4.308291972E-1
3.888790346E1,-2.523331642E-1,2.236805260E-1,-4.693137109E-1
3.893989689E1,-3.048675954E-1,8.045095019E-3,-6.195865273E-1
3.899189048E1,-3.488498926E-1,-2.979983687E-1,-7.301532030E-1
3.904388443E1,-3.971082270E-1,-5.344032645E-1,-7.545877695E-1
3.909587786E1,-4.300949275E-1,-6.070961952E-1,-6.177539825E-1
3.914787125E1,-3.409086168E-1,-5.447879434E-1,-3.960098922E-1
3.919986444E1,-2.022422254E-1,-5.487402529E-2,-1.858722419E-1
3.925185793E1,-4.830417037E-2,4.338181615E-1,4.259135947E-2
3.930385119E1,5.615378916E-2,5.792040825E-1,1.574340165E-1
3.935584459E1,1.942093372E-1,4.442028701E-1,2.099684328E-1
3.940783834E1,2.357481718E-1,2.493368685E-1,2.356247753E-1
3.945983223E1,2.571284473E-1,9.234450012E-2,3.107612133E-1
3.951182549E1,2.455220222E-1,4.252660573E-1,4.298799038E-1
3.956185663E1,1.978745311E-1,1.069118023E0,5.435008407E-1
3.961384995E1,2.620153725E-1,1.260929704E0,7.591363192E-1
3.966584681E1,4.745964706E-1,1.913046688E-1,8.910831809E-1
3.971784519E1,1.251617074E0,-3.322068453E-1,1.023030043E0
3.976983999E1,2.345065832E0,5.260588527E-1,1.771340013E0
3.982183338E1,3.313898087E0,-9.213680029E-2,1.820820093E0
3.987382657E1,3.659037113E0,-5.618921518E-1,1.792720318E0
3.992582003E1,3.255866051E0,-9.687284827E-1,1.749348879E0
3.997781342E1,2.365835190E0,-9.815565944E-1,9.075765610E-1
4.002980662E1,1.061027050E0,7.496355176E-1,5.538855791E-1
4.008180011E1,2.583501935E-1,1.272536159E0,-1.956460923E-1
4.013379393E1,-3.183066249E-1,1.039796472E0,-1.320859909E0
4.018578765E1,-1.263926029E0,2.615828753E0,-1.339185834E0
4.023778098E1,-1.646938443E0,2.287794113E0,-1.096061349E0
4.028977427E1,-1.172907114E0,-2.310799360E0,-3.998893023E0
4.034176766E1,-3.211364508E0,1.031855226E0,-2.212112188E0
4.039376102E1,-3.375687361E0,1.617675066E0,-2.800986290E0
4.044575438E1,-2.006127357E0,7.618528008E-1,-2.477838516E0
4.049774784E1,-6.591694355E-1,8.745758235E-2,-1.675462872E-1
4.054974199E1,4.642117620E-1,-1.398777604E0,1.511722326E0
4.060173542E1,1.725037575E0,-1.666336536E0,2.762163401E0
4.065372871E1,2.440360785E0,-2.404872656E0,4.239846706E0
4.070572207E1,3.271748543E0,-5.211798191E0,3.720000267E0
4.075771752E1,3.653539419E0,-4.940574169E0,2.602727652E0
4.080971272E1,2.684096098E0,-3.458004475E0,1.446359754E0
4.086170604E1,8.893739581E-1,-1.866700292E0,4.671427011E-1
4.091369940E1,-1.549810886E0,-2.125096321E0,-1.727085233E0
4.096569283E1,-5.493556976E0,-9.070310593E-1,-3.245085478E0
4.101768612E1,-5.399483681E0,1.339120507E0,-3.543798685E0
4.106967945E1,-5.548534870E0,-2.406705379E0,-2.034961224E0
4.112167270E1,8.307309151E-1,4.862591267E0,1.391381860E0
4.117366676E1,-3.244152665E-1,1.384935260E0,1.468350887E0
4.122566048E1,-8.827461004E-1,1.380659342E0,6.375740767E-1
4.127765381E1,-1.610286593E0,-1.587211192E-1,-9.152453542E-1
4.132964710E1,-1.874791265E0,1.207173586E0,-7.521443367E-1
4.138164049E1,-1.534539342E0,1.753897905E0,-8.511044979E-1
4.143363372E1,-9.358913302E-1,9.371711612E-1,-5.804911852E-1
4.148562728E1,-3.506824672E-1,-2.027034163E-1,-2.280219495E-1
4.153762047E1,-2.297311425E-1,-4.510018229E-2,-7.041871548E-2
4.158961469E1,1.862680763E-1,5.996863917E-2,1.837012321E-1
4.164160801E1,2.992781699E-1,-9.702372551E-2,2.508963943E-1
4.169360141E1,3.127171993E-1,-7.564344257E-2,5.001294017E-1
4.174559480E1,3.322649002E-1,-2.925006151E-1,3.675716519E-1
4.179759062E1,2.253634632E-1,3.981008753E-2,4.512601793E-1
4.184958918E1,1.276250184E-1,-5.609575659E-2,3.797889650E-1
4.190158560E1,-3.791946173E-2,-1.324539185E-1,3.327523470E-1
4.195357906E1,-1.106124297E-1,-2.308032215E-1,2.545616031E-1
4.200557249E1,-1.924683750E-1,-2.088120729E-1,1.708730608E-1
4.205756578E1,-1.814727932E-1,-9.580199420E-2,-2.277122252E-2
4.210955914E1,-2.376723886E-1,1.002857462E-1,-1.052380279E-1
4.216155250E1,-2.327854782E-1,8.929017931E-2,-1.473877430E-1
4.221354619E1,-2.236225009E-1,1.232115179E-2,-2.121394575E-1
4.226554011E1,-2.303420156E-1,2.514932305E-2,-2.243567556E-1
4.231753353E1,-1.173319370E-1,-6.770219654E-2,-2.439044565E-1
4.236952682E1,-5.380195752E-2,-1.568885148E-1,-2.213024348E-1
4.242152015E1,9.117163718E-3,-1.422277540E-1,-1.797636002E-1
4.247351351E1,-1.226312015E-2,8.134892583E-2,-7.897082716E-2
4.252550680E1,-2.142609842E-2,8.990103751E-2,7.161173504E-3
4.257750013E1,-3.608686477E-2,-1.330647767E-1,4.259135947E-2
4.262949398E1,-3.486513346E-2,-1.202366054E-1,9.023884684E-2
4.268148784E1,-3.730859235E-2,-4.082412273E-2,1.525471061E-1
4.273348110E1,-4.952589795E-2,-2.127643675E-2,2.215748727E-1
4.278547459E1,1.217149012E-2,1.094487235E-1,2.875483036E-1
4.283746782E1,8.181012422E-2,4.527550042E-1,4.225495160E-1
4.288946340E1,1.942093372E-1,2.658302188E-1,6.290220022E-1
4.294146249E1,4.397771657E-1,-5.869376659E-1,9.094091058E-1
4.299345805E1,1.280327797E0,-6.669610143E-1,1.467129111E0
4.304545111E1,2.681652546E0,-9.271895885E-1,2.094487906E0
4.309744460E1,3.598561287E0,-1.015765071E0,2.242928028E0
4.314943786E1,3.840463877E0,-1.727423072E0,1.847698092E0
4.320143115E1,3.439736366E0,-1.173368335E0,8.361052871E-1
4.325342455E1,2.495338678E0,2.114632279E-1,6.730042696E-1
4.330541787E1,1.692050934E0,2.725497484E-1,1.837012321E-1
4.335741209E1,9.687864184E-1,-3.303742409E-1,7.682992816E-1
4.340940558E1,-3.134196699E-1,7.612419724E-1,1.332127929E0
4.346139884E1,-7.159798741E-1,2.695852280E0,3.132958651E0
4.351339217E1,-9.193980098E-1,-1.078684211E0,-1.035585761E0
4.356538549E1,-2.610272884E0,1.572470903E0,-3.446972072E-1
4.361737889E1,-2.593168736E0,2.621326685E0,-1.385611534E0
4.366937218E1,-1.932823539E0,2.095371485E0,-1.399661541E0
4.372136570E1,-5.095074177E-1,5.266696811E-1,1.165060475E-1
4.377336009E1,1.321866632E0,-2.895397425E0,1.112216473E0
4.382535321E1,2.626674891E0,-2.954040527E0,1.494007230E0
4.387734674E1,2.900342226E0,-3.771989107E0,1.376110196E0
4.392933990E1,2.381106853E0,-3.129969835E0,1.655275583E0
4.398133456E1,1.090348601E0,-1.510565877E0,1.944214821E0
4.403333045E1,5.271309018E-1,-2.869130135E0,6.992715001E-1
4.408532397E1,-2.181247175E-1,-4.641250610E0,-1.934779406E0
4.413731720E1,-3.173490763E0,-3.493110538E-1,-4.468037605E0
4.418931063E1,-3.171047449E0,2.838183880E0,-2.964087486E0
4.424130398E1,2.371943951E0,7.783137798E0,-1.082622409E0
4.429329734E1,2.830092669E0,-1.789731264E0,3.356535435E0
4.434529080E1,3.085434675E0,-4.273509502E0,5.880939960E-1
4.439728492E1,1.345079422E0,1.333011866E0,9.314002395E-1
4.444927838E1,-3.616780341E-1,2.084986925E0,1.082284093E0
4.450127157E1,-1.985357881E0,1.431361079E0,2.698332071E-1
4.455326496E1,-3.932185411E0,1.189458489E0,-1.266183108E-1
4.460525826E1,-5.646884441E0,1.524212599E0,-4.815310240E-1
4.465725152E1,-6.067770481E0,2.206549168E0,-1.998920321E0
4.470924491E1,-5.668264866E0,3.757859766E-1,-2.622002840E0
4.476123870E1,-5.043349266E0,-1.238119960E0,-3.196216106E0
4.481323262E1,-4.560765743E0,1.896840453E0,-1.589029670E0
4.486522598E1,-3.815510273E0,3.819233418E0,-1.102781057E0
4.491721924E1,-2.618214369E0,2.485103846E0,-1.796113014E0
4.496921250E1,-1.528430700E0,-4.937623441E-2,-1.777787089E0
4.502120735E1,-8.839678168E-1,-1.325473785E0,-1.201741099E0
4.507320634E1,-3.213609457E-1,-6.632958651E-1,-5.041330457E-1
4.512520253E1,2.943912446E-1,1.137247831E-1,7.069116086E-2
4.517719619E1,7.287164330E-1,2.065762877E-1,4.530928135E-1
4.522918932E1,1.076298714E0,2.029111087E-1,7.078236341E-1
4.528118264E1,1.444650531E0,4.442028701E-1,1.188574553E0
4.533317600E1,1.850875854E0,7.685723305E-1,1.794552803E0
4.538516936E1,2.128208637E0,1.142421842E0,2.186728239E0
4.543716269E1,2.089724064E0,1.341563940E0,2.322340250E0
4.548915625E1,1.797119737E0,6.854946017E-1,2.297905684E0
4.554115050E1,1.513678193E0,-4.754364118E-2,2.009577274E0
4.559314366E1,1.006049275E0,-7.442171127E-2,1.687040687E0
4.564513695E1,6.847341061E-1,-7.139976025E-1,1.211787462E0
4.569713035E1,6.218150258E-1,-5.069143176E-1,8.061729074E-1
4.574912370E1,5.821087360E-1,6.274624467E-1,8.202228546E-1
4.580111700E1,7.103904486E-1,4.173248112E-1,8.904722929E-1
4.585311032E1,8.655502200E-1,4.958393052E-2,1.099388242E0
4.590510421E1,1.082407355E0,-4.082412273E-2,1.401766539E0
4.595709803E1,1.265056133E0,-4.030672014E-1,1.443305373E0
4.600909146E1,1.285825610E0,-5.337923765E-1,1.363281965E0
4.606108472E1,1.125167966E0,-1.532233208E-1,1.342512608E0
4.611307874E1,9.706190825E-1,-2.216402441E-1,6.424610019E-1
4.616507513E1,6.120411158E-1,-5.924354196E-1,2.722766995E-1
4.621706876E1,-5.258022621E-2,-1.627852082E0,-4.796984196E-1
4.626906205E1,-9.523847103E-1,-1.506289840E0,-9.347930551E-1
4.632105534E1,-2.112417698E0,3.001895666E0,-2.872758806E-1
4.637304870E1,-2.122802496E0,2.993343592E0,-1.154704452E0
4.642504209E1,-3.762364864E0,2.957302570E0,-3.440863490E-1
4.647703535E1,-3.001837730E0,4.014423192E-1,-2.109486818E0
4.652902914E1,-2.521697521E0,2.059330463E0,-1.740524292E0
4.658102317E1,-1.621282220E0,4.454246163E-1,-1.385000706E0
4.663301639E1,-9.126784801E-1,8.644781709E-1,-9.427342415E-1
4.668500968E1,-1.643685549E-1,6.054713130E-1,6.901085377E-1
4.673700304E1,1.061027050E0,-2.668442726E-1,1.285091281E0
4.678899644E1,1.514289141E0,-1.513620257E0,2.304625273E0
4.684099244E1,2.175856113E0,-3.803143024E0,2.615555763E0
4.689298597E1,2.457465172E0,-2.760396242E0,2.445735455E0
4.694497992E1,2.934550762E0,-4.587494373E0,2.013853550E0
4.699697338E1,2.794051647E0,-4.644915581E0,1.521496058E0
4.704896670E1,2.105606794E0,-4.068869591E0,9.039113522E-1
4.710096023E1,1.392726898E0,-4.377967358E0,-4.292977601E-2
4.715295422E1,7.910246849E-1,-5.311980247E0,-1.792447925E0
4.720495291E1,-2.157011032E0,-2.721300840E0,-3.388027906E0
4.725694979E1,-1.987801313E0,2.581009626E0,-5.067907333E0
4.730894362E1,-4.372008324E0,4.516230583E0,-1.089032218E-1
4.736093681E1,2.207010269E0,2.020846128E0,2.787209034E0
4.741293017E1,2.770227909E0,-4.269233227E0,1.799439788E0
4.746492343E1,1.513678193E0,1.017805338E0,1.264932752E0
4.751691682E1,1.117425263E-1,1.308577180E0,1.137261868E0
4.756891015E1,-1.085553288E0,4.973481297E-1,3.675716519E-1
4.762090354E1,-2.285292625E0,-5.386793017E-1,-3.129322231E-1
4.767289750E1,-3.538788080E0,4.753569961E-1,-1.003209949E0
4.772489119E1,-4.122775555E0,2.137521267E0,-1.798556566E0
4.777688451E1,-3.965172052E0,2.333609104E0,-2.517544985E0
4.782887781E1,-3.350030661E0,-4.837014079E-1,-3.384973526E0
4.788087120E1,-3.632861376E0,-2.274758339E0,-3.342823744E0
4.793286449E1,-3.679287195E0,9.554970860E-1,-1.983037829E0
4.798485775E1,-3.642024517E0,3.169272661E0,-1.137600303E0
4.803685151E1,-3.026883125E0,2.559629202E0,-1.361176968E0
4.808884559E1,-2.210767031E0,7.911742926E-1,-1.738691688E0
4.814083882E1,-1.547367454E0,-7.103324533E-1,-1.147984982E0
4.819283218E1,-8.485376835E-1,-1.790342212E0,-4.198336303E-1
4.824482587E1,-3.793931305E-1,-1.519728899E0,1.299450845E-1
4.829682219E1,-1.715004072E-2,-9.626197219E-1,3.975040615E-1
4.834881625E1,3.176041245E-1,-5.191316009E-1,4.445406795E-1
4.840080954E1,5.595067739E-1,-2.308032215E-1,4.359885752E-1
4.845280290E1,7.036709785E-1,7.829460502E-2,4.182734787E-1
4.850479620E1,7.610923052E-1,4.106052816E-1,4.952425063E-1
4.855678952E1,7.537618876E-1,6.940467358E-1,7.175974846E-1
4.860878288E1,8.710480332E-1,8.149980903E-1,1.228280783E0
4.866077650E1,1.177091599E0,2.902648449E-1,1.536767721E0
4.871277056E1,1.387229085E0,3.476861715E-1,1.867856741E0
4.876476388E1,1.525284648E0,3.672338426E-1,1.954599619E0
4.881675718E1,1.378677011E0,4.130487740E-1,1.828150511E0
4.886875057E1,1.234512806E0,1.051726714E-1,1.659551620E0
4.892074379E1,9.596234560E-1,2.059654444E-1,1.459187865E0
4.897273725E1,8.307309151E-1,-2.558487058E-1,1.258213162E0
4.902473058E1,8.362287283E-1,-2.515726388E-1,1.155587912E0
4.907672410E1,1.109896421E0,3.736662492E-2,1.039523482E0
4.912871822E1,1.745807052E0,4.894069135E-1,1.186741948E0
4.918071158E1,2.597964048E0,-1.269561201E-1,9.595000744E-1
4.923270487E1,3.144688368E0,-7.549256086E-1,9.161286354E-1
4.928469846E1,3.113534451E0,-7.958535552E-1,6.412393451E-1
4.933669668E1,2.458076000E0,-1.868209243E-1,1.928642094E-1
4.938869434E1,1.547275901E0,3.431230038E-2,-7.551986575E-1
4.944068927E1,4.397771657E-1,1.559031963E0,-1.270158052E0
4.949268256E1,-5.620418787E-1,3.194318056E0,-1.456471920E0
4.954467589E1,-3.775605559E-1,1.086833119E0,-1.909734011E0
4.959666925E1,1.101955056E0,-2.905782223E0,-5.472300529E0
4.964866261E1,-1.496665597E0,1.909668565E0,-1.819325924E0
4.970065593E1,-1.369605660E0,1.583179533E-1,-3.295176268E0
4.975264999E1,-1.528430700E0,-6.913956404E-1,-2.884063959E0
4.980464361E1,-1.808206916E0,3.379123211E-1,-1.559097290E0
4.985663690E1,-1.436190009E0,-3.749673963E-1,-6.250843406E-1
4.990863023E1,-1.233993649E0,4.191574156E-1,3.773455322E-1
4.996062362E1,-1.127702951E0,-1.126331687E0,1.321743131E0
5.001261688E1,-5.412724018E-1,-2.484285116E0,1.961319089E0
5.006461021E1,-3.531259298E-1,-1.600363016E0,2.548971415E0
5.011660377E1,7.570147514E-2,-2.505665302E0,2.813476086E0
5.016859782E1,6.468604803E-1,-3.215490818E0,2.816530466E0
5.022059124E1,9.095325470E-1,-2.133037567E0,2.832412958E0
5.027258460E1,9.706190825E-1,-2.980307579E0,2.516595602E0
5.032457789E1,1.007881880E0,-2.748178959E0,2.541030169E0
5.037657155E1,7.574270368E-1,-2.122652769E0,2.251479864E0
5.042856957E1,1.035370708E0,-3.158680439E0,1.931997538E0
5.048056709E1,1.225349903E0,-3.390198231E0,1.134818316E0
5.053256125E1,9.131977558E-1,-3.962579012E0,-7.408390939E-2
5.058455468E1,-4.087146521E-1,-4.557561398E0,-1.910344839E0
5.063654797E1,-2.762378454E0,-1.545996070E0,-3.923756599E0
5.068854126E1,-1.397094607E0,2.318337440E0,-3.961630344E0
5.074053462E1,-9.688780904E-1,-4.365139008E0,-3.333660841E0
5.079252815E1,1.245706975E-1,1.056562901E1,3.145175934E0
5.084452128E1,1.040257692E0,-1.373732090E0,2.529423714E0
5.089651546E1,1.215576053E0,-4.939963341E0,6.577326655E-1
5.094850895E1,7.142541558E-2,-2.138535500E0,6.088634729E-1
5.100050224E1,-1.714744449E0,8.711977005E-1,1.039523482E0
5.105249570E1,-2.597444773E0,2.182114601E0,-7.530563325E-2
5.110448896E1,-2.824686766E0,2.463723421E0,-7.521443367E-1
5.115648229E1,-2.543688774E0,1.708083153E0,-1.458915353E0
5.120847565E1,-2.296899080E0,1.127150297E0,-1.525499701E0
5.126046901E1,-2.069657326E0,1.329346657E0,-1.329411983E0
5.131246326E1,-1.728794456E0,1.220001698E0,-1.138211131E0
5.136445675E1,-1.293247581E0,7.691831589E-1,-9.995447397E-1
5.141644994E1,-1.100214124E0,9.561079741E-1,-9.775536060E-1
5.146844363E1,-9.450542927E-1,1.011085868E0,-6.201974750E-1
5.152043989E1,-5.840329528E-1,-1.501690000E-1,-4.314400554E-1
5.157243395E1,-3.806148767E-1,-5.637248158E-1,-5.514708161E-2
5.162442747E1,-4.209319651E-1,-4.268909693E-1,3.724585772E-1
5.167642060E1,-4.123798609E-1,-3.981803060E-1,5.447226167E-1
5.172841406E1,-1.680337489E-1,-4.696515203E-1,4.958533645E-1
5.178040729E1,-2.264782973E-2,-5.557835102E-1,4.036127329E-1
5.183240071E1,-1.776090637E-2,-4.122301936E-1,2.728875279E-1
5.188439424E1,-7.701484114E-2,-7.930862904E-2,2.069141120E-1
5.193638829E1,-5.502368510E-2,3.858835623E-2,1.519362330E-1
5.198838175E1,-2.997821197E-2,-1.110736281E-1,8.779538423E-2
5.204037504E1,-1.344361752E-1,2.392759174E-2,9.146057814E-2
5.209236860E1,-1.784184724E-1,6.852075458E-2,1.110082641E-1
5.214436176E1,-2.456136495E-1,1.485441029E-1,1.543796957E-1
5.219635532E1,-2.315637320E-1,2.029111087E-1,1.806468964E-1
5.224834835E1,-2.138486505E-1,6.011952758E-1,1.806468964E-1
5.230034204E1,-9.289733320E-2,9.652709365E-1,3.553543687E-1
5.235233609E1,-6.724099070E-2,5.712628961E-1,5.190662146E-1
5.240432932E1,3.294090554E-2,-3.334285915E-1,4.805817306E-1
5.245632278E1,3.566994965E-1,1.253312230E-1,7.438646555E-1
5.250831610E1,5.081940889E-1,2.872105241E-1,5.050163865E-1
5.256031325E1,2.589610517E-1,6.598383188E-1,5.318943858E-1
5.261231145E1,-5.319108814E-2,5.010133386E-1,4.927990437E-1
5.266430724E1,-3.922213018E-1,4.551984668E-1,3.388609886E-1
5.271630046E1,-7.074277997E-1,2.670519650E-1,-1.064597592E-1
5.276829379E1,1.050230116E-1,2.111254215E0,-1.904236197E0
5.282028715E1,1.818500042E0,5.052570343E0,-4.228879809E-1
5.287228048E1,3.921709061E0,-5.722768903E-1,2.502855361E-1
5.292427383E1,3.707906246E0,-1.038977861E0,1.407875180E0
5.297626795E1,3.837409735E0,-3.981803060E-1,1.606406331E0
5.302826148E1,2.729910851E0,8.803606629E-1,2.112813711E0
5.308025504E1,1.102565885E0,-6.571871042E-1,1.732855439E0
5.313224823E1,-7.960032225E-1,-1.486131310E0,1.005314946E0
5.318424142E1,-2.538801670E0,2.035219669E-1,-1.005653381E0
5.323623488E1,6.062837783E-3,2.501596928E0,-2.990965366E0
5.328822827E1,-1.173517942E0,1.296970725E0,-1.978761673E0
5.334022143E1,-1.679925323E0,5.926431417E-1,-2.632387400E0
5.339221552E1,-1.498498321E0,-1.002936840E0,-2.199284077E0
5.344420914E1,-2.192441225E0,2.576018684E-2,-1.632401109E0
5.349620244E1,-2.345157385E0,7.441377044E-1,-4.906939864E-1
5.354819589E1,-9.316152930E-1,-1.100064397E0,5.612159371E-1
5.360018919E1,-7.376197726E-3,-8.404467106E-1,2.421911478E0
5.365218611E1,1.040257692E0,-2.561254263E0,4.011993885E0
5.370418436E1,1.919292688E0,-3.231373310E0,4.911187649E0
5.375617929E1,2.856971025E0,-4.429280281E0,4.369349957E0
5.380817271E1,3.107425690E0,-4.572833538E0,2.853182316E0
5.386016577E1,2.188684225E0,-2.650440454E0,1.679099321E0
5.391215920E1,2.956129909E-1,-1.450090170E0,2.515072823E-1
5.396415263E1,-2.168006659E0,-1.029204130E0,-1.364231348E0
5.401614588E1,-4.742803574E0,-4.232257605E-1,-2.541368723E0
5.406813948E1,-5.948651314E0,-6.345851421E-1,-2.350167751E0
5.411814160E1,-6.899768353E0,-3.519090891E0,-9.158561826E-1
5.417013486E1,1.662118554E0,7.887309194E-1,-8.950867653E-1
5.422212825E1,5.546197891E-1,2.052611113E0,2.297905684E0
5.427412151E1,-6.756627560E-1,2.617050648E0,1.754846692E0
5.432611490E1,-1.560806513E0,2.049556732E0,4.341559708E-1
5.437810823E1,-1.924271345E0,2.015959024E0,-3.379776776E-1
5.443010162E1,-1.659155726E0,1.929216266E0,-7.325966358E-1
5.448209505E1,-9.016829133E-1,1.372107148E0,-4.998570085E-1
5.453408923E1,-9.900598228E-2,9.054061174E-1,-3.520275950E-1
5.458608256E1,1.373988688E-1,1.232218981E0,-4.537323862E-2
5.463807595E1,8.914051205E-2,1.228553891E0,2.783853412E-1
5.469006918E1,3.542560339E-1,-1.055758446E-1,5.386139750E-1
5.474206463E1,5.149135590E-1,-1.137938142E0,5.661028624E-1
5.479405996E1,4.849812090E-1,-1.110449195E0,4.769165218E-1
5.484605322E1,3.780797720E-1,-3.670261502E-1,6.003113389E-1
5.489804661E1,4.434423447E-1,6.668815762E-2,5.441116691E-1
5.495003984E1,3.890753388E-1,2.841562033E-1,3.663499355E-1
5.500203326E1,5.252982974E-1,7.111510038E-1,1.299450845E-1
5.505402679E1,5.778326988E-1,1.259708047E0,-2.970497012E-1
5.510602021E1,8.618850708E-1,1.597516537E0,-5.646086931E-1
5.515801433E1,1.287658095E0,2.937144041E0,-7.319858074E-1
5.521000759E1,1.863704085E0,4.824106216E0,-9.396799207E-1
5.526200095E1,1.910740733E0,4.727589607E0,-4.476236925E-2
5.531399427E1,2.301083565E0,1.863242745E0,2.673897743E-1
5.536598757E1,1.483745813E0,2.061163187E0,5.880939960E-1
5.541798096E1,5.307961106E-1,-1.870976448E0,9.020787477E-1
5.546997428E1,-3.914118931E-2,-3.972963572E0,4.897447228E-1
5.552196797E1,-7.379710078E-1,-4.616816044E0,-1.516637951E-1
5.557396193E1,-1.671373129E0,-3.197775602E0,-5.749934316E-1
5.562595522E1,-2.136852503E0,-1.228957057E0,-5.163503289E-1
5.567794864E1,-1.653047085E0,4.936829507E-1,-4.625942111E-1
5.572994204E1,-1.067227364E0,1.735571980E0,-5.026016012E-2
5.578193779E1,-9.737650156E-1,1.721522093E0,3.883410990E-1
5.583393661E1,-9.658237696E-1,-1.104627624E-1,9.026896358E-1
5.588593200E1,-6.677215695E-1,-1.857537389E0,1.199570179E0
5.593792533E1,-7.579310238E-2,-2.189848185E0,1.239887238E0
5.598991872E1,6.199824214E-1,-9.693393111E-1,1.346177697E0
5.604191188E1,1.147770047E0,-9.152594209E-2,1.687651515E0
5.609390537E1,1.452591777E0,-8.703791499E-1,1.708420873E0
5.614589880E1,1.269332170E0,-4.610994160E-1,1.647945166E0
5.619789199E1,6.328105927E-1,1.291473031E0,1.091446996E0
5.624988601E1,1.819920391E-1,2.704404354E0,3.101503253E-1
5.630187970E1,1.257924289E-1,3.748373032E0,-9.360147715E-1
5.635387296E1,2.064266354E-1,2.249309540E0,-2.684311152E0
5.640586639E1,-3.824474514E-1,2.648815393E0,-3.350765228E0
5.645785971E1,-1.122205377E0,1.988470197E0,-3.763099194E0
5.650985301E1,-2.298731804E0,-5.679110527E0,-7.179668427E0
5.656184633E1,-2.007349014E0,-2.462293863E0,-9.732775092E-1
5.661383966E1,-1.938932180E0,-6.119831800E-1,-1.725863576E0
5.666583391E1,-1.778274536E0,-6.403700262E-2,-1.424096107E0
5.671782733E1,-1.297523618E0,3.916684687E-1,-1.303144813E0
5.676982066E1,-6.793279648E-1,1.055678964E0,-3.929555714E-1
5.682181415E1,8.975137025E-2,2.407847643E-1,5.441116691E-1
5.687380881E1,4.745964706E-1,-2.589030266E-1,1.557537079E0
5.692580483E1,1.253449678E0,-1.784233570E0,2.043174982E0
5.697779829E1,1.878364921E0,-1.461696625E0,2.756054640E0
5.702979142E1,2.879573107E0,-1.745748997E0,3.583777189E0
5.708178481E1,3.706684589E0,-2.481841564E0,4.236181259E0
5.713377804E1,4.180105209E0,-2.414646387E0,4.057808399E0
5.718577133E1,4.498976707E0,-2.010253668E0,3.756041288E0
5.723776479E1,3.873450756E0,-3.007796526E0,3.302778959E0
5.728975861E1,2.797717094E0,-3.775654316E0,2.131139755E0
5.734175247E1,1.557660580E0,-2.349894762E0,1.734077215E0
5.739374572E1,9.052564502E-1,-2.186793804E0,1.034636497E0
5.744573908E1,-3.158631623E-1,-2.316297054E0,-7.203793526E-1
5.749773238E1,-2.444117785E0,-1.480022550E0,-1.962879300E0
5.754972570E1,-4.819772243E0,-3.896281719E-1,-3.382529974E0
5.760171913E1,-5.277310371E0,6.512861848E-1,-3.146125317E0
5.765371235E1,-5.790437698E0,-9.106962085E-1,-2.177293062E0
5.770570644E1,-4.172255516E0,1.603014231E0,-7.918505669E-1
5.775770013E1,-1.543091416E0,5.617009640E0,1.012645364E0
5.780969339E1,-1.273699880E0,2.155847311E0,7.548602223E-1
5.786168672E1,-1.422750950E0,-5.545617938E-1,-8.993628621E-1
5.791368170E1,-2.168006659E0,4.173248112E-1,-8.773717284E-1
5.796568039E1,-1.760559440E0,2.097204447E0,-1.320859909E0
5.801767715E1,-1.089218497E0,1.629281521E0,-9.390690923E-1
5.806967118E1,-5.076748133E-1,1.074615836E0,-4.259423018E-1
5.812166441E1,-1.527621299E-1,5.187284350E-1,-1.605170593E-2
5.817365780E1,1.583668217E-2,3.916684687E-1,8.168672770E-2
5.822565116E1,1.624443382E-1,6.363382936E-2,1.207821146E-1
5.827764448E1,1.355662644E-1,-2.833376229E-1,3.089286089E-1
5.832963794E1,6.470590085E-2,-6.199243665E-1,4.665318429E-1
5.838163209E1,5.859724805E-2,-6.449698210E-1,4.488167465E-1
5.843362545E1,-4.158465192E-2,-5.075252056E-1,3.975040615E-1
5.848561874E1,-1.319927126E-1,-5.881593823E-1,3.321414888E-1
5.853761214E1,-6.235406920E-2,-9.504024386E-1,2.490638196E-1
5.858960550E1,-6.418666989E-2,-8.740442991E-1,1.861446798E-1
5.864159879E1,-1.063363627E-1,-3.004418612E-1,4.381308705E-2
5.869359215E1,-1.863597035E-1,3.568491638E-1,-1.040163040E-1
5.874558600E1,-2.474462390E-1,3.482970297E-1,-2.652847171E-1
5.879757986E1,-2.327854782E-1,-2.005470730E-2,-4.143358469E-1
5.884957332E1,-2.700482607E-1,-2.921768464E-2,-4.796984196E-1
5.890156648E1,-3.054784238E-1,3.470753133E-1,-3.935664296E-1
5.895355977E1,-1.753641367E-1,4.973481297E-1,-3.428646326E-1
5.900555469E1,5.650503444E-4,3.458535671E-1,-2.536782920E-1
5.905755345E1,2.377793007E-2,2.090197653E-1,-2.591760755E-1
5.910954967E1,-1.539838612E-1,5.040676594E-1,-2.066416591E-1
5.916154320E1,-3.146414161E-1,5.572129488E-1,-3.682112321E-2
5.921353662E1,-2.676047981E-1,-8.114122599E-2,1.873664260E-1
5.926552992E1,-1.570381820E-1,-6.895629764E-1,3.657390773E-1
5.931752338E1,-1.466534734E-1,-2.943331897E-1,3.278654218E-1
5.936951653E1,-4.524984211E-2,1.558744758E-1,5.129575729E-1
5.942150986E1,1.459509730E-1,6.241210178E-2,7.548602223E-1
5.947350398E1,3.530342877E-1,-6.403700262E-2,9.405633211E-1
5.952549750E1,5.338504314E-1,-4.885883629E-1,7.884578109E-1
5.957749083E1,4.782616496E-1,1.430463046E-1,7.988425493E-1
5.962948416E1,3.744145930E-1,4.179356694E-1,8.165576458E-1
5.968147755E1,2.149787396E-1,2.493368685E-1,7.835709453E-1
5.973347081E1,-6.907358766E-2,-2.540161014E-1,9.454501867E-1
5.978546420E1,-8.739954233E-2,-1.053027868E0,1.284480333E0
5.983745766E1,3.976274729E-1,-8.129577637E-1,2.114035368E0
5.988945158E1,7.372685671E-1,1.913046688E-1,2.819584608E0
5.994144544E1,7.659791708E-1,-9.168048501E-1,2.669312000E0
5.999343860E1,-2.425593138E-1,1.876394749E-1,2.034012079E0
6.004543195E1,-1.735513926E0,2.888885498E0,9.833238721E-1
6.009742601E1,-2.048887968E0,5.963083506E-1,8.168672770E-2
6.014942253E1,-2.105698347E0,-1.037432477E-1,8.012859821E-1
6.020141583E1,-9.902583361E-1,-9.656741619E-1,2.608225346E0
6.025340925E1,-5.553223491E-1,-2.235052109E0,1.682764530E0
6.030540261E1,-5.449376106E-1,-6.138157248E-1,6.894977093E-1
6.035739587E1,1.099099293E-1,-1.089172717E-2,-3.355342448E-1
6.040938923E1,8.979260921E-1,1.116765499E0,-9.836622477E-1
6.046138256E1,1.169761062E0,1.781997800E0,-7.625290751E-1
6.051337654E1,1.946170926E0,-5.179098248E-1,-1.315362096E0
6.056537023E1,1.731146216E0,1.129593611E0,-6.440211535E-1
6.061736379E1,1.769630909E0,-4.311670363E-1,-2.011438757E-1
6.066935698E1,1.659675002E0,-1.596697927E0,3.364175558E-1
6.072135031E1,1.986487865E0,-2.859356403E0,7.224843502E-1
6.077334370E1,2.032302856E0,-2.928384066E0,8.690920472E-1
6.082533693E1,1.610805750E0,-3.594838142E0,1.054184198E0
6.087733048E1,1.502071738E0,-4.702947617E0,9.338437319E-1
6.092932460E1,1.298653722E0,-4.395071983E0,8.177793622E-1
6.098131796E1,1.024986029E0,-4.910030842E0,5.361704826E-1
6.103331142E1,1.106842041E0,-6.056014061E0,-5.786585808E-1
6.108530462E1,-7.104821205E-1,-4.458601475E0,-2.045346022E0
6.113729867E1,-4.157594681E0,6.806077361E-1,-3.173003197E0
6.118929739E1,-1.625359654E-1,3.973782301E0,-2.908498526E0
6.124129431E1,-6.878800392E-1,4.211408615E0,-3.440863490E-1
6.129328801E1,2.220449448E0,2.314672470E0,2.625940323E0
6.134529000E1,1.765354753E0,-1.666623652E-1,2.994903088E0
6.139728332E1,1.171593785E0,-2.332790613E0,1.451857448E0
6.144927668E1,-2.169029713E-1,-3.224330246E-1,1.202013493E0
6.150127001E1,-2.404411316E0,1.807043195E0,8.978026509E-1
6.155326340E1,-4.844817638E0,3.352532148E0,-3.575253785E-1
6.160525686E1,-6.349379539E0,4.227902412E0,-1.849869132E0
6.165725101E1,-5.725685596E0,2.928591728E0,-3.447892666E0
6.170924440E1,-5.219278336E0,-1.361514807E0,-4.303714752E0
6.176123780E1,-5.963312626E0,-2.150141954E0,-3.103364706E0
6.181323102E1,-5.702472687E0,3.621313095E0,-1.410657048E0
6.186522451E1,-4.180196762E0,4.129552841E0,-1.202352047E0
6.191721787E1,-1.541258812E0,1.179073691E0,-1.080789804E0
6.196921106E1,-9.139001966E-1,-1.724368811E0,-2.658956051E-1
6.202120476E1,-2.315637320E-1,-2.161748409E0,-4.454899728E-1
6.207319874E1,6.712951064E-1,2.855898857E0,-2.268002182E-1
6.212519210E1,1.684109569E0,7.200372696E0,8.556529880E-1
6.217718549E1,2.194182158E0,7.913863182E0,2.237430096E0
6.222917922E1,1.521619558E0,6.981071949E0,3.594772816E0
6.228117544E1,9.339671731E-1,2.987845659E0,2.931983948E0
6.233316943E1,3.725819588E-1,-2.086000919E0,1.607017159E0
6.238516272E1,-2.804329395E-1,-4.520909786E0,1.211176515E0
6.243715618E1,-6.628345847E-1,-4.897202492E0,1.365725517E0
6.248914948E1,-5.406615734E-1,-1.858148217E0,1.406653404E0
6.254114277E1,-7.172015905E-1,1.072172403E0,7.982316613E-1
6.259313613E1,-7.617948055E-1,2.088041306E0,3.742912114E-1
6.264512969E1,-8.955742717E-1,2.255418301E0,7.924327254E-2
6.269712384E1,-1.028742909E0,1.145476222E0,-9.363159537E-2
6.274911707E1,-1.279197574E0,-2.167533040E-1,1.653752774E-1
6.280111049E1,-1.132589936E0,-1.264998078E0,5.997004509E-1
6.285310382E1,-6.341239810E-1,-1.878917575E0,1.129931569E0
6.290509714E1,1.380097419E-1,-1.293097854E0,1.691927433E0
6.295709050E1,9.370214939E-1,-1.752468467E0,2.446957111E0
6.300908383E1,1.863093138E0,-1.977267027E0,3.104248047E0
6.306107752E1,2.574751139E0,-2.532543421E0,3.580722809E0
6.311307157E1,3.015795946E0,-2.583245277E0,2.794539213E0
6.316506480E1,2.275427341E0,-1.341966987E0,1.757900953E0
6.321705812E1,1.477637172E0,-7.903558016E-1,8.535192162E-2
6.326905178E1,2.754544020E-1,3.374523401E0,-6.513515711E-1
6.332105000E1,-4.826293588E-1,3.061149597E0,-6.116453409E-1
6.337304759E1,9.541256428E-1,1.521769166E0,5.603039265E-2
6.342504249E1,-2.062326908E0,-4.501038492E-1,-2.717297792E0
6.347703584E1,-4.011598110E0,1.816206217E0,-2.073445797E0
6.352902914E1,-4.109947205E0,2.020235300E0,-3.412462473E0
6.358102253E1,-2.702513695E0,1.475954175E0,-3.712397099E0
6.363301592E1,-1.478950620E0,1.295749068E0,-2.766777754E0
6.368500928E1,-4.936249256E-1,6.057950482E-2,-1.379502892E0
6.373700320E1,4.116773605E-1,7.001553774E-1,2.820505500E-1
6.378899686E1,9.131977558E-1,-2.496502399E0,1.574030519E0
6.384099015E1,1.907686353E0,-2.075616121E0,1.991251469E0
6.389298351E1,2.269929409E0,-2.692589998E0,2.504989147E0
6.394497687E1,3.188059807E0,-4.358419418E0,2.424965858E0
6.399697013E1,3.626661062E0,-4.949737072E0,2.423744202E0
6.404896349E1,3.850848675E0,-5.663838863E0,1.489731073E0
6.410095701E1,3.217381239E0,-4.353532791E0,8.898614645E-1
6.415295107E1,1.756191730E0,-4.060928345E0,-2.286328077E-1
6.420494452E1,2.998889983E-1,-4.666906834E0,-1.223732352E0
6.425693785E1,-2.599888086E0,-1.542330980E0,-2.300687790E0
6.430893124E1,-2.589503765E0,1.610344648E0,-4.062423229E0
6.436092473E1,-1.271256328E0,6.861055493E-1,-1.442422032E0
6.441292285E1,2.203956127E0,9.188738823E0,2.613723040E0
6.446492034E1,1.827662945E0,-1.197192073E0,2.782932758E0
6.451691454E1,1.958388209E0,-4.327876568E0,1.708420873E0
6.456890790E1,6.468604803E-1,-2.560643196E0,1.005925894E0
6.462090122E1,-2.133798122E0,-3.523653746E-1,1.418259859E0
6.467289448E1,-5.106268406E0,2.342772007E0,9.527806044E-1
6.472488787E1,-7.309659004E0,4.266386509E0,-2.704728208E-2
6.477688127E1,-7.196649551E0,3.820455074E0,-2.081387281E0
6.482887496E1,-6.841736317E0,1.308577180E0,-3.481490135E0
6.488086891E1,-6.118472099E0,1.035520434E0,-2.312905073E0
6.493286224E1,-4.808166027E0,2.982958794E0,-2.494942904E0
6.498485543E1,-2.972516060E0,2.229762077E0,-2.014802694E0
6.503684899E1,-1.325012565E0,5.211718678E-1,-1.055744410E0
6.508884231E1,-4.197102487E-1,-1.247282982E0,-1.852613837E-1
6.514083554E1,1.068556085E-1,-1.530724525E0,3.144263923E-1
6.519282900E1,3.518125713E-1,-8.001296520E-1,2.765527368E-1
6.524482288E1,5.949369669E-1,7.844548225E-1,3.892616555E-2
6.529681661E1,8.716588616E-1,2.117973566E0,2.881591916E-1
6.534880997E1,9.834471941E-1,2.213879347E0,6.119177938E-1
6.540080336E1,9.712299109E-1,1.304911971E0,8.391596079E-1
6.545279678E1,8.960934877E-1,2.096306235E-1,1.056627631E0
6.550479281E1,8.771566749E-1,-3.792434633E-1,1.197126746E0
6.555678727E1,9.089217186E-1,-5.792835355E-2,1.412151217E0
6.560878056E1,8.936499953E-1,4.985698760E-1,1.571587086E0
6.566077402E1,8.295091987E-1,5.694302320E-1,1.643058300E0
6.571276725E1,8.985369802E-1,2.988169491E-1,1.551428437E0
6.576476057E1,9.736734033E-1,3.220298588E-1,1.512943983E0
6.581675400E1,8.857088089E-1,3.140885830E-1,1.703533888E0
6.586874765E1,9.388540387E-1,-2.277488858E-1,1.723692536E0
6.592074157E1,1.062248945E0,-5.808289647E-1,1.968649507E0
6.597273497E1,1.636462212E0,-5.484531522E-1,2.058446884E0
6.602472829E1,1.904632092E0,-3.303742409E-1,2.061501026E0
6.607672155E1,2.067733049E0,-2.949440479E-1,2.016297102E0
6.612871501E1,2.046963692E0,1.772547662E-1,1.806770086E0
6.618070840E1,1.816056490E0,-2.106446624E-1,1.833648324E0
6.623270153E1,1.554606199E0,-6.205351949E-1,1.345566869E0
6.628469558E1,7.617031336E-1,-6.144265532E-1,9.943193793E-1
6.633668944E1,-5.901416540E-1,-2.698985934E-1,7.463080883E-1
6.638868263E1,-2.305451155E0,6.732773185E-1,8.513769507E-1
6.644067609E1,-1.497887492E0,-6.987259984E-1,-1.019703269E0
6.649266941E1,-3.671956778E0,1.461904407E0,-1.333688021E0
6.654466653E1,-4.045806408E0,1.767337084E0,-1.526110649E0
6.659666472E1,-1.970697165E0,2.028176546E0,-2.102767229E0
6.664865931E1,-2.325869352E-2,2.230696529E-1,-2.341306061E-1
6.670065267E1,1.960220695E0,-1.412216544E0,1.112216473E0
6.675264606E1,3.324893713E0,-3.309563875E0,1.638782263E0
6.680463955E1,4.114131927E0,-4.366971493E0,1.504391789E0
6.685663275E1,4.169109344E0,-4.357197762E0,8.623725176E-1
6.690862597E1,3.192335844E0,-3.028565884E0,5.257857442E-1
6.696061956E1,1.809337020E0,-1.577761054E0,6.778912544E-1
6.701261372E1,7.036709785E-1,-1.762853265E0,5.664125830E-2
6.706460701E1,-1.092272878E0,-9.265787601E-1,-9.305169582E-1
6.711660043E1,-3.897366047E0,-2.253054380E-1,-2.092382669E0
6.716859389E1,-6.752550125E0,-1.009656429E0,-3.332439184E0
6.722058708E1,-4.131938457E0,1.713580847E0,-2.430802107E0
6.727258031E1,-2.960298777E0,-7.763993740E0,-9.347930551E-1
6.732457377E1,-2.498897016E-1,5.260875702E0,1.617401958E0
6.737656736E1,-7.880619764E-1,2.809473038E0,1.109162092E0
6.742856141E1,-1.936488628E0,1.726409078E0,1.678187251E-1
6.748055474E1,-2.836293221E0,1.241094917E-1,-9.842731357E-1
6.753254806E1,-3.110571623E0,1.231608152E0,-8.217829466E-1
6.758454142E1,-2.423959255E0,7.019880414E-1,-1.008707762E0
6.763653698E1,-1.746509552E0,-4.061215520E-1,-7.069402933E-1
6.768853204E1,-1.238880515E0,-3.517545462E-1,-4.537323862E-2
6.774052540E1,-5.217247605E-1,-1.819339842E-1,-9.485332668E-2
6.779251889E1,-1.283275187E-1,5.168958902E-1,-7.164043933E-2
6.784451208E1,3.110831231E-2,6.913162023E-2,-6.003400311E-2
6.789650547E1,3.731928468E-1,-9.357417226E-1,-2.029764652E-1
6.794849877E1,5.491220951E-1,-8.972572088E-1,-2.066416591E-1
6.800049206E1,5.051397681E-1,7.035334408E-2,-4.687028527E-1
6.805248628E1,3.640298843E-1,1.259708047E0,-4.387704432E-1
6.810447970E1,-7.376197726E-3,1.245047212E0,-2.909410596E-1
6.815647306E1,-1.460426003E-1,5.651541948E-1,-1.699897498E-1
6.820846649E1,-1.515403837E-1,-3.780217171E-1,-2.897193432E-1
6.826045974E1,-2.388941199E-1,-6.706262231E-1,-3.960098922E-1
6.831245301E1,-4.245971739E-1,-5.380684137E-1,-5.853781104E-1
6.836444640E1,-5.272225142E-1,5.019479617E-2,-6.476863623E-1
6.841643976E1,-5.363854766E-1,4.875743091E-1,-3.807382584E-1
6.846843414E1,-6.164088845E-1,3.092016578E-1,-1.834287941E-1
6.852042760E1,-7.086494565E-1,1.351050735E-1,-5.453621596E-2
6.857242069E1,-7.349166870E-1,1.387702674E-1,3.403924406E-2
6.862243519E1,-5.473811030E-1,-2.799595520E-2,1.562123001E-1
6.867443118E1,-2.303420156E-1,-1.629971713E-1,1.665969938E-1
6.872642990E1,3.782783076E-2,4.765787423E-1,9.695836902E-2
6.877842516E1,2.107027024E-1,4.246551692E-1,4.198049009E-2
6.883041855E1,2.583501935E-1,1.048855577E-2,3.037405200E-2
6.888241188E1,2.198656797E-1,3.189755082E-1,2.014163136E-1
6.893440507E1,1.031904146E-1,7.453594208E-1,4.286582172E-1
6.898639850E1,2.113135457E-1,7.453594208E-1,5.483877659E-1
6.903839192E1,3.310431540E-1,5.566021204E-1,6.742259860E-1
6.909038518E1,4.403880239E-1,7.361964583E-1,8.532095551E-1
6.914237907E1,5.350721478E-1,6.989337206E-1,9.857672453E-1
6.919437292E1,6.083759665E-1,4.197682738E-1,9.057439566E-1
6.924636628E1,6.126520634E-1,1.027292088E-1,8.116707206E-1
6.929835961E1,5.741675496E-1,-7.319997996E-2,7.347016335E-1
6.935035293E1,4.293924570E-1,4.020531774E-1,7.450863719E-1
6.940234629E1,2.247525901E-1,8.595912457E-1,7.902904153E-1
6.945433955E1,1.887115538E-1,4.997916222E-1,9.362872243E-1
6.950633288E1,4.275598526E-1,-4.387845099E-2,9.252915978E-1
6.955832664E1,7.806399465E-1,6.018061042E-1,1.410318613E0
6.961032052E1,1.318201423E0,2.358978242E-1,2.194669724E0
6.966231398E1,1.821554303E0,-1.162372708E0,2.385259628E0
6.971430724E1,1.733589768E0,-1.578372002E0,2.185506582E0
6.976630220E1,9.296910763E-1,1.552636325E-1,1.829372168E0
6.981829816E1,-4.524984211E-2,1.059955120E0,9.753825665E-1
6.987029142E1,-6.408434510E-1,5.553803444E-1,1.580448896E-1
6.992228457E1,-8.277682662E-1,-2.680660188E-1,1.085949183E0
6.997427793E1,-9.108458757E-1,-2.329125166E0,6.152817979E-2
7.002627123E1,-3.812257349E-1,5.935777724E-2,1.333960414E0
7.007826458E1,1.258336544E0,-1.906406641E0,8.159467578E-1
7.013025804E1,2.505723476E0,-3.109811068E0,1.325408340E0
7.018225167E1,2.724413157E0,-3.128747940E0,1.197737575E0
7.023424555E1,2.379274368E0,-3.275966644E0,5.178445578E-1
7.028623898E1,1.351188064E0,-2.032855749E0,6.550308317E-3
7.033823227E1,-3.861126304E-1,-1.326084614E0,-7.319858074E-1
7.039022563E1,-3.017109394E0,-1.316310763E0,-1.797945738E0
7.044221896E1,-6.507593155E0,-1.351740956E0,-2.965309143E0
7.049421232E1,-5.315795422E0,1.449687123E0,-3.008069515E0
7.054620564E1,-6.544856071E0,-8.991221428E0,-2.775020301E-1
7.059819979E1,-1.381822944E0,7.600489140E0,1.218506932E0
7.065019332E1,8.486445248E-2,1.581023097E0,1.368779778E0
7.070218661E1,-7.281972170E-1,3.825055063E-1,5.331161618E-1
7.075417997E1,-1.777052879E0,1.084389687E0,-4.057837129E-1
7.080617509E1,-2.321944475E0,2.821079493E0,-2.408501059E-1
7.085817381E1,-1.572412968E0,1.631724954E0,-9.366255999E-1
7.091017060E1,-6.182414293E-1,1.006809711E0,-5.004678369E-1
7.096216437E1,-5.991061032E-2,5.590455532E-1,-3.220951855E-1
7.101415759E1,9.036224335E-2,5.407196283E-1,-3.743198887E-2
7.106615125E1,3.004998863E-1,3.324145377E-1,5.939442664E-3
7.111814448E1,4.086230397E-1,4.836220294E-2,3.495981684E-3
7.117013760E1,3.964057267E-1,-1.272432320E-2,1.610992104E-1
7.122213113E1,2.717892230E-1,-7.014565170E-2,2.313487232E-1
7.127412518E1,9.463829547E-2,-1.122953594E-1,3.449696600E-1
7.132611887E1,-2.448042482E-2,-3.725239635E-1,3.895628154E-1
7.137811206E1,-1.038929075E-1,-6.425263882E-1,2.270726562E-1
7.143010532E1,-1.338253021E-1,-4.720950127E-1,8.474105597E-2
7.148209872E1,-2.627178729E-1,-3.291525245E-1,-1.040163040E-1
7.153409198E1,-3.726736009E-1,-3.871847093E-1,-2.261893451E-1
7.158608540E1,-4.154341817E-1,-5.417336226E-1,-3.886795044E-1
7.163807909E1,-5.162269473E-1,-3.151026368E-1,-5.731608272E-1
7.169007301E1,-6.988756657E-1,-3.561344463E-3,-7.466465235E-1
7.174206644E1,-6.231283545E-1,-2.723420262E-1,-7.759680748E-1
7.179405966E1,-6.744410396E-1,-5.899919868E-1,-7.869636416E-1
7.184605302E1,-6.567259431E-1,-4.275018275E-1,-6.311929822E-1
7.189804801E1,-5.400507450E-1,-1.819339842E-1,-4.051728845E-1
7.195004686E1,-4.368144572E-1,3.553403169E-2,-2.158046365E-1
7.200204302E1,-3.677866757E-1,2.749931812E-1,-1.015728414E-1
7.205403641E1,-1.607033759E-1,2.774366736E-1,3.037405200E-2
7.210602967E1,-1.104138978E-2,7.035334408E-2,1.403298080E-1
7.215802300E1,9.219484031E-2,-1.822211035E-2,2.191314101E-1
7.221001642E1,1.581682861E-1,9.234450012E-2,2.771635950E-1
7.226200975E1,1.990962476E-1,1.699243933E-1,3.132046461E-1
7.231400318E1,2.730109692E-1,1.180008426E-1,3.272545338E-1
7.236599670E1,3.420387208E-1,6.241210178E-2,3.761237860E-1
7.241799065E1,3.200475872E-1,2.847670615E-1,4.243821502E-1
7.246998401E1,2.827847898E-1,8.284371495E-1,4.781382680E-1
7.252197740E1,3.188258410E-1,1.077670217E0,6.882759333E-1
7.257397073E1,4.758182168E-1,6.286842227E-1,1.002260685E0
7.262596399E1,6.083759665E-1,-1.813231409E-1,1.142759681E0
7.267795748E1,1.076298714E0,1.406028569E-1,1.196515799E0
7.272995078E1,1.154489517E0,9.298407435E-1,1.696203589E0
7.278194460E1,1.819721818E0,3.446318507E-1,2.115257025E0
7.283393842E1,2.440360785E0,-4.849231541E-1,2.666257620E0
7.288593201E1,2.878962040E0,-7.457626462E-1,2.975966215E0
7.293792520E1,2.890568495E0,-1.027371407E0,3.140899897E0
7.298991930E1,2.544208050E0,-1.189861655E0,2.562410355E0
7.304191542E1,9.040347338E-1,-3.401480913E-1,1.689484000E0
7.309390901E1,-1.365940571E0,1.438080668E0,4.133865535E-1
7.314590250E1,-2.524141073E0,1.063620210E0,1.207821146E-1
7.319789576E1,-1.866239190E0,-2.778722286E0,-1.743578672E0
7.324988912E1,-3.926076651E0,8.440325409E-2,1.830903590E-1
7.330188258E1,-3.963339567E0,3.437442541E0,-1.315362096E0
7.335387580E1,-2.146015406E0,4.217517376E0,-2.612839937E0
7.340586963E1,-4.362035990E-1,1.420365572E0,-1.887131929E0
7.345786355E1,6.291453838E-1,6.170777678E-1,-4.454899728E-1
7.350985678E1,1.740309358E0,-4.800362289E-1,6.778912544E-1
7.356185057E1,2.516108036E0,-2.029190540E0,1.450635791E0
7.361384370E1,3.139801502E0,-2.545982361E0,2.198334694E0
7.366583682E1,3.549081326E0,-5.541054726E0,2.338833809E0
7.371783008E1,3.181340218E0,-5.437818527E0,8.422139883E-1
7.376982354E1,2.209453821E0,-3.533140659E0,8.874179721E-1
7.382181782E1,1.849654198E0,-4.250907421E0,2.307378501E-1
7.387381111E1,1.177702427E0,-6.526991367E0,-1.910955667E0
7.392580451E1,-1.472841978E0,-3.921040297E0,-2.157134295E0
7.397779800E1,-3.693948030E0,1.141200066E0,-2.273198843E0
7.402979209E1,-2.647535801E0,5.472845554E0,-2.074056625E0
7.408179078E1,4.550289631E0,9.946211815E0,9.949303269E-1
7.413378784E1,1.329807878E0,1.815595388E0,2.163515329E0
7.418578230E1,1.833771586E0,-4.393850327E0,1.318078041E0
7.423777552E1,7.904137969E-1,-3.180671453E0,1.574340165E-1
7.428976878E1,-1.599901915E0,-1.752144843E-1,8.098381162E-1
7.434176217E1,-3.911416054E0,1.988470197E0,2.441768944E-1
7.439375553E1,-6.095259190E0,3.827785492E0,-7.283205390E-1
7.444574916E1,-6.171617031E0,3.417284012E0,-2.078332663E0
7.449774314E1,-5.825867653E0,-5.747203231E-1,-3.905430555E0
7.454973644E1,-6.341437817E0,-2.120209455E0,-2.637885332E0
7.460172986E1,-6.173449993E0,2.054443598E0,-1.645840168E0
7.465372322E1,-3.751369476E0,2.723951817E0,-1.274434090E0
7.470571645E1,-1.113653183E0,5.572129488E-1,-7.600855827E-1
7.475770994E1,-5.644853115E-1,-1.585091472E0,-2.304654121E-1
7.480970317E1,-5.473811030E-1,-1.864256859E0,-1.666257158E-2
7.486169672E1,-1.411556900E-1,-6.712370515E-1,-2.439044565E-1
7.491369088E1,3.127171993E-1,9.469450116E-1,-1.174553409E-1
7.496568433E1,5.900499821E-1,1.647607446E0,-3.254506737E-2
7.501767749E1,7.543727160E-1,1.350726962E0,1.653752774E-1
7.506967089E1,1.097679019E0,5.046785474E-1,3.920062780E-1
7.512166494E1,1.355464101E0,7.563550472E-1,8.361052871E-1
7.517366363E1,1.348133802E0,1.210838795E0,1.324186683E0
7.522566052E1,1.215576053E0,8.986866474E-1,1.540432930E0
7.527765415E1,1.028651237E0,3.073690832E-1,1.547152519E0
7.532964757E1,8.148484230E-1,2.377304286E-1,1.520274401E0
7.538164093E1,5.576741099E-1,2.554455400E-1,1.423146844E0
7.543363422E1,3.255453408E-1,3.769038711E-3,1.125655413E0
7.548562755E1,3.782783076E-2,2.853779197E-1,8.727571964E-1
7.553762094E1,-6.907358766E-2,2.566672266E-1,6.791129112E-1
7.558961493E1,-1.368796229E-1,2.285674512E-1,5.526638031E-1
7.564160845E1,-6.601926684E-2,1.293201745E-2,5.599942207E-1
7.569360198E1,4.088215530E-2,-3.105027974E-2,6.974388957E-1
7.574559544E1,3.591429591E-1,4.591874033E-2,7.835709453E-1
7.579758856E1,8.466134071E-1,3.745642304E-1,8.574855924E-1
7.584958192E1,1.775739551E0,1.314074993E0,7.884578109E-1
7.589960972E1,2.773893356E0,1.326903224E0,8.813093305E-1
7.595160304E1,3.196001291E0,2.230983734E0,8.043403029E-1
7.600359690E1,3.291296244E0,2.608498573E0,5.642702579E-1
7.605559065E1,2.654163599E0,3.577941656E0,5.908472091E-2
7.610758401E1,1.866758466E0,1.625005364E0,5.053260550E-2
7.615957740E1,1.120891929E0,-3.706913590E-1,1.348320097E-1
7.621157116E1,4.539904594E0,-3.526421070E0,-4.306158066E0
7.626356729E1,-7.446905375E-1,1.205951810E0,-1.883466840E0
7.631556135E1,2.107027024E-1,-1.334025860E0,-2.824810028E0
7.636755467E1,-4.917923212E-1,-2.717311978E-1,-1.713035345E0
7.641954810E1,-8.870221376E-1,3.739533722E-1,-1.957381487E0
7.647154142E1,-1.297523618E0,-3.016635776E-1,-1.457082748E0
7.652353472E1,-1.483837485E0,-7.280475497E-1,-7.093837857E-1
7.657552804E1,-1.830808997E0,-1.188639879E0,3.584086895E-1
7.662752183E1,-1.853410959E0,-1.739029527E0,1.023640871E0
7.667951575E1,-1.338451505E0,-2.285753965E0,1.822041869E0
7.673150904E1,-6.750519276E-1,-2.501389503E0,2.415802717E0
7.678350247E1,-2.511114478E-1,-2.757952690E0,3.164723635E0
7.683549580E1,6.364757419E-1,-3.479384422E0,3.353481054E0
7.688748905E1,1.042090297E0,-3.097593784E0,4.632021904E0
7.693948241E1,1.929066658E0,-4.474483967E0,4.253285408E0
7.699147577E1,2.571085930E0,-4.600322247E0,3.639976740E0
7.704346973E1,2.613235712E0,-4.440275192E0,2.461617708E0
7.709546345E1,2.019474745E0,-3.599114180E0,1.559369802E0
7.714745674E1,1.169761062E0,-4.362084866E0,-7.591649890E-2
7.719945007E1,-2.889850736E-1,-4.541068554E0,-1.536495328E0
7.725144363E1,-3.607815981E0,-1.934506297E0,-2.950037479E0
7.730344171E1,-3.276726961E0,3.203481197E0,-2.912163734E0
7.735543924E1,-1.714744449E0,-7.720298171E-1,-1.949440241E0
7.740743340E1,7.299381495E-1,6.036063671E0,2.986351013E0
7.745942676E1,2.125765085E0,-4.651023865E0,1.021808386E0
7.751142025E1,1.596755981E0,-2.169689417E0,1.289367318E0
7.756341331E1,-8.357094526E-1,1.102715611E0,1.296697736E0
7.761540680E1,-3.199758053E0,1.025746584E0,6.204699278E-1
7.766740013E1,-5.352447033E0,1.203508377E0,-2.017547488E-1
7.771939342E1,-6.211934566E0,1.183349848E0,-8.266698718E-1
7.777138764E1,-6.031118393E0,9.689360857E-1,-1.706926703E0
7.782338119E1,-5.867406845E0,1.810708404E0,-1.875525475E0
7.787537439E1,-5.372605324E0,2.680580616E0,-2.103989124E0
7.792736785E1,-4.646897793E0,2.692797899E0,-2.207225323E0
7.797936114E1,-2.534525633E0,1.163191319E0,-1.505341172E0
7.803135466E1,-1.256595612E0,-8.031839728E-1,-2.903302014E-1
7.808334789E1,-8.912982345E-1,-1.737807751E0,3.486348689E-1
7.813534151E1,-5.809786320E-1,-1.475135684E0,3.492456973E-1
7.818733547E1,-3.547599912E-2,-4.513255656E-1,2.838831246E-1
7.823932879E1,3.585320711E-1,4.790221751E-1,3.547435105E-1
7.829132218E1,4.996419549E-1,5.468282700E-1,2.747201622E-1
7.834331564E1,9.327453971E-1,1.833634228E-1,4.231604040E-1
7.839531170E1,1.555217028E0,-2.677422389E-2,9.161286354E-1
7.844730613E1,2.084837198E0,2.878213823E-1,1.364503741E0
7.849929948E1,2.283368349E0,1.030633569E0,1.850752473E0
7.855129284E1,2.286422968E0,1.412424326E0,2.166569710E0
7.860328617E1,2.167915106E0,1.151584864E0,2.165348053E0
7.865527946E1,1.969383836E0,6.341819167E-1,2.123198509E0
7.870727282E1,1.803839207E0,7.401853800E-2,1.971703887E0
7.875926631E1,1.737254858E0,3.281385005E-1,1.811657071E0
7.881126040E1,1.623633981E0,-1.012997851E-1,1.813489795E0
7.886325386E1,1.782459021E0,-2.961657941E-1,1.522717953E0
7.891524738E1,1.676779270E0,2.114632279E-1,1.149479151E0
7.896724058E1,1.446483016E0,7.893417478E-1,7.670775056E-1
7.901923390E1,9.626777768E-1,1.518103957E0,1.629318148E-1
7.907122719E1,6.890102029E-1,1.700141788E0,-5.786585808E-1
7.912322048E1,6.226243824E-2,2.549855471E0,-1.240836501E0
7.917521411E1,-7.288080454E-1,1.828423619E0,-1.912177324E0
7.922720819E1,-1.662210226E0,9.267864227E-1,-1.868195057E0
7.927920155E1,-8.228812814E-1,-1.292487025E0,-4.848606586E0
7.933119485E1,-1.985968709E0,9.420580268E-1,-2.383154631E0
7.938318830E1,-2.192441225E0,1.167467237E0,-3.297008991E0
7.943518542E1,-2.017733812E0,-3.187678158E-1,-3.846176863E0
7.948718362E1,-1.820424199E0,6.268515587E-1,-3.198048830E0
7.953917921E1,-9.994212985E-1,1.067285419E0,-2.335507154E0
7.959117250E1,-6.573367715E-1,1.001312017E0,-1.104613543E0
7.964316580E1,-1.326035708E-1,-3.621392548E-1,-4.809201658E-1
7.969515926E1,3.188258410E-1,6.518970132E-1,5.184553862E-1
7.974715255E1,1.070800900E0,3.397449255E-1,1.337014794E0
7.979914591E1,2.020696402E0,1.986350566E-1,2.779267550E0
7.985113989E1,2.628507376E0,1.299414158E0,5.690040588E0
7.990313355E1,2.674933195E0,-1.196257398E-1,7.202542782E0
7.995512688E1,1.342635989E0,2.677526236E0,5.416373253E0
8.000712027E1,1.135552764E0,-3.950972557E0,5.894680023E0
8.005911353E1,7.751421332E-1,-3.877668619E0,1.401766539E0
8.011110692E1,-4.081037939E-1,-1.461696625E0,1.165361643E0
8.016310021E1,-9.737650156E-1,-3.138808906E-1,6.913302541E-1
8.021509364E1,-1.253541231E0,3.736662492E-2,-3.465298116E-1
8.026708776E1,-1.339062333E0,-9.632306695E-1,-1.267714620E0
8.031908118E1,-1.929769158E0,-1.189861655E0,-1.810773849E0
8.037107458E1,-2.847288847E0,7.707286626E-2,-2.422860861E0
8.042306780E1,-3.259011984E0,5.113980770E-1,-2.799764633E0
8.047506136E1,-3.130730152E0,-4.940861464E-1,-3.330606461E0
8.052705831E1,-3.070865393E0,-2.594240904E0,-3.607328415E0
8.057905653E1,-3.397067308E0,-2.630281925E0,-3.350154400E0
8.063105129E1,-2.545521259E0,-6.064853668E-1,-1.999531150E0
8.068304465E1,-1.328677773E0,2.639976144E-1,-1.867584229E0
8.073503788E1,-4.343709946E-1,2.268246651E0,-1.111333132E0
8.078703137E1,1.007469445E-1,2.403858662E0,-4.766440988E-1
8.083902463E1,4.153425694E-1,9.188451767E-1,-2.322980016E-1
8.089101809E1,5.986021161E-1,-7.139976025E-1,4.686741158E-2
8.094301168E1,7.806399465E-1,-1.341966987E0,4.427081048E-1
8.099500557E1,1.144715667E0,-7.616451383E-1,1.246606827E0
8.104699946E1,1.832549930E0,-8.306729198E-1,2.101818085E0
8.109899242E1,2.531379938E0,-1.566154718E0,2.390757322E0
8.115098564E1,2.528325558E0,-1.404886246E0,2.131139755E0
8.120297914E1,2.052461386E0,-6.892392784E-2,1.712696910E0
8.125497243E1,1.676779270E0,1.240771174E0,1.200791836E0
8.130696569E1,1.304151535E0,1.744735003E0,7.970099449E-1
8.135895915E1,4.715421498E-1,2.128358364E0,6.326872110E-1
8.141095350E1,-2.676047981E-1,2.189444780E0,2.563942075E-1
8.146294666E1,-3.995516896E-1,2.037950277E0,-3.373668194E-1
8.151493995E1,-3.372434378E-1,1.380048513E0,-6.880034804E-1
8.156693334E1,-3.109762371E-1,1.270703554E0,-6.928904057E-1
8.161892876E1,-2.443919033E-1,8.656998873E-1,-5.523914099E-1
8.167092392E1,-2.364506721E-1,-2.616335824E-2,-6.064487249E-2
8.172291758E1,-1.399339586E-1,-1.132440329E0,6.992715001E-1
8.177491074E1,7.509060949E-2,-3.853521049E-1,1.404820800E0
8.182690393E1,9.952522069E-2,-5.136338472E-1,1.935051918E0
8.187889733E1,1.587791443E-1,-1.054249525E0,2.698633432E0
8.193089072E1,3.450930417E-1,-1.572874188E0,3.162280321E0
8.198288404E1,2.174222171E-1,-9.339091182E-1,3.331489801E0
8.203487840E1,2.998889983E-1,-7.274366617E-1,2.940536022E0
8.208687162E1,2.901151776E-1,-2.860681899E-2,1.731633782E0
8.213886522E1,-5.510462523E-1,1.070052609E-1,2.704440951E-1
8.219085838E1,-5.252875805E0,2.520534039E0,4.172651291E0
8.224285193E1,-3.507023096E0,3.324145377E-1,-1.036807537E0
8.229484503E1,-3.987774134E0,1.067285419E0,-1.256108165E0
8.234683835E1,-3.539398909E0,5.208951473E0,-3.182166338E0
8.239883201E1,-1.040960193E0,4.478967667E0,-3.362371683E0
8.245082613E1,6.132628918E-1,-1.145268440E0,-1.899349213E0
8.250281939E1,2.209453821E0,1.003755450E0,-1.681571454E-1
8.255481268E1,3.206996918E0,-1.227124333E0,1.001649737E0
8.260680604E1,3.908270121E0,-3.139132500E0,1.674823284E0
8.265880210E1,4.276621819E0,-5.716983795E0,2.171456814E0
8.271080078E1,4.232028961E0,-6.632670879E0,5.874831676E-1
8.276279601E1,3.537474871E0,-5.073742867E0,-3.926458210E-2
8.281478937E1,2.725023985E0,-5.610082626E0,-8.730956316E-1
8.286678273E1,1.162430763E0,-5.377953529E0,-2.225551367E0
8.291877595E1,-4.009154320E0,-1.887469769E0,-2.840081692E0
8.297076955E1,-2.932809830E0,2.630489588E0,-2.684921980E0
8.302276294E1,-2.745884895E0,4.813722134E0,-2.271366119E0
8.307475603E1,2.009700775E0,2.736779928E0,2.474445820E0
8.312674989E1,2.557036161E0,-1.058525681E0,1.834869981E0
8.317872048E1,1.186254501E0,4.949046969E-1,1.591134787E0
8.323071384E1,-6.298478842E-1,1.021470547E0,1.121379375E0
8.328270710E1,-2.217486620E0,1.955807209E-1,-2.460381947E-2
8.333470043E1,-4.388502121E0,1.796982288E-1,-1.018481612E0
8.338669382E1,-5.805098057E0,1.460682631E0,-1.476630449E0
8.343868708E1,-5.369551182E0,1.851960123E-1,-2.629333258E0
8.349068047E1,-5.616951466E0,-1.511176705E0,-2.333063364E0
8.354267446E1,-5.780663490E0,2.292681217E0,-8.425523639E-1
8.359466818E1,-4.317641735E0,3.217530966E0,-1.390498519E0
8.364666151E1,-2.106309175E0,2.684245825E0,-1.452806711E0
8.369865480E1,-9.401674271E-1,1.406028569E-1,-1.077124596E0
8.375064966E1,-7.630164623E-1,-2.230165243E0,-7.582529783E-1
8.380264548E1,-6.860474944E-1,-1.055471301E0,-3.960098922E-1
8.385463881E1,-2.920393944E-1,6.451775432E-1,-1.877048314E-1
8.390663213E1,-7.987063378E-3,1.228553891E0,-8.202515543E-2
8.395862553E1,2.840065360E-1,1.030633569E0,2.111901641E-1
8.401061879E1,7.164991498E-1,7.447485924E-1,8.697028756E-1
8.406261221E1,1.169150233E0,9.194560647E-1,1.668714643E0
8.411460564E1,1.684109569E0,1.252377510E0,2.308901310E0
8.416659946E1,1.750083089E0,1.457628250E0,2.711461782E0
8.421859311E1,1.837436914E0,5.059002638E-1,2.826304197E0
8.427058657E1,2.061013460E0,-2.799595520E-2,3.035220146E0
8.432257987E1,2.115991354E0,-8.447228074E-1,3.174497604E0
8.437457316E1,2.466627836E0,-6.724588275E-1,2.752389669E0
8.442656662E1,1.713431120E0,1.832699537E0,1.737742424E0
8.447855981E1,1.775739551E0,4.847930431E0,-1.298868775E0
8.453055323E1,1.982822776E0,6.899215698E0,-2.538314104E0
8.458254729E1,1.745196223E0,4.551049709E0,-2.992187262E0
8.463454098E1,1.516732574E0,7.355856299E-1,-1.854756117E0
8.468653427E1,1.128833175E0,-6.456741810E0,1.514776587E0
8.473852756E1,-1.422140121E0,8.718983650E0,2.215748727E-1
8.479052268E1,9.645104408E-1,-2.577136755E0,-3.009902239E0
8.484252134E1,-8.167726398E-1,-1.836767912E0,-2.934154987E0
8.489451810E1,-1.277975917E0,1.673263788E0,-2.747841120E0
8.494651189E1,-8.338769078E-1,-1.521561503E0,-1.687989831E0
8.499850518E1,-9.584934115E-1,-2.155315876E-1,8.324401379E-1
8.505049861E1,-9.707106948E-1,-4.879774749E-1,2.293629885E0
8.510249187E1,-7.434688210E-1,-3.168454170E0,3.625315905E0
8.515448520E1,1.703855842E-1,-4.096969128E0,3.782308340E0
8.520647882E1,-5.868887529E-2,-2.048738241E0,4.609419823E0
8.525847290E1,1.062248945E0,-3.893551350E0,4.170207977E0
8.531046626E1,1.806893587E0,-4.264346123E0,4.558107376E0
8.536245959E1,2.469071627E0,-3.949750662E0,4.273443699E0
8.541445292E1,2.679209232E0,-3.131191492E0,4.107899189E0
8.546644628E1,2.351174593E0,-3.021846533E0,3.612487793E0
8.551843957E1,1.467863441E0,-3.080489397E0,1.754846692E0
8.557043293E1,2.815630436E-1,-3.850179672E0,-2.005330026E-1
8.562242668E1,-1.153970242E0,-4.465321064E0,-1.532830119E0
8.567442054E1,-4.280378342E0,-9.247461557E-1,-4.111903191E0
8.572641399E1,-1.817980886E0,4.645733833E0,-3.228592157E0
8.577840732E1,-7.850076556E-1,5.748345852E0,-1.498621702E0
8.583040065E1,1.534447670E0,6.305167675E-1,3.000400782E0
8.588239550E1,1.860649824E0,-3.478773594E0,1.869078517E0
8.593439442E1,4.232838154E-1,-1.032869220E0,2.288743019E0
8.598639058E1,-2.329274893E0,6.729902327E-2,1.317467213E0
8.603838397E1,-5.178350449E0,-3.425915539E-1,5.053260550E-2
8.609037727E1,-7.796519279E0,4.435920119E-1,-9.903817773E-1
8.614237059E1,-8.514896393E0,2.193109989E0,-1.385611534E0
8.619436395E1,-7.949846268E0,3.920026064E0,-2.906666040E0
8.624635734E1,-6.666418552E0,4.780124664E0,-2.867570639E0
8.629835060E1,-3.232744694E0,3.639028072E0,-3.247528791E0
8.635034482E1,-1.374492645E0,-3.963477015E-1,-1.426539540E0
8.640233838E1,-7.294189334E-1,-1.950999737E0,-5.572783351E-1
8.645433161E1,-5.290551186E-1,-1.346853971E0,-2.274110913E-1
8.650632500E1,-1.527621299E-1,4.582527876E-1,-1.327269673E-1
8.655831829E1,8.425358683E-2,1.043461680E0,-1.773201227E-1
8.661031155E1,2.815630436E-1,8.479847908E-1,-1.849516667E-2
8.666230504E1,7.189425826E-1,2.242913991E-1,4.164408743E-1
8.671429847E1,1.202747822E0,-4.861449003E-1,1.071288466E0
8.676629279E1,1.726259351E0,-7.512603998E-1,1.545930743E0
8.681828605E1,2.073230743E0,9.967488050E-2,1.999803543E0
8.687027934E1,2.058570147E0,5.798149705E-1,2.305236340E0
8.692227270E1,1.883862495E0,6.054713130E-1,2.497047901E0
8.697426689E1,1.724426746E0,5.987517834E-1,2.421300650E0
8.702626314E1,1.482524157E0,6.726664901E-1,2.252701998E0
8.707825660E1,1.301097155E0,6.909924150E-1,1.855639458E0
8.713025010E1,1.322477460E0,8.675324917E-1,1.547152519E0
8.718224339E1,1.480691552E0,1.375485212E-1,1.549595952E0
8.723423665E1,1.722594142E0,-5.240185261E-1,1.780502915E0
8.728623008E1,1.963886023E0,-5.191316009E-1,1.577084780E0
8.733822340E1,1.806282759E0,-1.037432477E-1,2.061501026E0
8.739021739E1,2.219227552E0,-1.513009429E0,2.038898945E0
8.744221128E1,2.070176601E0,-1.691381931E0,2.591121197E0
8.749420444E1,2.192349672E0,-3.912487984E0,1.863580704E0
8.754619786E1,1.590647340E0,-2.103105307E0,1.140316129E0
8.759819106E1,1.206413031E0,1.499778032E0,1.217285275E0
8.765018435E1,9.602344036E-1,9.915381670E-1,2.694357395E0
8.770217767E1,8.288983107E-1,-4.861772537E0,2.124420166E0
8.775417113E1,7.006166577E-1,7.524026930E-2,2.646099091E0
8.780616532E1,-1.398927212E0,1.458850145E0,2.110980988E0
8.785815868E1,-1.701305509E0,-3.945150971E-1,7.374548167E-2
8.791015207E1,-1.899225831E0,1.473510861E0,-5.688847899E-1
8.796214539E1,-1.662210226E0,1.761839271E0,-5.230698586E-1
8.801413968E1,-3.653432429E-1,9.762665033E-1,6.223024726E-1
8.806613840E1,3.355177492E-2,-2.600960493E0,6.522348523E-1
8.811813529E1,-6.487847567E-1,-3.215490818E0,-3.642449081E-1
8.817012889E1,-4.612490833E-1,-5.603974342E0,-1.994033337E0
8.822212205E1,-1.606010556E0,-6.685205460E0,-4.138170242E0
8.827411540E1,-4.499068260E0,4.515332580E-1,-3.893824100E0
8.832610873E1,-1.980470896E0,5.557755947E0,-2.690419674E0
8.837810202E1,1.285825610E0,9.169801712E0,-9.531190395E-1
8.843009532E1,1.138607025E0,3.354688585E-1,1.030971289E0
8.848208894E1,3.731928468E-1,-3.797034502E0,7.481406927E-1
8.853408303E1,-1.533317685E0,4.606962204E-1,5.141793489E-1
8.858607639E1,-4.087955952E0,3.383075714E0,2.594485283E-1
8.863806978E1,-5.543036938E0,3.794188023E0,-2.276253223E0
8.869006310E1,-5.505774498E0,2.228540182E0,-4.476589680E0
8.874205650E1,-4.797781467E0,4.222117364E-1,-4.601817131E0
8.879404969E1,-4.211961746E0,3.872378588E0,-4.277447701E0
8.884604308E1,-2.723894119E0,6.589507103E0,-4.135116100E0
8.889803677E1,-1.196730852E0,3.992718935E0,-4.144279003E0
8.895003106E1,-4.142124653E-1,-8.661031127E-1,-2.264646769E0
8.900202418E1,-4.862945676E-1,-4.578330994E0,-6.220300198E-1
8.905401751E1,-5.369963646E-1,-4.939352512E0,7.618895173E-2
8.910601123E1,-1.234406009E-1,-3.897827387E0,4.231604040E-1
8.915800759E1,3.316540122E-1,-1.166648746E0,7.328690886E-1
8.921000145E1,4.391662776E-1,8.107220531E-1,8.458791375E-1
8.926199487E1,4.690986872E-1,9.817642570E-1,7.530276775E-1
8.931398807E1,7.195534706E-1,1.720807515E-2,8.049511909E-1
8.936598153E1,1.053085804E0,-2.668442726E-1,1.426201224E0
8.941797482E1,1.660285830E0,-2.815050483E-1,2.266140938E0
8.946996808E1,2.036578894E0,7.679615021E-1,2.670533657E0
8.952196183E1,2.185019255E0,1.705639601E0,2.996124744E0
8.957395585E1,2.263820887E0,9.469450116E-1,2.855625629E0
8.962594904E1,2.226558208E0,-1.028086152E-2,2.771326303E0
8.967794254E1,2.070176601E0,-3.487001956E-1,2.559356213E0
8.972993593E1,1.921736240E0,-7.549256086E-1,2.563021183E0
8.978192906E1,1.696326971E0,-5.484531522E-1,2.308901310E0
8.983392252E1,1.787346005E0,-8.599944711E-1,1.954599619E0
8.988591584E1,1.766576409E0,-7.311018705E-1,1.389549136E0
8.993790976E1,1.547275901E0,-2.711203396E-1,8.409922719E-1
8.998990355E1,9.406866431E-1,-3.596957624E-1,1.879772842E-1
9.004189681E1,-1.348484959E-2,-1.886535138E-1,-5.200154781E-1
9.009389017E1,-1.244378328E0,7.490246296E-1,-8.999736905E-1
9.014588389E1,-4.818550587E0,1.867518902E0,6.174155474E-1
9.019788218E1,-1.981081843E0,-6.180918217E-1,-3.362982512E0
9.024987967E1,-3.155164719E0,1.138756752E0,-3.122912407E0
9.030187453E1,-2.824686766E0,3.338482380E0,-3.750881910E0
9.035386786E1,-1.062340498E0,2.628656864E0,-4.023327827E0
9.040586122E1,-8.039444685E-1,1.675707221E0,-3.027006626E0
9.045593033E1,-6.829931736E-1,8.259936571E-1,-1.094228864E0
9.050792362E1,-1.826945245E-1,-4.757601917E-1,-3.834401025E-3
9.055991692E1,-2.559983432E-1,-3.444241583E-1,3.803998530E-1
9.061191107E1,-2.657721937E-1,-4.030672014E-1,6.833889484E-1
9.066390459E1,-2.804329395E-1,-3.884064555E-1,1.261267543E0
9.071589788E1,5.515654683E-1,-2.155639648E0,2.233764887E0
9.076789118E1,1.271164775E0,-9.662849903E-1,3.248412132E0
9.081988467E1,1.795287132E0,-2.002312422E0,3.704117775E0
9.087187800E1,2.531990767E0,-3.174562693E0,3.823236227E0
9.092387136E1,1.990764022E0,-3.828188658E0,4.065749645E0
9.097586468E1,1.115394115E0,-4.841614246E0,3.500699520E0
9.102785880E1,7.586488128E-1,-3.977850676E0,2.376096725E0
9.107985229E1,3.927405477E-1,-4.404234409E0,9.087982774E-1
9.113184572E1,8.062963486E-1,-6.161694050E0,-1.317805529E0
9.118383891E1,-7.795099020E-1,-3.088430882E0,-1.546880007E0
9.123583247E1,-3.312157154E0,-3.034961820E-1,-3.227981091E0
9.128783056E1,-1.474063635E0,3.593823910E0,-9.958795905E-1
9.133982818E1,2.045742035E0,1.034632778E1,-1.667831302E0
9.139182221E1,1.720150709E0,1.061176777E0,1.577695727E0
9.144381563E1,9.919993281E-1,-3.481217384E0,1.596632600E0
9.149580902E1,-7.434688210E-1,-1.660227895E0,7.438646555E-1
9.154780225E1,-3.311546326E0,9.976468086E-1,1.230724216E0
9.159979564E1,-5.017693043E0,1.994578838E0,1.415515244E-1
9.165178904E1,-5.968199253E0,2.498542786E0,-9.799970984E-1
9.170378246E1,-5.566249847E0,8.773063421E-1,-2.347113609E0
9.175577668E1,-5.238215446E0,-8.480641991E-2,-2.546255589E0
9.180776997E1,-4.867419720E0,2.684856653E0,-1.988535523E0
9.185976326E1,-4.434316635E0,3.823509455E0,-2.264646769E0
9.191175669E1,-2.943194628E0,3.065425634E0,-1.940888047E0
9.196375018E1,-1.262093425E0,4.286441579E-2,-1.476630449E0
9.201574331E1,-7.465231419E-1,-2.314464569E0,-1.137901470E-1
9.206773673E1,-3.604562879E-1,-2.333401442E0,2.502855361E-1
9.211973036E1,4.882340506E-2,-1.326084614E0,3.968932033E-1
9.217172428E1,4.733747542E-1,2.475042790E-1,4.653101265E-1
9.222371774E1,8.496677279E-1,1.119208932E0,4.671427011E-1
9.227571099E1,9.541256428E-1,1.664711714E0,4.237712622E-1
9.232770449E1,1.006049275E0,1.453352332E0,6.113069057E-1
9.237970057E1,1.100733399E0,6.421232224E-1,9.607217908E-1
9.243169497E1,1.065303206E0,-1.122953594E-1,1.333960414E0
9.248368829E1,1.154489517E0,2.725497484E-1,1.816544056E0
9.253568168E1,1.414107203E0,9.402254820E-1,2.071274996E0
9.258767501E1,1.345690250E0,3.941119313E-1,2.233154058E0
9.263966830E1,1.376233697E0,-5.698334575E-1,2.214217186E0
9.269166176E1,1.816667438E0,-2.943331897E-1,2.288743019E0
9.274365562E1,2.409206867E0,-5.792835355E-2,2.570351839E0
9.279564931E1,2.673711538E0,-1.471146643E-1,2.569741011E0
9.284764267E1,2.739073992E0,-9.143614769E-1,2.250869036E0
9.289963606E1,2.327961683E0,-7.005586028E-1,2.167791605E0
9.295162935E1,1.552162766E0,-3.768000305E-1,1.716362238E0
9.300362274E1,7.152774334E-1,5.303348899E-1,1.212398291E0
9.305561597E1,1.147968546E-1,1.626227140E0,7.741067559E-2
9.310760930E1,-5.205029845E-1,2.844903231E0,-1.257940769E0
9.315960322E1,-2.792112529E-1,2.299400568E0,-3.067323446E0
9.321159704E1,-4.551404119E-1,4.092900753E0,-3.913982868E0
9.326359040E1,-3.924244165E0,1.221223474E0,-2.863905430E0
9.331558372E1,-1.979249239E0,1.744124174E0,-4.364190578E0
9.336757725E1,-1.356777430E0,-2.491004705E0,-3.260356903E0
9.341957437E1,-1.778885365E0,4.521441460E-1,-3.287235022E0
9.347157242E1,-1.321958303E0,1.741069794E0,-3.538911581E0
9.352356702E1,-1.042792797E0,-5.484531522E-1,-3.549296379E0
9.357556038E1,-9.493303895E-1,9.744338989E-1,-2.349556923E0
9.362755370E1,-8.167726398E-1,1.266427517E0,-1.520612836E0
9.367954710E1,-5.938068032E-1,-1.367299706E-1,-1.834287941E-1
9.373154035E1,-2.779895067E-1,-7.869777083E-2,4.769165218E-1
9.378353371E1,1.294576079E-1,-9.210809469E-1,9.985954762E-1
9.383552717E1,3.585320711E-1,-1.561267734E0,1.396879673E0
9.388752132E1,9.370214939E-1,-7.836362720E-1,1.938717008E0
9.393951478E1,1.390894413E0,-5.191316009E-1,2.784154654E0
9.399150821E1,1.764133096E0,-2.715802908E0,4.153103352E0
9.404350137E1,2.665770054E0,-3.936311722E0,4.124392986E0
9.409549486E1,2.819097519E0,-4.046267509E0,4.200750828E0
9.414748809E1,3.483718634E0,-3.954026937E0,3.737104177E0
9.419948141E1,3.801368713E0,-4.949737072E0,3.329657316E0
9.425147481E1,3.588787556E0,-3.879501104E0,1.841589451E0
9.430346892E1,2.620566130E0,-2.967479467E0,1.887404442E0
9.435546265E1,1.655399084E0,-2.596073389E0,1.189185381E0
9.440745577E1,4.605465829E-1,-2.529489040E0,3.376392722E-1
9.445944920E1,-3.598454595E-1,-2.837975979E0,5.358693376E-2
9.451144472E1,-8.925199509E-1,-3.406691551E0,-6.556276083E-1
9.456343968E1,-3.481366873E0,-1.270495892E0,-2.348946095E0
9.461543311E1,-2.111196041E0,2.175395012E0,-3.848620415E0
9.466742650E1,-2.496041298E0,-1.431153417E0,-3.578006744E0
9.471941976E1,-6.591694355E-1,9.747680664E0,2.081659317E0
9.477141318E1,8.515003920E-1,8.009482026E-1,2.385259628E0
9.482340644E1,9.107542634E-1,-4.492199421E0,1.104275107E0
9.487539980E1,-7.055951357E-1,-4.701115131E0,1.885881573E-1
9.492739399E1,-3.929741859E0,-1.324252009E0,8.452683091E-1
9.497938741E1,-7.006059170E0,2.126525879E0,4.420972168E-1
9.503138127E1,-7.565611839E0,3.887039423E0,-8.874467015E-2
9.508337433E1,-6.401302814E0,4.894069135E-1,-3.414295197E0
9.513536756E1,-7.376854420E0,-1.205744147E0,-1.971431375E0
9.518736075E1,-7.217418671E0,3.509524584E0,-1.649505377E0
9.523935414E1,-2.062937737E0,3.203481197E0,-1.568871260E0
9.529134760E1,-1.120983481E0,7.502463460E-1,5.722115636E-1
9.534334178E1,-6.597802639E-1,-1.470859647E0,-1.692096703E-4
9.539533514E1,-3.818365932E-1,-1.022484541E0,-1.315052360E-1
9.544732854E1,2.927571721E-2,3.556274176E-1,-1.217313930E-1
9.549932179E1,3.683059514E-1,8.711977005E-1,-1.651028246E-1
9.555131805E1,6.963405609E-1,5.150632262E-1,-5.148189142E-2
9.560331651E1,1.245508432E0,-7.625430822E-2,4.976859689E-1
9.565531276E1,1.837436914E0,-7.139976025E-1,1.004704118E0
9.570730626E1,2.287033796E0,-1.788796633E-1,1.317467213E0
9.575929958E1,2.378052473E0,1.314685941E0,1.671768904E0
9.581129281E1,2.113547802E0,2.150960445E0,2.005912304E0
9.586328620E1,1.613249302E0,1.575525284E0,1.989418983E0
9.591527953E1,1.062859774E0,3.220298588E-1,1.600908518E0
9.596727355E1,5.112484097E-1,-3.151026368E-1,1.236222029E0
9.601926744E1,2.094809562E-1,-1.959839016E-1,1.156809568E0
9.607126053E1,6.470590085E-2,4.008314610E-1,8.532095551E-1
9.612325406E1,-1.570381820E-1,1.307966352E0,6.870542169E-1
9.617524718E1,-9.106473625E-2,9.915381670E-1,5.044054985E-1
9.622724054E1,-7.090618461E-2,4.625288248E-1,3.168698549E-1
9.627923387E1,8.730791509E-2,1.693135202E-1,4.286582172E-1
9.633122720E1,2.620153725E-1,2.194044590E-1,6.106960177E-1
9.638322112E1,3.988491893E-1,-3.609175086E-1,9.271242023E-1
9.643521491E1,6.511365175E-1,-8.318945765E-1,1.175746322E0
9.648720816E1,8.020202518E-1,-7.866905928E-1,1.775005221E0
9.653920162E1,1.331640363E0,-1.489796519E0,1.905119538E0
9.659119492E1,1.480080724E0,-1.619299889E0,1.899621725E0
9.664319084E1,1.370735884E0,-1.101286173E0,1.717583895E0
9.669518972E1,9.828363657E-1,1.019027114E0,1.177578926E0
9.674718488E1,7.281055450E-1,3.190653086E0,3.419153094E-1
9.679917817E1,6.419735551E-1,4.431320190E0,-1.113776565E0
9.685117163E1,1.221684694E0,3.423392534E0,-3.116192818E0
9.690316489E1,1.564990997E0,3.598100185E0,-4.269506454E0
9.695515822E1,1.801594347E-1,2.849179506E0,-3.930476427E0
9.700715161E1,-5.638744235E-1,-7.961302757E0,-5.042251110E0
9.705914490E1,-1.155802846E0,-1.913126111E0,-3.807081223E0
9.711113895E1,-1.872958660E0,-1.281491399E0,-1.467467546E0
9.716313258E1,-1.493000507E0,-4.073432684E-1,-1.898738384E0
9.721512594E1,-1.438633442E0,-9.687284827E-1,-1.507173777E0
9.726711923E1,-1.426416159E0,-1.533778787E0,-9.201322794E-1
9.731911259E1,-1.056842685E0,-1.980932117E0,-7.423704863E-1
9.737110601E1,-5.944177508E-1,4.442028701E-1,-6.012606025E-1
9.742309920E1,-3.058907762E-2,1.811319351E0,7.982316613E-1
9.747509270E1,2.791196108E-1,-1.935404390E-1,1.541654706E0
9.752708675E1,6.205932498E-1,-2.106446624E-1,1.266154408E0
9.757908011E1,8.197353482E-1,-4.940861464E-1,1.300362945E0
9.763107377E1,1.017044783E0,-9.253569841E-1,8.904722929E-1
9.768306703E1,1.010325313E0,-9.015332460E-1,8.690920472E-1
9.773500311E1,1.035981655E0,-8.358469605E-2,7.554710507E-1
9.778699880E1,7.647574544E-1,4.258769155E-1,6.186372638E-1
9.783899209E1,5.863848329E-1,3.553403169E-2,3.883410990E-1
9.789098538E1,2.589610517E-1,-5.365229398E-2,2.985438704E-1
9.794297888E1,4.088215530E-2,-9.641286731E-2,3.403924406E-2
9.799497210E1,-1.228297278E-1,-1.700037904E-2,-4.048631713E-2
9.804696543E1,-1.802510619E-1,-1.577864960E-2,-3.926458210E-2
9.809895882E1,-1.148884818E-1,8.562498540E-2,-8.691207319E-2
9.815095294E1,-1.741424054E-1,2.658302188E-1,-1.406682134E-1
9.820294643E1,-1.600925177E-1,-9.091507643E-2,-1.260074526E-1
9.825493979E1,-1.686446220E-1,-2.460748404E-1,-1.382247657E-1
9.830693312E1,-1.338253021E-1,-9.946718812E-2,-1.400573552E-1
9.835892651E1,-8.801040798E-2,-1.801013947E-1,-1.168444753E-1
9.841091980E1,-1.653917693E-2,-4.012346268E-1,1.998934336E-2
9.846291309E1,8.058839291E-2,-3.218221366E-1,1.012344211E-1
9.851490658E1,2.528524101E-1,2.865996361E-1,3.180915713E-1
9.856690100E1,4.232838154E-1,4.408614337E-2,6.668956280E-1
9.861889420E1,8.747131824E-1,1.118921861E-1,8.147250414E-1
9.867088739E1,1.348744631E0,5.718737245E-1,1.594799876E0
9.872288085E1,1.701213837E0,-3.713022172E-1,2.087157249E0
9.877487594E1,2.108661175E0,-1.360293150E0,2.919155836E0
9.882687479E1,2.497171402E0,-2.058511972E0,3.614320517E0
9.887887085E1,2.500225544E0,-2.732296467E0,3.831788540E0
9.893086417E1,2.750680447E0,-3.786649942E0,3.292394638E0
9.898285747E1,2.647444010E0,-4.403623581E0,2.410305023E0
9.903485093E1,1.967551112E0,-3.988235235E0,1.795163751E0
9.908684415E1,8.515003920E-1,-3.934479237E0,1.757900953E0
9.913883745E1,5.741675496E-1,-5.747527122E0,6.320763230E-1
9.919083087E1,-8.790809512E-1,-3.720065355E0,-8.682087660E-1
9.924282479E1,-4.159427166E0,-8.825964332E-1,-3.330606461E0
9.929481858E1,-1.664042711E0,3.951180220E0,-3.162007809E0
9.934681194E1,-2.543688774E0,4.764241695E0,-2.887729168E0
9.939880513E1,-5.746714771E-2,8.764187813E0,2.421300650E0
9.945079859E1,1.147770047E0,-4.415517151E-1,1.741407633E0
9.950279182E1,5.130810142E-1,-2.431750774E0,1.249050140E0
9.955478521E1,-1.077612042E0,-2.875849724E0,2.692223489E-1
9.960677850E1,-3.413560867E0,-1.675499558E0,-1.247857213E-1
9.965877226E1,-5.597404480E0,5.743172169E-1,-3.587470949E-1
9.971076621E1,-6.094037533E0,1.726409078E0,-8.046787381E-1
9.976275947E1,-5.530209064E0,-1.904573917E0,-2.194397211E0
9.981475283E1,-5.563195705E0,-1.137938142E0,-1.359344363E0
9.986674719E1,-5.571747780E0,3.135674953E0,-9.909926057E-1
9.991874331E1,-4.725088596E0,4.191861153E0,-1.537106156E0
9.997073684E1,-2.953579426E0,2.651869774E0,-1.501676083E0
1.000227302E2,-1.550421715E0,-2.900571525E-1,-6.379125118E-1
1.000747235E2,-1.025077581E0,-2.498945713E0,2.252400666E-1
1.001267169E2,-5.314986110E-1,-2.803156853E0,3.755128980E-1
1.001787103E2,-8.556694537E-2,-9.540677071E-1,4.213278294E-1
1.002307035E2,3.121063113E-1,5.162850022E-1,4.274364710E-1
1.002826974E2,6.089867949E-1,4.814656675E-1,2.643354535E-1
1.003346912E2,9.431301355E-1,-1.788796633E-1,1.580448896E-1
1.003866846E2,1.361572862E0,-8.630487919E-1,1.048996150E-1
1.004386779E2,1.693883538E0,-9.406285882E-1,3.037405200E-2
1.004906713E2,1.902188540E0,7.997264266E-1,1.849229634E-1
1.005426645E2,1.760467768E0,2.675693512E0,6.497913599E-1
1.005946578E2,1.450148344E0,3.044656277E0,8.837528229E-1
1.006466512E2,1.137996078E0,2.182114601E0,9.246807694E-1
1.006986453E2,7.268838286E-1,1.118598104E0,8.819202185E-1
1.007506388E2,2.577393055E-1,5.724845529E-1,7.059910297E-1
1.008026323E2,-7.701484114E-2,1.827525496E-1,5.819853544E-1
1.008546256E2,-2.278985381E-1,3.953336477E-1,4.909664690E-1
1.009066199E2,-3.451846838E-1,6.757208109E-1,3.107612133E-1
1.009586188E2,-4.844619334E-1,5.486608148E-1,2.826614082E-1
1.010106157E2,-4.899597466E-1,-1.208474711E-1,3.852867782E-1
1.010626099E2,-3.775605559E-1,-4.256692231E-1,4.897447228E-1
1.011146033E2,-1.490969360E-1,-2.796724141E-1,7.328690886E-1
1.011665966E2,3.793015182E-1,-8.972572088E-1,1.060292840E0
1.012185899E2,9.076999426E-1,-8.856507540E-1,1.680321097E0
1.012705833E2,1.731146216E0,-9.824545681E-2,2.299738407E0
1.013225767E2,2.134317398E0,-9.274767339E-2,2.423133373E0
1.013745709E2,2.250381947E0,2.988169491E-1,2.039509773E0
1.014265642E2,1.436098337E0,2.496099234E0,1.202013493E0
1.014785576E2,4.263381362E-1,2.077045679E0,5.496094823E-1
1.015305509E2,-1.427637935E0,1.057835296E-1,1.211787462E0
1.015825443E2,-2.272876948E-1,-4.918582916E0,-9.977121353E-1
1.016345376E2,-2.605386019E0,2.727006435E0,2.130227685E-1
1.016865309E2,-2.126467705E0,9.976468086E-1,-1.369729161E0
1.017385246E2,-1.426416159E0,3.305819333E-1,-2.430802107E0
1.017905187E2,-1.073946953E0,1.124706745E0,-1.836430192E0
1.018425120E2,-2.578309774E-1,2.881451324E-2,-7.594747543E-1
1.018945054E2,1.131887436E0,-1.602806568E0,7.902904153E-1
1.019464986E2,2.345676661E0,-2.518493652E0,2.066387892E0
1.019984929E2,3.009076357E0,-5.892302036E0,2.541030169E0
1.020504917E2,3.431795120E0,-4.634530544E0,1.818987608E0
1.021024883E2,3.298015594E0,-4.687676430E0,1.031582117E0
1.021544820E2,2.670656919E0,-4.057263374E0,6.442936659E-1
1.022064753E2,1.803228378E0,-5.068244934E0,-6.858611852E-2
1.022584687E2,7.714769840E-1,-6.463461399E0,-1.691655040E0
1.023104620E2,-2.670748711E0,-1.421990514E0,-3.393525600E0
1.023624554E2,-1.218111038E0,2.168064594E0,-4.340366840E0
1.024144487E2,-2.859506130E0,6.557742119E0,-5.670521855E-1
1.024664427E2,3.203331470E0,2.047436982E-1,2.111592054E0
1.025184363E2,2.896677256E0,-4.113462925E0,1.349843025E0
1.025704297E2,1.279105902E0,-8.480641991E-2,1.436585784E0
1.026224230E2,-1.073336005E0,1.031244397E0,1.287534714E0
1.026744162E2,-3.611481190E0,1.463736892E0,6.131395102E-1
1.027264096E2,-5.886954308E0,1.697698355E0,-2.677281797E-1
1.027784030E2,-7.416560650E0,2.238314152E0,-7.362618446E-1
1.028303963E2,-6.797754288E0,1.979307294E0,-2.133921623E0
1.028823906E2,-6.456891537E0,5.303348899E-1,-2.673315525E0
1.029343839E2,-5.734237671E0,3.029384613E0,-2.215166569E0
1.029863774E2,-4.733029842E0,3.661019325E0,-2.444241047E0
1.030383708E2,-2.086761475E0,1.290251255E0,-1.760071993E0
1.030903646E2,-6.823822856E-1,-1.250337243E0,-3.294255733E-1
1.031423608E2,-2.388941199E-1,-2.224056482E0,3.755128980E-1
1.031943548E2,-8.251262456E-2,-2.030412197E0,4.708078802E-1
1.032463482E2,1.777159721E-1,-7.311018705E-1,1.531579792E-1
1.032983414E2,5.350721478E-1,8.815823793E-1,7.985413820E-2
1.033503347E2,7.366576791E-1,1.289029598E0,1.140625924E-1
1.034023282E2,9.981079698E-1,7.807896137E-1,2.234074771E-1
1.034543214E2,1.436098337E0,1.418245882E-1,5.154010653E-1
1.035063155E2,1.608362436E0,4.778004885E-1,9.252915978E-1
1.035583090E2,1.523452163E0,9.432798028E-1,1.214841843E0
1.036103023E2,1.278495073E0,1.031244397E0,1.253326297E0
1.036622958E2,9.046456218E-1,6.928250194E-1,1.016310573E0
1.037142891E2,5.821087360E-1,7.661288381E-1,8.263314962E-1
1.037662824E2,4.153425694E-1,1.177241206E0,9.179612398E-1
1.038182757E2,3.676950634E-1,5.810366869E-1,7.921229601E-1
1.038702690E2,2.552958429E-1,4.503115118E-1,6.864432693E-1
1.039222631E2,2.174222171E-1,3.201972246E-1,7.298147678E-1
1.039742568E2,3.035542071E-1,5.263825879E-2,9.204047322E-1
1.040262500E2,4.831486046E-1,-1.074084416E-1,1.066401482E0
1.040782435E2,7.403228879E-1,-2.821159065E-1,1.138483644E0
1.041302371E2,8.612741828E-1,-9.458027035E-2,1.362060308E0
1.041822353E2,1.088515997E0,-5.447879434E-1,1.539211154E0
1.042342329E2,1.148991704E0,-4.433843195E-1,1.607017159E0
1.042862268E2,1.016433954E0,-3.206003904E-1,1.823874354E0
1.043382201E2,1.123335361E0,-4.946970046E-1,1.590523958E0
1.043902136E2,6.975623369E-1,9.096822143E-1,1.209954858E0
1.044422070E2,2.039831728E-1,3.706223488E0,2.606702447E-1
1.044942001E2,2.186439335E-1,4.535778522E0,-1.232284427E0
1.045461934E2,2.516306639E-1,3.566335201E0,-2.490666866E0
1.045981870E2,2.204765379E-1,2.086819649E0,-3.781424999E0
1.046501813E2,-1.100824952E0,1.450297952E0,-3.957354307E0
1.047021745E2,-1.218721867E0,-5.861147881E0,-4.887701988E0
1.047541678E2,-2.558960199E0,-3.235038519E0,-1.479074001E0
1.048061613E2,-2.162508726E0,3.965553939E-1,-1.044748783E0
1.048581547E2,-1.208948135E0,1.839742959E-1,-2.193175554E0
1.049101480E2,8.124049902E-1,-6.158639431E0,2.282943875E-1
1.049621411E2,1.379898787E0,-1.680386424E0,-1.558486462E0
1.050141345E2,1.725648522E0,4.234621525E0,-1.525499701E0
1.050641884E2,1.813811660E-1,-2.631503582E0,-1.592694998E0
1.051161817E2,2.893622875E0,2.074602365E0,-3.370923519E0
1.051681751E2,5.554292351E-2,6.869894505E0,-2.691030502E0
1.052201686E2,-2.370615304E-1,-2.024303675E0,4.756948352E-1
1.052721647E2,-2.745274067E0,9.102931023E-1,2.688248873E0
1.053241591E2,2.190516949E0,-3.657146454E0,-9.244083166E-1
1.053761524E2,-4.807967544E-1,2.157069206E0,4.118284225E0
1.054281459E2,-5.528788567E-1,-5.038599968E-1,5.807636380E-1
1.054801392E2,-9.487195611E-1,7.190922499E-1,-4.231891409E-2
1.055321324E2,-5.889199376E-1,9.182342887E-1,-3.422537446E-1
1.055841258E2,-3.975205496E-2,-2.534052134E-1,7.557807863E-2
1.056361193E2,7.366576791E-1,-1.371288538E0,1.579528332E0
1.056881133E2,1.401279092E0,-1.666947365E0,2.892888784E0
1.057401069E2,2.270540237E0,-3.477551937E0,4.026043892E0
1.057921001E2,2.582692385E0,-5.436596870E0,5.191574574E0
1.058440934E2,2.976700544E0,-6.155585289E0,4.442653656E0
1.058960868E2,2.830703497E0,-6.143368244E0,3.013228893E0
1.059480802E2,2.770227909E0,-8.106688499E0,1.326982584E-2
1.060000735E2,8.985369802E-1,-7.151906013E0,-2.534649134E0
