"Time (s)","Linear Acceleration x (m/s^2)","Linear Acceleration y (m/s^2)","Linear Acceleration z (m/s^2)"
5.999558200E-2,-2.329387665E-1,1.330778122E0,-2.523197651E0
1.199893980E-1,1.467708588E0,4.809694290E-1,-2.746710539E0
1.799837990E-1,3.257137775E0,9.235382080E-3,-3.034811497E0
2.399780410E-1,4.807494640E0,-8.260345459E-2,-3.379693985E0
2.999719410E-1,5.983695507E0,1.496114731E-1,-4.043595314E0
3.599653730E-1,6.734052658E0,5.283384323E-1,-4.767422676E0
4.199586720E-1,-2.521346569E0,-1.252865791E1,3.711609840E-1
4.799512700E-1,-3.068820477E0,-1.284896755E1,2.655048370E-1
5.399437010E-1,-2.291253805E0,-1.186697960E1,-1.076369762E0
5.999360980E-1,2.295532227E-1,-1.088872910E1,-1.180149078E0
6.599285950E-1,2.569113493E0,-8.411722183E0,-2.522462845E0
7.199210600E-1,2.433884859E0,-8.068977356E0,-2.508592606E-1
7.799136560E-1,-4.147780418E0,-6.964833260E0,-4.223685741E0
8.399060870E-1,-3.105403423E0,-4.923606396E0,-3.550159931E0
8.998986170E-1,-2.125935555E0,-6.973361969E0,-3.539124012E0
9.598908810E-1,1.153433323E0,-6.322603226E0,-3.208889484E0
1.019883411E0,-7.485580444E-2,-3.858341694E0,-3.295316219E0
1.079875875E0,-1.625235081E0,-6.906132698E-1,-2.555644989E0
1.139868471E0,-3.655444145E0,-2.401369095E0,-1.859124064E0
1.199860936E0,-1.037698746E0,-4.063447952E0,1.737165451E-2
1.259854202E0,5.510005951E-1,-4.022627354E0,-5.022311211E-1
1.319847332E0,1.779678345E0,-4.028346062E0,3.056120872E-2
1.379840462E0,3.440236568E0,-4.290970802E0,2.299065590E-1
1.439833526E0,3.502068758E0,-2.979785919E0,1.896247387E0
1.499826590E0,1.141237259E0,3.677210808E-1,-1.653015852E0
1.559819055E0,4.634242058E-1,-1.807947159E0,-2.029296160E0
1.619811485E0,-9.818935394E-2,-1.473213196E0,-1.453962803E0
1.679804015E0,2.950158119E-1,1.335959435E-1,-2.539889812E0
1.739796512E0,8.980522156E-1,5.903682709E-1,-1.684859991E0
1.799789042E0,3.302583694E0,1.666941285E0,-6.219210625E-1
1.859781506E0,3.920358658E0,4.563231468E-1,1.785400867E0
1.919773936E0,8.940811157E0,7.843775749E-1,3.116617203E-1
1.979766200E0,-1.353585243E0,2.138035297E-1,1.049499512E-1
2.039758697E0,-6.354245186E0,1.341576576E-1,-5.218680382E0
2.099751228E0,-5.439890862E0,-7.820463181E-1,-6.058393955E0
2.159743792E0,-3.518900871E0,-3.640830517E0,-3.005764961E0
2.219736256E0,-5.697288036E0,-2.793438911E0,-1.983644485E0
2.279729454E0,-5.481763840E0,-3.804309845E0,-2.173089981E-2
2.339723552E0,-8.003827095E0,-6.907518387E0,7.200422287E-1
2.399717882E0,-2.828595161E0,-4.912624836E0,-2.616127014E0
2.459712181E0,4.283848286E0,-4.544648647E0,-3.809532881E0
2.519706511E0,2.798990726E0,-2.470264435E0,-6.277128220E0
2.579700175E0,5.857637405E0,-2.111182451E0,-8.144127846E0
2.639692807E0,8.464483261E0,-4.170722961E-1,-1.091255188E1
2.699685171E0,7.992578506E0,2.463140488E-1,-1.202481079E1
2.759677601E0,2.739850998E0,-5.107672215E-1,-8.379130363E0
2.819670131E0,-1.096612072E1,1.333915830E0,-4.312942028E0
2.879662661E0,7.962514877E0,-5.379254532E1,1.854477310E1
2.939655125E0,-1.062219238E1,-7.544889450E0,-3.690215111E0
2.999647555E0,-2.197940350E0,-4.318812847E0,-1.737176895E0
3.059639919E0,1.737592220E-1,-4.619073868E-2,6.534795761E-1
3.119632217E0,-2.431044579E-1,2.638807297E-1,2.151800156E0
3.179624747E0,-1.143654346E0,1.272807598E0,-1.877160072E-1
3.230293829E0,-3.208745241E0,2.902193069E-1,-1.258865356E0
3.290286425E0,-2.868548870E0,7.825422287E-1,-2.188924313E0
3.350279023E0,-1.902043581E0,-3.844904900E-1,-1.946815491E0
3.410272322E0,-3.501698971E-1,-3.803710938E-1,-8.126230240E-1
3.470265420E0,-3.497924805E-1,-1.569569111E0,-3.010573387E-1
3.530258616E0,-3.733992577E-1,-1.752418995E0,-9.712996483E-1
3.590251680E0,-3.648612499E-1,-2.267323494E0,-1.071560860E0
3.650244744E0,7.038130760E-1,-9.830160141E-1,-1.514031887E0
3.710237075E0,7.741734982E-1,-7.477374077E-1,-1.654955387E0
3.770229472E0,9.497724771E-1,-2.236585617E-1,-1.641681671E0
3.830221936E0,1.051828027E0,-2.211699486E-1,-1.398098469E0
3.890214566E0,2.593579292E-1,-1.099294662E0,-6.328830719E-1
3.950207030E0,5.340543985E-1,-9.232344627E-1,2.698335648E-1
4.010199560E0,-5.549502373E-1,-1.464130402E0,4.376373291E-1
4.070192024E0,-2.255712509E0,-8.625478745E-1,3.634977341E-1
4.130184355E0,-1.864978552E0,-1.790285110E-2,6.008639336E-1
4.190176720E0,-8.464965820E-1,-9.092092514E-2,4.643406868E-1
4.250169250E0,-1.060150623E0,-2.251386642E-2,2.514700890E-1
4.310161780E0,-5.505952835E-1,-1.492552757E-1,2.741670609E-2
4.370154310E0,-9.189176559E-1,-7.582316399E-1,6.324467659E-1
4.430147676E0,2.696514130E-2,-8.147430420E-2,6.145763397E-1
4.490141941E0,2.980999947E-1,7.453305721E-1,6.527476311E-1
4.550136474E0,-2.053658009E0,-2.049152851E-1,1.964699745E0
4.610131007E0,-1.159277439E0,5.557596684E-1,3.038165569E0
4.670125540E0,-1.106386662E0,7.912686467E-1,1.549849510E0
4.730119238E0,1.684205532E0,1.920816183E0,-2.004327297E0
4.790111903E0,3.348627090E0,1.052732944E0,-3.201927185E0
4.850104367E0,2.824442387E0,-1.934956789E0,-4.344288826E0
4.910096897E0,4.337244034E-1,-6.212569237E0,-4.073881626E0
4.970089427E0,5.149126053E-2,-9.269561768E0,-2.682357550E0
5.030081957E0,-9.130298615E0,-8.282858849E0,-5.327056122E1
5.090074421E0,3.327010632E0,1.180004501E1,-3.121173620E0
5.150066819E0,-3.243234634E0,7.413219213E-1,1.666752338E0
5.210059083E0,-3.820335865E0,3.865829468E0,5.505625248E0
5.270051580E0,2.446675301E-1,4.077309132E0,8.209035873E0
5.330044078E0,2.260712147E0,4.051116943E0,4.841200829E0
5.390036674E0,5.508979797E0,7.304059982E0,-1.236728668E0
5.450029138E0,1.530403042E1,1.483803558E1,-8.155250549E0
5.510022236E0,1.248458862E1,1.505598545E1,-2.806661129E0
5.570016267E0,-1.614007354E0,-5.725029469E0,2.068437958E1
5.630010564E0,-2.606182575E0,-5.717784119E1,1.664981079E1
5.690004828E0,-1.478708839E1,-6.436350822E0,-5.676885605E0
5.749999224E0,5.900481224E0,-3.174753189E0,-6.639780045E0
5.809992988E0,3.419032335E0,3.711614609E-1,-5.044247627E0
5.869985586E0,2.628282547E0,4.240574360E0,-4.549150467E0
5.929977917E0,1.964936137E0,2.040499687E0,-5.139914989E0
5.989970447E0,1.256345868E0,1.873788357E0,-4.930120468E0
6.049962911E0,9.921880364E-1,8.216590881E-1,-4.861364841E0
6.109955441E0,-3.031680584E-1,-2.360981941E0,-3.289983273E0
6.169947971E0,-1.398126125E0,-3.531069279E0,-4.154169559E0
6.229940501E0,-1.001196861E0,-5.045184612E0,-2.062685013E0
6.289932865E0,-8.403849602E-1,-4.392736435E0,2.546730042E-1
6.349925196E0,-3.091325760E-1,-7.414311409E0,6.988312244E0
6.409917726E0,-5.423814297E0,-4.861608505E0,7.845773220E0
6.469910256E0,-8.360080719E-1,-9.710469246E-1,7.179164410E0
6.529902786E0,-1.710271835E-2,-2.068200111E-1,3.627105713E0
6.589895384E0,-4.825768471E-1,6.727871895E-1,2.988348484E0
6.649888716E0,7.609701157E-2,-6.007122993E-1,1.945688725E0
6.709881780E0,5.835194588E-1,-1.237676144E0,1.642405510E0
6.769874910E0,1.350346565E0,-1.219185233E0,5.879893303E-1
6.829867974E0,2.771257877E0,-3.287997246E-1,-2.797684669E-1
6.889861005E0,1.512623310E0,1.348474979E0,-4.372386932E-1
6.949853269E0,-1.308483601E0,3.323685169E0,1.166093349E0
7.009845799E0,-1.656167984E0,4.233722687E0,1.717014313E0
7.069838263E0,-1.871220589E0,2.909265041E0,-6.214957237E-1
7.129830793E0,-2.200641870E0,3.287229538E-1,-1.309188843E0
7.189823257E0,-1.756813049E0,-5.246932983E0,-3.243145943E0
7.249815887E0,-1.688476324E0,-1.120948219E1,-1.427243710E0
7.309808218E0,-2.319118118E1,-1.185183144E1,-3.253610992E1
7.369800549E0,1.593600750E1,-4.870295048E0,-5.984948158E0
7.429793079E0,8.542371750E0,-3.960252285E0,-3.535392761E0
7.489785609E0,5.676408291E0,-3.003706932E0,9.741258621E-1
7.549778040E0,-1.393813133E0,1.858424664E0,9.459190369E-1
7.609770570E0,-1.256022835E1,6.794211388E0,-1.389036655E0
7.669764069E0,-7.509079933E0,1.105418563E0,9.146379471E0
7.729758333E0,-8.265370131E-1,7.940532684E0,6.176291466E0
7.789752663E0,6.636793137E0,8.305178642E0,-1.286811829E0
7.849746927E0,1.725476265E1,1.935314369E1,-5.219491005E0
7.909741257E0,1.025313568E1,1.036142635E1,1.680436134E-1
7.969734622E0,-2.060190582E1,-5.230231285E0,-1.968077278E1
8.029727020E0,-1.036307621E1,-2.434156990E1,-6.313637733E0
8.089719284E0,-6.910923004E0,-9.619167328E0,-9.057730675E0
8.149711880E0,5.387560844E0,-4.883714676E0,-7.681994438E0
8.209704344E0,2.603677511E0,2.021870613E-1,-7.259960651E0
8.269696875E0,-1.433191299E-1,4.318484783E0,-7.152467251E0
8.329689339E0,-3.243908882E-1,2.765958309E0,-8.375315666E0
8.389681935E0,-8.033812046E-2,-4.590888023E-1,-4.800713062E0
8.449674199E0,2.016732693E-1,-3.010109901E0,-2.489825249E0
8.509666630E0,-3.793945312E0,-6.264050961E0,5.997304916E-1
8.569659094E0,-4.322211146E-1,-8.047959328E0,4.765574455E0
8.629651624E0,-2.223034143E0,-6.599514484E0,4.995353699E0
8.689644088E0,-3.301895618E0,-3.808096886E0,2.368852615E0
8.749637120E0,-5.249840736E0,-1.837116718E0,1.113218784E0
8.809630385E0,-3.055793524E0,-3.025326729E-1,1.216766834E0
8.869623549E0,-2.747139454E0,4.358744621E-1,5.181326866E-1
8.929616679E0,-2.170758724E0,-2.743353844E-1,3.815364838E-1
8.989609809E0,-2.040136337E0,-1.106991768E0,4.966573715E-1
9.049602440E0,-1.018272877E0,-1.385269165E0,3.138246536E-1
9.109594738E0,-2.264215946E0,-1.853565931E0,1.020613670E0
9.169587202E0,-7.043876648E-1,-1.656211853E0,8.720822334E-1
9.229579732E0,-1.175095558E0,-1.460229874E0,1.455642700E0
9.289572262E0,1.377564192E0,-1.650327921E0,3.242844582E0
9.349564726E0,4.299072742E0,-2.983215332E0,4.163935661E0
9.409557256E0,7.281679153E0,-2.390333414E0,2.215865135E0
9.469549620E0,5.659715176E0,4.814147949E-3,-5.173692703E-1
9.529541951E0,-4.644957542E0,-6.737184525E-1,-5.527734280E0
9.589534481E0,-1.206124783E1,-1.096948433E1,-5.776190281E0
9.649527077E0,-5.845048428E0,-1.219517612E1,1.227903843E0
9.709519541E0,3.063854694E0,-1.067582321E1,-6.025892735E0
9.769512238E0,2.900491714E1,8.844752312E-1,-1.233145332E1
9.829506103E0,4.151559830E0,1.970504761E0,-3.741719723E0
9.889500433E0,-2.307227612E0,-1.911044359E0,-7.359327316E0
9.949494731E0,-1.473456860E0,-2.721738815E-1,-3.118338585E0
1.000948913E1,-3.323372841E0,2.702795029E0,-3.637032032E0
1.006948323E1,-7.728532314E0,4.318662882E-1,-2.725935698E0
1.012947622E1,-1.323000431E1,-1.397054672E0,-3.794527054E-2
1.018946849E1,-1.042542267E1,-4.350139141E0,7.665858746E0
1.024946085E1,-9.335447311E0,-4.072322369E0,7.320317268E0
1.030945332E1,-7.504552364E0,-3.786397934E0,3.020092964E0
1.036944591E1,-2.707105637E0,-3.168913364E0,5.686583519E-1
1.042943841E1,5.100617409E-1,-2.817209959E0,-5.580917358E0
1.048943094E1,1.145091653E0,-2.053694248E0,-6.707241058E0
1.054942340E1,6.812206745E0,1.462722301E0,-7.133399010E0
1.060941580E1,1.405143070E1,2.425109100E1,-6.903662682E0
1.066939938E1,1.650556374E1,3.404211521E0,1.057156277E1
1.072939187E1,9.932770729E0,-7.966669464E1,-3.098497391E1
1.078938440E1,-2.336565590E1,-1.376195145E1,-5.793011665E0
1.084937697E1,4.923221111E0,-1.044341850E1,-9.843683243E0
1.090937007E1,2.476133823E0,-4.109258652E-1,-7.743430614E0
1.096936333E1,1.429978967E0,3.476480484E0,-7.572127342E0
1.102935646E1,2.073240995E0,4.500048161E0,-7.203097343E0
1.108934959E1,2.686554670E0,4.678795338E0,-8.169735909E0
1.114934269E1,3.964575768E0,9.247436523E-1,-5.866344452E0
1.120933512E1,2.773837328E0,1.076540947E-1,-1.354756355E0
1.126932745E1,2.149768114E0,-3.310524702E0,4.614267349E-1
1.132931995E1,-2.671429515E-1,-5.411211491E0,-3.749532700E-1
1.138931248E1,-8.315165043E-1,-5.591664791E0,-1.127235413E0
1.144930497E1,-1.611393213E0,-5.673851967E0,2.073412895E0
1.150929757E1,-2.521258593E0,-4.331550598E0,2.013321400E0
1.156929003E1,-4.238399982E0,-3.820054531E0,1.308251858E0
1.162928247E1,-2.400329590E0,-2.618713379E-1,-2.662897110E-1
1.168927476E1,-9.606089592E-1,1.589718819E0,-9.300708771E-3
1.174926733E1,-2.904522896E0,2.652397156E-1,6.660861969E-1
1.180925982E1,-4.694765091E0,-1.784579754E0,3.043036461E-1
1.186925245E1,-2.417951584E0,-1.377428532E0,2.211999893E-1
1.192924535E1,-8.970141411E-1,-2.300047874E-1,-4.217381477E-1
1.198923955E1,-2.329377651E0,-2.388544083E-1,-2.813167572E-1
1.204923402E1,-1.086971283E0,-1.224558353E0,2.533270836E0
1.210922858E1,-1.147954941E0,-3.469271660E-1,9.064431190E-1
1.216922302E1,-2.208364964E0,5.075500607E-1,6.507215500E-1
1.222921705E1,-5.041222572E-1,1.193536401E0,-1.567696571E0
1.228920988E1,-6.559581757E-1,1.789595962E0,-1.984567165E0
1.234920224E1,-2.479137897E0,1.777359486E0,-2.923342705E0
1.240919470E1,-3.871074200E0,1.562576771E0,-1.107626438E0
1.246918724E1,-3.088093758E0,5.355110168E0,-2.359396458E0
1.252917987E1,-2.096894741E0,5.518643379E0,-6.348991394E-1
1.258917240E1,-7.491165638E0,-9.787607193E-2,1.765729427E0
1.264916489E1,-4.645238876E0,-1.032726669E1,-5.315487862E0
1.270915716E1,-9.055985451E0,-5.667663574E1,1.184560013E1
1.276914955E1,1.307950211E1,-8.949529648E0,-8.982289314E0
1.282914202E1,7.190656662E0,-1.105320454E1,-3.249610424E0
1.288913455E1,2.331644535E0,-8.325626373E0,-4.257499695E0
1.294912701E1,1.329784513E0,-7.397650719E0,-5.151392937E0
1.300911981E1,-5.038501740E0,-6.427651882E0,-2.676588058E0
1.306911371E1,-9.581556320E0,-4.379131317E0,-1.564951897E0
1.312910800E1,-2.005655670E1,-1.006948280E1,5.247065067E0
1.318910227E1,-1.623975372E1,-1.497930527E0,4.261536121E0
1.324909667E1,-1.505832100E1,4.402773380E-1,2.153591633E0
1.330909073E1,-3.378165722E0,4.544632912E0,-2.834311962E0
1.336908366E1,1.045654058E0,3.515938044E0,-8.274908066E0
1.342907596E1,1.613435030E0,2.312660217E0,-8.572771072E0
1.348906842E1,1.399624252E1,1.743623543E1,-8.578653336E0
1.354906088E1,1.110999680E1,1.269895172E1,-4.102228165E0
1.360905348E1,-1.020154572E1,-1.162967968E1,2.588757706E1
1.366904591E1,-1.078062415E0,-3.987193298E1,1.300501442E1
1.372903841E1,-4.809366703E0,-1.141064167E1,-1.030661964E1
1.378903081E1,3.378125429E0,-2.498514175E0,-5.800842285E0
1.384902314E1,3.426691294E0,1.617680073E0,-7.011625767E0
1.390901557E1,-3.484277725E-1,2.895468235E0,-6.878520012E0
1.396900810E1,-9.417948723E-1,1.908241749E0,-3.922254086E0
1.402900063E1,-1.663353443E0,2.396450043E-1,-3.053610802E0
1.408899319E1,-4.729700089E0,-4.134568214E0,1.866207123E-1
1.414898639E1,-2.679807186E0,-4.759779930E0,2.147824287E0
1.420897949E1,-2.895379066E0,-5.167807579E0,2.410359383E0
1.426897262E1,-3.277132988E0,-3.700657368E0,2.353206635E0
1.432896578E1,-3.544456482E0,-2.087796450E0,2.362302780E0
1.438895888E1,-1.490713596E0,-5.499105453E-1,1.361425877E0
1.444895131E1,-6.788802147E-1,1.079840660E-1,1.371668339E0
1.450894381E1,-2.143707275E0,3.454756737E-1,2.472658157E-1
1.456893627E1,-1.991865635E0,4.148852825E-1,-1.670284271E-1
1.462892877E1,-1.730664730E0,-4.044752121E-1,-2.556042671E-1
1.468892123E1,-9.163904190E-1,-1.050847054E0,-2.934422493E-1
1.474891380E1,5.388326645E-1,-9.576225281E-1,-3.915619850E-1
1.480890616E1,-1.409983635E-1,-3.242888451E-1,1.131458759E0
1.486889856E1,-9.818773270E-1,-8.181352615E-1,3.776354313E0
1.492889095E1,-9.129295349E-1,-5.722440481E-1,4.290104389E0
1.498888355E1,5.802164078E-1,7.101126313E-1,2.741236687E0
1.504887601E1,7.904083729E-1,4.164445400E-1,3.822078705E-1
1.510886861E1,6.080505848E-1,9.102969170E-1,-6.130323410E-1
1.516886168E1,6.870847940E-1,1.769350767E0,-2.144119740E0
1.522885584E1,-7.839193344E-1,-1.240147352E0,-2.938073158E0
1.528885031E1,7.457765937E-1,-2.082778692E0,-6.856343269E0
1.534884484E1,-5.671576858E-1,-9.198239326E0,-3.772463322E0
1.540883931E1,-8.867210150E-1,-1.312996483E1,-5.527504921E0
1.546883330E1,9.386011124E0,9.340693474E0,1.095359802E0
1.552882607E1,8.973881721E0,8.733273506E0,-6.290009499E0
1.558881860E1,8.618128777E0,-4.730122685E-1,1.167618752E0
1.564881110E1,-3.059692860E0,-8.413110733E0,-4.810031891E0
1.570880366E1,-1.322866821E1,-1.176589775E1,-9.389748573E-1
1.576879612E1,-7.496765137E0,-7.705248356E0,1.160905457E1
1.582878862E1,-1.180700779E1,-1.923265934E0,7.541246891E0
1.588878095E1,-7.616522789E0,-3.759083748E0,2.678426266E0
1.594877332E1,-2.653377533E0,-2.720814705E0,-3.043349743E0
1.600876581E1,3.233350754E0,-9.612089396E-1,-5.269875526E0
1.606875828E1,5.324301720E0,9.223847389E-1,-8.576683044E0
1.612875084E1,4.992621422E0,2.889154434E0,-8.428893089E0
1.618874337E1,2.357259274E0,2.298523903E0,-7.772815228E0
1.624873627E1,1.596119642E0,-4.463233471E0,2.407327652E0
1.630873013E1,1.272702336E0,-1.109557152E1,-2.714164352E1
1.636872453E1,-7.632458210E0,-8.765468597E0,-7.901693344E0
1.642871879E1,-6.762455702E-1,-4.385889530E0,-1.230207443E0
1.648871312E1,2.648377419E-2,-1.515043497E0,-1.109367371E0
1.654870702E1,-1.024947166E0,-9.413814545E-1,6.831340790E-1
1.660869979E1,-1.923069715E0,-7.033386230E-1,3.185004234E0
1.666869205E1,-1.347668648E0,-1.098014355E0,3.916338444E0
1.672868458E1,-1.677865982E0,5.066919327E-2,2.417819977E0
1.678867704E1,-1.226863861E0,7.883272171E-1,1.325026512E0
1.684866961E1,-1.011806011E0,8.261294365E-1,8.432755470E-1
1.690866211E1,-2.844195366E0,-5.180778503E-1,2.222785950E-1
1.696865474E1,-8.847894669E-1,-2.603611946E-1,-7.575826645E-1
1.702864707E1,-4.570293427E-1,-1.190963268E0,-5.684256554E-1
1.708863943E1,5.745229721E-1,-1.000520229E0,-1.045922756E0
1.714863193E1,3.967852592E-1,-1.410051346E0,-8.691177368E-1
1.720862446E1,1.123770237E0,-8.895745277E-1,-1.213885307E0
1.726861689E1,1.262318611E0,-1.009645462E0,-6.876292229E-1
1.732860949E1,1.324508190E0,-4.577913284E-1,-9.854736328E-1
1.738860275E1,4.878387451E-1,-5.884881020E-1,-7.276849747E-1
1.744859592E1,1.700100899E-1,-1.862664223E-1,-8.940882683E-1
1.750858905E1,-4.623856544E-1,-4.190597534E-1,-5.420703888E-1
1.756858211E1,-1.994934082E-1,-1.048202515E-1,-4.504432678E-1
1.762857517E1,-4.947624207E-1,3.673505783E-2,-4.828124046E-1
1.768856754E1,-8.465862274E-1,4.695277214E-1,-5.474300385E-1
1.774855994E1,-1.836608410E0,5.145788193E-1,-4.381151199E-1
1.780855240E1,-5.341572762E-1,9.835300446E-1,1.614599228E-1
1.786854500E1,-9.589724541E-1,7.292351723E-1,2.364115715E-1
1.792857517E1,-1.202679634E0,1.066050529E-1,7.295117378E-1
1.798856770E1,-9.640297890E-1,1.875089169E0,-8.611803055E-1
1.804856006E1,5.304884911E-1,3.056803703E0,4.765579224E0
1.810855246E1,1.588702679E0,-3.937677383E0,-1.215497494E0
1.816854489E1,3.043105125E0,-3.159637451E0,-5.318395615E0
1.822853752E1,3.499645710E0,-5.675306320E-1,-2.547899485E0
1.828852995E1,1.273548603E0,1.676988125E0,-1.620703697E0
1.834852248E1,-2.501866817E0,1.077877045E0,2.187714815E0
1.840851568E1,-2.390112400E0,1.651279688E0,1.202940702E0
1.846850988E1,3.196158409E-1,8.894305229E-1,1.979979753E0
1.852850411E1,-6.376333714E0,-5.006116867E0,4.330309868E0
1.858849847E1,-1.965950966E0,-2.830951929E0,-6.423554420E-1
1.864849280E1,-3.668086052E0,-7.309250355E0,-4.829173088E-1
1.870848640E1,-4.102074623E0,-4.166910648E0,-8.548027039E0
1.876847890E1,3.590953827E0,5.177686691E0,1.871130943E0
1.882847123E1,1.810386181E0,7.772514820E0,-3.535877705E0
1.888846373E1,5.795580864E0,3.742683649E0,3.281545639E-2
1.894845626E1,-3.850303650E0,-2.117739201E0,2.662450314E0
1.900844879E1,-1.701426506E1,-6.406807423E0,4.264502525E-1
1.906844125E1,-4.663447380E0,-4.722499371E0,6.384898663E0
1.912843378E1,-1.669054508E0,-1.780967236E0,-1.110506058E-1
1.918842615E1,1.765640259E0,-2.230189562E0,-5.897701263E0
1.924841848E1,9.305930138E0,2.735443115E-1,-7.840086460E0
1.930841091E1,1.624454117E1,1.993129349E1,-1.031216812E1
1.936840350E1,2.957580566E0,-1.196679115E0,1.022887230E1
1.942839597E1,2.551777458E1,-1.663572884E1,-3.015182114E1
1.948838877E1,-1.524813175E1,-1.068563461E1,-1.534259415E1
1.954838203E1,-2.186977863E0,-7.112700939E0,-8.806010246E0
1.960837526E1,7.137958527E0,-3.408699036E-1,-6.006652832E0
1.966836833E1,3.578459978E0,1.883472919E0,-5.248931885E0
1.972836152E1,1.411315441E0,-4.398965836E-1,-4.547135353E0
1.978835432E1,3.780949116E-1,-2.613440275E0,-4.675555229E0
1.984834665E1,1.022909641E0,-5.166159153E0,-3.165138721E0
1.990833905E1,1.000551581E0,-5.128777027E0,-8.335247040E-1
1.996833165E1,-8.446872234E-1,-6.122849941E0,1.135293961E0
2.002832411E1,1.674949646E0,-5.796624184E0,2.545469284E0
2.008831664E1,-6.733090878E-1,-6.262402058E0,6.698946476E0
2.014830917E1,-6.379646063E-1,-2.717002869E0,3.790371895E0
2.020830157E1,-1.496428847E0,-4.694356918E-1,2.785136700E0
2.026829383E1,-2.494765759E0,-1.623950958E0,3.817618847E0
2.032828639E1,-1.880734205E0,-6.520786285E-1,2.629966974E0
2.038827892E1,-1.312785387E0,-8.262929916E-1,2.508718729E0
2.044827149E1,-5.236526132E-1,-7.075405121E-1,1.704802275E0
2.050826405E1,4.556648731E-1,-1.266618729E0,1.176272392E0
2.056825775E1,5.800235271E-1,-2.403095245E0,-2.566227913E-1
2.062825208E1,6.207220554E-1,-2.096607208E0,-1.503962517E0
2.068824662E1,4.206728935E-1,-2.371874809E0,-2.241023302E0
2.074824118E1,3.607263565E-1,-1.881845474E0,-2.752203465E0
2.080823568E1,-1.227009296E0,4.456868172E-1,3.033503532E0
2.086822914E1,-5.570168018E0,-2.231060982E0,2.402810097E0
2.092822158E1,-1.055337906E0,-7.471344471E-1,3.687004089E0
2.098821407E1,1.068400383E0,2.568453550E-1,5.216794014E-1
2.104820654E1,3.988538980E0,1.401292205E0,-2.632683277E0
2.110819907E1,6.804728985E0,1.110665679E0,-3.953740597E0
2.116819143E1,5.191368580E0,-3.950300217E0,-4.529070377E0
2.122818403E1,2.986252308E0,-1.123621082E1,-4.650735855E0
2.128817632E1,1.990811825E0,-9.131702423E0,-7.480507851E0
2.134816876E1,1.742890930E1,3.513963461E0,-9.373140335E0
2.140816122E1,-1.385364056E0,2.262268543E0,2.245176792E0
2.146815382E1,-7.240703583E0,-8.230657578E-1,9.882650375E-1
2.152814628E1,-1.222865677E1,-7.455706596E0,4.690397739E0
2.158813888E1,-1.206309032E1,-1.341298103E0,8.785666466E0
2.164813207E1,-1.198399067E1,-1.059749603E0,8.129566193E0
2.170812627E1,-5.647272110E0,-2.540296555E0,6.306372643E0
2.176812054E1,-3.747955799E0,-1.805536747E0,1.534353018E0
2.182811493E1,3.168439865E-2,-9.824028015E-1,-3.711909056E0
2.188810920E1,3.581297398E0,-1.349822521E0,-5.874531746E0
2.194810273E1,4.390421867E0,-7.898399830E-1,-7.572775841E0
2.200809522E1,1.262014103E1,8.986294746E0,-8.259966850E0
2.206808759E1,2.466639900E1,2.210809135E1,-4.489040375E0
2.212808005E1,2.867201328E0,-3.903775215E0,2.929600525E1
2.218807255E1,-6.349382401E0,-7.900642395E1,1.812119675E1
2.224806504E1,-1.113914013E1,-9.898349762E0,-1.228648567E1
2.230805754E1,7.389783859E0,-3.340470791E-1,-8.290879250E0
2.236805007E1,1.571516633E0,1.233550549E0,-1.142091942E1
2.242804237E1,3.056406260E0,3.968538761E0,-8.745355606E0
2.248803480E1,1.972065091E0,3.230049133E0,-7.077129364E0
2.254802733E1,2.966890812E0,-1.042577267E0,-6.852385044E0
2.260801986E1,2.614576817E-1,-4.744646072E0,-2.035585880E0
2.266801229E1,-4.558347702E0,-8.528428078E0,9.328201294E0
2.272800515E1,-1.982667160E1,-6.850287914E0,1.631947708E1
2.278799835E1,-6.529252052E0,2.431923389E0,1.524676323E1
2.284799148E1,-5.649924278E0,-6.541707516E-1,5.159361362E0
2.290798458E1,-2.663888454E0,-3.820530891E0,-4.396004677E0
2.296797778E1,9.579908848E-2,-2.999814272E0,-7.346586227E0
2.302797054E1,2.662519455E0,3.267263889E0,-5.758235931E0
2.308796294E1,6.166163921E0,4.305257320E0,-3.109132767E0
2.314795540E1,8.906655312E-1,-1.392312050E0,-3.151965141E-2
2.320794787E1,5.607679367E0,-7.280159950E0,-1.666198254E0
2.326794040E1,-3.428321838E0,-8.530618668E0,-1.255280685E1
2.332793299E1,-5.553750992E0,-7.383775711E0,-7.123880386E0
2.338792546E1,-3.036386728E0,-6.908588886E0,-5.609282970E0
2.344791779E1,-2.325122833E0,-4.493196487E0,-3.764592886E0
2.350791019E1,-1.113090992E0,-1.354145527E0,-2.338689804E0
2.356790265E1,3.749434948E-1,1.975729942E0,-9.085807800E-1
2.362789508E1,-1.764115095E0,3.019385338E0,3.645973206E0
2.368788761E1,-3.967863798E0,3.049609184E0,6.369516373E0
2.374788021E1,-2.783627510E0,6.923684597E0,7.624428749E0
2.380787397E1,-5.585022449E0,3.330054998E0,5.814005852E0
2.386786830E1,-3.598165512E0,8.510315418E-1,3.424797058E0
2.392786270E1,-2.796590328E0,-2.434083700E0,6.108207703E-1
2.398785707E1,-7.384564877E-1,-5.451708794E0,-7.326889038E0
2.404785133E1,6.545624256E0,-1.084540176E1,-1.451250839E1
2.410784439E1,4.815668583E0,1.843560410E1,-2.425361443E1
2.416783683E1,5.332022190E0,-4.434595585E0,5.941456795E0
2.422782916E1,-3.609800339E-2,1.099940968E1,2.739618778E0
2.428782159E1,7.872681618E-1,4.287672997E0,-5.667562485E-1
2.434781412E1,-5.060764313E0,2.969625950E0,-5.669135571E0
2.440780658E1,-4.818150520E0,-5.628494740E0,4.497599125E0
2.446779905E1,-1.319172668E1,-7.856987476E0,3.044311047E0
2.452779148E1,-7.767603874E0,-6.877050400E0,4.358520508E0
2.458778387E1,-3.045210838E0,-8.124067307E0,4.791390896E0
2.464777624E1,2.394974232E0,-2.653613329E0,-1.234861374E0
2.470776877E1,9.220149040E0,1.807193279E0,-3.381965637E0
2.476776120E1,1.955824661E1,2.122142792E1,-4.393540382E0
2.482775380E1,5.608945847E0,8.819186211E0,-5.070625782E0
2.488774683E1,-1.472232246E1,-3.081401443E1,-1.667529678E1
2.494774006E1,-1.634664345E1,-2.867441750E1,-1.220610428E1
2.500773319E1,-2.518307924E0,-9.624991417E0,-6.374319553E0
2.506772632E1,5.420795441E0,-4.682459354E0,-9.926657677E0
2.512771938E1,2.014921665E0,1.985427856E0,-7.068804741E0
2.518770705E1,2.881106377E0,6.140361786E0,-4.609198570E0
2.524769945E1,3.944738388E0,2.172998428E0,-5.578196526E0
2.530769198E1,1.995016217E0,2.204308510E-1,-2.082165241E0
2.536768451E1,-4.160702229E0,-4.564485073E0,-1.133195877E0
2.542767704E1,-8.454259038E-1,-6.914866447E0,5.749358177E0
2.548766957E1,-9.728075266E-1,-7.942504883E0,7.581232071E0
2.554766203E1,-3.143305779E0,-2.039332390E0,1.306144714E0
2.560765436E1,-1.643180847E0,-3.294987679E-1,1.038673401E0
2.566764672E1,-3.282330036E-1,1.641703606E0,-5.430412292E-2
2.572763926E1,-1.371738434E0,9.472222328E-1,8.370304108E-2
2.578763172E1,-1.563647509E0,-4.895119667E-1,7.664790154E-1
2.584762425E1,-1.124001980E0,-1.136331081E0,5.110840797E-1
2.590761711E1,-6.621198654E-1,-1.490904331E0,1.759152412E-1
2.596761115E1,-3.255491257E-1,-1.731193066E0,-3.076286316E-1
2.602760561E1,-1.087013721E0,-2.206824303E0,-3.088746071E-1
2.608760021E1,-4.274697304E-1,-1.478997946E0,-2.094593048E-1
2.614759468E1,-1.177411079E-1,-6.257767677E-1,-6.149125099E-1
2.620758888E1,1.025944233E0,-3.529150486E-1,-1.922907829E-1
2.626758181E1,6.743912697E-1,-5.536320210E-1,-2.965116501E-1
2.632757427E1,1.101922989E-2,1.575621367E-1,-7.441782951E-1
2.638756674E1,-1.321425438E-1,8.305177093E-1,2.470283508E-1
2.644755933E1,-2.198615551E0,1.210995197E0,2.370011330E0
2.650755180E1,-2.597208500E0,1.507289648E0,2.226007462E0
2.656754433E1,-1.913428307E-1,1.604596376E0,1.447905540E0
2.662753672E1,2.432522774E0,1.001103640E0,-2.482199192E0
2.668752912E1,1.567067266E0,-3.083731651E0,-3.616793156E0
2.674752148E1,1.534203053E0,-7.329306602E0,-4.049896240E0
2.680751402E1,2.628111839E-2,-1.129586792E1,-5.295942783E0
2.686750658E1,2.240219116E0,2.434696198E0,1.151082230E1
2.692749911E1,1.016829300E1,8.360498428E0,-5.738886833E0
2.698749174E1,-3.118786812E-1,3.412687778E0,1.463824272E0
2.704748550E1,-5.383826256E0,-2.208651543E0,-2.716454029E0
2.710747983E1,-1.170548630E1,-8.234671593E0,1.054864407E0
2.716747413E1,-1.224468422E1,-5.325768471E0,6.244920731E0
2.722746846E1,-7.468932152E0,-3.361499071E0,3.439892769E0
2.728746256E1,-4.147710800E-1,-2.815121174E0,2.823310852E0
2.734745556E1,1.595728397E0,1.216423631E0,-2.497513294E0
2.740744792E1,6.365765572E0,4.592494011E0,-5.422945976E0
2.746744042E1,1.052846527E1,1.704733276E1,-3.405168533E0
2.752743288E1,6.276815891E0,8.204404831E0,5.209598541E-1
2.758742548E1,-1.594574356E1,-5.478832722E0,-2.151861572E1
2.764741794E1,-2.372968864E1,-2.011134911E1,-1.547813988E1
2.770741044E1,5.761373043E-1,-1.239699364E1,-1.171629715E1
2.776740274E1,4.392632484E0,-1.192213058E0,-6.214941025E0
2.782739513E1,9.198074341E-1,2.109362602E0,-5.581039906E0
2.788738756E1,2.725877047E0,4.641316891E0,-3.099786997E0
2.794738016E1,2.222498178E0,1.676699638E0,-8.065462112E-2
2.800737263E1,-1.474061966E0,-8.400931358E-1,-1.970911026E-1
2.806736519E1,-1.983647943E0,-8.143413067E-1,-3.833770752E-1
2.812735829E1,-3.077500105E0,-2.368874550E0,3.435859680E-1
2.818735152E1,-4.550604820E0,-1.951238155E0,-1.401424408E-1
2.824734458E1,-1.702188969E0,-4.851179719E-1,-5.010643005E-1
2.830733771E1,-7.772092819E-1,-4.736195505E-1,-5.629501343E-1
2.836733081E1,1.047295094E0,-1.176953316E-1,-2.302461147E0
2.842732337E1,-1.601082087E0,-1.344920635E0,-1.456363201E0
2.848731577E1,-1.049728632E0,-1.742068052E0,-1.741552353E-1
2.854730830E1,2.772622108E-1,-3.040733337E0,1.905645370E0
2.860730083E1,3.905653358E-1,-3.554265499E0,2.431865692E0
2.866729336E1,4.343534708E-1,-1.337572098E0,1.156997681E-2
2.872728583E1,2.319645882E-2,-6.411495209E-1,1.409258842E-1
2.878727816E1,-3.972055912E-1,2.620553970E-2,1.527438164E-1
2.884727049E1,-1.000771761E0,-4.439754486E-1,8.041825294E-1
2.890726295E1,-5.766341686E-1,-6.979007721E-1,6.139550209E-1
2.896725548E1,-1.804829121E0,-6.899104118E-1,1.796012878E0
2.902724795E1,-2.564219475E0,-2.185630798E-1,3.747194767E0
2.908724054E1,-3.229629993E0,-1.081634045E0,4.771392822E0
2.914723351E1,-8.588819504E-1,-2.435228825E0,6.108814240E0
2.920722754E1,2.281045675E0,-3.989614010E0,6.608215332E0
2.926722180E1,4.974756241E0,-4.754845142E0,3.752641678E0
2.932721620E1,1.319704819E1,-3.848710060E-1,-2.159113407E0
2.938721046E1,6.039589882E0,-1.045518112E1,-5.542775631E0
2.944720436E1,2.940322399E0,-1.064649773E1,-8.571147919E0
2.950719699E1,-5.846004486E-1,-9.207294464E0,-4.002363682E0
2.956718932E1,3.973892212E0,-1.069391632E1,-1.571399212E0
2.962718172E1,4.233397675E1,-2.678266525E1,2.100948334E1
2.968717432E1,-1.939758682E1,-6.907649517E0,-2.782546234E1
2.974716678E1,1.111114502E0,2.261207819E0,-1.981228828E1
2.980715931E1,2.381940460E1,-7.438081741E0,3.818902969E1
2.986715184E1,-3.599570751E0,-3.220825195E-1,4.564644814E0
2.992714427E1,-1.101707458E1,3.845187426E0,-4.772636890E0
2.998713657E1,-9.803766251E0,-1.426508427E0,-1.166740656E-1
3.004712917E1,-9.687473297E0,8.244194984E-1,-4.294328988E-1
3.010712170E1,-5.620232105E0,1.486564636E0,3.205870390E0
3.016711433E1,-5.398800850E0,6.988801956E-1,4.333508492E0
3.022710696E1,-4.115433216E0,-2.141838074E0,3.163312674E0
3.028710019E1,-5.806199551E0,-1.359295845E0,7.457567453E-1
3.034709325E1,-6.703712940E0,-3.619278908E0,-2.845168591E0
3.040708638E1,-3.738050461E-1,-3.719312191E0,2.284995079E0
3.046707945E1,6.405725479E-1,-6.790685654E-1,-2.573809147E0
3.052707241E1,6.211428642E0,2.251008511E0,-3.709620714E0
3.058706481E1,8.273468018E0,4.731005192E0,-8.049577713E0
3.064705718E1,1.238400555E1,1.102940941E1,-1.064295959E1
3.070704971E1,6.120158195E0,5.527298927E0,-1.689334869E1
3.076704220E1,-1.154614258E1,-1.152175617E1,1.651087761E1
3.082703476E1,4.054259300E0,-4.340386581E1,4.751752472E1
3.088702726E1,-1.187413883E1,-2.490130901E0,-7.887893200E0
3.094701983E1,2.698040009E0,-1.716054440E0,-6.254396439E-1
3.100701212E1,1.823674560E0,5.019661903E0,3.706779480E-1
3.106700459E1,-2.134182930E0,3.519988060E-1,2.530367374E0
3.112699705E1,-5.667985916E0,1.131489754E0,4.072430611E0
3.118698962E1,-5.201924324E0,-8.226060867E-2,2.687820911E0
3.124698205E1,-2.735570669E0,1.606913090E0,1.822397232E0
3.130697545E1,-3.054670811E0,1.135573864E0,-3.854975700E-1
3.136696974E1,-1.775574207E0,4.003529549E-1,-9.562325478E-1
3.142696428E1,-7.795548439E-1,-3.574581146E-1,-1.762329578E0
3.148695874E1,1.819128990E-1,-8.361959457E-1,-1.471435547E0
3.154695331E1,5.353555679E-1,-7.999606133E-1,-2.176637650E0
3.160694694E1,5.071244240E-1,-1.305027485E0,-1.712411880E0
3.166693950E1,1.173638105E0,-5.640869141E-1,-1.328515530E0
3.172693197E1,1.070274830E0,-3.894996643E-1,-1.218003273E0
3.178692450E1,8.702285290E-1,7.268285751E-2,-1.044652462E0
3.184691696E1,-2.581119537E-3,-2.543678284E-1,-3.931822777E-1
3.190690956E1,4.664258957E-1,4.176225662E-1,-7.987890244E-1
3.196690209E1,5.359725952E-1,3.795380592E-1,-5.854172707E-1
3.202689449E1,2.496545315E-1,-3.909931183E-1,7.441458702E-1
3.208688682E1,-3.497858047E-1,-1.082924366E0,1.558951378E0
3.214687928E1,-1.178117990E-1,-2.760553360E-1,3.163509369E-1
3.220687175E1,-5.178778172E-1,1.809291840E-1,3.413319588E-1
3.226686428E1,-1.205652714E0,4.246115685E-1,2.848186493E-1
3.232685677E1,-9.048995972E-1,4.155263901E-1,1.495084763E-1
3.238684984E1,-3.067314625E-1,2.236223221E-2,1.833281517E-1
3.244684397E1,-2.732794285E-1,-2.024345398E-1,1.419901848E-1
3.249688199E1,-3.035516739E-1,-4.051775932E-1,3.832721710E-2
3.255687639E1,-5.348665714E-1,-1.141172409E0,3.073363304E-1
3.261687069E1,-1.811396122E0,-1.564809799E0,2.501388550E0
3.267686462E1,-2.688047409E0,-7.030081749E-1,3.728214264E0
3.273685728E1,-3.119900703E0,-1.207226753E0,3.830744267E0
3.279684968E1,-1.282895088E0,6.893036366E-1,2.397305489E0
3.285684214E1,-2.525655746E0,2.803583384E0,-2.907989025E0
3.291683468E1,1.489259720E0,1.573530436E0,-5.119699478E0
3.297682720E1,6.190605164E-1,-4.283061028E0,-3.284118652E0
3.303681974E1,-1.098794937E-1,-6.413043022E0,-4.324621201E0
3.309681220E1,3.713899136E0,-5.366548538E0,-4.863947868E0
3.315680453E1,4.528098583E0,-4.591055393E0,-4.456716537E0
3.321679686E1,5.167068005E0,-7.373495698E-1,-4.456329346E0
3.327678939E1,5.774383068E0,3.716440201E0,-2.723567009E0
3.333678192E1,3.731619835E0,1.480233192E0,7.639670372E-1
3.339677438E1,-6.815142632E-1,-2.363162994E0,3.227798462E0
3.345676702E1,-7.377373219E0,-4.944305420E0,4.230453491E0
3.351676028E1,-6.778594017E0,-8.248710632E-2,4.862221718E0
3.357675341E1,-7.718898773E0,3.594865799E-1,3.610784292E0
3.363674648E1,-7.284371376E0,-1.174669266E0,2.917979240E0
3.369673967E1,-5.995348930E0,-4.590605736E0,-2.669075251E0
3.375673260E1,-8.178829193E0,-1.114285469E1,1.066896200E0
3.381672500E1,-3.085012436E-1,-7.485339642E0,7.701071739E0
3.387671740E1,6.979140282E0,9.607672691E-2,3.725622177E0
3.393670999E1,5.903867722E0,1.164475918E0,-6.081696987E0
3.399670246E1,1.331652641E0,-7.072389126E-1,-2.284323931E0
3.405669509E1,-6.416606903E-1,9.476714134E-1,6.508636475E-1
3.411668755E1,6.120892525E0,1.315294266E0,-1.527316093E0
3.417667995E1,2.256845951E0,3.061001301E0,-2.423682213E0
3.423667225E1,8.297578812E0,4.809237480E0,-6.631673336E0
3.429666484E1,7.890917778E0,7.607760906E0,-9.040180206E0
3.435665731E1,7.670636654E0,8.359634399E0,-1.011186695E1
3.441664987E1,-5.366157055E0,-2.709108114E0,1.920344353E0
3.447664240E1,2.605980873E1,-5.034785843E1,-2.573168755E0
3.453663570E1,-1.733203888E1,-1.219626331E1,-6.533441067E0
3.459662980E1,3.463345051E0,-3.056332350E0,-3.670678616E0
3.465662413E1,8.303830624E-1,1.453866363E0,-2.034163475E0
3.471661842E1,-1.211781740E0,-1.514482498E-1,1.434091568E0
3.477661275E1,-4.293064117E0,9.025022984E-1,1.965376377E0
3.483660628E1,-3.269761562E0,-6.392974854E-1,2.084106445E0
3.489659872E1,-2.382988930E0,9.944558144E-1,1.326041222E-1
3.495659105E1,-1.817191124E0,2.480340004E-1,-1.185722351E-1
3.501658354E1,-8.036899567E-1,-1.140475273E-1,-1.212246895E0
3.507657607E1,-1.958923340E-1,-6.114344597E-1,-1.530848026E0
3.513656854E1,6.981468201E-2,-1.083606243E0,-1.351874352E0
3.519656113E1,4.096455574E-1,-1.321918964E0,-1.102796078E0
3.525655360E1,1.834986687E0,-4.283242226E-1,-1.662646294E0
3.531654596E1,8.972063065E-1,-9.833078384E-1,-1.010755539E0
3.537653826E1,7.798204422E-1,-9.629368782E-1,-5.884799957E-1
3.543653089E1,5.995974541E-1,-5.092225075E-1,-7.251534462E-1
3.549652335E1,8.424484730E-1,3.041677475E-1,-8.815226555E-1
3.555651595E1,2.416491508E-1,4.752430916E-1,-1.086800575E0
3.561650872E1,7.074949741E-1,9.552512169E-1,-1.508361816E0
3.567650201E1,-3.023402691E-1,-5.821080208E-1,8.560180664E-2
3.573649504E1,-2.739268541E-1,-9.720325470E-1,8.340063095E-1
3.579648824E1,3.932902813E-1,-7.801227570E-1,1.238460541E0
3.585648130E1,-2.525678873E-1,-5.738444328E-1,6.788382530E-1
3.591647417E1,-8.953086138E-1,-2.997140884E-1,3.918857574E-1
3.597646650E1,-1.178463221E0,-2.981424332E-2,5.988674164E-1
3.603645896E1,-7.684121132E-1,2.035593987E-1,7.094192505E-1
3.609645143E1,-3.139433861E-1,-5.902767181E-3,5.521202087E-1
3.615644399E1,2.077856064E-1,-3.949494362E-1,5.136561394E-1
3.621643649E1,-2.038640976E-1,-9.493961334E-1,7.854895592E-1
3.627642902E1,-8.482637405E-1,-7.240657806E-1,8.337388039E-1
3.633642141E1,-1.081866264E0,-7.631464005E-1,6.124534607E-1
3.639641375E1,3.476819992E-1,1.439123154E-1,-3.679003716E-1
3.645640621E1,2.251593351E0,3.691124916E-1,-1.313914776E0
3.651639874E1,2.248806238E0,-2.260832787E0,-2.082712650E0
3.657639127E1,2.847419024E0,-7.315440178E-1,-5.040247440E0
3.663638383E1,1.856046200E0,7.835149765E-1,-4.135451317E0
3.669637757E1,-2.495215416E0,1.633119583E-1,-1.369715691E0
3.675637186E1,-2.300930500E0,9.127211571E-1,1.166092873E0
3.681636619E1,-5.467239380E0,-1.913273811E0,4.394664764E0
3.687636052E1,-4.623993397E0,-1.191415787E-1,6.931684971E0
3.693635482E1,4.352059364E0,1.431038380E0,6.952222824E0
3.699634788E1,6.610572815E0,7.772935629E-1,3.576145172E-1
3.705634028E1,-3.792541027E0,-9.482476234E0,-3.991014719E0
3.711633255E1,-6.553221226E0,-5.311248779E0,-1.020328331E1
3.717632504E1,3.501759338E1,-2.249525309E0,1.064386368E-1
3.723631751E1,-5.610903740E0,1.199992657E1,-2.825899601E0
3.729631010E1,8.298549652E0,6.185852528E0,-5.198752403E0
3.735630257E1,6.742534637E-1,3.086591244E0,-4.609724998E0
3.741629516E1,-1.320783138E0,5.277099609E-1,5.187892914E-1
3.747628746E1,-1.449733829E1,-3.973984241E0,-1.673828959E0
3.753627986E1,-6.197249889E0,-4.559771061E0,9.630619049E0
3.759627236E1,-9.977720261E0,-3.902525902E-1,6.678446293E0
3.765626495E1,-5.874478340E0,-1.056052685E0,6.136084080E0
3.771625742E1,-1.116882324E0,-8.033802509E-1,1.283933401E0
3.777625052E1,3.961972475E0,1.235260367E-1,-4.729311943E0
3.783624375E1,7.754911423E0,2.498545885E0,-6.166321754E0
3.789623684E1,9.046512604E0,2.731330872E0,-8.440100670E0
3.795622991E1,1.058563614E1,5.056727886E0,-1.355919456E1
3.801622317E1,9.071737289E0,2.427721024E-2,-7.186655521E0
3.807621574E1,-3.134886169E1,-8.841133118E0,-3.058909988E1
3.813620810E1,1.378719091E0,-2.916634178E1,7.158560753E0
3.819620057E1,6.027626991E-1,-5.491249084E0,-2.860968113E0
3.825619303E1,1.873549223E0,9.070838690E-1,-1.043884277E0
3.831618543E1,1.326536775E0,2.013156414E-1,3.421707153E0
3.837617796E1,-1.499411821E0,-9.929289818E-1,4.752425194E0
3.843617052E1,-1.835705757E0,-1.183249950E0,4.447937489E0
3.849616288E1,1.042785645E-1,4.926834106E-1,1.723096848E0
3.855615528E1,4.007573128E-1,1.026029110E0,7.910895348E-1
3.861614774E1,-1.810269356E0,-6.219835281E-1,-7.908568382E-1
3.867614028E1,-8.247718811E-1,-1.204968929E0,-1.064421654E0
3.873613271E1,9.157204628E-2,-1.640625477E0,-7.024760246E-1
3.879612557E1,4.178786278E-1,-1.323744774E0,-1.554624081E0
3.885611957E1,6.749849319E-1,-6.910548210E-1,-2.073406219E0
3.891611417E1,1.715333462E-1,-1.061210632E0,-1.697459221E0
3.897610867E1,8.998291492E-1,-5.721592903E-1,-1.584002495E0
3.903610320E1,6.168026924E-1,-5.217008591E-1,-1.076616287E0
3.909609737E1,2.676634789E-1,-2.481460571E-2,-8.971300125E-1
3.915609043E1,5.293369293E-2,-3.509035110E-1,-3.913149834E-1
3.921608269E1,-1.646521091E-1,1.049261093E-1,-4.160742760E-1
3.927607519E1,-3.408758640E-1,4.097361565E-1,-3.470735550E-1
3.933606772E1,-7.367019653E-1,1.125206947E-1,3.059225082E-1
3.939606025E1,-7.388305664E-1,-1.072740555E-2,1.015509605E0
3.945605271E1,-5.623085499E-1,-2.307658195E-1,1.143666267E0
3.951604521E1,-5.273060799E-1,3.727779388E-1,4.006667137E-1
3.957603754E1,-8.393297195E-1,5.086517334E-2,2.527093887E-1
3.963602991E1,-4.643402100E-1,1.776213646E-1,-2.777214050E-1
3.969602244E1,-1.998722553E-1,-1.706099510E-1,-1.572179794E-1
3.975601490E1,7.273025513E-1,-9.685420990E-2,-2.161431313E-1
3.980603861E1,4.826734066E-1,-4.343533516E-1,1.439094543E-1
3.986603110E1,-1.559404850E0,-7.898311615E-1,-4.068660736E-2
3.992602470E1,-3.116384506E0,-5.234065056E-1,2.738186836E0
3.998601893E1,-1.606461525E0,-1.784174442E0,4.744574547E0
4.004601340E1,-1.423707962E0,-1.438126087E0,4.737543106E0
4.010600766E1,4.844045639E-2,-9.851692915E-1,1.830119610E0
4.016600202E1,-9.565186501E-1,-5.608080626E-1,-2.021715641E0
4.022599522E1,2.672444820E0,1.045425892E0,-4.442668915E0
4.028598759E1,2.389761209E0,-1.099410057E-1,-4.904849052E0
4.034597982E1,3.494562864E0,-1.741496086E0,-5.987586021E0
4.040597242E1,4.245583057E0,-5.930368423E0,-6.765913010E0
4.046596488E1,1.908915997E0,-1.279748821E1,-7.597081184E0
4.052595741E1,3.052891159E1,-2.330399513E1,1.832505226E1
4.058594994E1,-7.143332958E0,6.688213348E0,-2.036854029E0
4.064594244E1,-2.106514931E0,-2.856434345E0,3.225422621E0
4.070593470E1,-1.479222870E1,-4.832613468E0,6.901539326E0
4.076592716E1,-1.228621483E1,1.190984726E0,8.239196777E0
4.082591969E1,-8.474983215E0,9.210867882E-1,8.350116730E0
4.088591222E1,-6.151589870E0,-6.622347832E-1,2.665975332E0
4.094590479E1,1.430108547E0,2.314054728E0,-6.328487396E-1
4.100589775E1,5.028563976E0,3.172470331E0,-4.625405312E0
4.106589095E1,6.393504620E0,3.077592611E0,-8.354870796E0
4.112588408E1,9.834722519E0,5.419857025E0,-1.286311626E1
4.118587721E1,1.063577652E1,5.403961182E0,-1.603432465E1
4.124587031E1,1.552752018E0,-6.115561962E0,5.059751511E0
4.130586301E1,-1.149457836E1,-1.119141388E1,-3.091088486E1
4.136585527E1,-5.080048084E0,-1.282044411E1,-1.720124722E0
4.142584777E1,-4.007908821E0,-5.692334175E-1,-2.060150146E0
4.148584030E1,-1.802984238E0,-1.759209633E-1,-1.149901390E0
4.154583283E1,7.656247616E-1,1.530249596E0,3.244666576E0
4.160582529E1,-2.103582382E0,3.854918480E-1,4.044435024E0
4.166581789E1,-3.908583403E0,-1.078261852E0,3.124433517E0
4.172581019E1,-3.093567610E0,9.160490036E-1,2.321772575E0
4.178580255E1,-1.271142006E0,9.331674576E-1,1.566301823E0
4.184579502E1,-1.467225552E0,7.180881500E-2,1.439762115E-1
4.190578761E1,-9.075884819E-1,1.969642639E-1,-1.211221695E0
4.196578008E1,-3.751235008E-1,-2.748260498E-1,-1.424556732E0
4.202577287E1,-1.203551292E-1,-6.820497513E-1,-1.547847271E0
4.208576677E1,1.487674713E-1,-6.146783829E-1,-2.043443680E0
4.214576130E1,4.344439507E-1,-5.853004456E-1,-1.581686974E0
4.220575577E1,8.286900520E-1,-3.150939941E-1,-1.609026432E0
4.226575037E1,1.092730999E0,-2.703528404E-1,-9.456205368E-1
4.232574464E1,6.821532249E-1,-1.711492538E-1,-6.341338158E-1
4.238573770E1,4.104475975E-1,-1.847805977E-1,-1.621441841E-1
4.244573006E1,4.048490524E-2,-6.847476959E-2,7.746553421E-2
4.250572260E1,1.257038116E-2,1.331830025E-1,2.317357063E-1
4.256571506E1,-3.655824661E-1,9.962606430E-2,1.625442505E-1
4.262570759E1,-6.141695976E-1,1.098866463E-1,1.194725037E-1
4.268570012E1,-4.955878258E-1,2.770338058E-1,1.075949669E-1
4.274569262E1,-7.028608322E-1,3.305320740E-1,-5.997943878E-2
4.280568498E1,-5.811715126E-1,3.958296776E-1,-2.881250381E-1
4.286567734E1,-1.928987503E-1,1.103515625E-1,-2.325577736E-1
4.292566988E1,2.133560181E-2,7.221317291E-2,-4.202170372E-1
4.298566240E1,-6.602144241E-2,-2.164092064E-1,-1.763176918E-1
4.304565494E1,6.542682648E-3,-4.490017891E-1,1.150321960E-1
4.310564743E1,-4.984488487E-1,-6.230483055E-1,3.714609146E-1
4.316564113E1,-2.694674492E0,-1.177985668E0,9.962654114E-1
4.322563539E1,-4.025615215E0,-7.416944504E-1,5.745131493E0
4.328562972E1,-2.890301228E0,-7.490334511E-1,6.983565807E0
4.334562399E1,3.964662552E-1,9.169707298E-1,3.475785732E0
4.340561832E1,1.619098186E0,-4.163842201E-1,-5.595340729E-1
4.346561138E1,6.423764229E-1,-1.993174076E0,-1.934781075E0
4.352560381E1,-8.313031197E-1,-3.991204262E0,-3.429168224E0
4.358559621E1,-1.428305626E0,-7.063536644E0,-4.218289375E0
4.364558874E1,-3.929853439E-1,-8.877318382E0,-5.502233505E0
4.370558120E1,-2.263506699E1,-3.399156570E1,1.027565098E1
4.376557380E1,1.285980225E0,8.604077339E0,-4.314892769E0
4.382556623E1,6.795350075E0,6.565896034E0,-1.280660629E-1
4.388555863E1,2.617501259E0,3.355061054E0,2.418850899E0
4.394555096E1,-8.294243813E0,-1.711275816E0,7.691794395E0
4.400554349E1,-9.408878326E0,1.400060296E0,5.875502110E0
4.406553599E1,1.141053677E0,1.029381156E0,3.207501888E0
4.412552852E1,9.890661240E-1,1.103691816E0,-3.815472126E0
4.418552105E1,2.665432453E0,1.062453270E0,-4.873150349E0
4.424551415E1,4.686469078E0,4.816656113E0,-2.979861736E0
4.430550728E1,1.815468216E1,1.867726898E1,-7.569002151E0
4.436550031E1,1.501373863E1,1.774003601E1,-5.501758099E0
4.442549344E1,-1.113904190E1,-1.636972427E1,2.610606384E1
4.448548660E1,-3.395130157E0,-2.990521622E1,7.069597244E-1
4.454547920E1,-4.328184128E0,-1.090712357E1,-8.882683754E0
4.460547156E1,8.906101227E0,-2.195391178E0,-7.094659805E0
4.466546416E1,2.620500565E0,1.874745369E0,-6.662801743E0
4.472545662E1,2.490045309E0,3.644204617E0,-7.018080235E0
4.478544912E1,2.831447601E0,8.559703827E-1,-6.662906170E0
4.484544155E1,2.395297527E0,-1.196946621E0,-3.569118977E0
4.490543405E1,2.650092840E0,-5.306032181E0,-3.712794304E0
4.496542631E1,-2.870885849E0,-1.107763290E1,-7.390708923E-1
4.502541884E1,-1.155436039E-1,-8.324706078E0,4.319528580E0
4.508541130E1,-4.102173746E-1,-6.895630836E0,3.415837765E0
4.514540383E1,-2.322478771E0,-3.936346054E0,3.362683058E0
4.520539630E1,-4.684782982E0,-2.117217064E0,3.521504402E0
4.526538920E1,-2.874164820E0,-8.445377350E-1,3.577998161E0
4.532538316E1,-1.703895569E0,-6.528301239E-1,3.462509155E0
4.538537749E1,-2.290739775E0,-4.105262756E-1,1.771726966E0
4.544537182E1,-1.928288817E0,-8.161230087E-1,8.988046646E-1
4.550536615E1,-1.590115309E0,-2.058209419E0,4.598751068E-1
4.556536012E1,-7.342106104E-1,-3.299148560E0,-5.054953098E-1
4.562535281E1,5.018573999E-1,-3.333299637E0,-3.926792145E-1
4.568534514E1,8.518812656E-1,-2.447413445E0,-1.985153675E0
4.574533757E1,1.165601730E0,-1.960627079E0,-1.151591301E0
4.580533007E1,2.581104994E0,-7.722892761E-1,-1.906078339E0
4.586532254E1,1.827660799E0,-2.743167877E-1,-1.606684685E0
4.592531506E1,1.655913591E0,1.768922806E-2,-5.480098724E-1
4.598530760E1,6.848373413E-1,8.983597755E-1,2.051568031E-1
4.604530002E1,-1.345522881E0,1.206795692E0,6.757125854E-1
4.610529232E1,-1.070893764E0,1.566572070E0,1.726063251E0
4.616528485E1,-2.807393074E-1,1.786439538E0,1.643925667E0
4.622527732E1,6.594371796E-2,2.439297199E0,4.197478294E-1
4.628526985E1,1.458837509E0,3.315782070E0,-5.098829269E-1
4.634526241E1,2.315471411E0,2.786166668E0,-2.282929420E0
4.640525574E1,1.072406769E-3,6.870846748E-1,-3.021778584E0
4.646524891E1,3.291757822E0,-3.901958466E-2,-5.290333748E0
4.652524214E1,1.299147129E0,-3.404959202E0,-2.521722317E0
4.658523520E1,2.890155792E0,-3.979003191E0,-4.574930191E0
4.664522830E1,2.387966156E0,-5.764295101E0,-6.399657726E0
4.670522063E1,1.005743694E1,-2.272415638E0,-8.041763306E-2
4.676521306E1,5.596280098E-1,-3.571486473E0,4.703895092E0
4.682520549E1,-9.125190735E0,-2.727794170E0,3.076830626E0
4.688519809E1,-5.834774971E0,-1.122483253E0,4.301244259E0
4.694519058E1,-7.551142693E0,-1.462560654E0,5.680009842E0
4.700518315E1,-5.246723175E0,-1.016909122E0,5.448384285E0
4.706517816E1,-4.119367123E0,1.010546684E-1,3.008444309E0
4.712517055E1,3.818902969E0,2.253985405E-1,2.322313786E0
4.718516292E1,-1.334115505E0,2.484402657E-1,-1.977541447E0
4.724515542E1,2.775111675E0,2.034687996E0,-5.023026466E0
4.730514791E1,5.281681538E0,4.333999157E0,-4.739408493E0
4.736514041E1,1.056737232E1,1.037528896E1,-4.966061592E0
4.742513361E1,1.441001701E1,2.365321159E1,-1.015416336E1
4.748512787E1,9.862949371E0,4.280740738E0,1.018066120E1
4.754512223E1,1.476884604E0,-3.094303131E1,-2.564713287E1
4.760511660E1,-2.273697662E1,-7.786561012E0,-6.821895599E0
4.766511096E1,1.002653122E1,-6.661561012E0,-6.004361153E0
4.772510449E1,3.930932999E0,3.941233158E-1,-5.072698593E0
4.778509699E1,4.783934116E0,5.493082047E0,-5.017668724E0
4.784508929E1,3.776117802E0,4.982351303E0,-4.215187073E0
4.790508169E1,4.027320862E0,3.984705687E0,-3.433753490E0
4.796507412E1,2.507012129E0,1.071444392E0,-4.270081520E0
4.802506671E1,-1.995160580E0,-2.702021122E0,-2.501729488E0
4.808505921E1,-3.657099247E0,-3.947521448E0,-3.971886158E0
4.814505178E1,-5.162973404E-1,-5.926591873E0,1.453179359E0
4.820504414E1,-1.540009975E0,-4.156817436E0,1.240022182E0
4.826503654E1,-1.348521948E0,-3.697383881E0,1.131123543E0
4.832502900E1,-2.863840103E0,-3.146252632E0,9.111349583E-1
4.838502156E1,-3.631407738E0,-2.663177490E0,1.756307602E0
4.844501400E1,-1.657184839E0,-1.462164879E0,2.200785875E0
4.850500679E1,-7.913870811E-1,-5.319757462E-1,1.872020483E0
4.856500006E1,-7.162429094E-1,-2.197208405E-1,1.696591854E0
4.862499329E1,-6.205966473E-1,-1.377277374E-1,9.108247757E-1
4.868498635E1,-2.192069292E-1,-4.510021210E-1,-2.152252197E-2
4.874497948E1,4.919165373E-2,-9.590148926E-1,-8.000302315E-1
4.880497235E1,-1.149660349E-1,-1.436655045E0,-8.183944225E-1
4.886496468E1,-4.936034679E-1,-2.059935570E0,-1.067416906E0
4.892495704E1,-8.263089657E-1,-2.494068146E0,-5.814189911E-1
4.898494957E1,-2.451221943E-1,-1.699346542E0,-2.447915077E-1
4.904494210E1,5.174956322E-1,-3.322854042E-1,-7.569417953E-1
4.910493463E1,5.466833115E-1,1.490817070E-1,-4.895586967E-1
4.916492716E1,9.413533211E-1,6.807575226E-1,-5.517220497E-1
4.922491949E1,2.834358215E-1,4.010486603E-1,-2.953219414E-1
4.928491182E1,5.966796875E-1,-1.096544266E-1,8.284044266E-1
4.934490429E1,9.985079765E-1,-1.007938623E0,2.206782818E0
4.940489682E1,3.130488396E-1,5.217130184E-1,4.671569347E0
4.946488928E1,-5.805630684E-1,2.518380880E-1,2.455123901E0
4.952488191E1,1.105390072E0,1.726491332E0,-8.024997711E-1
4.958487558E1,1.476164341E0,2.684640884E-2,-4.071917534E0
4.964487001E1,3.309348822E0,-2.183114767E0,-5.481530190E0
4.970486448E1,4.674619675E0,-4.888203621E0,-6.600744247E0
4.976485908E1,3.605113029E0,-7.490765095E0,-5.783978939E0
4.982485351E1,-3.329642296E0,-4.605691147E1,5.868735123E1
4.988484690E1,-1.904097748E1,1.295217991E1,-4.501094341E0
4.994483934E1,-2.963933945E0,-1.261807203E0,-1.601964235E0
5.000483190E1,-6.444048405E0,4.940199852E-1,-3.945438147E0
5.006482436E1,-9.758625984E0,1.402205467E0,-2.902196646E0
5.012481696E1,-5.094842911E0,3.231425762E0,2.674918413E0
5.018480942E1,-8.565764427E0,2.317069054E0,1.764866590E0
5.024480195E1,-4.915550232E0,5.416970253E-1,4.900528908E0
5.030479425E1,-3.603203297E0,-7.997293472E-1,3.474857569E0
5.036478662E1,-3.480669022E0,-1.681162357E0,5.818152428E-2
5.042477908E1,1.241088390E0,-1.533811092E0,-2.142829895E-1
5.048477161E1,-8.954515457E-1,-1.163091540E0,-2.688440800E0
5.054476414E1,-2.070612907E-1,-1.304705858E0,-1.400476456E0
5.060475667E1,5.468643188E0,-2.576350927E0,-2.384172916E0
5.066475000E1,3.373905182E0,9.306221008E-1,-4.724340439E-1
5.072474413E1,7.744254112E0,2.847610712E0,-8.516159058E-1
5.078473846E1,1.076489925E1,7.008972168E0,-3.958216667E0
5.084473279E1,1.450407696E1,1.499205399E1,-5.459964752E0
5.090472712E1,2.917911291E0,2.192765951E0,7.402145386E0
5.096472055E1,-2.449931526E1,-5.244611740E0,-2.439505768E1
5.102471308E1,-9.197141647E0,-1.854774666E1,-1.159602261E1
5.108470535E1,-6.544448853E0,-4.817418575E0,-7.976417542E0
5.114469781E1,8.173368454E0,-7.913944721E-1,-6.903322220E0
5.120469028E1,6.383657455E0,3.400125027E0,-5.167710304E0
5.126468287E1,6.782126427E0,5.800400734E0,-2.782349586E0
5.132467534E1,3.369248390E0,2.587919235E0,-8.304796219E-1
5.138466793E1,-1.254045963E-1,3.853502274E-1,-4.972963333E-1
5.144466026E1,-2.667488575E0,-1.072407067E-1,-5.810165405E-2
5.150465263E1,-3.314041138E0,-4.220494032E-1,5.096263885E-1
5.156464506E1,-3.064753532E0,-3.694319725E-2,5.604219437E-1
5.162463765E1,-1.562048435E0,1.411382198E0,4.891815186E-1
5.168463012E1,-1.502484798E0,1.636626482E0,5.739617348E-1
5.174462318E1,-2.639931202E0,8.188583851E-1,1.856252193E0
5.180461648E1,-8.395323753E-1,3.466815948E-1,2.468326092E0
5.186460964E1,6.676845551E-1,4.273967743E-1,1.589220047E0
5.192460271E1,5.863089561E-1,-2.423295975E-1,1.280392647E0
5.198459594E1,2.442598343E-1,-4.450283051E-1,4.637746811E-1
5.204458854E1,4.439377785E-1,-1.506433487E-1,-2.742953300E-1
5.210458090E1,5.190174580E-1,-7.976055145E-2,-5.180139542E-1
5.216457336E1,-6.579160690E-3,-5.191354752E-1,-3.803434372E-1
5.222456590E1,6.133532524E-2,-3.839001656E-1,-6.019582748E-1
5.228455833E1,3.735606670E-1,-1.340193748E-1,-5.594034195E-1
5.234455086E1,2.263650894E-1,-1.062345505E-1,-2.691345215E-1
5.240454335E1,2.402591705E-2,-2.190275192E-1,8.570909500E-2
5.246453575E1,2.699816227E-1,-5.469322205E-2,1.772551537E-1
5.252452808E1,-2.065215111E-1,-2.084126472E-1,4.069805145E-1
5.258452058E1,-1.176855087E0,1.688313484E-1,-2.367787361E-1
5.264451311E1,-7.420601845E-1,1.462086678E0,-7.138299942E-2
5.270450564E1,1.097521782E-1,1.851720810E-1,1.122672081E0
5.276449824E1,1.051898003E0,-1.404254436E-1,-1.022584438E0
5.282449200E1,6.521959305E-1,-9.798181057E-1,-2.355751991E0
5.288448640E1,8.972125053E-1,-3.000049591E-1,-2.016447544E0
5.294448087E1,-1.404209137E-1,1.429899216E0,-2.701887608E0
5.300447540E1,1.103842831E1,2.197882652E0,6.285941124E0
5.306446980E1,-3.319847584E0,-8.287569046E0,6.766077995E0
5.312446316E1,-8.413360596E0,-4.292405605E0,7.001957417E0
5.318445566E1,-4.099881172E0,-1.821749449E0,1.118329525E0
5.324444826E1,-7.564082146E-1,-3.766176224E0,-4.428442955E0
5.330444072E1,-3.251366615E0,-5.667356014E0,-8.810009956E0
5.336443332E1,4.428173065E0,-7.296222448E-1,-1.190180016E1
5.342442572E1,1.144558525E1,-2.595143318E-1,-6.479461670E0
5.348441825E1,1.938585281E0,1.106350327E1,-3.542815208E0
5.354441054E1,6.087553024E0,-1.473495841E0,-1.992416143E0
5.360440291E1,-8.340347290E0,-7.339792252E-1,1.108345747E0
5.366439537E1,-1.891788483E0,4.899081707E0,-1.894057870E0
5.372438790E1,-5.318747997E0,1.748150349E0,4.592812061E-1
5.378438037E1,-8.106501579E0,3.472700119E-1,7.193057060E0
5.384437286E1,-7.554149628E0,-9.503769875E-1,8.141778946E0
5.390436633E1,-6.028109550E0,-2.224131823E0,6.520204067E0
5.396436059E1,1.746147633E0,-1.486773729E0,1.397858143E0
5.402435492E1,4.713675022E0,-1.738692760E0,-2.887660980E0
5.408434925E1,6.098492146E0,-1.423003912E0,-5.410079002E0
5.414434358E1,6.688823700E0,3.171920776E-3,-8.621217728E0
5.420433695E1,7.392127514E0,-2.189230919E-1,-1.251045513E1
5.426432934E1,6.051092148E0,-3.140167952E0,-1.249022484E1
5.432432171E1,6.478500962E-1,-8.730524063E0,1.064940357E1
5.437432271E1,-1.161497784E1,-7.838739395E0,-2.747041702E1
5.443431515E1,-7.887449265E0,-1.306623554E1,4.976608276E0
5.449430774E1,3.765752912E-1,-1.431373119E0,-1.157766342E0
5.455430021E1,2.285447359E0,1.344332218E0,-2.033635616E0
5.461429267E1,2.228854895E0,1.145565510E0,1.552834511E0
5.467428493E1,-8.439087868E-1,2.411122322E-1,3.711399078E0
5.473427740E1,-2.226025105E0,-2.029943466E0,4.273873806E0
5.479426986E1,-1.185835838E0,2.950506210E-1,2.750499249E0
5.485426239E1,-3.977694511E-1,1.806954145E0,1.499853134E-1
5.491425492E1,-2.685797215E0,-2.343783379E-1,-1.017956734E-1
5.497424772E1,-1.195513725E0,-7.694430351E-1,-9.863662720E-1
5.503424099E1,9.675111771E-1,-1.071584702E0,-1.320561886E0
5.509423412E1,9.308328629E-1,-2.143199921E0,-7.362203598E-1
5.515422724E1,9.627232552E-1,-1.830721378E0,-1.588498592E0
5.521422038E1,1.722416401E0,-1.578328133E0,-1.115371704E0
5.527421324E1,2.679522991E0,-6.320486069E-1,-1.042777061E0
5.533420544E1,1.760851383E0,-1.276258469E0,6.484355927E-1
5.539419793E1,2.109507322E0,-1.569005013E0,2.616996765E0
5.545419046E1,2.400268078E0,-1.179014683E0,-2.995274544E0
5.551418299E1,-1.939191341E0,-1.351836205E0,-3.074811935E0
5.557417546E1,1.624735832E0,-7.495794296E-1,-3.213210106E-1
5.563416805E1,-5.948973656E0,4.292249680E-1,-6.500767708E0
5.569416035E1,-1.280405998E0,5.735673904E-1,-6.434388161E0
5.575415272E1,3.056775093E0,2.572175980E0,-6.378550529E0
5.581414518E1,4.486097336E0,2.208622932E0,-4.883468151E0
5.587413774E1,1.550538063E0,-6.950144768E-1,1.176881790E-2
5.593413021E1,-9.026684761E-1,-1.571405888E0,4.485116959E0
5.599412284E1,-1.729019165E0,3.652415276E-1,2.906210423E0
5.605411647E1,-2.833225727E0,9.496550560E-1,2.495705366E0
5.611411083E1,-1.546751976E0,-2.135548592E-1,3.582185030E0
5.617410513E1,3.894367218E-1,-1.216124058E0,3.147713661E0
5.623409953E1,2.457518578E-1,-8.060998917E-1,3.912008762E0
5.629409376E1,-2.816911221E0,-1.243083477E-1,1.618765831E0
5.635408689E1,-5.880861282E-1,2.939577818E0,-9.041256905E-1
5.641407919E1,3.078477383E0,3.905720949E0,-2.368438244E0
5.647407158E1,3.144878864E0,2.262476206E0,-2.867812395E0
5.653406405E1,4.626151085E0,-1.296049595E0,-3.351264477E0
5.659405658E1,8.851099014E0,-1.609089017E0,-4.076751709E0
5.665404914E1,8.929190636E0,-4.471365452E0,-6.662650585E0
5.671404167E1,1.220643997E0,-1.175595093E1,-3.293671370E0
5.677403414E1,-5.283567905E0,-1.873012543E1,1.008127975E1
5.683402640E1,4.693135262E0,-9.339732170E0,4.383012295E0
5.689401886E1,2.009415627E-1,-6.227993011E0,2.314218044E0
5.695401136E1,-3.270572662E0,-8.326206207E0,2.277179480E0
5.701400389E1,-8.087648392E0,-5.761103630E0,5.063973904E0
5.707399649E1,-6.240860462E0,-2.917187691E0,6.274622917E0
5.713398966E1,-7.601528645E0,-1.052053452E0,6.304944515E0
5.719398279E1,-3.782845020E0,-2.135779381E0,2.694363356E0
5.725397592E1,-4.563536167E0,-4.647992611E0,2.398200750E0
5.731396905E1,-4.695976734E0,-5.209689617E0,7.772705555E-1
5.737396211E1,6.917953491E-2,-4.344690323E0,-1.557795048E0
5.743395457E1,2.259576321E0,-3.098547697E0,-2.997826338E0
5.749394697E1,1.833681583E0,-1.674977899E0,-7.892797947E0
5.755393944E1,7.178180695E0,-9.672281742E-1,-8.055181503E0
5.761393197E1,4.783703804E0,-1.726437330E0,-4.925552368E0
5.767392443E1,9.095289230E0,1.607387543E0,-7.870769024E0
5.773391706E1,9.962682724E0,3.437175751E0,-1.175030136E1
5.779390952E1,6.445946693E0,-1.773411512E0,-9.183987617E0
5.785390192E1,-3.603675604E0,-9.017273903E0,9.816282272E0
5.791389422E1,-7.915225029E0,-7.821343899E0,-2.864030457E1
5.797388675E1,-1.657371044E0,-1.279211044E1,-3.854932785E0
5.803387921E1,-5.056233406E0,-1.534027576E0,6.258993149E-1
5.809387181E1,2.753574848E-1,-1.225318909E-1,-9.700965881E-1
5.815386457E1,1.763088703E-1,-1.071753025E0,2.993892193E0
5.821385857E1,-2.129458427E0,-2.020329952E0,5.765765190E0
5.827385310E1,-3.968201160E0,-1.374088764E0,3.872648239E0
5.833384764E1,-3.410019159E0,9.911170006E-1,3.085528851E0
5.839384210E1,-1.880812168E0,2.006032944E0,1.767252445E0
5.845383640E1,-1.546322346E0,1.195872307E0,4.473733902E-1
5.851382943E1,-1.335670948E0,2.952108383E-1,-5.700426102E-1
5.857382180E1,-1.119599342E-1,1.001944542E-1,-6.628575325E-1
5.863381433E1,6.400980949E-1,-8.259391785E-2,-8.696203232E-1
5.869380679E1,6.692137718E-1,-6.303653717E-1,-1.380546093E0
5.875379925E1,3.424806595E-1,-1.238889217E0,-1.230876923E0
5.881379178E1,1.201313019E0,-8.294625282E-1,-1.184407711E0
5.887378425E1,2.230609894E0,-3.224434853E-1,-7.413506508E-1
5.893377651E1,1.787288904E0,-1.803355217E-1,-5.315680504E-1
5.899376901E1,7.606086731E-1,-3.035879135E-1,-5.589251518E-1
5.905376147E1,5.272622108E-1,-4.748067856E-1,-1.182518005E-1
5.911375400E1,2.536926270E-1,-1.729593277E-1,5.079073906E-1
5.917374647E1,-3.621482849E-1,1.031236649E-1,7.188925743E-1
5.923373913E1,-9.712016582E-1,8.789300919E-2,3.198523521E-1
5.929373280E1,-6.306381226E-1,4.887294769E-1,-2.741875648E-1
5.935372719E1,-7.099447250E-1,7.432227135E-1,5.895519257E-2
5.941372146E1,-1.464114904E0,9.460673332E-1,6.337141991E-1
5.947371582E1,-1.671414852E0,3.895239830E-1,3.085279465E-1
5.953371022E1,-1.891846657E-1,-4.787683487E-2,-6.713962555E-2
5.959370335E1,-5.126523972E-1,-2.677268982E-1,6.861147881E-1
5.965369561E1,-5.092482567E-1,-4.438257217E-1,4.034476280E-1
5.971368804E1,-3.573560715E-1,-1.006262302E0,-1.217556000E-1
5.977368057E1,3.794136047E-1,-3.908658028E-1,-3.103632927E-1
5.983367290E1,7.573513985E-1,-5.343718529E-1,-7.720289230E-1
5.989366533E1,1.269473076E0,-3.263154030E-1,-1.279168844E0
5.995365786E1,-1.212176323E0,-5.210695267E-1,-1.277656555E0
6.001365033E1,-4.847756386E0,2.501521111E-1,-1.490807533E-1
6.007364266E1,-4.273834705E0,7.052850723E-2,3.139289379E0
6.013363515E1,-1.902330875E0,6.275782585E-1,1.422487736E0
6.019362762E1,1.818391800E0,1.619239330E0,1.856322289E-1
6.025362015E1,6.488444805E0,3.731322765E0,-4.318094730E0
6.031361265E1,5.032149315E0,6.939033270E-1,-6.806029320E0
6.037360574E1,-3.470281601E0,-7.746329784E0,-4.395613670E0
6.043359884E1,4.109668732E-2,-1.748252678E1,8.293619156E0
6.049359204E1,6.773850441E0,7.956798077E-1,3.521322966E0
6.055358514E1,9.747346878E0,2.526011229E0,4.838380337E0
6.061357830E1,2.792582035E0,6.062053442E-1,2.797312260E0
6.067357080E1,1.191082478E0,-4.414722919E-1,-1.454715252E0
6.073356326E1,-3.518120766E0,-1.149149418E0,-1.504414558E0
6.079355573E1,-6.838636398E-1,-2.433825970E0,-1.608469486E0
6.085354829E1,-4.938420296E0,-1.173489809E0,-1.231456995E0
6.091354072E1,-3.443733215E0,1.018709064E0,-7.618932724E-1
6.097353342E1,-1.340700150E0,1.127187729E0,-2.071528435E-1
6.103352588E1,-4.707641602E-1,8.195362091E-1,-2.681805611E0
6.109351828E1,1.176234722E0,9.446501732E-2,-2.606498241E0
6.115351071E1,3.988254070E0,1.698072910E0,-1.316474438E0
6.121350324E1,5.947150230E0,4.394213200E0,-1.674863815E0
6.127349560E1,1.449838734E1,1.076680946E1,-3.690847874E0
6.133348807E1,1.172977066E1,1.679183769E1,-7.377448082E0
6.139348093E1,-2.086429834E0,-4.448358536E0,1.205618382E1
6.145347493E1,-9.679978371E0,-1.486920738E1,-2.276100922E1
6.151346926E1,-7.876317501E0,-1.213929081E1,-8.531086922E0
6.157346359E1,-2.833482742E0,-5.224214077E0,-6.065101624E0
6.162347077E1,4.364092827E0,-4.427721977E0,-8.260054588E0
6.168346483E1,4.638876915E0,9.574370384E-1,-6.189135551E0
6.174345773E1,5.353929520E0,4.317668438E0,-7.067907333E0
6.180345000E1,4.572041512E0,2.487441063E0,-8.455540657E0
6.186344239E1,3.352435827E0,-2.141473055E0,-5.787859917E0
6.192343486E1,-3.231282711E0,-7.929747105E0,-2.032205582E0
6.198342745E1,-5.109797120E-1,-9.066381454E0,-1.860097408E0
6.204341992E1,3.043533087E0,-1.082309723E1,2.987100124E0
6.210341251E1,-1.126194477E0,-1.059685802E1,2.654840231E0
6.216340494E1,-6.927220821E0,-5.652804375E0,2.162273407E0
6.222339734E1,-3.018664598E0,-1.218307495E0,2.612759113E0
6.228338974E1,2.533428907E0,-2.222108841E-1,8.387035370E0
6.234338234E1,1.527186751E0,-4.986543655E-1,5.889310837E0
6.240337480E1,-1.903712511E0,-1.462577820E0,-1.399171114E0
6.246336740E1,-1.550794125E0,-2.017683029E0,-4.743549347E0
6.252336053E1,2.948951721E-2,-1.604701519E0,3.247237206E-1
6.258335373E1,1.684707642E0,7.092957497E-1,-3.326235771E0
6.264334679E1,2.182354927E0,-1.155025482E0,-3.983253479E0
6.270333999E1,4.677012444E0,-2.372086048E0,-2.531924009E0
6.276333302E1,3.235633612E0,2.121973038E-2,-1.128396988E0
6.282332548E1,6.462788582E-1,9.710254669E-1,-1.399290562E-1
6.288331785E1,-1.175659657E0,1.768851757E0,2.632327080E-1
6.294331038E1,-2.469698429E0,1.531985760E0,1.497199059E0
6.300330284E1,-4.003407955E0,1.623875141E0,3.505697250E0
6.306329541E1,-4.134371281E0,3.087854385E-2,3.117158175E0
6.312328804E1,-2.419051647E0,-5.665493011E-2,4.502947807E0
6.318328053E1,-6.299356461E0,-9.949150085E-1,2.899454117E0
6.324327286E1,-4.023922443E0,3.261938095E-1,3.804216862E0
6.330326523E1,-4.101751328E0,-6.188249588E-1,5.249266624E-1
6.336325773E1,2.229277134E0,6.286790967E-1,-2.718779564E0
6.342325016E1,3.395824909E0,-9.849871397E-1,-5.069875717E0
6.348324272E1,9.635882378E0,-5.539153099E0,-3.342282772E0
6.354323578E1,2.988040924E0,-1.387761307E1,-7.289291859E0
6.360323002E1,3.101444244E-1,-9.105320930E0,-5.873014450E0
6.366322448E1,7.962410450E0,1.637216759E1,-1.712551117E-1
6.372321901E1,6.205454826E0,2.740868568E0,5.316638947E-1
6.378321345E1,1.621573448E0,3.659145594E0,3.950783730E0
6.384320744E1,-5.047641277E0,-1.449882030E0,5.632660389E0
6.390320018E1,-1.154444695E1,-2.429552078E0,1.012418032E0
6.396319267E1,-7.670194149E0,-3.474874020E0,5.703138351E0
6.402318517E1,-9.445082664E0,-4.919056892E-1,3.742379189E0
6.408317770E1,1.606927872E0,-1.646126747E0,7.088854313E0
6.414317016E1,-4.452948570E0,-1.204357624E0,3.434104204E0
6.420316276E1,-1.805077076E0,-1.050709009E0,9.291372299E-1
6.426315512E1,9.693551064E-1,1.006761074E0,-3.790301800E0
6.432314742E1,3.908861637E0,1.162109375E0,-5.938313484E0
6.438313988E1,3.779864311E0,3.162597895E0,-7.539424419E0
6.444313242E1,1.151916122E1,1.561953354E1,-8.320669174E0
6.450312488E1,1.123458481E1,1.243070126E1,-4.838929176E0
6.456311741E1,1.202623367E0,-1.002241802E1,1.856245422E1
6.462311024E1,1.545092583E1,-5.895945740E1,-2.880733967E0
6.468310417E1,-1.233775234E1,-6.540165901E0,-1.158150196E1
6.474309850E1,2.250385284E0,-7.298654556E0,-6.545792580E0
6.480309276E1,5.758011818E0,-2.201641083E0,-9.912073135E0
6.486308710E1,3.678446054E0,5.033367157E0,-8.407884598E0
6.492308113E1,3.378108025E0,2.610150576E0,-8.315738678E0
6.498307392E1,3.271475315E0,-2.328960419E0,-5.347968102E0
6.504306619E1,-7.668600082E-1,-5.084662437E0,3.650474548E-2
6.510305878E1,-2.553812981E0,-1.389891434E1,2.364986897E0
6.516305125E1,-1.415612459E0,-1.028001499E1,6.715719700E0
6.522304378E1,-3.101533413E0,-7.957034111E0,6.521359444E0
6.528303624E1,-4.800246239E0,-3.156093597E0,5.278604507E0
6.534302884E1,-4.190628529E0,-8.246126175E-1,3.981292486E0
6.540302110E1,-1.619025230E0,2.915611267E-1,3.032101631E0
6.546301353E1,1.696532965E-2,4.134569168E-1,3.800907612E0
6.552300600E1,-8.625476956E-1,4.003648758E-1,3.768096447E0
6.558299853E1,-9.299862981E-1,-2.174892426E-1,1.053600311E0
6.564299099E1,-8.267222643E-1,-1.524759293E0,-7.126226425E-1
6.570298366E1,-2.766762972E-1,-1.005204201E0,-1.073163986E0
6.576297682E1,4.621444941E-1,-8.644189835E-1,-2.226777077E-1
6.582296995E1,7.433291674E-1,-9.746370316E-1,-6.279051304E-1
6.588296308E1,9.989500046E-2,-1.058197021E0,-8.827755451E-1
6.594295621E1,-2.908406258E-1,-1.024575233E0,9.930610657E-3
6.600294921E1,-4.065155983E-1,-4.837737083E-1,5.349507332E-1
6.606294160E1,-1.168555260E0,3.364782333E-1,1.477844715E0
6.612293404E1,-1.743648529E0,6.270751953E-1,1.431895256E0
6.618292657E1,-1.222600937E0,1.131008148E0,4.049196243E0
6.624291910E1,-3.060793877E-1,1.330672979E0,1.999846935E0
6.630291156E1,-4.375238419E-1,9.763400555E-1,1.204638004E0
6.636290409E1,-3.412513733E-1,-1.694558859E-1,-1.719880104E-1
6.642289652E1,-1.039568901E0,-2.307215452E0,-2.343793392E0
6.648288885E1,1.443261623E0,-2.715554714E0,-2.779021263E0
6.654288128E1,2.084185600E0,-4.239561558E0,-6.621438980E0
6.660287388E1,3.373894691E0,-6.020086765E0,-5.288489342E0
6.666286634E1,1.549985695E1,-1.750788927E0,1.209713078E1
6.672285887E1,8.514421463E0,4.288157463E0,-1.786240101E0
6.678285207E1,5.120772362E0,7.826961517E0,4.494575977E0
6.684284627E1,-4.677448750E0,2.448948383E0,9.182334900E0
6.690284053E1,-9.928608894E0,2.821431160E-1,9.099012375E0
6.696283493E1,-4.776805401E0,5.005831718E-1,8.282750130E0
6.702282929E1,-1.438856125E-2,2.430707216E0,2.232850552E0
6.708282289E1,2.313140869E0,2.213017464E0,-2.492350578E0
6.714281539E1,2.436446667E0,1.314620018E0,-6.234169006E0
6.720280779E1,2.414494991E0,2.166383266E0,-7.427841187E0
6.726280025E1,3.064854383E0,9.775795937E-1,-7.189025879E0
6.732279268E1,4.959060669E0,1.382135868E0,-1.237146950E1
6.738278521E1,4.348599911E0,-2.616853714E0,-1.345756531E1
6.744277794E1,-1.849219203E0,-1.471189022E1,1.787815094E1
6.750277040E1,-6.382908821E0,-3.286182880E0,-2.149328995E1
6.756276280E1,-4.345404148E0,-3.851889133E0,4.683510780E0
6.762275523E1,1.285925955E-1,2.905302644E-1,-4.683438778E0
6.768274776E1,2.062343359E-1,7.936172485E-1,-4.379870892E0
6.774274009E1,-3.276604414E-1,-4.874880314E-1,4.685707092E-1
6.780273262E1,-2.159758568E0,-2.481498241E0,3.444585800E0
6.786272536E1,-3.290569305E0,-1.745592117E0,2.601861477E0
6.792271859E1,-2.100520134E0,-1.323299408E0,3.524069786E0
6.798271172E1,-2.261912823E-2,-8.384704590E-3,3.343687057E0
6.804270485E1,-4.228556156E-1,1.224814415E0,5.355644226E-1
6.810269801E1,-1.668330193E0,-2.340989113E-1,1.594061852E-1
6.816269081E1,-6.224913597E-1,-9.535179138E-1,-2.409496307E-1
6.822268314E1,1.175329447E0,-1.606852531E0,-6.248660088E-1
6.828267560E1,9.015908241E-1,-2.260776997E0,-1.381977081E0
6.834266813E1,4.732074142E-1,-7.820739746E-1,-2.982129574E0
6.840266056E1,-3.156337738E-1,-9.371314049E-1,-2.270326138E0
6.846265316E1,-1.596834660E-1,4.898548126E-2,-2.352919102E0
6.852264562E1,-1.209138632E-1,-7.689189911E-2,-1.678460121E0
6.858263802E1,5.172592402E-2,-4.600067139E-1,-1.121241570E0
6.864263028E1,-7.826715708E-1,-4.545412064E-1,-4.263029099E-1
6.870262285E1,-1.198474646E0,4.379558563E-2,-3.980841637E-1
6.876261531E1,-8.603052497E-1,3.834257126E-1,1.806759834E-1
6.882260791E1,-8.363285065E-1,2.469444275E-1,1.059730053E0
6.887261740E1,-8.303434253E-1,-4.983901978E-2,1.485928535E0
6.893261086E1,1.395226479E0,2.695035934E-1,2.175859451E0
6.899260513E1,9.210805893E-1,2.966566086E-1,1.408155441E0
6.905259946E1,-9.639370441E-2,2.563810349E-1,2.980947495E-1
6.911259372E1,-1.167978048E-1,-1.159353256E-1,3.490657806E-1
6.917258809E1,-1.568274498E-1,9.209346771E-2,1.987123489E-2
6.923258149E1,-1.131484985E0,-1.860141754E-1,1.842403412E-2
6.929257395E1,-9.434435368E-1,-5.284318924E-1,-2.254729271E-1
6.935256628E1,-9.675037861E-1,-7.269616127E-1,-4.013328552E-1
6.941255874E1,-9.156742096E-1,-7.488379478E-1,-6.709008217E-1
6.947255128E1,-3.255357742E-1,-4.552760124E-1,-1.126257896E0
6.953254380E1,6.276953220E-1,-5.570325851E-1,-1.382507801E0
6.959253637E1,1.121402025E0,-1.016005993E0,-1.340406418E0
6.965252883E1,1.541986465E-1,-6.965093613E-1,-1.449169159E0
6.971252123E1,-1.502772808E0,-9.422507286E-1,6.136970520E-1
6.977251353E1,-1.283600330E0,1.299536228E0,1.273173809E0
6.983250602E1,-4.990426540E0,-9.818015099E-1,3.282812119E0
6.989249846E1,-1.853165150E0,1.289927006E0,2.002530098E0
6.995249105E1,1.879178524E0,1.897700310E0,-1.236992836E0
7.001248392E1,4.073415756E0,2.204382718E-1,-3.161190987E0
7.007247735E1,3.069419861E0,-2.277695656E0,-4.939589024E0
7.013247045E1,5.615887642E-1,-7.344790459E0,-3.989905596E0
7.019246358E1,6.480717182E0,-4.679151535E0,4.109742641E0
7.025245664E1,-2.276401997E0,7.316787720E0,6.716462612E0
7.031244944E1,-4.128055573E-1,4.086698532E0,8.981181145E0
7.037244164E1,-1.826653481E-1,2.016819477E0,2.534483910E0
7.043243407E1,1.893172264E0,2.035782337E0,-3.289596081E0
7.049242660E1,3.378358841E0,1.494777441E0,-6.121655464E0
7.055241912E1,3.663520813E0,1.059515953E0,-8.979696274E0
7.061241159E1,5.453841209E0,1.943237782E0,-1.333402920E1
7.067240412E1,7.134791851E0,1.484861374E0,-1.526788139E1
7.073239655E1,1.704768062E0,-9.066867828E0,1.483672619E1
7.079238888E1,1.454066944E1,-2.567228127E1,-3.621400070E1
7.085238141E1,-1.248826981E1,-1.258162403E1,9.652595520E-1
7.091237387E1,-7.727996111E-1,-1.983454704E0,-4.612345695E0
7.097236640E1,3.184210300E0,1.872946143E0,-1.375685692E0
7.103235900E1,1.133883119E0,-4.013695717E-1,7.587442398E-1
7.109235287E1,-2.342844963E0,-1.655214310E0,3.663577557E0
7.115234727E1,-3.382858753E0,-2.263377666E0,3.850092411E0
7.121234187E1,-1.754994869E0,4.616985321E-1,1.046409607E0
7.127233633E1,-1.325771570E0,9.256448746E-1,-3.829145432E-2
7.133233080E1,-1.493928909E0,8.192253113E-2,-8.208312988E-1
7.139232393E1,-1.334314108E0,-7.525944710E-1,-1.351637363E0
7.145231639E1,-5.772745609E-1,-6.973724365E-1,-1.779264927E0
7.151230882E1,-2.058959007E-2,-9.678220749E-1,-1.809585094E0
7.157230146E1,2.896726131E-1,-8.947544098E-1,-1.749108315E0
7.163229392E1,1.309698105E0,-6.143083572E-1,-1.360227585E0
7.169228645E1,1.292904377E0,-6.307859421E-1,-1.291322708E0
7.175227891E1,9.950065613E-1,-5.432744026E-1,-1.177278042E0
7.181227134E1,9.009060860E-1,-4.330973625E-1,-7.517175674E-1
7.187226364E1,1.338034749E0,1.387004852E-1,-8.955025673E-1
7.193225621E1,8.465965986E-1,-5.780553818E-2,-7.939047813E-1
7.199224874E1,-5.177893639E-1,-3.750424385E-1,-5.189704895E-1
7.205224127E1,-2.540938854E-1,-2.432851791E-1,-2.625079155E-1
7.211223380E1,-7.325536013E-1,-6.283531189E-1,3.692951202E-1
7.217222730E1,-8.806930780E-1,-3.726692200E-1,4.414305687E-1
7.223222153E1,-6.135147810E-1,1.787786484E-1,3.230895996E-1
7.229221586E1,-1.088594198E0,1.248264313E-2,5.108890533E-1
7.235221015E1,-9.791064262E-1,-4.981613159E-2,1.685113907E-1
7.241220435E1,-3.526145220E-1,-6.285667419E-3,1.132144928E-1
7.247219765E1,-1.735687256E-4,-1.598930359E-1,-1.607198715E-1
7.253219005E1,8.740544319E-3,-5.304117203E-1,-2.185907364E-1
7.259218238E1,1.835463047E-1,-6.348495483E-1,-3.312377930E-1
7.265217487E1,8.469834328E-1,-4.826097488E-1,-5.362992287E-1
7.271216747E1,7.590885162E-1,-3.835201263E-1,-2.790660858E-1
7.277215993E1,-5.594406128E-1,-9.703722000E-1,5.421733856E-2
7.283215246E1,-2.206258059E0,-8.496093750E-1,1.024246216E-2
7.289214499E1,-1.045320749E0,-1.058818340E0,2.099029541E0
7.295213739E1,-1.083332539E0,-2.240710258E-1,2.581750393E0
7.301212972E1,-3.267368317E0,-3.068265915E-1,3.666592121E0
7.307212232E1,-4.470822811E0,-2.603921890E-1,2.924908161E0
7.313211498E1,-1.819220066E0,7.228826284E-1,1.754115582E0
7.319210751E1,-2.045428276E0,2.808659077E-1,-1.575816154E0
7.325210041E1,1.517306805E0,-8.223279715E-1,-4.573673725E0
7.331209374E1,5.105358601E0,-4.490604877E0,-1.076510715E1
7.337208681E1,3.199531078E0,-1.124995232E1,-9.226873398E0
7.343207980E1,2.301846886E1,1.599550486E0,4.501656055E0
7.349207287E1,3.688418150E0,1.699973702E0,-3.894793987E0
7.355206557E1,7.931357384E0,1.362744927E0,9.492200851E0
7.361205783E1,-6.497813702E0,-5.042198658E0,6.442093849E0
7.367205043E1,-9.828619003E0,-3.114964485E0,3.468467474E0
7.373204289E1,-7.274549961E0,-2.090750694E0,4.602653503E0
7.379203542E1,-4.661214828E0,-3.126854897E-1,2.624890804E0
7.385202795E1,-5.912482262E0,-4.357812881E0,1.648536682E0
7.391202048E1,1.582443237E0,1.257340908E-1,-4.276082039E0
7.397201275E1,4.657181263E0,3.528822660E0,-6.266017914E0
7.403200524E1,4.256900787E0,4.966864586E0,-4.754032612E0
7.409199777E1,8.398674965E0,8.031793594E0,-6.292882919E0
7.415199030E1,9.345724106E0,1.582453346E1,-9.796130180E0
7.421198283E1,4.945215225E0,5.658429146E0,4.003856659E0
7.427197550E1,-1.269509315E1,-4.813615322E0,-2.621000290E1
7.433196923E1,-8.928911209E0,-1.613571548E1,-7.900523663E0
7.439196370E1,-8.663537025E0,-3.918219566E0,-7.042194366E0
7.445195833E1,5.732042313E0,-2.623181343E0,-8.735697746E0
7.451195280E1,3.337686777E0,1.098806381E0,-8.545986176E0
7.457194719E1,2.744093895E0,4.374715805E0,-7.633445263E0
7.463194029E1,2.528595924E0,8.649474382E-1,-7.916676998E0
7.469193276E1,-5.351011753E-1,-4.572520256E0,-1.304658890E0
7.475192512E1,-1.488323212E0,-4.572173595E0,-2.169295311E0
7.481191772E1,3.084562778E0,-1.165564537E1,3.858590603E0
7.487191018E1,1.103490233E0,-1.271542454E1,7.369380951E0
7.493190278E1,-2.678989410E0,-5.655121803E0,8.290130615E0
7.499189521E1,-3.359366179E0,-1.975072861E0,2.060122013E0
7.505188754E1,-9.557909966E-1,7.553911209E-1,3.555617809E0
7.511187987E1,-5.012691021E-2,8.288526535E-1,6.557611465E0
7.517187243E1,-1.039544940E0,5.151243210E-1,5.295700073E0
7.523186490E1,-1.725527287E0,2.436733246E-1,2.116537571E0
7.529185740E1,-2.321233511E0,-1.938339233E0,5.499029160E-1
7.535184996E1,-4.523239732E-1,-2.604216576E0,-5.274473429E-1
7.541184359E1,7.310081124E-1,-1.348551750E0,-1.139500499E0
7.547183782E1,1.162129879E0,-8.776721954E-1,-1.714836359E0
7.553183215E1,1.270449519E0,-9.816856384E-1,-1.261760712E0
7.559182652E1,1.955682039E0,-9.087409973E-1,-1.313651800E0
7.565182085E1,1.229579926E0,-1.471748352E-1,-1.164262772E0
7.571181404E1,1.162178040E0,8.724865913E-1,-6.130130291E-1
7.577180638E1,2.006063461E-1,9.681477547E-1,4.299983978E-1
7.583179884E1,-3.025856018E-1,1.102406979E0,6.818757057E-1
7.589179134E1,-8.308987617E-1,7.402801514E-1,1.257891893E0
7.595178383E1,-9.972662926E-1,5.219807625E-1,1.931774139E0
7.601177626E1,-7.158365250E-1,3.415603638E-1,2.355530262E0
7.607176886E1,1.072857857E0,2.400860786E-1,4.525975227E0
7.612179617E1,-3.682708740E-1,5.404262543E-1,5.268960953E0
7.618178856E1,1.867358208E0,1.328768969E0,3.407130241E0
7.624178093E1,2.029194832E0,1.653359413E0,1.261451721E0
7.630177346E1,3.723114967E0,-4.407891750E0,-4.988109112E0
7.636176592E1,1.196160316E0,-1.141289902E1,-6.457866669E0
7.642175848E1,4.550560474E0,-3.865826130E0,-6.277126312E0
7.648175135E1,1.114581490E1,1.123969650E1,-2.167736816E1
7.654174458E1,-3.459085941E0,-7.695631027E0,-2.543354988E0
7.660173771E1,-1.122562408E1,9.229631424E-1,-4.243985176E0
7.666173084E1,-3.632056236E0,1.288493633E0,-2.734886408E0
7.672172390E1,-7.850844383E0,2.177293777E0,-2.943669796E0
7.678171664E1,-8.342651367E0,2.617477417E0,6.375076771E-1
7.684170897E1,-6.755196095E0,1.404820442E0,1.633098841E0
7.690170150E1,-5.227845669E0,-1.453580856E-1,3.764553547E0
7.696169403E1,-3.006328583E0,-1.093611240E0,4.044595242E0
7.702168652E1,-1.744815826E0,-2.987786770E0,2.160730362E0
7.708167905E1,-3.027343750E-2,-4.748332977E0,1.086646080E0
7.714167158E1,-4.991198540E0,-6.431727409E0,-6.262750626E-1
7.720166392E1,-9.420089722E-1,-4.693042278E0,-9.628362656E-1
7.726165625E1,1.745419025E0,-2.250684261E0,-4.360533714E0
7.732164881E1,5.382189751E0,-1.092073679E0,-4.461705685E0
7.738164127E1,1.097055435E1,2.673938751E0,-5.734626770E0
7.744163380E1,1.342846966E1,1.430866337E1,-9.965414047E0
7.750162643E1,6.716853142E0,6.122182846E0,-5.374883652E0
7.756162027E1,-9.662975311E0,-1.392742920E1,2.038022423E1
7.762161456E1,-7.607262611E0,-3.785255432E1,1.261535454E1
7.768160896E1,-9.089270592E0,-2.966645002E0,-6.879299641E0
7.774160326E1,6.315166473E0,-4.849515438E0,-7.980690479E0
7.780159742E1,2.698512793E0,6.943824291E-1,-8.887695312E0
7.786159039E1,4.111009121E0,5.727224350E0,-7.348924637E0
7.792158275E1,4.619721889E0,2.015288830E0,-4.763633251E0
7.798157508E1,2.917939186E0,-3.025631666E0,3.854188919E-1
7.804156764E1,1.524465680E0,-4.863980770E0,-4.201498032E-1
7.810156018E1,-1.047134399E-2,-9.878284454E0,3.301630020E-1
7.816155270E1,-2.272633076E0,-9.371298790E0,1.161800861E0
7.822154517E1,-5.713120461E0,-7.518012047E0,5.700966835E0
7.828153773E1,-4.854306221E0,-1.842673302E0,2.710506678E0
7.834153000E1,-1.506334186E0,-8.464279175E-1,3.494007349E0
7.840152249E1,-4.975534976E-1,-6.551656723E-1,5.180143356E0
7.846151502E1,-4.269312024E-1,7.234249115E-1,4.958059788E0
7.852150755E1,-6.157362461E-1,6.592807770E-1,2.656901598E0
7.858150002E1,-1.747726560E0,-6.456069946E-1,2.158721924E0
7.864149322E1,-1.593239903E0,-2.857872009E0,1.338921309E0
7.870148642E1,-7.437874079E-1,-3.536914825E0,4.210162163E-2
7.876147954E1,2.194476128E-2,-3.047165871E0,-1.007143259E0
7.882147268E1,1.832180023E-1,-2.606432438E0,-1.838364601E0
7.888146571E1,1.592254639E-1,-2.459216595E0,-1.929698467E0
7.894145817E1,3.532075882E-1,-1.915195942E0,-7.948045731E-1
7.900145047E1,1.261209965E0,-8.320708275E-1,8.816785812E-1
7.906144300E1,8.483748436E-1,1.085546255E0,4.777812958E-1
7.912143546E1,2.119920254E0,2.482924700E0,9.972591400E-1
7.918142813E1,2.112689018E0,2.583207369E0,-8.107171059E-1
7.924142059E1,2.805032253E0,2.448809624E0,-2.899858952E0
7.930141312E1,2.933060646E0,-5.206920207E-3,-2.856490135E0
7.936140539E1,4.673875332E0,-9.299023151E-1,-5.999793053E0
7.942139785E1,3.480214596E0,-7.699498653E0,-7.295786858E0
7.948139025E1,4.715919495E-2,-8.257772446E0,-8.752787590E0
7.954138284E1,6.552081108E0,-6.851134300E-1,-1.760312438E0
7.960137537E1,-2.029747486E0,5.186986923E-1,-1.480976105E0
7.966136831E1,-5.827003002E0,-1.060034752E0,3.502619863E-1
7.972136234E1,-5.211452007E0,-2.509104729E0,2.439632177E0
7.978135694E1,-6.408530235E0,-2.150888443E0,2.794565201E0
7.984135140E1,-8.905706406E0,-5.153541565E-1,3.401195765E0
7.990134587E1,-6.963546753E0,-1.235740662E0,3.967137098E0
7.996134000E1,-8.559722900E0,-3.010542870E0,5.661711693E0
8.002133290E1,-1.338681030E1,-6.054736137E0,7.945218086E0
8.008132530E1,-1.334909248E1,-1.269473648E1,4.721927643E0
8.014131782E1,-2.906413078E0,-1.438375473E1,-1.647265434E0
8.020131036E1,7.603367329E0,-8.811105728E0,-7.631375313E0
8.026130288E1,1.919197655E1,-7.710916042E0,-7.592925072E0
8.032129542E1,1.292891216E1,-4.687866211E0,-7.149360657E0
8.038128775E1,8.142441750E0,-1.167933226E0,-3.674473763E0
8.044128008E1,6.812721252E0,1.793363333E0,-1.910630107E0
8.050127258E1,4.461693287E0,1.946969509E0,-4.313566685E-1
8.056126510E1,5.187309265E0,2.178154469E0,-9.115457535E-2
8.062125757E1,3.765130997E0,6.897552013E-1,1.863610744E-1
8.068125017E1,-3.783659935E-1,-1.516439915E0,1.979706049E0
8.074124283E1,-9.183773994E-1,-1.446740627E0,1.915132046E0
8.080123659E1,-1.066003323E0,-2.394786835E0,3.588329792E0
8.086123086E1,-1.135486603E0,-6.899535179E0,1.054728031E1
8.092122525E1,-3.473592997E-1,-2.826143265E0,9.880996704E0
8.098121952E1,-1.076040387E0,-4.113512039E-1,8.324023247E0
8.104121372E1,-3.629577637E0,4.132318497E-1,4.303238869E0
8.110120668E1,-4.362376213E0,4.647254944E-2,2.301985741E0
8.116119904E1,-3.055233955E0,-5.602235794E-1,1.597057343E0
8.122119147E1,-1.681255579E0,-2.004226685E0,1.747717500E0
8.128118407E1,-2.276378155E0,-3.914092064E0,9.446706772E-1
8.134117653E1,-1.820415497E0,-3.753250122E0,1.471768379E0
8.140116896E1,2.468700409E0,-9.351773262E-1,1.141841888E0
8.146116146E1,4.251208782E0,1.147623539E0,3.173546791E-1
8.152115383E1,4.214946747E0,8.785548210E-1,-1.889401436E0
8.158114609E1,3.854835033E0,-6.804895401E-2,-4.671668530E0
8.164113859E1,2.829246759E0,2.502918243E-3,-3.255839348E0
8.170113115E1,1.323648930E0,8.209657669E-1,1.995396614E-1
8.176112368E1,-1.510707855E0,2.486206055E0,2.599415779E-1
8.182111624E1,-1.905169010E0,2.306329250E0,3.724620342E-1
8.188110938E1,-3.264710426E0,1.437124729E0,4.974822998E-1
8.194110254E1,-6.372075081E0,4.746961594E-2,-4.446713924E-1
8.200109564E1,-3.606565475E0,2.316604853E0,3.623084307E0
8.206108877E1,-4.871212959E0,4.633544922E0,2.359743595E0
8.212108180E1,-6.079295158E0,3.261649847E0,1.238835096E0
8.218107430E1,-4.662348747E0,3.414646626E0,4.435949326E-1
8.224106663E1,-1.596261978E0,2.140848637E0,-3.077691793E0
8.230105916E1,2.979511738E0,-1.214106321E0,-3.240140200E0
8.236105162E1,6.507928848E0,-1.216955662E1,-7.284226418E0
8.242104422E1,3.427036762E0,-1.361165905E1,-3.934051895E1
8.248103672E1,1.622892189E1,-1.113305187E1,1.610805511E0
8.254102925E1,6.157235622E0,-5.286133289E-1,5.223437786E0
8.260102151E1,2.269580841E0,-5.100154400E0,1.252226830E1
8.266101401E1,-1.820917511E1,-6.735605717E0,2.194485188E0
8.272100647E1,-6.987301350E0,-6.578917503E0,1.058692646E1
8.278099907E1,-1.173485470E1,-5.820875168E-1,3.179616690E0
8.284099153E1,-8.508455276E0,1.715405941E0,7.002167702E-1
8.290098463E1,-6.736908436E0,2.279903889E0,-4.099085808E0
8.296097873E1,4.591308594E0,5.639051437E0,-5.668972969E0
8.302097306E1,2.524698734E0,7.401160240E0,-3.902400494E0
8.308096736E1,1.122120857E1,1.355817223E1,-7.253144264E0
8.314096169E1,1.115563202E1,2.131479454E1,-1.472162914E1
8.320095545E1,3.350605965E0,-5.043377876E0,1.685434341E1
8.326094808E1,3.699151754E0,-3.055103874E1,-1.633092499E1
8.332094041E1,-1.335248184E1,-6.804957867E0,-3.937724590E0
8.338093284E1,-7.251307368E-3,-3.742417574E0,-8.718883514E0
8.344090119E1,1.921678066E0,6.242974997E-1,-1.010990429E1
8.350089372E1,1.723274708E0,4.663844109E0,-8.544960022E0
8.356088622E1,2.178522587E0,7.223925591E0,-8.105601311E0
8.362087875E1,1.210521460E0,2.065672398E0,-1.322703362E0
8.368087115E1,-1.659817457E0,-4.068128109E0,3.362791061E0
8.374086341E1,8.898563981E-1,-5.494952679E0,-3.177928925E-1
8.380085591E1,3.511525631E0,-8.727169037E0,3.736976147E0
8.386084844E1,-1.425589800E0,-8.161471367E0,6.806485176E0
8.392084097E1,-5.598186493E0,-3.688263893E0,2.830540419E0
8.398083360E1,-5.180382729E0,-9.472637177E-1,1.323157430E0
8.404082700E1,-1.802070141E0,-2.571334839E-1,4.856936455E0
8.410082010E1,-2.727849722E0,2.107734680E-1,4.985003948E0
8.416081323E1,-3.490463734E0,4.013204575E-1,2.737141132E0
8.422080629E1,-4.169771194E0,-5.971622467E-1,1.661618352E0
8.428079932E1,-3.356281281E0,-1.947111130E0,1.154390931E0
8.434079159E1,-1.959298849E0,-2.893463135E0,1.454509974E0
8.440078408E1,-9.320495129E-1,-2.396090508E0,1.072964668E0
8.446077655E1,-1.386231899E0,-3.077570915E0,5.081615448E-1
8.452076908E1,-3.206110001E-2,-3.779037952E0,2.678287983E0
8.458076154E1,9.459924698E-2,-3.199574471E0,1.469688416E0
8.464075417E1,5.209095478E0,1.485016823E0,5.362653732E-2
8.470074657E1,1.580817986E1,6.587034702E0,3.827939034E-1
8.476073890E1,1.434747505E1,-1.589020014E0,-3.585950613E0
8.482073136E1,4.089533329E0,-3.705196381E0,-9.265001297E0
8.488072389E1,-6.994481087E-1,-1.742781067E1,-5.245987892E0
8.494071632E1,5.552745056E1,-5.382975101E0,1.188030815E1
8.500070882E1,-1.451796913E1,-3.388843536E-1,-7.175098419E0
8.506070235E1,-5.437900066E0,7.469780922E0,-8.520425797E0
8.512069672E1,-3.990247250E0,2.143671036E0,-5.764661789E0
8.518069125E1,-1.477147961E1,-2.429217339E0,-5.906534672E0
8.524068572E1,-8.406385422E0,-2.082800865E0,3.574032784E-1
8.530068025E1,-9.973093033E0,5.094347000E-1,-1.221994996E0
8.536067378E1,-8.056733131E0,-1.535627365E0,1.507569432E0
8.542066635E1,-7.251019478E-1,-2.507708073E0,1.686954498E-1
8.548065878E1,-5.483254433E0,-5.172927856E0,8.307003975E-2
8.554065137E1,-1.797372341E0,-4.685990810E0,-2.808606386E0
8.560064384E1,-6.407847404E-1,-1.254773140E0,-4.307501793E0
8.566063640E1,2.570462942E0,-1.887656450E0,-6.130053520E0
8.572062887E1,4.053865910E0,-9.998371601E-1,-4.352957249E0
8.578062130E1,8.265204430E0,1.448275089E0,-2.818174839E0
8.584061356E1,1.618369675E1,1.437388325E1,-9.588088036E0
8.590060616E1,1.198088932E1,1.688422203E1,-9.806032181E0
8.596059859E1,-1.257164478E-1,-1.114794254E1,2.173876190E1
8.602059112E1,-1.212523803E-1,-4.291961288E1,1.138246536E0
8.608058358E1,-7.687370777E0,-4.065022469E0,-8.195172310E0
8.614057678E1,2.623412371E0,-5.493523598E0,-9.798792839E0
8.620057081E1,4.392886162E0,-9.856498241E-1,-1.084976864E1
8.626056514E1,3.870304585E0,5.048611164E0,-9.577297211E0
8.632055947E1,5.726614952E0,2.666017532E0,-8.549293518E0
8.638055380E1,4.426067352E0,-6.559877396E0,2.261279106E0
8.644054746E1,1.654232621E0,-9.980947495E0,-5.281747341E0
8.650054003E1,-2.916671276E0,-1.754681778E1,9.149437904E0
8.656053243E1,-1.070699310E1,-1.094390297E1,7.668477058E0
8.662052496E1,-6.196746826E0,-3.502060890E0,5.014771461E0
8.668051749E1,-5.507143974E0,-1.125511169E0,5.021914482E0
8.674050998E1,-4.497352123E0,7.663068771E-1,6.305299759E0
8.680050251E1,-4.640110970E0,1.747510433E0,5.229592800E0
8.686049498E1,-5.277442455E0,5.545396805E-1,4.451866150E0
8.692048731E1,-5.084284306E0,-1.440118790E0,3.170550585E0
8.698047967E1,-2.983403206E0,-3.695442200E0,1.242528319E0
8.704047224E1,1.945775598E-1,-4.256754875E0,-3.351336718E-1
8.710046473E1,1.526325107E0,-3.209517479E0,-1.491467953E0
8.716045730E1,1.780972362E0,-2.876121521E0,-1.525974751E0
8.722045003E1,2.693994522E0,-2.377705574E0,-1.460064650E0
8.728044333E1,2.116940260E0,-1.494956017E0,-1.165399790E0
8.734043639E1,9.334068298E-1,2.789397240E-1,4.728031158E-2
8.740042955E1,-1.511599541E0,1.473590374E0,1.993989944E0
8.746042258E1,-1.868464947E0,7.653002739E-1,1.724370956E0
8.752041545E1,3.426647186E-1,2.000505924E0,1.180347443E0
8.758040775E1,-2.706083775E0,7.596635818E-1,2.520270348E-1
8.764040031E1,-2.406789303E0,3.084923506E0,6.304297447E-1
8.770039291E1,-3.872446537E0,2.251767159E0,-2.084542274E0
8.776038544E1,3.800540209E0,2.209837675E0,-5.199493885E0
8.782037797E1,2.782677412E0,-4.439599991E0,-1.965165615E0
8.788037046E1,-6.560579300E0,-9.940078735E0,-4.130768776E0
8.794036276E1,6.471555710E0,6.019039631E0,3.490476608E-1
8.800035496E1,1.585363483E1,3.168566704E0,-1.339678764E1
8.806034749E1,6.218050003E0,-1.083293438E0,-3.581899405E0
8.812034002E1,7.520374298E0,-1.687928200E0,-6.440677643E-1
8.818033255E1,2.140125036E-1,-2.593590260E0,2.116249084E0
8.824032505E1,-6.671282291E0,-4.029127598E0,5.214766502E0
8.830031865E1,-8.288619518E-1,2.933483362E0,-7.717723846E-1
8.836031291E1,1.214059734E1,5.567432880E0,-3.609295368E0
8.842030724E1,1.563881874E1,1.111924171E1,-4.338121891E0
8.848030150E1,1.229085159E1,1.106428623E1,-7.425875664E0
8.854029587E1,1.104646683E0,-7.274754047E0,1.886624146E1
8.860028907E1,1.458994865E1,-2.967025375E1,-1.420211411E1
8.866028146E1,-1.671496582E1,-3.481648922E0,-8.197295189E0
8.872027383E1,3.003998041E0,-4.009583950E0,-8.770139694E0
8.878026642E1,5.495835304E0,1.771283150E-1,-7.061602592E0
8.884025889E1,5.123718739E0,2.892314911E0,-7.196344376E0
8.890025148E1,4.248260498E0,3.720573485E-1,-5.831898689E0
8.896024395E1,-8.065650463E-1,-7.399688244E0,-1.004658699E0
8.902023644E1,-6.366317272E-1,-1.036440372E1,6.249374390E0
8.908022871E1,-3.082013845E0,-9.361396790E0,1.890083075E0
8.914022117E1,-9.797227859E0,-8.284923553E0,4.149434566E-1
8.920021364E1,-1.194343376E1,-1.905239105E0,-6.230105162E-1
8.926020627E1,-6.599992275E0,-1.126060486E0,-3.896918893E-1
8.932019873E1,-3.591757536E0,-1.651229858E-1,2.742447853E0
8.938019173E1,-1.035334826E0,1.007921219E0,5.178111076E0
8.944018493E1,-9.047704935E-1,1.276029587E0,3.237206221E0
8.950017812E1,-1.919907689E0,-5.696392059E-2,1.535902143E0
8.956017116E1,-2.437219143E0,-2.464072227E0,1.304786086E0
8.962016428E1,-5.536960363E-1,-3.706954002E0,1.286879063E0
8.968015695E1,1.743059158E-1,-4.672341347E0,1.465966702E0
8.974014928E1,4.717555046E-1,-4.040545464E0,1.634110212E0
8.980014171E1,-6.355633736E-1,-1.677082539E0,3.314847946E-1
8.986013424E1,-4.101462364E-1,-1.366986752E0,-2.699470520E-2
8.992012677E1,1.193866730E-1,-7.252511978E-1,-1.127825737E0
8.998011930E1,6.787228584E-1,4.943060875E-2,-1.102511883E0
9.004011183E1,-4.167671204E-1,2.613012791E-1,-1.760656357E0
9.010010416E1,1.836994648E0,1.107997298E0,-8.710217476E-1
9.016009653E1,2.257681370E0,1.354273558E-1,-1.486532211E0
9.022008906E1,2.679174662E0,-8.812228441E-1,-4.745407104E0
9.028008159E1,4.120166302E0,-5.393414021E0,-5.046677589E0
9.034007405E1,5.020037651E0,-1.046145058E1,-4.359230042E0
9.040006685E1,4.853719711E0,-5.605414200E1,1.960251617E1
9.046006075E1,-3.007421494E0,1.053142929E1,-8.178310394E-1
9.052005522E1,2.830091000E0,8.913424492E0,1.006032944E0
9.058004968E1,-1.913877487E0,-2.147531509E-1,2.781821728E0
9.064004431E1,-7.161396980E0,-1.388968945E0,-5.345845222E-1
9.069011531E1,-1.099879837E1,-6.418847561E0,-5.986475945E-1
9.075010861E1,-5.618463516E0,-4.592800140E-2,1.131716967E0
9.081010101E1,-4.247775078E0,3.351702213E0,1.312221169E0
9.087009354E1,-1.667320728E0,1.122214794E0,1.785744190E0
9.093008603E1,-6.719851971E0,-3.014641762E0,8.184621334E-1
9.099007850E1,-1.291001797E0,-5.540730000E0,2.161115170E0
9.105007100E1,-3.346987724E0,-5.376552105E0,1.568616867E0
9.111006352E1,9.525537491E-1,-4.768394470E0,-1.954358816E0
9.117005586E1,1.693820000E0,-2.970834017E0,-7.770229816E0
9.123004822E1,4.777058601E0,-4.630025625E-1,-5.841454029E0
9.129004075E1,5.124676704E0,2.254726410E0,5.015335083E-1
9.135003318E1,1.230271912E1,7.400905132E0,2.966299057E-1
9.141002571E1,1.312799454E1,1.468806648E1,-7.674036503E0
9.147001824E1,6.431971550E0,5.734591484E0,-8.710479736E-2
9.153001174E1,-2.138343048E1,-1.794648743E1,2.157211304E-1
9.159000594E1,-1.170455074E1,-2.697349548E1,-6.681550026E0
9.165000033E1,-7.420617580E0,-3.839823008E0,-7.018635273E0
9.170999460E1,5.764969826E0,-2.901744843E0,-1.014161777E1
9.176998893E1,4.730552673E0,9.575924873E-1,-7.581637859E0
9.182998219E1,6.206495285E0,4.468481064E0,-4.750192165E0
9.188997466E1,3.897934675E0,1.805580258E-1,-3.313432693E0
9.194996699E1,-3.742325306E-1,-6.585807800E0,-1.561804295E0
9.200995958E1,-2.988868356E-1,-8.805009842E0,2.698934555E0
9.206995205E1,-5.864888430E-2,-6.425566673E0,1.621939659E0
9.212994461E1,-2.308211565E0,-7.419095993E0,3.258000851E0
9.218993707E1,-7.143565178E0,-5.136874199E0,3.507719040E0
9.224992964E1,-5.625443459E0,-1.478249550E0,1.795345783E0
9.230992190E1,-2.008232594E0,-5.019922256E-1,3.010201931E0
9.236991433E1,-6.201247573E-1,4.880704880E-1,4.442058086E0
9.242990683E1,-6.910632253E-1,3.974790573E-1,3.863500118E0
9.248989936E1,-3.856010437E-1,2.813339233E-4,1.605507255E0
9.254989179E1,-9.216873646E-1,-1.196352959E0,1.743557453E-1
9.260988476E1,-8.277040720E-1,-1.821289062E0,-4.056439400E-1
9.266987799E1,-1.807665825E-2,-1.970434189E0,-9.250977039E-1
9.272987112E1,1.095954657E0,-2.715663910E0,-2.303292751E-1
9.278986425E1,-2.556653023E-1,-2.529541016E0,-7.909481525E-1
9.284985731E1,-9.751043320E-1,-1.083064556E0,-7.304632664E-1
9.290985001E1,-1.640469074E0,-2.960596085E-1,2.919676781E0
9.296984241E1,-1.926781654E0,3.948135376E-1,4.008641720E0
9.302983494E1,3.443670273E-2,1.970294476E0,3.529495716E0
9.308982740E1,-4.210681915E-1,1.715461493E0,8.173084259E-2
9.314982003E1,-2.030339241E-1,1.826720089E-1,-2.002058029E0
9.320981249E1,1.489182949E0,-3.232955933E-3,-4.250749588E0
9.326980496E1,4.486368656E0,-1.602678180E0,-4.135315895E0
9.332979722E1,8.340171814E0,-1.594860077E0,-6.975032330E0
9.338978969E1,1.002937794E1,-3.968959808E0,-4.542823315E0
9.344978212E1,9.312696457E0,-9.289236069E0,-4.867288589E0
9.350977471E1,-1.131278229E1,-8.363916397E0,-4.339298248E0
9.356976721E1,-1.270145512E1,8.284744263E0,2.494089127E0
9.362975991E1,4.526854992E0,-3.941824913E0,3.633140087E0
9.368975371E1,-1.903311729E0,-2.583090782E0,2.036921680E-1
9.374974810E1,-6.600117683E0,-2.220687866E0,-1.978474855E0
9.380974237E1,-5.421494484E0,-5.385402679E0,-1.067856550E-1
9.386973673E1,-6.731673717E0,-3.406173706E0,4.915924072E-1
9.392973089E1,-7.539789677E0,-3.011099815E0,2.676789522E0
9.398972383E1,-7.477321148E0,-2.208412170E0,4.228365421E0
9.404971609E1,-5.071361065E0,-6.811609268E-1,9.777737856E-1
9.410970859E1,-3.916289568E0,-2.420616150E0,2.447787285E0
9.416970105E1,-4.055556774E0,-2.722918510E0,2.041065216E0
9.422969361E1,-8.304792404E0,-6.668158531E0,-1.352499604E0
9.428968614E1,4.727497101E-1,-3.393428326E0,6.125807762E-2
9.434967867E1,-6.652736664E-2,-4.360418320E0,-8.663980961E-1
9.440967104E1,2.517085075E-1,-4.632409573E0,-3.951393843E0
9.446966337E1,2.405142069E0,-2.891329288E0,-5.358612061E0
9.452965577E1,8.132314682E-1,-1.561390519E0,-7.748547077E0
9.458964830E1,2.570431232E0,-7.473096848E-1,-6.045084953E0
9.464964086E1,4.168677330E0,2.077558994E0,-4.014031887E0
9.470963339E1,1.033362579E1,8.343164444E0,-5.265344620E0
9.476962656E1,1.207477951E1,2.013197327E1,-1.246868515E1
9.482961979E1,9.014913559E0,5.339973450E0,2.426280975E0
9.488961292E1,-1.142726040E1,1.963541508E-1,-2.303989792E1
9.494960595E1,-2.350807428E0,-1.940606880E1,-9.322879791E0
9.500959908E1,-9.941753387E0,-1.485774517E0,-3.617899895E0
9.506959151E1,4.556252956E0,-3.202106953E0,-1.078836250E1
9.512958391E1,4.975648403E0,1.602527022E0,-1.066257477E1
9.518957637E1,4.763515472E0,5.283560753E0,-9.201147079E0
9.524956897E1,3.099621296E0,-1.581787586E0,-2.441590309E0
9.530956143E1,-7.528704405E-1,-6.304523945E0,4.406465530E0
9.536955403E1,1.875439286E-2,-1.087621975E1,-1.388965368E0
9.542954643E1,2.551208019E0,-1.740926361E1,8.640832901E0
9.548953876E1,-6.352963448E0,-8.772174835E0,1.184255028E1
9.554953109E1,-4.210568428E0,-3.519462585E0,6.176195145E0
9.560952368E1,-3.033599377E0,-3.739366531E-1,6.948421478E0
9.566951615E1,-2.550580502E0,1.021249294E0,9.474699974E0
9.572950868E1,-2.546394825E0,1.036084175E0,7.784758568E0
9.578950171E1,-3.390295982E0,-4.844913483E-1,5.345833302E0
9.584949584E1,-3.759244442E0,-2.859952927E0,3.300924063E0
9.590949031E1,-1.282602429E0,-3.943369865E0,8.464232683E-1
9.596948484E1,1.395764947E0,-3.547912598E0,-4.683048725E-1
9.602947937E1,1.754054189E0,-2.307194710E0,-1.469834566E0
9.608947340E1,1.732075691E0,-1.418974876E0,-2.650327682E0
9.614946627E1,2.134913921E0,-2.860593796E-1,-2.917328358E0
9.620945867E1,2.481017351E0,2.179555893E-1,-2.204216719E0
9.626945120E1,1.288732052E0,-7.610845566E-2,-5.583488941E-1
9.632944373E1,1.865801096E0,1.174660683E0,3.120093346E-1
9.638943626E1,-1.178868294E0,1.081485748E0,1.490690470E0
9.644942872E1,-1.214908123E0,2.319658279E0,1.243507385E0
9.650942118E1,-1.562582970E0,1.944837093E0,1.693029404E0
9.656941345E1,-1.872555733E0,1.986541271E0,1.652227163E0
9.662940591E1,-3.448015213E0,1.437013626E0,1.528042316E0
9.668939838E1,-1.770398617E0,1.178602219E0,2.055249214E0
9.674939097E1,-3.233751774E0,9.258034229E-1,2.585416794E0
9.680938344E1,-1.139319420E0,1.995045662E0,1.846094131E0
9.686937623E1,1.770651817E0,4.334244728E0,-4.742479324E-2
9.692937006E1,4.110193253E0,3.510018349E0,-1.561731815E0
9.698936440E1,5.388372898E0,1.003530979E0,-1.990411282E0
9.704935866E1,8.543663025E0,-8.978447318E-1,-2.595553875E0
9.710935306E1,1.215408802E1,-4.131072521E0,-3.126324415E0
9.716934712E1,6.299212933E0,-8.590613365E0,-7.559065819E0
9.722933999E1,-1.070463085E1,-1.162759781E1,-2.455781555E1
9.728933235E1,-4.780502796E0,-6.233992577E0,4.895662785E0
9.734932481E1,-1.421349049E-1,-2.634385109E0,-1.083182216E0
9.740931728E1,-3.715637922E0,-5.470837593E0,4.707862377E0
9.746930981E1,-6.612877369E0,-5.366151810E0,-2.291977406E-2
9.752930230E1,-5.786714554E0,-4.371872902E0,1.554383039E0
9.758929480E1,-1.044295549E0,-4.047237396E0,4.485436440E0
9.764928720E1,-5.337635040E0,-3.475243568E0,5.927609444E0
9.770927946E1,-8.088706970E0,-6.727838516E-1,5.159709930E0
9.776927196E1,-1.456888914E0,3.312902451E-1,4.798893929E0
9.782926449E1,-1.405459642E0,9.400014877E-1,1.568183064E0
9.788925702E1,-4.404332638E-1,4.540262222E-1,-5.667030215E-1
9.794924955E1,2.330838203E0,1.460714340E-1,-5.424021482E-1
9.800918285E1,1.538287878E0,3.051567078E-2,-1.530708075E0
9.806917595E1,8.225221634E-1,3.056764603E-1,-1.254821062E0
9.812916908E1,7.010159492E-1,1.108897686E0,-1.220075607E0
9.818916221E1,6.333580017E-1,1.174184322E0,-4.109179974E-1
9.824915534E1,-1.759471893E-1,9.883370399E-1,-4.068368673E-1
9.830914774E1,-1.021265507E0,1.001155376E0,8.951415420E-1
9.836914023E1,-5.823588371E-1,1.398190498E0,7.789369226E-1
9.842913270E1,-1.345021725E0,1.259848118E0,5.151315331E-1
9.848912516E1,-4.636573792E-2,7.262682915E-1,8.056014776E-1
9.854911763E1,-9.736061096E-3,-1.676998138E-1,1.340068102E0
9.860911022E1,-1.138300896E-1,-2.257862091E-1,5.346201658E-1
9.866910259E1,-3.895659447E-1,-2.530231476E-1,3.861855268E-1
9.872909492E1,-2.219991684E-1,-5.118322372E-1,1.010045528E0
9.878908738E1,-2.479522705E0,-1.090354919E-1,7.947870493E-1
9.884907991E1,-1.592038631E0,-6.605768204E-2,3.384338379E0
9.890907238E1,-4.176355839E0,-2.061069965E0,3.839237690E0
9.896906494E1,-4.947826385E0,-8.731641769E-1,1.726168633E0
9.902905810E1,-4.781224728E0,-4.449326038E0,9.880414009E-1
9.908905227E1,-1.817779064E0,-5.257318497E0,-3.698833704E0
9.914904660E1,4.567098618E-1,-4.860655785E0,-3.357526302E0
9.920904093E1,4.166074753E0,-2.855336189E0,-4.647068977E0
9.926903526E1,4.823094368E0,-1.152255416E0,-5.293889046E0
9.932902896E1,5.376479626E0,2.096046448E0,-5.549394608E0
9.938902152E1,1.509067249E1,1.176185226E1,-5.446304321E0
9.944901385E1,1.206735229E1,1.930091667E1,-1.140760994E1
9.950900638E1,5.471214771E0,5.962929726E-1,4.727591515E0
9.956899881E1,5.679003716E0,-1.429475212E1,-1.824302673E1
9.962899134E1,-8.247490883E0,-1.167073917E1,-1.603664017E1
9.968898387E1,-3.184157372E0,1.190699816E0,-4.052783489E0
9.974897640E1,5.026406765E0,-2.130980492E0,-9.054735184E0
9.980896870E1,5.838369370E0,3.242163658E0,-7.666398048E0
9.986896110E1,5.664391041E0,6.441591740E0,-6.022212029E0
9.992895356E1,4.728820801E0,3.908071518E-1,-1.944777489E0
9.998894609E1,-1.987430096E0,-5.203455925E0,-9.638900757E-1
1.000489386E2,5.712271929E-1,-7.069689751E0,2.221985340E0
1.001089313E2,1.723932862E0,-6.869407654E0,3.370027065E0
1.001689246E2,-1.702073336E0,-7.894078255E0,2.830218792E0
1.002289177E2,-5.943618298E0,-5.521529198E0,4.938156128E0
1.002889108E2,-5.683725357E0,-2.445653915E0,3.952352524E0
1.003489039E2,-1.755904913E0,-1.686247826E0,5.254174232E0
1.004088968E2,8.434414864E-1,-1.636209488E-1,6.909645557E0
1.004688892E2,3.547014594E-1,9.259576797E-1,5.650792122E0
1.005288816E2,-6.698403955E-1,6.624298096E-1,3.365151167E0
1.005888741E2,-1.119732738E0,-7.702455521E-1,2.317918301E0
1.006488667E2,-1.182400733E-1,-2.637201309E0,1.124446511E0
1.007088592E2,1.227332950E0,-2.483269691E0,-5.625629425E-2
1.007688517E2,1.706003070E0,-1.563676834E0,-2.024298191E0
1.008288441E2,5.174490809E-1,-1.090365410E0,-3.270336151E0
1.008888365E2,-1.366810799E-1,-4.955530167E-1,-3.393670082E0
1.009488289E2,6.661705971E-1,1.089038849E-1,-2.961866856E0
1.010088214E2,5.728166103E-1,6.308197975E-1,-2.159081697E0
1.010688139E2,-9.158134460E-3,2.969303131E-1,-4.981408119E-1
1.011288065E2,5.394434929E-2,8.838753700E-1,3.061978817E-1
1.011888000E2,-9.747080803E-1,1.322597027E0,5.288999081E-1
1.012487944E2,-2.011183739E0,1.082253456E0,1.320912838E0
1.013087888E2,-1.405511379E0,7.505130768E-1,2.146604061E0
1.013687834E2,-2.189029217E0,3.952960968E-1,2.883087635E0
1.014287779E2,-4.888560295E0,-1.351476192E0,3.937270403E0
1.014887714E2,-3.190445900E0,1.484495163E0,6.683526993E0
1.015487639E2,-2.693001747E0,4.867064953E0,3.196326733E0
1.016087564E2,9.252829552E-1,2.783590078E0,5.846571922E-1
1.016687489E2,3.806882858E0,1.617652178E-1,-4.573059559E0
1.017287415E2,2.655548096E0,-1.006646061E1,-1.168499184E1
1.017887340E2,5.931472778E-2,-1.098936272E1,-8.998957634E0
1.018487265E2,5.922455788E0,1.504880714E1,-4.737387657E0
1.019087188E2,9.384361267E0,7.337481976E-1,3.926803350E0
1.019687112E2,-7.070188522E-1,1.062390327E0,7.545762062E0
1.020287036E2,-3.986819267E0,-7.750892639E-2,4.372281075E0
1.020886962E2,-7.104227066E0,2.105355263E-1,-9.888937473E-1
1.021486888E2,-7.819696903E0,-3.543558121E0,5.813125610E0
1.022086813E2,-6.152729988E0,-2.123175621E0,9.635396004E-1
1.022686745E2,4.227427483E0,-2.286236286E-1,1.195850372E-1
1.023286687E2,-8.438000679E-1,-1.383472681E-1,-3.308834553E0
1.023886630E2,2.720127344E0,1.406005383E0,-5.076529980E0
1.024486573E2,6.260191441E0,8.508270264E0,-4.419427395E0
1.025086516E2,1.601447105E1,2.390156555E1,-6.355807304E0
1.025686451E2,4.378699303E0,5.449423313E0,5.723391533E0
1.026286376E2,-2.262935066E1,-1.585163403E1,-3.715602112E1
1.026886300E2,-2.760912132E1,-1.460631180E1,-6.106756687E0
1.027486225E2,2.526453495E0,-1.105080032E1,-1.152198315E1
1.028086150E2,3.349575281E0,-2.806703568E0,-7.052893162E0
1.028686076E2,2.941546440E0,1.541834354E0,-1.000491428E1
1.029286001E2,2.520970821E0,4.315334797E0,-8.299704552E0
1.029885925E2,2.160796642E0,-5.529801846E-1,-7.222409248E0
1.030485848E2,2.483654976E0,-5.374257088E0,-8.763294220E-1
1.031085773E2,-1.524774313E0,-8.980731964E0,-2.673003674E0
1.031685697E2,-5.462331176E-1,-1.020071030E1,5.723233700E0
1.032285623E2,-1.982550979E0,-1.049175358E1,3.831189871E0
1.032885548E2,-5.423314571E0,-6.499762535E0,6.562880516E0
1.033485476E2,-4.738691330E0,-1.864569664E0,1.962239146E0
1.034085408E2,-1.920940161E0,2.125158310E-1,1.770149231E0
1.034685340E2,-1.774325967E-1,1.385516167E0,3.795416832E0
1.035285272E2,-2.203244269E-1,6.051092148E-1,5.154723167E0
1.035885203E2,-1.253121138E0,3.464889526E-2,2.500256062E0
1.036485132E2,-1.703926802E0,-1.891864777E0,5.632946491E-1
1.037085056E2,-5.236663222E-1,-2.809846878E0,-1.422942042E0
1.037684980E2,1.050439596E0,-1.982749939E0,-2.363562346E0
1.038284904E2,1.333596110E0,-1.136132240E0,-2.496270180E0
1.038884830E2,1.342726707E0,-2.075595856E-1,-2.422750473E0
1.039484755E2,1.442864418E0,5.386638641E-2,-1.645689249E0
1.040084679E2,6.768112183E-1,-6.060180664E-1,-1.173642635E0
1.040684602E2,-3.266382217E-2,-1.445970535E-1,-8.128602505E-1
1.041284526E2,-1.341416836E0,3.054513931E-1,1.738038063E-1
1.041884452E2,-1.917320728E0,9.246749878E-1,1.385090828E0
1.042484377E2,-1.510801792E0,1.338326931E0,2.057758331E0
1.043084303E2,-1.567070007E0,9.028458595E-1,1.866868973E0
1.043684229E2,-1.016505718E0,1.080173492E0,1.622766018E0
1.044284165E2,-1.302746296E0,7.264099121E-1,1.746169090E0
1.044884107E2,-6.842756271E-1,2.465793610E0,7.082233429E-1
1.045484050E2,-1.245955467E0,4.309899807E0,9.598317146E-1
1.046083994E2,1.531736374E0,5.610915184E0,-1.586819172E0
1.046683937E2,5.052867889E0,3.990585327E0,-2.550232887E0
1.047283869E2,7.005819321E0,-1.167590737E0,-3.469532967E0
1.047883792E2,8.274539948E0,-3.785238266E0,-6.109480858E0
1.048483716E2,1.069666004E1,-6.242135048E0,-3.513432503E0
1.049083641E2,6.967677116E0,-2.996899605E0,-6.506296158E0
1.049683566E2,9.719841957E0,-8.651814461E0,-5.455617428E0
1.050283490E2,6.846966743E-1,-3.090713501E0,8.284297943E0
1.050883416E2,1.629436970E0,-1.089603710E1,-1.645138264E0
1.051483340E2,-2.938776016E0,-1.854716301E1,1.245657086E0
1.052083264E2,5.871789932E0,-6.471731186E0,1.727870369E1
1.052683753E2,-2.216300964E1,-2.356376648E-1,2.183535337E0
1.053283679E2,3.484681845E-1,1.668913841E1,1.338710427E0
1.053883603E2,1.656508255E1,1.520249367E0,1.115544200E0
1.054483528E2,-2.901083565E1,2.022705078E-1,-1.684727859E1
1.055083459E2,-9.990272522E0,4.984093189E0,-9.329251289E0
1.055683392E2,2.323551369E1,-1.989802551E1,2.721937370E1
1.056283322E2,2.328209877E-1,-2.651001930E0,-3.666658878E0
1.056883254E2,1.092467785E0,1.081719398E0,-2.362216949E0
1.057483185E2,-7.140603065E-1,-1.174564362E-1,6.552879214E-1
1.058083111E2,-6.193169594E0,-4.408091545E0,9.174036980E-1
1.058683035E2,-5.960979939E0,-4.677080154E0,4.944268227E0
1.059282960E2,-6.545862675E0,-2.522017479E0,3.901629925E0
1.059882885E2,-6.889043331E0,-3.323629856E0,1.488665104E0
1.060482810E2,-2.494258881E0,-4.332555294E0,-1.430949688E0
1.061082735E2,1.697485447E0,-3.332262039E-1,-2.931730270E0
1.061682660E2,6.835888863E0,4.931885242E0,-4.111220837E0
1.062282584E2,1.544783878E1,1.646505356E1,-9.377470016E0
1.062882507E2,4.783028603E0,7.916292191E0,2.722500801E0
1.063482432E2,-1.806183434E1,-1.596300697E1,-2.229186440E1
1.064082357E2,-2.619166183E1,-1.719743156E1,-1.258226681E1
1.064682283E2,4.102949619E0,-1.103486443E1,-1.397023296E1
1.065282210E2,4.620241165E0,6.339039803E-1,-1.004631329E1
1.065882150E2,3.234150648E0,1.240027905E0,-9.815827370E0
1.066482095E2,3.884579659E0,4.511233330E0,-6.340373039E0
1.067082041E2,3.717823505E0,-7.798809409E-1,-1.917906761E0
1.067681986E2,-8.258527517E-1,-4.176789284E0,-1.643600464E-1
1.068281929E2,8.274989128E-1,-4.853232384E0,2.712786674E0
1.068881859E2,6.327259541E-2,-5.702572346E0,3.444656372E0
1.069481782E2,-1.405991912E0,-4.631073952E0,4.038496971E0
1.070081707E2,-1.093643665E0,-2.034366608E0,4.253192425E0
1.070681632E2,-2.045621395E0,-2.385545731E0,5.839519024E0
1.071281556E2,-4.183386803E0,-2.031603813E0,5.265363693E0
1.071881482E2,-2.900199413E0,-1.521702766E0,4.140811920E0
1.072481407E2,-1.774014711E0,-6.321420670E-1,2.951099873E0
1.073081330E2,-8.625949621E-1,2.631473541E-1,2.436907053E0
1.073681255E2,-5.819135308E-1,-4.817905426E-1,1.538951755E0
1.074281179E2,3.669036627E-1,-2.356353760E0,5.692727566E-1
1.074881105E2,8.551689386E-1,-5.304498672E-1,-1.496967793E0
1.075481030E2,8.065915704E-1,-3.183698654E-1,-2.066282511E0
1.076080956E2,9.532971382E-1,-4.116134644E-1,-2.416698933E0
1.076680893E2,1.878162622E0,4.251556396E-1,-2.304036617E0
1.077280837E2,2.280479193E0,9.869647026E-1,-1.622007847E0
1.077880779E2,1.436439037E0,2.522659302E-2,3.934059143E-1
1.078480723E2,-1.435189486E0,-2.466201782E-2,-5.157389641E-1
1.079080665E2,-2.064514875E0,-8.445549011E-2,-2.060461044E-2
1.079680596E2,-2.370074511E0,-6.820487976E-1,1.668808222E0
1.080280519E2,-1.699003458E0,-9.369287491E-1,2.895464659E0
1.080880444E2,-2.291590691E0,1.420326233E-1,4.428486824E0
1.081480368E2,-1.626660347E0,8.977074623E-1,3.068653107E0
1.082080293E2,-9.943251610E-1,9.796147346E-1,2.801726818E0
1.082680218E2,-3.874968052E0,-8.132891655E-1,1.826033592E0
1.083280144E2,-1.662513256E0,1.032908440E0,1.452288151E0
1.083880067E2,6.669054031E-1,1.727084160E0,-1.304794788E0
1.084479991E2,2.254629612E0,1.080526829E0,-2.689752579E0
1.085079915E2,1.226176262E0,-3.035692692E0,-3.169467211E0
1.085679840E2,5.923557281E0,-5.872122288E0,-6.341939926E0
1.086279765E2,6.414743423E0,-8.790287018E0,-6.543883324E0
1.086879690E2,1.495298004E1,1.406649017E1,1.331851244E0
1.087479621E2,4.888422966E0,2.130296707E0,4.200681686E0
1.088079553E2,-3.759568214E0,1.399971962E0,5.487397194E0
1.088679485E2,-5.202440262E0,1.433218002E0,9.077177048E-1
1.089279415E2,-1.179777431E1,1.348577499E0,-3.338838339E0
1.089879347E2,-1.577534676E0,-2.306580067E0,6.481087685E0
1.090479272E2,-9.501519203E0,-1.131743908E0,4.138378620E0
1.091079196E2,-4.509380341E0,-1.452798843E-1,3.088050842E0
1.091679121E2,-5.133736134E0,-8.741831779E-1,-1.036198139E-1
1.092279047E2,-2.011065483E-1,-1.450346947E0,-9.571964741E-1
1.092878972E2,1.707921028E-1,-5.977497101E-1,-3.016208649E0
1.093478898E2,1.548570156E0,5.952131748E-2,-2.061179161E0
1.094078822E2,2.910274506E0,2.098406792E0,-4.321847439E0
1.094678746E2,6.157284737E0,3.922673225E0,-4.442555904E0
1.095278670E2,1.543551731E1,1.299297047E1,-6.392375469E0
1.095878595E2,8.766120911E0,1.957135582E1,-7.692746639E0
1.096478519E2,3.416451454E0,-5.311480045E0,1.886795044E1
1.097078446E2,2.582765579E1,-4.600611496E1,-2.729223633E1
1.097678374E2,-1.595335674E1,-4.652501106E0,-1.012162971E1
1.098278315E2,6.040058136E0,-5.620071411E0,-1.047851562E1
1.098878257E2,2.956974506E0,2.032887936E-1,-7.730895996E0
1.099478202E2,4.245164871E0,5.576712132E0,-8.091306686E0
1.100078144E2,3.606060028E0,4.124091625E0,-7.133903980E0
1.100678083E2,1.412932754E0,-2.968212843E0,-9.368448257E-1
1.101278010E2,-1.754176140E0,-6.937890530E0,2.290935516E-1
1.101877934E2,2.736476660E-1,-1.020164680E1,2.235907555E0
1.102477858E2,-4.108752251E0,-1.167424965E1,3.409284830E0
1.103077783E2,-8.613771439E0,-7.691785812E0,3.280032635E0
1.103677708E2,-9.472509384E0,-2.143145561E0,1.160903692E0
1.104277634E2,-5.152288437E0,-6.427288055E-1,2.896499157E0
1.104877558E2,-2.261989355E0,2.259912491E-1,5.297057152E0
1.105477483E2,-1.550309896E0,1.093775749E0,5.120536804E0
1.106077406E2,-1.686037660E0,-1.170978546E-1,2.556696177E0
1.106677331E2,-1.083570004E0,-1.873209953E0,8.557767868E-1
1.107277256E2,1.691002995E-1,-2.640666008E0,-5.262272358E-1
1.107877180E2,3.440562487E-1,-1.535791397E0,-1.622865796E0
1.108477107E2,6.209861636E-1,-7.802724838E-1,-2.410140753E0
1.109077039E2,8.728672266E-1,-8.294067383E-1,-1.668306112E0
1.109676971E2,-1.604283571E0,-2.256745338E0,-9.528777599E-1
1.110276902E2,-1.576802969E0,-1.162647247E0,-2.566238880E0
1.110876834E2,-1.790416718E0,4.162192345E-1,1.187191010E-1
1.111476763E2,-2.485502243E0,5.646524429E-1,1.334010124E0
1.112076687E2,-1.333258629E0,2.091287136E0,3.639944077E0
1.112676611E2,-1.595192432E0,2.455458879E0,3.802811623E0
1.113276537E2,-2.253034592E0,1.855398655E0,2.144158363E0
1.113876462E2,-1.378446579E0,1.354306221E0,4.300880432E-1
1.114476388E2,3.771142960E-1,9.940510988E-1,-2.295056343E0
1.115076312E2,-1.784358025E-1,-1.351139426E0,-4.312654495E0
1.115676236E2,1.094120979E0,-4.297849178E0,-5.054663658E0
1.116276159E2,2.517514229E-1,-9.238364220E0,-7.192162037E0
1.116876084E2,5.610542297E0,-7.121214390E0,-2.752389717E1
1.117476009E2,1.028277969E1,3.977545261E0,3.024789333E0
1.118075934E2,1.343619633E1,5.260175228E0,3.310861588E0
1.118675859E2,9.479022980E0,3.794779062E0,5.738567352E0
1.119275792E2,2.561950207E0,-2.839922011E-1,3.404920578E0
1.119875734E2,-2.424102306E0,-1.450824261E0,5.298728943E-1
1.120475680E2,-1.638926268E0,-1.092803478E0,3.516421318E0
1.121075625E2,1.110947490E0,3.652100563E-1,2.888160706E0
1.121675570E2,2.012507915E0,2.050216198E0,1.937454224E0
1.122275508E2,5.403757691E-1,1.668946266E0,4.766576767E0
1.122875435E2,1.182615280E0,1.784355044E0,1.649520874E0
1.123475359E2,-5.134794712E-1,6.404573917E-1,-2.340873241E0
1.124075285E2,-5.162692070E-1,1.334704757E-1,-2.839152336E0
1.124675210E2,-1.406108379E0,5.468221307E-1,-2.368609905E0
1.125275134E2,-9.119682312E-1,1.558944106E0,-2.106212139E0
1.125874717E2,1.786890030E-1,2.046297073E0,-1.974787235E0
1.126474641E2,1.179085732E0,2.124779224E0,-8.319725990E-1
1.127074564E2,2.199608803E0,4.742493629E-1,-1.017331600E0
1.127674488E2,8.479104042E-1,2.046897411E-1,6.207513809E-2
1.128274414E2,7.239608765E-1,-3.090733290E-2,-4.279465675E-1
1.128874339E2,5.828757286E-1,-1.366606355E-1,-5.242619514E-1
1.129474265E2,3.866610527E-1,2.736268044E-1,-1.380339146E0
1.130074195E2,4.245567322E-1,3.584907055E-1,-1.203920364E0
1.130674135E2,8.521556854E-1,6.844279170E-1,-1.343226433E0
1.131274078E2,3.307180405E0,1.747651219E0,-2.548142672E0
1.131874021E2,4.740533829E0,4.107537270E0,-2.394997358E0
1.132473964E2,4.097995758E0,2.610794544E0,-1.059647083E0
1.133073902E2,5.464771271E0,-1.094772816E-1,3.654411793E0
1.133673829E2,-1.560515404E0,-6.827789783E0,4.148998260E-1
1.134273752E2,-1.022561264E1,4.200150490E0,-1.146569157E1
1.134873677E2,-5.474225283E-1,-1.198022270E1,-8.199366570E0
1.135473602E2,1.758841038E0,-3.723692417E0,-1.902017117E0
1.136073527E2,-4.960078239E0,1.526579142E0,8.061370850E-1
1.136673453E2,-1.520319700E0,-1.014701009E0,-1.009143829E0
1.137273378E2,-6.579704285E-1,1.035535693E0,-1.012517929E0
1.137873301E2,-5.272016525E-1,1.669407487E0,-3.995082855E0
1.138473225E2,-9.257698059E-2,2.063922167E0,-3.274650574E0
1.139073150E2,-2.209268093E0,1.717071533E0,-2.353044987E0
1.139673075E2,-4.103426456E0,3.352184296E-1,3.701453686E0
1.140273000E2,-7.616367340E0,-3.072965384E0,7.690121174E0
1.140872927E2,-2.100538731E0,-2.064354181E0,6.145909309E0
1.141472859E2,2.235339165E0,-8.805775046E-1,3.976977348E0
1.142072791E2,3.186500549E0,1.962157726E0,-3.130195618E0
1.142672722E2,8.527275085E0,6.249495506E0,-5.328318119E0
1.143272654E2,1.757965088E1,2.136501312E1,-6.330640793E0
1.143872583E2,1.059298992E1,6.520145893E0,3.460464954E0
1.144472507E2,-2.370200729E1,-1.847367096E1,-3.217709732E1
1.145072431E2,-1.590320587E1,-2.259243393E1,-1.052325344E1
1.145672356E2,-6.047302246E0,-8.483228683E0,-8.315640450E0
1.146272281E2,4.404221535E0,-3.514630079E0,-8.148831367E0
1.146872206E2,3.894915819E0,-1.135567427E0,-7.952217579E0
1.147472131E2,2.706626177E0,3.233396769E0,-7.705833912E0
1.148072056E2,2.486620665E0,-1.884283423E-1,-7.233533382E0
1.148671980E2,3.290326357E0,-4.351376534E0,-2.930509090E0
1.149271905E2,-3.588116646E0,-1.213715553E1,1.377076626E0
1.149871830E2,2.528679132E0,-1.229060555E1,7.553875923E0
1.150471755E2,-6.404935360E0,-1.485941601E1,1.350854588E1
1.151071680E2,-7.211874008E0,-2.022663116E0,7.580108643E-1
1.151671614E2,-2.590393782E0,-1.085058212E0,2.983027458E0
1.152271556E2,6.261658669E-1,2.188869953E0,4.001467228E0
1.152871500E2,-1.890401840E-1,8.797273636E-1,7.073580742E0
1.153471443E2,-3.441532850E0,-5.044050217E-1,4.161599159E0
1.154071386E2,-3.174503803E0,-2.187491417E0,6.420880556E-1
1.154671320E2,-1.274480224E0,-2.705855370E0,-2.018928289E0
1.155271245E2,-1.083025932E-1,-1.478096008E0,-2.242440701E0
1.155871168E2,8.714134693E-1,-1.408673286E0,-2.317813635E0
1.156471092E2,2.712727785E0,-8.812685013E-1,-1.729025841E0
1.157071017E2,4.151808262E0,3.490142822E-1,-1.827777267E0
1.157670943E2,4.302309990E0,2.065013409E0,-2.066042662E0
1.158270868E2,3.681168795E0,2.017558098E0,-7.708570957E-1
1.158870793E2,2.273576021E0,3.967523575E-1,1.692300558E0
1.159470717E2,-3.108700275E0,-3.167430878E0,3.566272974E0
1.160070640E2,-4.090059757E0,-2.393596649E0,9.263818264E-1
1.160670565E2,-3.134119511E0,-6.791954041E-1,1.765949249E0
1.161270489E2,-3.511267424E0,7.465972900E-1,3.433567047E0
1.161870415E2,-3.029448748E0,2.458091736E0,1.191528082E0
1.162470344E2,-1.962587357E0,2.145372391E0,1.172376871E0
1.163070278E2,-1.751842499E0,-3.635311127E-2,8.665995598E-1
1.163670208E2,-1.816926479E0,-1.119044304E0,1.949356556E0
1.164270140E2,-9.624967575E-1,-5.719208717E-1,1.260689735E0
1.164870070E2,-1.263266087E0,-1.623121500E0,1.920869350E0
1.165469998E2,-1.596323490E0,-4.908936024E-1,1.835114956E0
1.166069921E2,-2.009320736E0,6.189606190E-1,-1.644659042E-1
1.166669846E2,-1.959816933E0,-1.526300311E0,-2.182081699E0
1.167269771E2,1.608062506E0,-1.456865549E0,-4.814380646E0
1.167869697E2,6.485304832E-1,-4.254661083E0,-6.944350719E0
1.168469623E2,2.562648296E0,-8.847267151E0,-6.211327553E0
1.169069548E2,1.183427525E1,-1.371365166E1,-2.508377075E1
1.169669472E2,1.189695358E1,4.783308506E0,-5.475283623E0
1.170269395E2,9.781194687E0,3.667732239E0,2.238959312E0
1.170869320E2,-1.008683681E0,-6.762851775E-2,7.934883118E0
1.171469243E2,-7.640449047E0,-1.547122002E0,5.518345833E0
1.172069169E2,-2.310373545E0,1.593343019E0,3.753468513E0
1.172669095E2,2.014578581E0,3.969237804E0,5.597066879E-1
1.173269033E2,8.268854141E0,5.231282234E0,-3.361944199E0
1.173868976E2,1.767841148E1,1.755960464E1,-1.076351070E1
1.174468920E2,1.066518784E1,8.840784073E0,-4.514038563E0
1.175068863E2,-5.918854237E0,-1.260018826E1,3.479477882E0
1.175668805E2,-1.744265366E1,-3.256225967E1,-6.383292675E0
1.176268735E2,-1.713967323E1,-1.053556156E1,-8.614904404E0
1.176868659E2,6.684586525E0,-3.220548153E0,-7.629161358E0
1.177468581E2,4.103861332E0,8.272857666E-1,-6.362863064E0
1.178068507E2,4.061020851E0,5.974141121E0,-5.954910755E0
1.178668432E2,2.312752008E0,1.875895858E0,-3.289939404E0
1.179268357E2,-1.545119286E0,-2.825672626E0,-1.872410774E0
1.179868283E2,-4.782661438E0,-3.864166737E0,-2.702722549E-1
1.180468209E2,1.112581491E0,-5.241462231E0,2.082899094E0
1.181068132E2,-1.807859659E0,-5.008011818E0,1.962298393E0
1.181668055E2,-2.650168896E0,-3.321783066E0,3.625349998E-1
1.182267981E2,-2.952317476E0,-4.110287666E0,1.725852013E0
1.182867905E2,-3.366078854E0,-2.823508263E0,2.505602121E0
1.183467830E2,-1.272724271E0,-1.118949890E0,1.762858868E0
1.184067761E2,-3.991881013E-1,-3.101577759E-1,1.962393761E0
1.184667694E2,-4.895385504E-1,4.308223724E-2,1.782737970E0
1.185267625E2,-8.565415144E-1,1.266384125E-2,5.315117836E-1
1.185867557E2,-4.358264208E-1,-5.948858261E-1,-1.678609848E-1
1.186467487E2,-1.678448021E-1,-1.898624420E0,-2.590391636E-1
1.187067412E2,-9.322413206E-1,-2.364377022E0,-1.169902325E0
1.187667336E2,-9.113491178E-1,-2.239138603E0,-1.450245142E0
1.188267261E2,-1.358218193E-1,-1.732647896E0,-9.501957893E-1
1.188867186E2,2.647275925E-1,-1.650621891E0,-5.703258514E-1
1.189467112E2,-1.845250130E-1,-1.453830242E0,1.184158325E-1
1.190067036E2,-1.164273739E0,-2.783961296E0,1.409976482E0
1.190666962E2,2.407040596E-1,-1.074347496E0,2.716714382E0
1.191266884E2,5.329303741E-1,7.507677078E-1,6.847867966E-1
1.191866808E2,2.208601713E0,1.672013640E0,-4.231429100E-1
1.192466733E2,1.990094185E0,8.202423453E-1,-2.753809929E0
1.193066659E2,2.125750780E0,-1.024037361E0,-3.056886196E0
1.193666583E2,1.965093613E0,-2.886202812E0,-4.669927597E0
1.194266513E2,1.187313557E0,-6.727764606E0,-4.396024227E0
1.194866454E2,-1.950867176E0,-5.372909069E0,-5.716647148E0
1.195466400E2,1.056542206E1,-2.858599663E1,-7.796017647E0
1.196066344E2,-3.155096054E0,1.039214039E1,-9.603590965E-1
1.196666289E2,-2.763381004E0,7.750425816E0,8.903839588E-1
1.197266231E2,-1.413082123E0,5.649160385E0,-3.648590803E0
1.197866160E2,1.482336044E0,4.250931740E0,5.777728558E-1
1.198466083E2,-2.676548004E0,2.549781799E-1,-1.622118473E0
1.198966627E2,-7.248385429E0,-1.299399853E0,-3.535069466E0
1.199566552E2,-1.082068920E0,-7.940025330E-1,-8.960585594E-1
1.200166478E2,-2.808849812E0,-9.902424812E-1,7.158092856E-1
1.200766403E2,-2.564194202E0,-1.135115147E0,1.424887657E0
1.201366328E2,1.833691597E-1,-6.239795685E-2,1.293258369E-1
1.201966252E2,5.635766983E-1,-5.239567757E-1,-9.758150578E-1
1.202566175E2,5.583872795E-1,-9.764561653E-1,-1.453919768E0
1.203166101E2,6.540818214E-1,-9.629764557E-1,-1.449016571E0
1.203766026E2,3.336381912E-1,-1.263528347E0,-1.024599075E0
1.204365951E2,5.522928238E-1,-1.339049339E0,-7.284520268E-1
1.204965876E2,1.175097942E0,-6.040182114E-1,-3.351178169E-1
1.205565814E2,1.065169811E0,-2.532763481E-1,-5.978820324E-1
1.206165757E2,5.262079239E-1,-4.345474243E-1,-8.681830168E-1
1.206765700E2,-1.844471931E0,-8.084721565E-1,7.066745758E-1
1.207365643E2,-1.893750191E0,-7.671747208E-1,-7.526063919E-2
1.207965587E2,1.288555145E0,-1.291446686E0,2.267773151E0
1.208565517E2,-1.243330479E0,-1.965399027E0,2.060248375E0
1.209165441E2,-6.161022186E-2,-2.035641909E0,1.338402748E0
1.209765364E2,-3.860130310E-1,1.769898295E0,1.408046722E0
1.210365289E2,3.600805759E0,5.254518986E-1,-1.476142883E0
1.210965213E2,2.270128250E0,2.708041668E-2,-3.571147919E-1
1.211565139E2,5.422305584E0,2.199774742E0,-1.790447712E0
1.212165064E2,1.377486515E1,1.164934731E1,-5.023229599E0
1.212764989E2,1.293843460E1,1.542296791E1,-4.245705605E0
1.213364912E2,3.489981651E0,-1.301764107E1,2.622732925E1
1.213964836E2,-6.235893250E0,-4.489580917E1,5.243004799E0
1.214564761E2,-1.420199966E1,-7.315258026E0,-1.185837364E1
1.215164686E2,5.866846561E0,-5.813182354E0,-8.468818665E0
1.215764611E2,4.614505291E0,-2.176537991E0,-6.195922852E0
1.216364542E2,5.113057137E0,3.018231869E0,-6.215418816E0
1.216964475E2,3.571859837E0,1.519624949E0,-6.251252174E0
1.217564406E2,3.312504768E0,-1.550421000E0,-1.886008263E0
1.218164337E2,-2.438713789E0,-4.022632599E0,-1.420229435E0
1.218764268E2,-1.215285659E-1,-7.152541637E0,1.750535965E0
1.219364194E2,-7.326607108E-1,-6.192602158E0,2.193674088E0
1.219964117E2,-1.882375360E0,-6.836351395E0,4.016957283E-1
1.220564042E2,-6.987236023E0,-6.452888489E0,2.408970118E0
1.221163967E2,-5.771136761E0,-1.646292686E0,4.096773863E-1
1.221763892E2,-1.926287174E0,-4.644680023E-1,9.068249464E-1
1.222363817E2,-6.125825644E-1,4.697170258E-1,2.738639355E0
1.222963743E2,-5.754569769E-1,6.498565674E-1,2.890612125E0
1.223563666E2,-6.713238955E-1,-4.028568268E-1,8.341147900E-1
1.224163590E2,-2.357534766E-1,-1.004135132E0,-3.154649734E-1
1.224763515E2,3.106094599E-1,-1.240346909E0,-1.111788988E0
1.225363440E2,5.244133472E-1,-1.103463173E0,-1.518317580E0
1.225963365E2,9.726760983E-1,-1.432142258E0,-4.539165497E-1
1.226563293E2,1.509926319E-1,-1.832916260E0,-9.238538742E-1
