"Time (s)","Acceleration x (m/s^2)","Acceleration y (m/s^2)","Acceleration z (m/s^2)"
5.199219400E-2,-1.176786041E1,1.053480953E-1,8.499675751E0
1.039854950E-1,-1.120281219E1,1.539518714E0,7.020013809E0
1.559789210E-1,-7.077476501E0,2.650462151E0,7.805335999E0
2.079725110E-1,-4.984879971E0,3.519583941E0,2.415823221E0
2.599664300E-1,-2.777358890E-1,4.106181145E0,-3.917033672E0
3.119598560E-1,1.122914910E0,2.705530643E0,-3.162837029E0
3.639534820E-1,4.798126698E0,5.573871613E0,-1.108788681E1
4.159467060E-1,-2.092596292E0,6.225114465E-1,9.265843630E-1
4.679399320E-1,5.746259689E-1,1.565855742E0,1.601530457E1
5.199332250E-1,-2.537931204E-1,-1.183011150E1,3.921822071E0
5.719264510E-1,-7.108602047E0,-4.067633438E1,2.814709473E1
6.239200430E-1,-8.901913643E0,-1.473197269E1,1.222516727E1
6.759141940E-1,-1.366412640E1,-3.234665155E0,1.075268841E1
7.279074530E-1,-1.638881111E1,-1.148054790E1,5.624151707E0
7.799012450E-1,-8.573898315E0,-4.498842239E0,5.446975231E0
8.318941380E-1,-1.215573311E1,-4.431802750E0,-1.050847244E1
8.838888950E-1,2.604970932E0,-4.948966026E0,-1.741834831E1
9.358847840E-1,1.938883781E1,5.537957668E0,-2.323164940E1
9.878782110E-1,-5.188393593E0,3.917033672E0,6.466936111E0
1.039871770E0,-2.758204460E0,1.142069101E0,1.458592224E1
1.091865028E0,-6.292154312E0,-2.398105621E1,5.746259689E0
1.143858287E0,-4.434196949E0,-7.465348721E0,2.783105087E1
1.195851813E0,-1.038875866E1,-8.813325882E0,1.127224541E1
1.247845004E0,-1.167687798E1,-7.620976925E0,9.538790703E0
1.299839323E0,-1.267529106E1,-1.313499165E1,1.254599953E1
1.351832715E0,-7.934626579E0,-6.790163517E0,9.534002304E0
1.403825908E0,-5.746259689E0,-4.917840481E0,1.628106833E0
1.455819367E0,-1.841197371E0,-4.867560863E0,3.608172178E0
1.507812525E0,3.447755575E-1,4.637710094E0,-5.439792156E0
1.559806017E0,-2.770175934E0,-7.127756119E0,-6.440599442E0
1.611799509E0,-2.470891714E0,7.398309112E-1,-1.071198559E1
1.663792866E0,-4.783761024E0,5.669642925E0,-3.885908127E0
1.715786920E0,1.000806904E1,-4.261809289E-1,6.936213970E0
1.767780445E0,1.872322917E0,-4.698524857E1,-1.283331299E1
1.819773605E0,-9.713572502E0,-2.004965782E1,1.106394386E1
1.871766898E0,-2.264983892E0,1.781340480E0,7.771816254E0
1.923761419E0,-3.189173937E0,-5.865973234E-1,1.242628670E1
1.975760308E0,-5.956955910E0,-8.315316200E0,1.429142666E1
2.027756865E0,-1.005834866E1,-1.150927925E1,1.344145870E1
2.079750358E0,-1.515097141E1,-8.942616463E0,8.909096718E0
2.131743683E0,-1.090352726E1,-5.442186832E0,4.333637238E0
2.183736909E0,-1.491633177E0,4.024775982E0,3.541132450E0
2.235730435E0,5.710345268E0,6.057515144E-1,-2.088047028E1
2.287723662E0,6.244268894E0,-1.062339687E1,-2.935380936E1
2.339716954E0,9.182044029E0,8.164477348E0,-1.326667690E1
2.391710709E0,-1.379820538E1,-9.284997940E0,4.199079132E1
2.443704630E0,-1.181814003E1,-2.457004738E1,1.760510254E1
2.495697989E0,-1.213657856E1,-3.701548815E0,1.304161453E1
2.547691281E0,-1.534251308E1,-1.149730778E1,1.201447105E1
2.599684607E0,-1.348216152E1,-9.696812630E0,1.269923401E1
2.651678000E0,-1.370961761E1,-4.968120098E0,7.731113434E0
2.703671193E0,-9.929058075E0,-2.329629421E0,4.273780346E0
2.755664752E0,-8.557138443E0,-1.845985889E0,3.725491524E0
2.807658772E0,-7.793364525E0,-5.569083214E0,1.383890867E0
2.859652260E0,-2.686376333E0,2.463708878E0,-3.759011328E-1
2.911433878E0,-1.098493290E1,-6.969734192E0,9.397528648E0
2.963427270E0,-1.454043102E1,-7.860404015E0,7.175641537E0
3.015420764E0,-1.417650127E1,-7.424646378E0,1.381496549E0
3.067413889E0,-7.829278469E0,8.475732803E-1,9.680052757E0
3.119407248E0,5.267404556E0,3.672817469E0,-1.161223316E1
3.171400641E0,-1.374313712E0,-1.456437397E1,-6.584255695E-1
3.223394560E0,6.672843933E0,-9.385557175E-1,-2.204887581E1
3.275388350E0,4.563488007E0,3.423812985E-1,5.147690773E0
3.327381610E0,-4.549122334E0,-9.873989105E0,3.455178070E1
3.379375003E0,-1.736567497E1,-2.604731560E1,1.841436768E1
3.431368494E0,-1.384609127E1,-4.053507328E0,1.747581100E1
3.483366547E0,-1.347497845E1,-8.312922478E0,1.100408745E1
3.535364135E0,-1.131294823E1,-4.721509933E0,8.514040947E0
3.587358229E0,-1.144702816E1,-3.091008663E0,7.688016415E0
3.639351655E0,-1.034805584E1,-6.433416367E0,4.529967785E0
3.691345047E0,-1.213657856E1,-8.547560692E0,3.505218267E0
3.743338339E0,-7.817307472E0,-1.222995567E1,2.250618339E-1
3.795331698E0,-8.439818382E0,-1.790917516E0,1.987248063E-1
3.847324991E0,9.045570374E0,9.873989105E0,-8.858817101E0
3.899318349E0,2.205127144E1,6.325674057E0,3.134105682E0
3.951312535E0,1.252923965E1,5.894704342E0,-2.519256020E1
4.003306025E0,9.464568138E0,-2.949746609E0,-7.113390446E0
4.055299285E0,-1.855562925E0,-8.241093636E0,3.459487534E1
4.107292744E0,-8.899519920E0,-2.893241692E1,7.477320194E0
4.159285937E0,-1.300091267E1,-4.063084126E0,1.498576641E1
4.211279363E0,-1.812705421E1,-4.975303173E0,1.129618835E1
4.263272722E0,-1.561067200E1,-5.480494976E0,8.262641907E0
4.315266113E0,-1.071916866E1,-4.254626274E0,8.473338127E0
4.367260464E0,-9.593858719E0,-3.433390141E0,6.668055534E0
4.419253857E0,-9.914691925E0,1.091789365E0,5.114171028E0
4.471247216E0,-6.826077461E0,2.557085514E0,6.541158676E0
4.523240607E0,-3.823656797E0,1.884294271E0,6.658478260E0
4.575236529E0,-2.592999697E0,1.161223292E0,4.314483166E0
4.627231089E0,-8.499675751E0,-3.469304085E0,1.562264347E1
4.679224281E0,-1.747820675E-1,-6.047938347E0,-1.465775013E1
4.731217707E0,6.251451492E0,-5.707951069E0,-8.432636261E0
4.783211033E0,5.322473049E0,1.022355366E1,-1.130815983E1
4.835204292E0,-8.200390816E0,-1.633134842E1,1.865858269E1
4.887197752E0,-5.494860649E0,-1.030735302E1,1.009665680E1
4.939191144E0,-1.640078163E1,-1.262261677E1,2.128749657E1
4.991185294E0,-1.790199280E1,-1.352046967E1,1.338399601E1
5.043178687E0,-1.621881676E1,-1.225389862E1,1.271838760E1
5.095172013E0,-1.255078888E1,-7.987300873E0,1.229460144E1
5.147165438E0,-5.406272411E0,-2.004008055E0,9.150918007E0
5.199158765E0,-5.427821159E0,-3.232271075E-1,4.793338299E0
5.251152257E0,-1.080775642E1,-2.743839025E0,3.972101927E0
5.303145417E0,-8.511647224E0,2.782147408E0,2.097384691E0
5.355138974E0,-2.485257149E0,6.490879059E0,1.182771802E0
5.407133059E0,3.797319889E0,2.463708878E0,4.070267200E0
5.459126451E0,7.024802208E0,-2.274561167E0,4.850800991E0
5.511119743E0,5.698373914E-1,-2.660039425E0,-6.222720146E0
5.563113202E0,9.562733650E0,-5.123748183E-1,-2.135693169E1
5.615110323E0,-1.099690437E1,-9.280209541E0,1.214855003E1
5.667108451E0,-3.962524891E0,5.226701736E0,8.719948769E0
5.719104112E0,-9.689630508E0,7.996878028E-1,1.116450310E1
5.771097437E0,-2.440484238E1,-7.544359684E0,1.383651447E1
5.823090763E0,-2.207760811E1,1.110943556E0,7.649707794E0
5.875084123E0,-1.426987743E1,-9.217957854E-1,8.803748131E0
5.927077415E0,-5.494860649E0,1.103760719E0,9.598648071E0
5.979070708E0,-8.284191132E0,1.271359921E0,8.186025620E0
6.031064729E0,-1.298654652E1,-2.839609861E0,9.239506721E0
6.083058417E0,-1.559391212E1,-6.612987041E0,1.057790565E1
6.135051776E0,-8.130957603E0,-4.039141655E0,3.263396502E0
6.187045136E0,-7.891529560E0,3.462121487E0,1.336005330E0
6.239038395E0,1.010383964E0,6.349617004E0,4.400677204E0
6.291031821E0,-6.440598965E-1,2.585816681E-1,6.275394440E0
6.343025114E0,3.454938650E0,-4.326454639E0,4.192375183E0
6.395018572E0,-4.438985348E0,-1.015411949E1,-7.891529560E0
6.447012790E0,-1.126745701E1,-1.048692322E1,-1.756439972E1
6.499006149E0,2.083019018E-1,-3.225088120E0,-1.738243461E0
6.550999642E0,-2.249900055E1,-4.137306690E0,1.026186180E1
6.602992868E0,-1.000806928E0,-1.046776962E1,8.478127480E0
6.654986326E0,-1.466014481E1,-2.743120575E1,1.610868073E1
6.706983213E0,-2.156044388E1,-6.088640690E0,1.198573971E1
6.758981400E0,-1.763143921E1,-1.491633224E1,1.740637779E1
6.810976193E0,-1.546940994E1,-5.413455486E0,1.405199909E1
6.862969486E0,-1.787804985E1,-8.782199860E0,6.727912426E0
6.914962712E0,-1.926433563E1,-8.480521202E0,-2.760598898E0
6.966956205E0,-8.162082672E0,-8.140534163E-2,-6.114977837E0
7.018949464E0,-1.059706020E1,6.641718388E0,7.288172722E0
7.070943123E0,1.127224541E1,2.782147408E0,-1.559870052E1
7.122936515E0,1.413819313E1,8.858817071E-2,-5.566689014E0
7.174930333E0,7.664073467E0,2.439765930E0,-4.867560863E0
7.226923925E0,-2.224281311E0,2.774964571E0,-9.364008904E0
7.278917351E0,-5.401484013E0,4.070267081E-1,2.487172699E1
7.330910477E0,-2.056682110E0,2.475680113E0,-7.925049782E0
7.382903836E0,-5.082087708E1,-3.212158966E1,7.261835575E0
7.434897196E0,-1.866576576E1,-9.833286285E0,6.079063892E0
7.486890722E0,-1.129618835E1,-5.265010357E0,-7.901106775E-2
7.538884079E0,-9.335277557E0,-4.819674969E0,7.427040577E0
7.590878164E0,-7.503657341E0,-8.616994858E0,5.051919937E0
7.642871557E0,-1.028819847E1,-8.842057228E0,5.593026161E0
7.694864816E0,-1.205517387E1,-1.333132172E1,2.650462151E0
7.746858142E0,-6.366376877E0,-1.007989645E0,1.381496549E0
7.798853732E0,-8.643332124E-1,9.711178780E0,-7.393520832E0
7.850848825E0,2.480468750E0,-2.992843390E-1,-6.490879059E0
7.902842284E0,4.077449799E0,3.368744612E0,-1.057790565E1
7.954835577E0,2.329629421E0,5.612180233E0,-9.296969414E0
8.006829302E0,1.036002731E1,1.011581135E1,1.058269501E0
8.058822228E0,-1.699216843E1,-3.790137053E0,3.283269119E1
8.110815620E0,-1.385327435E1,-1.775354767E1,3.955342054E0
8.162809078E0,-2.104806900E1,-1.578305912E1,8.305739403E0
8.214803230E0,-1.316372299E1,-1.066170597E1,3.792531252E0
8.266796522E0,-8.803748131E0,-5.123748302E0,4.764606953E0
8.318789848E0,-8.731920242E0,-2.243435383E0,2.327235222E0
8.370783175E0,-9.766246796E0,-2.241041183E0,4.326454639E0
8.422776501E0,-8.935433388E0,1.647261024E0,1.891477108E0
8.474769860E0,-1.361384678E1,-4.328848839E0,1.845985889E0
8.526763285E0,-5.540351868E0,2.300898075E0,3.876330853E0
8.578756943E0,1.120520592E0,3.490852594E0,2.719896078E0
8.630751064E0,4.668835640E0,2.169213057E0,3.902667999E0
8.682744223E0,3.131711483E0,-3.591412306E-1,6.656084061E-1
8.734737583E0,-1.383890867E0,8.523618579E-1,-3.699154615E0
8.786730909E0,4.867560863E0,-2.394274712E0,-2.269293594E1
8.838726930E0,2.138087511E0,-1.606558442E0,1.200010490E1
8.890725617E0,-1.503604603E1,-3.430995941E1,1.426508904E1
8.942720876E0,-3.193483734E1,-1.426987743E1,1.525153041E0
8.994714235E0,-1.607037163E1,-1.148054790E1,7.838855743E0
9.046707627E0,-8.401510239E0,-5.241067410E0,8.142929077E0
9.098700953E0,-5.935407162E0,-7.063110471E-1,7.297749519E0
9.150694244E0,-9.155706406E0,-8.243488312E0,8.727131844E0
9.202687670E0,-1.585009956E1,-1.030735302E1,4.201952457E0
9.254680929E0,-1.450212288E1,-1.094901848E1,-2.279349566E0
9.306674785E0,-4.587430477E0,1.223474383E0,5.660065651E0
9.358668772E0,4.494053841E0,7.446194649E0,-1.007032013E1
9.410661964E0,-1.271359921E0,6.550735950E0,-1.599375606E0
9.462655257E0,1.005595398E1,-2.370332032E-1,-1.744708061E1
9.514648516E0,9.756669998E0,7.819701672E0,-7.750267506E0
9.566641974E0,-9.699207306E0,-3.083826065E0,2.461314583E1
9.618635266E0,-1.633613777E1,-1.657077599E1,1.383890820E1
9.668653678E0,-2.508481789E1,-1.463620186E1,1.296260357E1
9.720647699E0,-1.524195385E1,-7.407886028E0,5.822876453E0
9.772641387E0,-9.658504486E0,-2.660039425E0,3.866753817E0
9.824634713E0,-6.124555111E0,-1.723877907E0,6.043149471E0
9.876628039E0,-8.154899597E0,-4.491659641E0,9.079090118E0
9.928622762E0,-1.336484241E1,-1.025467873E1,4.948966026E0
9.980618753E0,-1.316611671E1,-4.549122334E0,8.638543129E0
1.003261201E1,-6.244268894E0,-1.652049661E0,9.522030830E0
1.008460540E1,-5.944984436E0,-2.085413456E0,4.692778587E0
1.013659873E1,3.062277555E0,5.865973473E0,-1.345582485E0
1.018859196E1,5.411061049E-1,-8.643332124E-1,-1.426030064E1
1.024058542E1,5.332049847E0,1.177983165E0,-6.280182838E0
1.029257874E1,8.844450951E0,3.414235830E0,-1.977671051E1
1.034457263E1,-7.632947922E0,-4.534756660E0,3.669465637E1
1.039656635E1,-2.285335350E1,-2.432343864E1,1.341033363E1
1.044855968E1,-2.583422470E1,-1.387242794E1,7.927443981E0
1.050055307E1,-1.142069054E1,-5.229096413E0,6.404685020E0
1.055254640E1,-9.445414543E0,1.549095750E0,7.048745155E0
1.060453972E1,-6.818894863E0,-1.532335877E-1,6.993676662E0
1.065653308E1,-8.372778893E0,-8.607418060E0,7.996877670E0
1.070852644E1,-9.852440834E0,-2.930592299E0,4.446168423E0
1.076052043E1,-1.070240879E1,4.410254002E0,1.491633177E0
1.081251408E1,-1.151167297E1,-4.594613552E0,-1.209108829E0
1.086450734E1,-2.382303476E0,2.832427025E0,-8.595446348E-1
1.091650070E1,2.818061352E0,5.913859010E-1,-9.830892563E0
1.096849566E1,8.226728439E0,-5.138113976E0,-1.622599983E1
1.102049438E1,4.817280769E0,1.448536277E0,-5.391906738E0
1.107249131E1,-4.288146019E0,-1.096577883E0,4.640104771E0
1.112448513E1,-1.979825783E1,-5.418243885E0,2.843440819E1
1.117647842E1,-2.604013252E1,-3.127641106E1,1.426269531E1
1.122847175E1,-2.153171349E1,-1.114056110E1,4.707144260E0
1.128046508E1,-7.201978683E0,-9.043175697E0,8.351230621E0
1.133245844E1,-3.617749214E0,-2.777358890E-1,5.037554264E0
1.138445222E1,-5.930618763E0,-7.654496670E0,6.533976078E0
1.143644615E1,-1.007989693E1,-1.542870712E1,7.190007210E0
1.148843944E1,-1.232572651E1,-1.992036581E0,8.643332124E-1
1.154043273E1,-1.323315716E1,-1.458113313E0,-4.812492430E-1
1.159242609E1,-2.365543604E0,2.030344963E0,2.992843390E-1
1.164441948E1,5.197970390E0,9.184437752E0,-5.770202279E-1
1.169641274E1,1.362342358E0,-2.001613855E0,6.656084061E-1
1.174840610E1,-1.623318315E0,9.878777504E0,2.461314440E0
1.180039979E1,6.586649895E0,-2.188367128E0,-1.739440727E1
1.185239381E1,6.263422966E0,1.234966946E1,-4.642498970E0
1.190438720E1,-1.005595446E0,-4.525179386E0,2.588211060E1
1.195638046E1,-2.537931252E1,-4.083675003E1,1.532096481E1
1.200837379E1,-1.364257812E1,-1.815339088E1,8.042368889E0
1.206036878E1,-7.395915031E0,-3.632114887E0,3.428601503E0
1.211236746E1,-5.049525738E0,1.570644259E0,5.602602959E0
1.216436389E1,-6.969734192E0,-7.680833817E0,1.104000092E1
1.221635718E1,-1.423156929E1,-1.163617516E1,9.885960579E0
1.226835041E1,-1.919011307E1,-6.553130150E0,3.167625666E0
1.232034387E1,-9.411893845E0,1.819648892E-1,-2.044710636E0
1.237233729E1,-1.869928598E0,7.561120033E0,-4.544333458E0
1.242433049E1,6.146103382E0,2.865947008E0,-1.553884387E0
1.247632385E1,-3.244242430E0,-7.391126156E0,-1.877111435E0
1.252831767E1,4.628133297E0,1.149251938E0,-6.596227169E0
1.258031149E1,7.261835575E0,4.084632874E0,-7.302538395E0
1.263230475E1,-1.103760719E0,1.221080124E-1,5.904281616E0
1.268429817E1,-2.889889717E0,2.394274808E-2,1.015411949E1
1.273629153E1,-3.866753817E0,-1.372637749E1,9.845257759E0
1.278828486E1,-2.051893425E1,-3.819826126E1,1.164575291E1
1.284027822E1,-1.168406105E1,-9.404711723E0,3.830839634E0
1.289227168E1,-1.055875206E1,-4.637710094E0,8.315316200E0
1.294426576E1,-1.134407425E1,-1.060663700E1,5.324867249E0
1.299625925E1,-1.557475758E1,-7.834067345E0,5.664854050E0
1.304825255E1,-1.631937790E1,-6.038361073E0,7.034379482E0
1.310024591E1,-5.473312378E0,-7.230709791E-1,-1.309668303E0
1.315224000E1,-1.963305354E0,-5.549929142E0,-1.110943556E0
1.320423622E1,-9.912297726E-1,-2.288926601E0,5.288952827E0
1.325622991E1,1.714300752E0,5.370358467E0,-2.154847383E-1
1.330822327E1,2.291321039E0,1.537124395E0,-1.491633177E0
1.336021683E1,2.588211060E0,8.660092354E0,-3.536343813E0
1.341220992E1,6.644112587E0,9.495694160E0,-3.905062199E0
1.346420322E1,2.755810261E0,-1.585009933E0,-1.515576005E0
1.351619664E1,-4.019987583E0,-7.798152924E0,2.925803900E0
1.356819060E1,-1.383890867E0,-1.546940994E1,1.654443860E0
1.362018415E1,-6.732700825E0,-2.916226768E1,1.271838760E1
1.367217754E1,-9.122186661E0,-1.579024220E1,9.589070320E0
1.372417087E1,-1.105436707E1,-2.015021706E1,7.079870701E0
1.377616420E1,-1.640557098E1,-1.710470009E1,1.047495270E1
1.382815762E1,-1.053480911E1,-6.258634567E0,8.808537483E0
1.388015088E1,-9.337671280E0,3.591412306E-1,-9.050358534E-1
1.393214424E1,-5.478100777E0,-5.978504181E0,-3.572257996E0
1.398413856E1,4.743058205E0,-1.438959122E0,-2.360754967E0
1.403613212E1,3.335224867E0,-1.266571403E0,2.236252785E0
1.408812531E1,-1.613741279E0,8.415876389E0,2.360754967E0
1.414011860E1,-9.672870636E0,9.981731415E0,6.560312748E0
1.419211266E1,5.593026161E0,7.537177086E0,-4.228289127E0
1.424411142E1,7.834067345E0,3.854782343E0,-8.379961967E0
1.429610824E1,-3.498035431E0,-2.291321039E0,1.134886265E1
1.434810190E1,-7.716747761E0,-2.414865494E1,1.604164124E0
1.440009519E1,-5.796539307E0,-2.849665833E1,7.723930359E0
1.445208862E1,-3.222693920E0,-1.588840771E1,7.338452339E0
1.450408194E1,-8.547560692E0,-1.394425678E1,7.027196407E0
1.455607524E1,-1.383172512E1,-1.164575291E1,1.017566776E1
1.460806856E1,-9.811738014E0,-8.858816624E-1,3.684788942E0
1.466006209E1,-6.148497581E0,6.407079220E0,4.790944099E0
1.471205620E1,-1.108549237E0,2.839609861E0,-5.746259689E-1
1.476404970E1,-3.050306082E0,-4.812492371E0,2.363149166E0
1.481604299E1,-5.628940105E0,-2.674404860E0,2.236252785E0
1.486803622E1,-4.060689926E0,4.975303173E0,4.079844475E0
1.492002971E1,3.359167576E0,7.893924236E0,1.647261024E0
1.497202293E1,-4.019987583E0,1.254600048E0,-1.692752242E0
1.502401649E1,1.362102985E1,-1.673598051E0,-1.381257153E1
1.507600998E1,1.321639657E0,-3.615355015E0,-1.415016413E0
1.512800400E1,-6.960156918E0,-1.217728138E1,2.545114136E1
1.517999740E1,-1.339596748E1,-2.734740639E1,1.374074268E1
1.523199076E1,-1.237600613E1,-1.160265541E1,1.146618176E1
1.528398445E1,-2.018852425E1,-1.353483582E1,6.646506786E0
1.533598087E1,-1.590037918E1,-3.320859194E0,7.211555958E0
1.538797466E1,-1.378862858E1,3.272973776E0,3.328042030E0
1.543996799E1,-7.331269264E0,4.273780346E0,2.660039425E0
1.549196135E1,-3.627326250E0,1.982459545E0,1.699935079E0
1.554395454E1,-4.146883965E0,-4.960937500E0,3.706337452E0
1.559594800E1,-1.633853149E1,-1.865140080E0,-1.455719113E0
1.564794129E1,-1.030495834E1,2.241041183E0,1.689160919E1
1.569993495E1,-1.237840056E0,8.202785492E0,-8.435029984E0
1.575192897E1,4.913052082E0,7.843644142E0,-1.118365765E1
1.580392250E1,4.532361984E0,3.495641351E-1,2.873129845E-1
1.585591569E1,7.709564686E0,-2.554691315E0,-1.934095192E1
1.590790925E1,8.956981659E0,1.005595446E0,7.625765324E0
1.595990228E1,-5.698373914E-1,-7.826884270E0,2.186691093E1
1.601189577E1,-2.890368462E1,-5.198928452E1,2.235055542E1
1.606388896E1,-1.888125038E1,-1.379102325E1,3.407052994E0
1.611588275E1,-1.749736023E1,3.976890564E0,6.838048935E0
1.616787670E1,-1.355638409E1,7.877163887E-1,8.030397415E0
1.621987003E1,-1.305119228E1,5.868367672E0,1.221080124E-1
1.627186346E1,-8.372778893E0,-2.676799297E0,3.414235830E0
1.632385695E1,-7.352818012E0,6.273000240E-1,9.122186899E-1
1.637585517E1,-1.029777622E1,-3.545921087E0,2.260434914E1
1.642785273E1,-1.071916866E1,4.936994553E0,-1.593629265E1
1.647984762E1,6.919454336E-1,9.854835510E0,-6.246663094E0
1.653184108E1,1.170800328E0,3.258608103E0,-4.881926537E0
1.658383440E1,2.439765930E0,2.001613855E0,-9.364008904E0
1.663582776E1,-3.404658794E0,-4.620950520E-1,-7.221132755E0
1.668782106E1,8.047157288E0,8.595446348E-1,-1.004877090E1
1.673981438E1,8.212362528E-1,-2.808484316E0,2.578634024E0
1.679180844E1,-1.167687798E1,-9.510059357E0,1.730581856E1
1.684380223E1,-4.114561081E1,-2.879594231E1,3.533949614E0
1.689579535E1,-2.420133018E1,-1.702329397E0,3.768588543E0
1.694778871E1,-2.013106346E1,-4.326454639E0,4.513207912E0
1.699779378E1,-1.209587669E1,3.270579338E0,8.595446348E-1
1.704978707E1,-7.012830734E0,4.817280769E0,3.581835032E0
1.710178043E1,-7.661679387E-2,2.154847383E0,2.643279314E0
1.715377389E1,1.549095750E0,1.541913033E0,1.415734673E1
1.720576797E1,-7.448588848E0,-6.129343510E-1,3.074248791E0
1.725776143E1,-4.860377884E1,5.717528343E0,5.243461728E-1
1.730975476E1,5.367964268E0,1.405439258E0,-2.121088028E1
1.736174808E1,5.188393593E0,3.340013266E0,-3.493247032E0
1.741374158E1,-1.225868702E1,-6.510033131E0,-8.097437859E0
1.746573943E1,3.929004908E0,2.947352171E0,-2.581028223E0
1.751773725E1,2.504411459E0,-1.276148438E0,7.230710030E0
1.756973144E1,-8.753468513E0,-2.662912369E1,1.889561653E1
1.762172480E1,-1.834493446E1,-2.236252594E1,1.780143356E1
1.767371820E1,-1.480858994E1,-6.095823765E0,1.186363125E1
1.772571145E1,-1.513660526E1,2.276955366E0,5.303318501E0
1.777770481E1,-8.870788574E0,6.081458092E0,2.621730804E0
1.782969817E1,-4.319271564E0,4.800520897E0,8.164477348E-1
1.788169183E1,-2.025556564E0,3.909850836E0,3.469304085E0
1.793368585E1,-8.789382935E0,3.696760416E0,6.656084061E0
1.798567911E1,-1.563222027E1,-1.200968266E1,-4.532361984E0
1.803767253E1,-1.103042412E1,-4.539545059E0,-3.148471355E0
1.808966606E1,-5.487678051E0,1.652528381E1,-7.178035736E0
1.814165905E1,7.999272346E0,3.450150013E0,-5.794145107E0
1.819365248E1,1.065212822E1,6.756643295E0,-8.961771011E0
1.824564584E1,-1.436564922E0,1.800494671E0,1.149251938E1
1.829763946E1,-4.254626274E0,-4.270907593E1,-4.252232075E0
1.834963351E1,-8.466156006E0,-3.348154068E1,2.581028223E0
1.840162687E1,-4.968120098E0,-2.691164970E1,4.872349262E0
1.845362016E1,-1.874717116E0,-1.576390553E1,9.713572502E0
1.850561366E1,-5.894704342E0,6.656084061E-1,3.818868399E0
1.855760954E1,-4.652075768E0,8.042368889E0,7.170853138E0
1.860960424E1,-1.596981287E0,5.834847927E0,6.924242973E0
1.866159750E1,-5.882733345E0,-9.553156495E-1,1.245022863E-1
1.871359079E1,-2.887495518E0,-3.208328247E0,3.272973776E0
1.876558418E1,-5.482889175E0,6.493273258E0,1.469366455E1
1.881757748E1,1.238558388E1,6.464541703E-2,5.236279011E0
1.886957087E1,1.352046967E1,5.566689014E0,-1.361624050E1
1.892156479E1,1.630501151E0,-8.068706512E0,-6.833260536E0
1.897355854E1,-3.572257996E0,-3.393166351E1,1.737525177E1
1.902555184E1,-4.920234680E0,-3.059883118E1,2.116060066E1
1.907754520E1,-9.478934288E0,-2.031542206E1,4.247443676E0
1.912953849E1,-1.096338463E1,-9.802161217E0,5.039948463E0
1.918153191E1,-8.842057228E0,-5.281770229E0,5.387118340E0
1.923352517E1,-4.927417755E0,2.956929445E0,4.350397110E0
1.928551863E1,-8.786988258E-1,6.668055534E0,7.527599812E0
1.933751232E1,7.855615616E0,3.931399345E0,5.111776829E0
1.938950621E1,-2.245829821E0,-4.850800991E0,1.187320900E1
1.944149964E1,-9.821314812E0,-1.328822494E0,1.915419847E-2
1.949349286E1,-5.997658253E0,6.957762718E0,9.792584181E-1
1.954548636E1,3.454938650E0,1.163856983E1,4.510813713E0
1.959748321E1,-2.236252785E0,3.471698523E0,8.188420296E0
1.964948150E1,4.189980984E0,-2.463708878E0,-7.482108593E0
1.970147622E1,4.446168423E0,-1.221080124E-1,-8.583475113E0
1.975346958E1,-4.046324253E0,-1.330259037E1,6.996070862E0
1.980546288E1,-9.797372818E0,-5.633010483E1,6.761432171E0
1.985745624E1,-3.067065954E0,-2.014303398E1,1.238079548E1
1.990944953E1,-7.735901833E0,-1.557236290E1,8.751074791E0
1.996144285E1,-5.791750908E0,-3.201145411E0,4.848406315E0
2.001343631E1,-5.351204395E0,1.009426212E1,1.987248063E0
2.006543023E1,-3.787742853E0,1.594586968E0,7.527599812E0
2.011742389E1,-7.127756119E0,2.154847383E-1,9.337671995E-1
2.016941721E1,-9.900326729E0,-6.445387840E0,4.022381783E0
2.022141050E1,-7.606611252E0,9.385557175E-1,5.760625362E0
2.027340396E1,5.913859010E-1,6.842837334E0,4.424619675E0
2.032539722E1,1.302485466E0,2.312869549E0,6.225114465E-1
2.037739058E1,7.065505028E0,-2.729473352E0,-1.305119228E1
2.042938391E1,1.019961071E1,6.809317589E0,-7.905895233E0
2.048137809E1,1.877111435E0,-7.810124397E0,1.238079548E1
2.053337172E1,-2.973689318E0,-6.610113525E1,2.080385399E1
2.058536498E1,-5.212336063E0,-3.059404373E1,8.851634026E0
2.063735827E1,-8.166871071E0,-9.543579102E0,7.728719234E0
2.068935382E1,-8.423058510E0,-2.557085514E0,4.731087208E0
2.074134892E1,-4.304905891E0,3.316070557E0,4.031958580E0
2.079334231E1,-2.035133600E0,-6.799740195E-1,6.040755272E0
2.084533594E1,-2.176395893E0,-4.709538460E0,6.754249096E0
2.089732890E1,-2.818300819E1,-2.490524673E1,-2.303771210E1
2.094932236E1,-1.388679445E-1,7.925049663E-1,-1.222516727E1
2.100131562E1,7.635342598E0,1.179898643E1,-2.217337990E1
2.105330894E1,3.179596901E0,2.185972929E0,-8.130957603E0
2.110530309E1,-1.896265602E1,-1.343427563E1,2.447427750E1
2.115729655E1,3.533949614E0,-2.246548080E1,7.077476501E0
2.120929014E1,3.023969173E0,-9.277814865E0,1.617093277E1
2.126128344E1,-3.344801903E0,-1.481577206E1,9.660899162E0
2.131327670E1,-1.251247978E1,-8.751074791E0,1.146857643E1
2.136526999E1,-1.640317726E1,-3.842811108E0,8.949799538E0
2.141726328E1,-1.105436707E1,2.221887112E0,2.772570133E0
2.146925674E1,-3.059883118E0,2.719896078E0,3.476486921E0
2.152125089E1,-6.105400920E-1,5.643305779E0,5.995264053E0
2.157324435E1,-9.668081284E0,3.775771379E0,3.124528646E0
2.162523771E1,-1.186363125E1,-1.218685865E0,-7.182824612E-1
2.167723107E1,-6.272999763E0,-7.302538157E-1,2.530748367E0
2.172922706E1,-1.975276709E0,-3.883513689E0,-4.266597748E0
2.178122548E1,-2.482862949E0,-8.830085754E0,-4.273780346E0
2.183322184E1,3.253819466E0,-6.656084061E-1,-6.263422966E0
2.188521533E1,-8.260248303E-1,-8.686429024E0,7.527599812E0
2.193720886E1,2.126116037E0,-2.060991669E1,1.272557068E1
2.198920215E1,-4.944177628E0,-2.123242950E1,9.050358772E0
2.204119538E1,-1.000806904E1,-1.923320961E1,1.400890160E1
2.209318874E1,-1.481577206E1,-1.404721069E1,1.279979324E1
2.214518262E1,-1.257712555E1,-6.040755272E0,1.071677399E1
2.219717655E1,-1.047734642E1,1.580221415E0,-4.309694469E-2
2.224916971E1,-6.943396926E-1,1.134886265E0,4.951360226E0
2.230116300E1,-6.464541703E-2,2.056682110E0,1.194264317E1
2.235315626E1,-5.217124939E0,-2.648067951E0,6.847625732E0
2.240514988E1,-7.929838181E0,-5.770202279E-1,-3.926610708E0
2.245714301E1,-3.203539610E0,2.090201855E0,5.162056446E0
2.250913630E1,4.678412914E0,5.774991035E0,-1.481337833E1
2.256113049E1,9.792584419E0,-5.171633363E-1,-1.336005306E1
2.261312431E1,2.128510237E0,-1.249811411E0,3.011997700E0
2.266511734E1,-4.692778587E-1,-1.763622856E1,1.007750225E1
2.271711080E1,-5.798933506E0,-2.487891006E1,2.029387283E1
2.276910406E1,-7.187613010E0,-9.991309166E0,6.876357079E0
2.282109998E1,-1.317329979E1,-8.308133125E0,8.830085754E0
2.287309863E1,-1.257233715E1,-2.111750364E0,8.274613380E0
2.292509399E1,-7.668862343E0,1.556278586E0,2.396669149E0
2.297708735E1,-3.399870157E0,4.199557781E0,5.672037125E0
2.302908084E1,-2.794118643E0,3.129317284E0,5.741470814E0
2.308107403E1,-5.059102535E0,-8.475732803E-1,7.242681503E0
2.313306752E1,-9.577098846E0,1.312062621E0,2.997632027E0
2.318506078E1,-1.271599388E1,2.916226625E0,2.080624819E0
2.323705411E1,-3.981678963E0,5.315289974E0,3.701548815E0
2.328904826E1,4.309694767E0,-9.768640995E-1,-7.522811413E0
2.334104179E1,7.400703430E0,-1.946545362E0,-1.175828362E1
2.339303508E1,5.176422119E0,-2.011190802E-1,1.134886265E0
2.344502847E1,-3.043123245E0,-1.048692322E1,2.086849976E1
2.349702186E1,-8.681640625E0,-3.840656281E1,2.252294350E1
2.354901516E1,-1.074550533E1,-1.910631371E1,1.413101006E1
2.360100842E1,-1.121957207E1,-1.165054131E1,1.053720379E1
2.365300178E1,-1.125069714E1,-3.577046633E0,9.792584419E0
2.370499603E1,-9.052753448E0,3.550709486E0,2.351177931E0
2.375698939E1,-9.122186899E-1,2.834821463E0,4.285751820E0
2.380898278E1,-2.226675600E-1,8.595446348E-1,8.241093636E0
2.386097611E1,-5.133325100E0,-7.374366522E-1,7.096630573E0
2.391297090E1,-2.213746452E1,-2.071047783E0,4.180403709E0
2.396496689E1,-9.885960579E0,5.863578796E0,5.413455486E0
2.401696011E1,1.135365105E1,7.185218811E0,-2.071765900E1
2.406895347E1,3.483669758E0,7.158881426E-1,-9.004867554E0
2.412094686E1,3.818868399E0,-5.427821159E0,-5.128536701E0
2.417294016E1,-4.185192585E0,-8.478127480E0,1.932898140E1
2.422492408E1,-2.032739401E0,-2.402415276E1,1.365215492E1
2.427691748E1,-1.111661816E1,-8.475732803E0,7.726325035E0
2.432891160E1,-1.924518013E1,-4.187586784E0,8.066311836E0
2.438090512E1,-2.376557159E1,-1.666415215E0,3.917033672E0
2.443289845E1,-1.256515408E1,9.960182905E-1,2.686376333E0
2.448489180E1,-6.921848297E0,4.285751820E0,-2.365543604E0
2.453688520E1,-3.950553536E-1,3.165231228E0,-1.539518714E0
2.458887842E1,-1.340793967E-1,1.465296149E0,5.681613922E0
2.464087188E1,-9.955394745E0,-8.322499275E0,8.310527802E0
2.469286554E1,-3.621580124E1,-2.403133583E1,1.531378174E1
2.474485946E1,6.201171875E-1,3.878725171E-1,-1.265613651E1
2.479685285E1,9.378374100E0,9.244295120E0,-1.573996258E1
2.484884608E1,9.481328130E-1,1.934574008E0,-1.019961119E0
2.490083947E1,-3.744645834E0,-1.053480911E1,2.247505760E1
2.495283446E1,-1.745426297E0,-3.305296326E1,1.041988373E1
2.500483328E1,-3.047911882E0,-1.240234375E1,6.237085819E0
2.505682944E1,-6.038361073E0,-6.399896622E0,1.305358601E1
2.510882287E1,-1.413101006E1,-1.163617516E1,1.089873886E1
2.516081619E1,-1.623318291E1,-2.111750364E0,6.380742550E0
2.521280959E1,-9.737515450E0,1.395862222E0,3.225088120E0
2.526480284E1,-3.373533249E0,7.304932594E0,3.258608103E0
2.531679614E1,-2.789330244E0,5.892310143E0,2.394274808E-2
2.536878950E1,-8.880365372E0,-9.361614585E-1,-1.393467903E0
2.542078315E1,-6.866780281E0,-4.094209969E-1,1.805283189E0
2.547277741E1,-3.035940409E0,9.577099234E-2,3.495641232E0
2.552477047E1,-9.584281921E0,1.197137386E-1,1.336005330E0
2.557676402E1,9.974549294E0,1.750214934E0,-1.160026169E1
2.562875742E1,2.916226625E0,-5.363175392E0,-7.285778046E0
2.568075054E1,-5.739076614E0,-3.291409683E1,2.810878515E0
2.573274380E1,-2.509200096E0,-2.004965782E1,1.103281784E1
2.578473726E1,-7.846038342E0,-1.968812180E1,1.216530991E1
2.583673121E1,-1.607755470E1,-1.293626690E1,7.745479107E0
2.588872490E1,-1.755721664E1,-1.110704041E1,1.298894119E1
2.594071816E1,-1.513181686E1,-6.328068256E0,3.191568375E0
2.599271155E1,-8.023215294E0,3.677606106E0,4.867560863E0
2.604470585E1,-1.740637779E0,1.628106833E0,6.375953674E0
2.609670193E1,-4.405465722E-1,-1.405439258E0,3.636903524E0
2.614869553E1,-9.220352173E0,-5.310501575E0,1.328822494E0
2.620068892E1,-7.089447498E0,2.238646984E0,-4.474899769E0
2.625268225E1,-1.929785490E0,4.345608711E0,-9.577099085E-1
2.630467561E1,9.450202942E0,6.387925148E0,-1.906082153E1
2.635666890E1,-3.086220264E0,-2.698347807E0,-3.969707727E0
2.640866219E1,-8.834874153E0,-8.693612099E0,3.603383541E0
2.646065624E1,-1.007510853E1,-3.046235847E1,8.502069473E0
2.651264990E1,-1.313738632E1,-1.474873257E1,1.047255802E1
2.656464326E1,-1.258191395E1,-1.164575291E1,1.009186840E1
2.661663655E1,-1.313499165E1,-1.549335194E1,1.410706711E1
2.666862994E1,-1.672879791E1,-5.786962032E0,6.751854897E0
2.672062330E1,-1.360905838E1,-4.314483166E0,3.893090725E0
2.677261656E1,-4.934600353E0,3.234665155E0,5.581054688E0
2.682460996E1,-1.230657220E0,2.846792698E0,5.293741703E0
2.687660391E1,-8.260248184E0,-1.035284424E1,-1.781101036E1
2.692859753E1,-5.976109982E0,-4.903474808E0,-1.513899994E1
2.698059103E1,1.664021015E0,-1.903448462E0,-8.367990494E0
2.703258429E1,9.332882881E0,1.836648178E1,-7.190007210E0
2.708457851E1,-2.425400496E0,2.432583094E0,1.664021015E0
2.713657723E1,-8.430241585E0,1.173194647E-1,5.171633720E0
2.718857429E1,-1.053241444E1,-1.121238899E1,-9.799766541E0
2.724056865E1,-1.951094627E1,-2.791963768E1,1.155716419E1
2.729256194E1,-1.134646797E1,-8.796566010E0,1.058269501E1
2.734455530E1,-1.118844604E1,-6.047938347E0,6.438204765E0
2.739654863E1,-1.052283764E1,-5.504437923E0,7.826884270E0
2.744854195E1,-1.569686604E1,-9.895537376E0,4.913052082E0
2.750053538E1,-1.224911022E1,-3.531555414E0,9.335277557E0
2.755252960E1,-1.030016994E1,6.237085819E0,5.777385235E0
2.760452289E1,-9.273026466E0,3.038334846E0,1.848380208E0
2.765651635E1,-8.475732803E0,6.967339516E-1,8.071100235E0
2.770850961E1,-5.885127544E0,-1.429382086E0,-9.909903526E0
2.776050294E1,-6.225114465E-1,-2.863552570E0,-6.208354473E0
2.781249633E1,5.329655647E0,-2.585816860E0,-1.325949383E1
2.786448959E1,5.506832123E0,5.157268047E0,-1.363060665E1
2.791648344E1,1.699935049E-1,3.792531252E0,-4.333637238E0
2.796847740E1,-4.132518291E0,-5.664854050E0,1.018524456E1
2.802047062E1,-1.366412640E1,-1.863703537E1,2.820455790E0
2.807246398E1,-2.415105057E1,-2.663630676E1,1.309428883E1
2.812445738E1,-1.233769798E1,-1.237600613E1,1.399932480E1
2.817645146E1,-1.177983189E1,-1.658035278E1,8.411087036E0
2.822845028E1,-1.404002762E1,-1.606319046E1,1.238318920E1
2.828044697E1,-1.652767944E1,-1.034326744E1,4.520390987E0
2.833244060E1,-6.280182838E0,-6.450176239E0,2.698347807E0
2.838443396E1,1.122914910E0,-2.473285913E0,-1.652049571E-1
2.843642735E1,4.120546818E0,6.304125786E0,-3.541132450E0
2.848842065E1,-2.921015263E0,1.504083443E1,7.743084908E0
2.854041397E1,2.796513081E0,3.167625666E0,-6.921848297E0
2.859240730E1,7.266623974E0,2.717501879E0,-9.368797302E0
2.864440109E1,-3.727885962E0,9.524425507E0,2.913832426E0
2.869639494E1,-6.038361073E0,1.561067224E0,8.973741531E0
2.874838837E1,-4.271386147E0,-1.060663700E0,1.096577835E1
2.880038169E1,-1.300091267E0,-5.897099018E0,2.588211060E0
2.885237509E1,-4.053507328E0,-3.060840988E1,2.856369734E0
2.890436845E1,-9.110215187E0,-1.623557663E1,6.842837334E0
2.895636177E1,-4.709538460E0,-1.001764584E1,5.806116581E0
2.900835503E1,-9.069513321E0,-2.190043259E1,6.182017326E0
2.906034905E1,-1.078141975E1,-1.742313766E1,7.618582249E0
2.911234268E1,-7.043956280E0,-6.059909344E0,1.041270161E1
2.916433610E1,-5.458946705E0,6.205960274E0,-1.173194647E-1
2.921632940E1,-2.506805658E0,3.960130453E0,-3.351984918E-2
2.926832315E1,2.106961906E-1,5.985686779E-1,-3.778165579E0
2.932031948E1,-3.112557158E-2,-6.095823765E0,-1.000806928E0
2.937231340E1,1.776551962E0,3.735068798E0,9.981731415E0
2.942430666E1,-3.299310684E0,3.069460392E0,-1.436564885E-2
2.947630005E1,5.822876453E0,4.965725899E0,-2.861158371E0
2.952829345E1,3.347196102E0,-5.746259540E-2,3.311282158E0
2.958028691E1,1.580221355E-1,-1.321400261E1,1.324033928E1
2.963228010E1,5.075862408E-1,-3.661085510E1,1.027622795E1
2.968427395E1,-1.109506989E1,-1.951573372E1,-1.687963724E0
2.973626777E1,-1.233530426E1,-1.426030064E1,3.969707727E0
2.978826100E1,-1.136562252E1,-1.919490051E1,6.081458092E0
2.984025449E1,-9.816526413E0,-1.248135471E1,7.747873306E0
2.989224775E1,-9.160495758E0,-2.882706881E0,1.039115310E0
2.994424121E1,-3.093403101E0,1.082212210E0,-5.071074009E0
2.999623447E1,5.777385235E0,-6.727912426E-1,-2.355966330E0
3.004822776E1,2.736656189E0,3.998438835E0,4.084632874E0
3.010022172E1,-1.556278610E1,3.265790939E0,7.630553722E0
3.015221544E1,7.941809654E0,8.621783257E0,-1.226826382E1
3.020420873E1,6.955368519E0,5.121353626E0,1.182771802E0
3.025620212E1,-6.182017326E0,-6.742278099E0,1.100887585E1
3.030819575E1,-1.106873226E1,-1.297218132E1,8.779806137E0
3.036019380E1,-3.251425266E0,-2.392838287E1,1.331216812E1
3.041219132E1,-6.699181080E0,-1.077423668E1,7.271412373E0
3.046418545E1,-6.184412003E0,-7.079870701E0,5.964138508E0
3.051617881E1,-7.491685867E0,-2.619815445E1,5.830059052E0
3.056817220E1,-1.264895344E1,-1.798100471E1,5.985687256E0
3.062016540E1,-1.045579815E1,-5.176422119E0,4.999245644E0
3.067215895E1,-8.854028702E0,6.210748672E0,2.025556564E0
3.072415218E1,-3.526766777E0,2.786935806E0,-1.963305354E0
3.077614600E1,2.743839025E0,2.123721838E0,-6.967339516E-1
3.082813979E1,5.506832004E-1,-1.795706153E0,1.965699673E0
3.088013308E1,-2.047105074E0,-2.956929445E0,-4.549122229E-2
3.093212657E1,4.544333458E0,6.680026650E-1,-3.876330853E0
3.098411994E1,-5.183605194E0,6.866780281E0,2.224999619E1
3.103611306E1,-3.811685562E0,-1.891477108E-1,1.230178356E1
3.108810665E1,-2.600182533E0,-2.058358002E1,-4.946571827E0
3.114010001E1,-7.513234138E0,-2.959563065E1,1.193785381E1
3.119209330E1,-7.345634937E0,-6.213143349E0,3.567469358E0
3.124408745E1,-4.024775982E0,-8.308133125E0,1.630740547E1
3.129608078E1,-7.529994488E0,-2.403373146E1,1.039594078E1
3.134807424E1,-1.159547329E1,-1.324991703E1,8.197997093E0
3.140006783E1,-1.098253822E1,-2.418217659E0,4.886714935E0
3.145206412E1,-1.838803053E0,9.768640995E-1,1.019961119E0
3.150400078E1,-8.628966331E0,-4.058295727E0,7.917866707E0
3.155599360E1,1.091789365E0,-3.541132450E0,-4.328848839E0
3.160798699E1,2.248224020E0,-4.003227711E0,-1.769608498E1
3.165998042E1,6.076669693E0,4.108575344E0,-9.093455315E0
3.171197388E1,2.142875910E0,2.391880512E0,7.781392932E-1
3.176396721E1,-1.409509563E1,-1.118126297E1,1.749017715E1
3.181596050E1,-1.722920227E1,-2.083498001E1,-3.620143414E0
3.186795468E1,-1.925475883E1,-1.285007286E1,5.875550270E0
3.191994811E1,-5.377541065E0,-6.871568561E-1,5.298530102E0
3.197194143E1,-2.899466753E0,-3.047911882E0,9.201197624E0
3.202393469E1,-5.674431324E0,-1.651810265E1,9.888355255E0
3.207592822E1,-1.038397026E1,-1.842155075E1,9.443019867E0
3.212792151E1,-1.504801750E1,-1.129139996E1,7.388731956E0
3.217991484E1,-1.120999432E1,1.312062621E0,4.357580185E0
3.223190866E1,-9.074301720E0,4.618556023E0,-1.264177084E0
3.228390248E1,1.951334000E0,-1.532335877E0,-1.518688488E1
3.233589574E1,7.685622215E0,-4.455745220E0,-1.217009926E1
3.238788913E1,8.214756966E0,-3.373533249E0,-1.546701527E1
3.243988252E1,1.084845924E1,1.121717739E1,-9.304151535E0
3.249187988E1,-1.524434757E1,-1.695146561E1,1.661387253E1
3.254387797E1,-1.505998898E1,-2.164184952E1,1.078860188E1
3.259587350E1,-1.432973480E1,-1.409509563E1,1.027143860E1
3.264786676E1,-1.180138016E1,-5.298530102E0,8.183630943E0
3.269986015E1,-5.832453251E0,2.904255390E0,1.304879761E1
3.275185344E1,-6.608198643E0,-5.849213123E0,1.585967636E1
3.280384673E1,-1.494745731E1,-1.078620815E1,6.507638931E0
3.285584022E1,-1.467211628E1,-1.279739857E1,1.091549873E1
3.290783405E1,-1.075747681E1,-3.536343813E0,8.542772293E0
3.295982783E1,-2.423006058E0,2.298503876E0,6.385530949E0
3.301182116E1,-6.802134514E0,-8.614601135E0,-3.351984620E-1
3.306381448E1,-8.667274475E0,-7.331269264E0,-8.655303001E0
3.311580781E1,-2.609759569E0,-6.488484740E-1,-5.233884811E0
3.316780130E1,1.841197371E0,-5.027977005E-2,-6.088640690E0
3.321979443E1,2.645673752E0,3.311282158E0,-1.184447765E1
3.327178782E1,6.981705189E0,9.744698405E-1,7.170853138E0
3.332378191E1,-9.213169098E0,-2.915508461E1,1.455719113E0
3.337577546E1,-1.920208359E1,-3.600270844E1,5.494860649E0
3.342776879E1,-1.061382008E1,-5.660065651E0,8.279402733E0
3.347976212E1,-9.869200706E0,-1.082212210E0,7.795758724E0
3.353175558E1,-1.253881741E1,-1.153561592E1,8.463761330E0
3.358375270E1,-1.528505039E1,-1.409270191E1,4.309694767E0
3.363575088E1,-1.548377514E1,-1.312302017E1,8.672063828E0
3.368774558E1,-1.137998772E1,-4.357580245E-1,1.980065227E0
3.373973880E1,-5.288952827E0,6.548341751E0,-7.948992252E-1
3.379173213E1,-2.592999697E0,7.278595567E-1,-1.640078187E0
3.384372559E1,-1.156434774E0,-1.146857619E0,-3.986467600E0
3.389571891E1,2.992843390E-1,-3.538738251E0,8.037580490E0
3.394771224E1,-2.849186957E-1,3.203539610E0,9.864411950E-1
3.399970603E1,5.509226322E0,5.786962032E0,-1.125309110E0
3.405169981E1,-3.148471355E0,5.798933506E0,-6.273000240E-1
3.410369324E1,1.125309110E0,-8.406298637E0,5.557111740E0
3.415568660E1,-3.605777979E0,-1.311344337E1,4.388705730E0
3.420767986E1,1.546701550E0,-2.586535072E1,-1.189954638E0
3.425967319E1,-9.500482559E0,-2.138326836E1,7.182824612E0
3.431166654E1,-6.847625732E0,-9.759063721E0,9.454991341E0
3.436365984E1,-1.777270126E1,-2.106961823E1,6.486090660E0
3.441565336E1,-1.344624710E1,-1.306316376E1,8.576292038E0
3.446764758E1,-7.834067345E0,-3.785348415E0,3.644086361E0
3.451964084E1,-2.868341208E0,1.295302629E0,2.695953369E0
3.457163413E1,-1.939362586E-1,1.158828974E0,3.605777979E0
3.462362756E1,-8.142929077E0,-5.083045483E0,7.937020779E0
3.467562318E1,-1.580221355E-1,2.923409462E0,4.805309772E0
3.472761824E1,3.584229469E0,5.458946824E-1,-7.228315830E0
3.477961173E1,-1.245022893E0,-8.499675393E-1,-1.347976685E1
3.483160489E1,2.636096478E0,-1.031932473E0,-5.106987953E0
3.488359815E1,-1.156674194E1,-1.225629234E1,1.044143200E1
3.493559161E1,-4.125335693E0,-1.327385998E1,3.136500120E-1
3.498758490E1,-8.976136208E0,-2.480468750E1,2.032499886E1
3.503957839E1,-4.189980984E0,-8.226728439E0,1.080536175E1
3.509157261E1,-6.572284222E0,-1.496900654E1,1.214855003E1
3.514356590E1,-1.274472523E1,-1.743032074E1,1.076226521E1
3.519555926E1,-1.341751575E1,-1.149251938E1,8.746285439E0
3.524755262E1,-1.435607147E1,-8.832479477E0,1.472478986E0
3.529954588E1,-7.388731956E0,-1.515576005E0,-6.984099388E0
3.535153924E1,2.885101080E0,5.387118459E-1,-5.535563469E0
3.540353260E1,6.052726746E0,4.788549617E-2,7.850827217E0
3.545552629E1,3.974496126E-1,-2.370332003E0,1.109267521E1
3.550752031E1,3.179596901E0,4.324060440E0,-1.415016365E1
3.555951357E1,1.533772469E1,7.362394810E0,-9.409500122E0
3.561150696E1,9.574705124E0,2.892283916E0,-2.621730804E0
3.566350022E1,-3.122134447E0,-1.170800400E1,1.245262337E1
3.571549671E1,-5.597814560E0,-2.678954124E1,1.778946161E0
3.576749506E1,-1.165054131E1,-1.785650063E1,7.496474266E0
3.581949015E1,-8.693612099E0,-9.261054993E0,8.547560692E0
3.587148365E1,-1.101366425E1,-1.371919441E1,9.560338974E0
3.592347694E1,-1.724117279E1,-1.387482262E1,8.054340363E0
3.597547020E1,-1.277585030E1,-5.463735104E0,3.057488918E0
3.602746366E1,-7.510839939E0,2.509200096E0,-2.849186957E-1
3.607945688E1,-1.187560320E0,4.484476566E0,-3.359167576E0
3.613145027E1,4.391099930E0,1.604164124E0,1.625712633E0
3.618344413E1,-1.707117915E0,1.891477108E-1,8.669669151E0
3.623543798E1,-7.795758724E0,4.944177628E0,7.410280704E0
3.628743128E1,-6.433416367E0,-1.707117915E0,5.525986195E0
3.633942463E1,3.457332850E0,2.834821463E0,-7.427040577E0
3.639141803E1,5.231490612E0,-3.442967176E0,-6.251451492E0
3.644341135E1,-1.031932449E1,-1.870886421E1,5.985686928E-2
3.649540458E1,-6.672843933E0,-1.869689178E1,3.306493521E0
3.654739804E1,-4.719115734E0,-2.002092552E1,1.816296959E1
3.659939212E1,-4.635315895E0,-1.170800400E1,1.271599388E1
3.665138595E1,-1.715976715E1,-1.622599983E1,9.814132690E0
3.670337897E1,-1.983417320E1,-1.289316940E1,8.554743767E0
3.675537233E1,-1.437522602E1,-7.697593689E0,7.058321953E0
3.680736736E1,-7.467742920E0,1.675992370E0,5.248250484E0
3.685936298E1,-1.367130876E0,3.220299721E0,-3.208328187E-1
3.691135634E1,-1.225868702E0,-2.870735407E0,2.346389294E0
3.696334960E1,-6.026389599E0,5.106987953E0,6.703969836E-2
3.701534309E1,-7.410280704E0,4.376734257E0,-2.825244188E0
3.706733635E1,-7.460560322E0,6.004841328E0,-2.130904675E0
3.711932971E1,-2.942563772E0,-2.130904645E-1,-1.078620815E1
3.717132304E1,3.093403101E0,2.049499273E0,-2.173522758E1
3.722331702E1,5.032765865E0,-1.221080184E0,-1.669527817E1
3.727531088E1,-3.835628271E0,-1.307513428E1,-1.462901950E0
3.732730417E1,-2.117257118E1,-1.573517418E1,1.328104210E1
3.737929730E1,-8.188420296E0,-2.157002258E1,1.324033928E1
3.743129066E1,-9.021627426E0,-2.225478363E1,2.593717957E1
3.748328408E1,-1.285486126E1,-1.040073013E1,1.138238239E1
3.753527738E1,-2.334657288E1,3.328042030E0,-1.276148438E0
3.758727064E1,-1.621163559E1,1.786128998E0,1.630501151E0
3.763926482E1,-8.095043182E0,4.776578426E0,-9.146129489E-1
3.769125841E1,-3.205934048E0,4.733481407E0,2.561874092E-1
3.774325167E1,-1.336005330E0,5.966532707E0,-4.410254002E0
3.779524500E1,-3.878725290E0,6.950579643E0,2.480468750E0
3.784724029E1,-1.300330639E1,-5.080651283E0,1.336005330E0
3.789923898E1,-2.820455790E0,-2.858764172E0,1.816536331E1
3.795123570E1,-7.017619610E0,4.963331699E0,-9.404711723E0
3.800322936E1,-2.312869549E0,2.470891714E0,-8.980924606E0
3.805522275E1,9.349642754E0,3.471698523E0,-1.285486126E1
3.810721625E1,-4.070267081E-1,-5.377541065E0,3.270579338E0
3.815920957E1,-3.028757572E0,1.436564922E-1,6.603409767E0
3.821120283E1,-1.000806904E1,-3.158527374E1,1.412382698E1
3.826319639E1,-2.271209145E1,-3.008406258E1,1.498576641E1
3.831519037E1,-1.690118599E1,7.786181450E0,6.943397045E0
3.836718373E1,-1.869928551E1,-3.562680960E0,5.616968632E0
3.841917706E1,-1.143505669E1,2.717501879E0,9.208380699E0
3.847117048E1,-5.679219723E0,3.117345810E0,1.302485466E0
3.852316394E1,-5.727105141E0,-5.181210518E0,3.586623669E0
3.857515724E1,-1.009665680E1,-1.553884387E0,-2.774964571E0
3.862715056E1,-1.169603252E1,9.512454033E0,-6.881145954E0
3.867914418E1,-6.421444893E0,7.970541000E0,4.436591148E0
3.873113810E1,4.666441441E0,1.002722263E1,-7.819701672E0
3.878117153E1,8.327287674E0,2.616942406E0,2.533142805E0
3.883316479E1,8.322499275E0,-4.237866402E-1,-1.799776459E1
3.888515822E1,-1.316851139E0,-1.148294163E1,-6.974522591E0
3.893715314E1,5.265010357E0,1.680780888E0,6.158074856E0
3.898915196E1,-9.337671995E-1,-3.732674360E0,8.202785492E0
3.904114815E1,-2.273842812E1,-5.071073914E1,2.742641830E1
3.909314154E1,-1.728905869E1,-2.480947495E1,1.304161453E1
3.914513487E1,-9.447808266E0,-2.796513081E0,7.975329399E0
3.919712823E1,-1.015651417E1,1.170800328E0,5.061496735E0
3.924912152E1,-5.530774593E0,3.718308687E0,6.577073097E0
3.930111492E1,-3.823656797E0,1.599375606E0,1.241431522E1
3.935310814E1,-1.133689117E1,-1.956122518E0,-2.121327400E0
3.940510236E1,-1.184926605E1,-2.104567528E0,3.782954216E-1
3.945709588E1,-1.143505669E1,2.004008055E0,-3.840416908E0
3.950908914E1,1.264177084E0,6.182017326E0,-6.435810566E0
3.956108260E1,6.660872459E0,6.505244732E0,-2.310475111E0
3.961307596E1,1.606558442E0,6.703969240E-1,-4.855589390E0
3.966506919E1,2.619336605E0,-8.643332124E-1,-9.639349937E0
3.971706258E1,1.517970204E0,-5.494860649E0,-6.153286457E0
3.976905591E1,-4.067873001E0,-3.567469418E-1,4.187586784E0
3.982104993E1,-2.820455790E0,-1.359229851E1,8.619388938E-2
3.987304375E1,-2.165860939E1,-4.381283569E1,3.053897476E1
3.992503687E1,-2.633702278E0,-8.200390816E0,1.553644943E1
3.997703020E1,-8.358413696E0,9.368797302E0,9.184437752E0
4.002902449E1,-1.379341698E1,7.010436535E0,6.466936111E0
4.008102068E1,-5.116565228E0,5.746259689E0,9.284997940E0
4.013301424E1,-1.093704700E1,3.919427872E0,8.624177933E0
4.018500773E1,-1.664020920E1,4.929811954E0,-1.314456820E0
4.023700096E1,-1.861069870E1,3.663240373E-1,3.198751211E0
4.028899432E1,-1.268247414E1,-1.723877788E-1,3.395081758E0
4.034098761E1,-5.075862408E-1,7.565908432E-1,7.723930359E0
4.039298110E1,7.781392932E-1,-6.091034889E0,8.561926842E0
4.044497522E1,9.426259995E0,-6.955368519E0,-1.904885101E1
4.049696861E1,5.339232922E0,-5.786962032E0,-1.434888935E1
4.054896204E1,3.871542454E0,-4.956148624E0,4.747847080E0
4.060095523E1,-1.391073704E1,-2.400260544E1,2.057400322E1
4.065294862E1,-2.747190857E1,-2.845356178E1,2.433061981E1
4.070494205E1,-1.612065315E1,4.273780346E0,4.831646442E0
4.075693541E1,-1.423635769E1,1.695146561E0,9.981731415E0
4.080892893E1,-1.021876526E1,8.593051910E0,5.083045483E0
4.086092295E1,-8.918673515E0,5.468523502E0,7.407886028E0
4.091291621E1,-1.037199879E1,3.663240433E0,8.128562927E0
4.096490970E1,-1.293866062E1,4.788549542E-1,1.137759399E1
4.101690306E1,-1.823479652E1,1.053480953E-1,-1.029538140E-1
4.106889715E1,-1.029538155E1,9.337671846E-2,-3.830839694E-2
4.112089594E1,-1.331456184E1,2.705530524E-1,1.105197239E1
4.117289269E1,9.098244309E-1,-3.668029070E0,-8.794171333E0
4.122488632E1,6.136526108E0,-5.602602959E0,-8.559532166E0
4.127687968E1,-1.508393139E-1,-1.201686573E1,8.547561169E-1
4.132887297E1,7.494080067E-1,3.138894320E0,1.467690468E1
4.138086643E1,7.853221297E-1,9.115004539E0,4.695172787E0
4.143285966E1,-2.896354294E1,-1.103042412E1,1.982459545E0
4.148485305E1,-1.522519398E1,-3.392687321E0,1.228741837E1
4.153684671E1,-1.176307201E1,-4.388705730E0,8.324893951E0
4.158884060E1,-1.290993023E1,6.895511150E-1,6.220325947E0
4.164083409E1,-1.032650757E1,1.256994247E0,8.265036583E0
4.169282735E1,-1.135365105E1,-3.668029070E0,1.007989693E1
4.174482064E1,-1.880224037E1,-7.288172722E0,9.289786339E0
4.179681403E1,-1.845746422E1,-7.781392932E-1,5.995264053E0
4.184880736E1,-9.354432106E0,9.241901040E-1,1.245022863E-1
4.190080068E1,-4.178009510E0,-2.336812258E0,-4.474899769E0
4.195279464E1,3.524372578E0,-3.205934048E0,5.360781193E0
4.200478836E1,1.486365795E1,1.017566800E0,-1.785171318E1
4.205678169E1,1.151885605E1,2.039922237E0,-1.057790565E1
4.210877518E1,-3.998438835E0,-2.837215662E0,2.205845451E1
4.216076894E1,-2.654771996E1,-3.569624329E1,1.206714535E1
4.221276513E1,-1.566334534E1,-1.403045082E1,1.845507050E1
4.226475902E1,-7.000859737E0,1.115732074E0,8.626572609E0
4.231675245E1,-5.887521744E0,5.456552505E0,5.549929142E0
4.236874567E1,-4.721509933E0,3.098191500E0,8.468549728E0
4.242073923E1,-7.134938717E0,1.254600048E0,8.660092354E0
4.247273239E1,-1.438719749E1,-5.746259689E0,9.232323647E0
4.252472565E1,-1.254839420E1,-6.217931747E0,6.196382999E0
4.257671940E1,-3.369702530E1,-1.263458824E1,1.147336483E1
4.262871366E1,8.935433388E0,6.246663094E0,-3.691971779E0
4.268070668E1,1.150927925E1,6.100612164E0,-2.132580566E1
4.273270021E1,3.488458395E0,6.201171875E-1,-5.106987953E0
4.278469340E1,-1.162180996E1,-6.047938347E0,2.592041969E1
4.283668689E1,-6.821289062E0,-2.074399757E1,4.515602112E0
4.288868012E1,-1.270402241E1,-2.018134308E1,2.179029465E1
4.294067338E1,-1.417171288E1,-5.332049847E0,6.098217964E0
4.299266717E1,-1.158589554E1,2.269772530E0,2.626519442E0
4.304466119E1,-3.948159218E0,8.073494911E0,1.486844659E0
4.309665461E1,-7.661679387E-1,4.647287369E0,3.438178539E0
4.314864781E1,-5.789356709E0,4.482082367E0,9.557945251E0
4.320064140E1,-9.639349937E0,6.244268894E0,8.621783257E0
4.325263968E1,-1.969530487E1,-1.958516836E0,6.057515144E0
4.330463731E1,-1.587404156E1,2.561874092E-1,8.303344727E0
4.335663217E1,-1.874717116E0,1.005595446E0,3.747040033E0
4.340862556E1,7.982511997E0,-1.632895470E0,2.909043789E0
4.346061876E1,1.109028053E1,-1.168406129E0,-2.948310089E1
4.351261218E1,4.565882206E0,-1.331216812E0,-5.585843086E0
4.356460547E1,-2.418217659E0,-1.019242764E1,1.030974770E1
4.361659873E1,-1.226347542E1,-3.351984787E1,2.179508400E1
4.366859295E1,-1.336963081E1,-2.749106407E1,1.762904549E1
4.372058661E1,-9.277814865E0,-3.174808502E0,1.133449650E1
4.377257974E1,-1.374553204E1,-1.003201127E0,7.668862343E0
4.382457323E1,-7.994483471E0,8.140534163E-1,9.735121727E0
4.387656649E1,-3.423812866E0,4.790944099E0,6.936213970E0
4.392855978E1,-2.808484316E0,4.046324492E-1,7.771816254E0
4.398055321E1,-7.462954521E0,-1.668809533E0,9.251478195E0
4.403254690E1,-1.109267521E1,1.776551962E0,8.020820618E-1
4.408454078E1,-1.071437931E1,3.023969173E0,2.035133600E0
4.413653414E1,-3.828445435E0,4.443774223E0,2.008796453E0
4.418852767E1,1.654443860E0,3.510006905E0,-2.942563772E0
4.424052083E1,9.945817947E0,-5.832453251E0,-1.375032043E1
4.429251442E1,9.493299484E0,-2.679193497E0,-1.067607117E1
4.434451254E1,8.475732803E-1,-2.432583094E0,1.052523232E1
4.439651009E1,-1.286443901E1,-3.496838379E1,1.276148510E1
4.444850415E1,-2.350459671E1,-3.222454453E1,1.872562408E1
4.450049751E1,-1.216770458E1,-2.576239586E0,5.763019562E0
4.455249077E1,-1.195221996E1,-9.337671846E-2,7.726325035E0
4.460448410E1,-7.453377247E0,5.554717541E0,3.854782343E0
4.465647759E1,-4.788549423E0,3.055094719E0,2.564268351E0
4.470847085E1,-6.725517750E0,9.797372818E0,4.640104771E0
4.476046444E1,-1.091071033E1,5.207547665E0,6.268211365E0
4.481245866E1,-1.524434757E1,5.375146866E0,2.830032825E0
4.486445178E1,-1.224432182E1,7.616188049E0,3.962524891E0
4.491644521E1,-2.054287672E0,-1.350371003E0,9.505270720E-1
4.496843847E1,5.636122704E0,-3.402264595E0,-1.472478962E1
4.502043176E1,5.964138508E0,-7.810124397E0,-9.182044029E0
4.507242512E1,-3.488458395E0,-9.213169098E0,6.349617004E0
4.512441861E1,1.024749637E0,-3.162837029E0,1.401608467E1
4.517641230E1,-1.279979324E1,-1.106633854E1,2.230266953E1
4.522840639E1,-3.096515656E1,3.502824068E0,3.857176781E0
4.528039952E1,-1.854605293E1,-2.178790122E-1,6.272999763E0
4.533239294E1,-7.755055904E0,3.538738251E0,7.115784645E0
4.538438633E1,-3.550709486E0,5.329655647E0,5.205153465E0
4.543638256E1,-1.352765322E0,6.950579643E0,8.028003693E0
4.548837692E1,-6.538764477E0,8.238699913E0,1.073592854E1
4.554037028E1,-2.248463440E1,2.762993097E0,3.354378939E0
4.559236354E1,-1.828507614E1,1.939362586E-1,2.628913641E0
4.564435693E1,-1.432734013E1,-7.110996246E-1,3.402264595E0
4.569635022E1,-4.834040642E0,-1.381496549E0,4.764606953E-1
4.574834358E1,2.286532402E0,-4.561093330E0,-8.039975166E0
4.580033730E1,3.196356773E0,-7.726325035E0,6.885934353E0
4.585233119E1,9.452596664E0,-2.897072434E-1,-1.314456844E1
4.590432461E1,8.492492676E0,1.216291547E0,-1.404481602E1
4.595631784E1,6.572284222E0,-2.121327400E0,1.264416504E1
4.600831120E1,-1.446381378E1,-7.309481812E1,1.901054144E0
4.606028168E1,-1.153561592E1,-2.764669037E1,1.112619495E1
4.611227494E1,-2.365543604E0,2.997632027E0,9.751881599E0
4.616426820E1,-7.977723598E0,5.774991035E0,6.680026650E-1
4.621626219E1,-8.961771011E0,5.004034519E0,9.059935570E0
4.626825588E1,-1.352046967E1,3.687183261E-1,5.310501575E0
4.632024927E1,-1.873520088E1,-7.043956280E0,6.691998005E0
4.637224263E1,-2.348783493E1,-1.465535641E1,3.445840454E1
4.642423609E1,-4.994457245E0,3.019180536E0,-6.878751755E0
4.647623338E1,3.074967194E1,3.354378939E0,-3.406813812E1
4.652823143E1,1.077423668E1,1.066170597E1,-1.401368999E1
4.658022599E1,2.798907280E0,5.506832153E-2,-3.847599506E0
4.663221922E1,-5.561900616E0,-2.051414680E1,2.648546791E1
4.668421268E1,-3.320859194E0,-2.208957863E1,9.416683197E0
4.673620597E1,-1.547659206E1,-1.018285084E1,1.354201794E1
4.678819926E1,-1.629064560E1,-5.284164429E0,1.034566116E1
4.684019265E1,-1.586446476E1,1.604164124E0,5.463735104E0
4.689218611E1,-1.198813438E1,7.635342598E0,3.071854591E0
4.694417993E1,-1.149970150E1,1.149251938E1,2.370332003E0
4.699617369E1,-7.020013809E0,8.442213058E0,5.238673210E0
4.704816695E1,-1.382214832E1,3.265790939E0,8.006455421E0
4.710016037E1,-1.259149075E1,-2.466103077E0,6.383136749E0
4.715215366E1,-5.873156071E0,-2.150058746E0,7.434223175E0
4.720414696E1,3.998439014E-1,-1.125309169E-1,2.935380936E0
4.725614032E1,4.309694469E-2,-1.136322784E1,-5.423032284E0
4.730813391E1,4.386311531E0,-6.069486618E0,-1.477267551E1
4.736012799E1,-2.262589693E0,-8.731920242E0,-3.914639235E0
4.741212132E1,-7.039167881E-1,-6.287365437E0,8.794171333E0
4.746411458E1,4.398283005E0,-1.247417164E1,2.181184292E0
4.751610807E1,-1.789720345E1,-2.664348984E1,1.335287094E1
4.756810376E1,-6.284971237E0,-9.771035194E0,1.844309807E1
4.762009862E1,-9.275420189E0,-5.454157829E0,1.820606613E1
4.767209205E1,-1.613262367E1,-1.963305354E0,1.056354046E1
4.772408530E1,-1.610868073E1,2.207521439E0,8.940221786E0
4.777607866E1,-1.163378143E1,3.689577579E0,8.243488312E0
4.782807199E1,-1.511745071E1,2.801301479E0,4.072661400E0
4.788006532E1,-1.504322815E1,-3.378321648E0,1.077423692E-1
4.793205868E1,-1.443987179E1,-1.834014535E0,1.422199249E0
4.798405323E1,-5.837242126E0,-6.273000240E-1,7.182824425E-3
4.803604645E1,-1.711906433E0,-4.877137661E0,-1.266571403E0
4.808803971E1,-1.577827096E0,-1.018045616E1,3.057488918E0
4.814003304E1,4.992063046E0,-4.197163582E0,-5.494860649E0
4.819202636E1,3.466909885E0,-3.639297783E-1,-1.364257812E1
4.824401975E1,1.874717116E0,-6.871568561E-1,1.292908430E0
4.829601305E1,-2.553494072E1,-3.108726501E1,1.738722420E1
4.834800647E1,-1.910870743E1,-2.751261139E1,2.059794617E1
4.840000066E1,-1.283570766E1,-3.691971779E0,1.738243484E1
4.845199408E1,-1.719089317E1,4.977697372E0,6.289760113E0
4.850398741E1,-1.631458855E1,2.643279314E0,5.315289974E0
4.855598070E1,-1.186602592E1,4.309694767E0,1.235445857E0
4.860797712E1,-1.405678749E1,-7.996878028E-1,2.753416002E-1
4.865997551E1,-1.316372299E1,-2.564268351E0,-5.825270653E0
4.871197160E1,-8.394327164E0,2.578634024E0,4.496448040E0
4.876396510E1,-2.260195494E0,8.394327164E0,7.223526955E0
4.881595839E1,-1.060663700E0,4.767001152E0,2.510636520E1
4.886795178E1,-1.915419847E-2,1.130097747E0,-4.759818554E0
4.891994524E1,8.978530884E0,-3.670423269E0,-6.955368519E0
4.897193893E1,-1.573038578E0,-2.791724443E0,-6.167652130E0
4.902393215E1,9.929058075E0,2.621730804E0,-2.016697693E1
4.907592621E1,-1.869928598E0,-2.451737404E0,1.575432777E0
4.912791947E1,-2.364346313E1,-2.247266388E1,2.702417946E1
4.917991276E1,-3.390771866E1,-3.004575539E1,8.063917160E0
4.923190615E1,-2.182860374E1,2.846792698E0,5.820482254E0
4.928389941E1,-1.722920227E1,1.798100352E0,5.308107376E0
4.933589277E1,-1.031453609E1,9.215563774E0,6.711152077E0
4.938788610E1,-1.059227180E1,4.024775982E0,3.907456398E0
4.943988002E1,-7.405491829E0,-2.298503816E-1,2.822849989E0
4.949187374E1,-1.131055450E1,-6.028783798E0,8.930644989E0
4.954386706E1,-4.012804508E0,-1.656838179E0,1.144463301E0
4.959586046E1,-2.886058807E1,8.466156006E0,8.669669151E0
4.964785375E1,-9.098244309E-1,3.500429869E0,-1.207672215E1
4.969985004E1,8.152505875E0,6.225114465E-1,-1.678865433E1
4.975184866E1,-1.221080112E1,-5.700768471E0,2.415823221E0
4.980384375E1,-8.691217303E-1,5.703162670E0,3.361561775E0
4.985583721E1,2.535537004E0,1.189954638E0,8.250671387E0
4.990783047E1,-1.158110714E1,-2.259477043E1,1.382933140E1
4.995982373E1,-3.108247566E1,-2.153171349E1,9.289786339E0
5.001181719E1,-1.321400261E1,-5.200365067E0,9.483722687E0
5.006381048E1,-6.957762718E0,5.123748183E-1,6.871568680E0
5.011580377E1,-2.142875910E0,3.809291124E0,7.316903591E0
5.016779792E1,-1.199531674E0,-2.513988614E-1,9.864411950E-1
5.021979148E1,-1.268965602E0,-2.576239586E0,6.186806202E0
5.027178484E1,-7.173247337E0,3.447755575E-1,1.148054790E1
5.032377830E1,-1.529702187E1,2.226675510E0,9.660899162E0
5.037577139E1,-8.126168251E0,5.509226322E0,7.776604652E0
5.042776485E1,-2.099778891E0,5.221913338E0,-1.582615614E0
5.047975818E1,-6.533976078E0,-6.902694225E0,1.802888989E0
5.053175157E1,1.339836216E1,1.802888989E0,-1.037678719E1
5.058374575E1,3.778165579E0,2.619336605E0,-3.493247032E0
5.063573908E1,-7.087053299E0,-1.591235065E1,2.039443207E1
5.068773247E1,-1.366891479E1,-4.429169083E1,1.639838791E1
5.073972606E1,-9.838075638E0,-2.007120514E1,9.100638390E0
5.079172105E1,-7.556331158E0,-1.470084786E0,4.326454639E0
5.084371651E1,-1.067367744E1,1.154040456E0,4.118152618E0
5.089570974E1,-4.412648678E0,4.300117493E0,1.709512234E0
5.094770320E1,-3.782954216E0,3.608172178E0,5.332049847E0
5.099969652E1,-7.060716629E0,-2.923409462E0,7.245075703E0
5.105168988E1,-1.218925285E1,-2.774964571E0,4.733481407E0
5.110368314E1,-1.060184860E1,2.035133600E0,7.134938836E-1
5.115567657E1,-1.160983849E1,8.123774529E0,4.822069645E0
5.120767075E1,5.645699978E0,4.980091572E0,5.506832153E-2
5.125966418E1,1.136801720E1,5.260221958E0,-1.760749626E1
5.131165767E1,1.052523232E1,2.353572130E0,-6.636929989E0
5.136365096E1,-1.682696342E1,-1.626191521E1,2.014303398E1
5.141564419E1,-1.036002731E1,-3.017025757E1,1.534730148E1
5.146763768E1,-8.202785492E0,-2.347347069E1,1.559630585E1
5.151963087E1,-8.097437859E0,-9.739910126E0,1.051804924E1
5.157162436E1,-9.452596664E0,3.253819466E0,1.910631299E0
5.162361852E1,-5.973715782E0,3.378321648E0,2.818061352E0
5.167561188E1,-2.509200096E0,4.276175022E0,6.165257454E0
5.172760523E1,-4.620950222E0,4.094210148E0,1.208151054E1
5.177959856E1,-1.388918781E1,-2.020767927E0,8.284191132E0
5.183159382E1,-1.493309212E1,-2.027950764E0,2.875524044E0
5.188359270E1,-1.301527786E1,5.092622280E0,4.975303173E0
5.193558860E1,-4.676018715E0,6.349617004E0,6.081458092E0
5.198758195E1,1.151646137E1,1.285725594E0,-1.781579971E1
5.203957528E1,1.487802410E1,6.320885420E-1,-9.790189743E0
5.209156864E1,5.023188591E0,4.166038036E-1,-5.138113976E0
5.214356186E1,-4.331243038E0,-8.157294273E0,2.556606674E1
5.219555526E1,-2.309756851E1,-4.358537674E1,1.999937820E1
5.224754865E1,-1.810311127E1,-8.554743767E0,8.870788574E0
5.229954247E1,-1.095380688E1,-2.312869549E0,6.653689861E0
5.235153623E1,-4.778972626E0,4.412648678E0,5.355992794E0
5.240352955E1,-6.112583637E0,6.567495823E0,5.557111740E0
5.245552301E1,-4.553910732E0,7.822095871E0,6.680026531E0
5.250751630E1,-8.822902679E0,5.102199554E0,6.387925148E0
5.255950956E1,-1.960910988E1,-6.158074856E0,9.687235832E0
5.261150316E1,-1.888843346E1,-5.743865490E0,7.467742920E0
5.266349622E1,-4.235472202E0,4.553910732E0,4.664047241E0
5.271549017E1,5.511620522E0,3.110162973E0,-1.397059345E1
5.276748423E1,7.597033978E0,-5.770202279E-1,-1.068325424E1
5.281947735E1,9.258660316E0,-2.681587934E-1,-1.358272076E1
5.287147061E1,-4.249837875E0,-6.610592842E0,1.535448456E1
5.292346510E1,-7.348029613E0,-2.719656754E1,1.329061985E1
5.297546133E1,-1.537842751E1,-2.763232613E1,2.301137543E1
5.302745489E1,-1.390355396E1,-2.437371731E0,6.900300026E0
5.307944798E1,-1.136801720E1,7.661679387E-2,6.857203007E0
5.313144121E1,-8.980924606E0,3.526766777E0,6.713546753E0
5.318343470E1,-4.055901527E0,2.695953369E0,6.814105988E0
5.323542806E1,-2.432583094E0,2.889889717E0,9.081484795E0
5.328742148E1,-6.785374641E0,3.088614464E0,8.502069473E0
5.333752667E1,-1.232572651E1,2.437371731E0,3.584229469E0
5.338952053E1,-6.572284222E0,6.782980442E0,7.003253937E0
5.344151379E1,-2.478074312E0,3.435784340E0,-4.625739098E0
5.349350708E1,-7.652102470E0,-1.999219418E0,-4.321666241E0
5.354550054E1,5.066285610E0,-3.950553417E0,-1.407354736E1
5.359749383E1,5.504437923E0,-1.743032098E0,-6.397502422E0
5.364948726E1,5.066285610E0,3.416630268E0,7.082264900E0
5.370148055E1,-7.867587090E0,-1.764580536E1,2.052851295E1
5.375347447E1,-1.375750351E1,-4.476336288E1,2.642800522E1
5.380546819E1,-4.608979225E0,-1.282134151E1,1.727229881E1
5.385746155E1,-2.109356165E0,4.091815472E0,9.613013268E0
5.390945481E1,-1.081493950E1,5.209941864E0,8.305739403E0
5.396144927E1,-4.070267200E0,2.171607256E0,6.974522591E0
5.401344802E1,-2.928198099E0,-2.633702159E-1,7.970541000E0
5.406544461E1,-1.244065189E1,6.703969240E-1,6.943397045E0
5.411743821E1,-1.279500484E1,1.647261024E0,1.520364523E0
5.416943163E1,-6.220325947E0,6.354405403E0,1.091789365E0
5.422142492E1,-5.961744189E-1,6.215537548E0,7.647313595E0
5.427341822E1,1.311104870E1,2.815667152E0,-1.531138706E1
5.432541154E1,8.655303001E0,-1.098972082E0,-2.089244270E1
5.437740484E1,9.126976013E0,9.744698405E-1,1.110943556E0
5.442939823E1,-1.680780983E1,-2.878397179E1,1.167927265E1
5.448139235E1,-2.982069206E1,-2.634899521E1,8.650514603E0
5.453338587E1,-1.513181686E1,-7.503657341E0,9.512454033E0
5.458537920E1,-1.350370979E1,-4.386311531E0,6.572284222E0
5.463737256E1,-1.226108170E1,4.707144260E0,1.278542757E0
5.468936598E1,-7.635342598E0,6.998465061E0,3.507612705E0
5.474135921E1,-4.606584549E0,2.360754967E0,6.567495823E0
5.479335264E1,-8.727131844E0,5.248250484E0,5.437397957E0
5.484534613E1,-1.698498535E1,2.700742006E0,6.241874218E0
5.489734011E1,-1.407594204E1,4.865166187E0,-4.525179267E-1
5.494933364E1,-9.862017632E0,3.512401104E0,5.530774593E-1
5.500132693E1,-1.097535610E1,1.424593568E0,9.454991341E0
5.505332085E1,1.110943556E0,-1.340793967E-1,-3.019180536E0
5.510531714E1,1.136562252E1,-9.459779739E0,-1.806719780E1
5.515731093E1,9.883566856E0,-5.396695614E0,-7.371972084E0
5.520930423E1,-2.217098475E0,-6.533976078E0,1.587883091E1
5.526129758E1,-1.489478397E1,-1.937207794E1,1.958995628E1
5.531329094E1,-3.065868950E1,-1.681499290E1,1.767214203E1
5.536528447E1,-2.017894745E1,3.517189741E0,7.738296032E0
5.541727763E1,-1.143026829E1,4.134912491E0,9.912297249E0
5.546927122E1,-9.816526413E0,5.578660488E0,6.414262295E0
5.552126544E1,-7.819701672E0,3.416630268E0,4.307300568E0
5.557325853E1,-5.581054688E0,2.442160249E-1,7.563514233E0
5.562525216E1,-1.583812809E1,-3.146077156E0,5.729499817E0
5.567724525E1,-1.337681293E1,1.233051538E0,1.034326673E0
5.572923868E1,-7.235498428E0,2.583422422E0,1.352765322E0
5.578123207E1,-4.065478802E0,6.742278099E0,1.415016365E1
5.583322526E1,1.054917526E1,9.984126091E-1,-1.033608437E1
5.588521912E1,1.224192715E1,-2.229069948E0,-1.501689148E1
5.593721304E1,5.025582790E0,1.786128998E0,-8.236305118E-1
5.598920626E1,-8.906702399E-1,-7.604216576E0,1.616614342E1
5.604119969E1,-2.935380936E1,-2.879594231E1,1.657556534E1
5.609319345E1,-2.967703629E1,-5.542746067E0,2.820455790E0
5.614519187E1,-1.138477707E1,5.027977005E-2,5.619362831E0
5.619718930E1,-3.814079762E0,5.346415520E0,7.788576126E0
5.624918399E1,-3.756617069E0,7.676044941E0,3.239453793E0
5.630117735E1,-6.064698219E0,6.488484859E0,5.942590237E0
5.635317084E1,-1.690836906E1,2.662433624E0,8.075888634E0
5.640516397E1,-2.134256554E1,-9.409499764E-1,6.948185444E0
5.645715733E1,-1.460507679E1,-1.580221415E0,5.693585396E0
5.650915059E1,-7.860404015E0,-2.363149166E0,2.798907280E0
5.656114458E1,-3.579440832E0,-1.252205729E0,3.181991339E0
5.661313836E1,-4.391099930E0,-6.052726746E0,9.026415944E-1
5.666513166E1,2.997632027E0,-1.472478986E0,-3.593806505E0
5.671712502E1,2.992843628E0,-3.002420664E0,-4.549122334E0
5.676911834E1,2.561874151E0,2.734261751E0,-4.465322495E0
5.682111167E1,2.485257149E0,-5.367964268E0,1.204320240E1
5.687310506E1,-1.638162804E1,-3.107289886E1,7.877163887E0
5.692509835E1,-2.547508430E1,-2.627716637E1,1.225389862E1
5.697709234E1,-1.128421688E1,1.798100352E0,7.395915031E0
5.702908610E1,-8.298556328E0,2.255406857E0,4.252232075E0
5.708107939E1,-5.899493217E0,5.885127544E0,1.024031353E1
5.713307268E1,-8.267431259E0,-1.834014535E0,8.791776657E0
5.718506634E1,-1.996346283E1,-4.070267081E-2,1.367130876E0
5.723706466E1,-1.698498535E1,-2.253012657E0,-4.932205975E-1
5.728906211E1,-6.751854897E0,2.463708878E0,-2.705530643E0
5.734105604E1,-1.047734642E1,-5.542746067E0,-2.813272953E0
5.739304937E1,1.117168617E1,7.814912796E0,-1.323315716E1
5.744504269E1,3.514795303E0,-4.539545059E0,-9.806949615E0
5.749703609E1,-2.779752970E0,-7.474925995E0,1.062579155E1
5.754902954E1,-2.921015263E0,-1.465775013E1,8.729525566E0
5.760102270E1,-2.665546227E1,-1.034326744E1,8.660092354E0
5.765301620E1,-1.774875832E1,-4.029564381E0,6.641718388E0
5.770501035E1,-9.950606346E0,1.513181686E0,4.970514297E0
5.775700377E1,-9.126976013E0,6.960156918E0,2.794118643E0
5.780899713E1,-8.207573891E0,1.091789341E1,2.844398499E0
5.786099046E1,-9.953000069E0,6.421444893E0,4.525179267E-1
5.791298375E1,-1.692033958E1,1.766974807E0,3.806896925E0
5.796497734E1,-2.045189476E1,-4.376734257E0,6.270605564E0
5.801697057E1,-1.118844604E1,-3.079037428E0,-3.375927508E-1
5.806896392E1,-3.419024467E0,-1.216291547E0,-1.790917516E0
5.812095808E1,1.494027495E0,-2.248224020E0,9.696813226E-1
5.817295140E1,1.865140080E0,-2.485257149E0,-1.932179809E0
5.822494479E1,-8.640937805E0,-7.702382088E0,1.838084793E1
5.827693852E1,2.894678354E0,-2.418217659E0,1.242628574E0
5.832893441E1,-1.984853864E0,-9.395133972E0,2.849186957E-1
5.838092880E1,-2.828356743E1,-2.743599510E1,1.006553173E1
5.843292229E1,-5.248250484E0,1.324033976E0,8.049551964E0
5.848491552E1,-1.097774982E1,-3.529160976E0,1.360666370E1
5.853690881E1,-1.137280560E1,2.949746609E0,9.617801666E0
5.858890204E1,-7.704776287E0,3.301704884E0,5.142902374E0
5.864089566E1,-7.331269264E0,3.727885962E0,7.541965485E0
5.869288902E1,-1.105915546E1,2.540325642E0,1.167448425E1
5.874488301E1,-1.398974800E1,2.341600657E0,6.318490982E0
5.879687644E1,-1.572080803E1,3.591412306E-1,3.280156553E-1
5.884886979E1,-3.596200705E0,-3.112557232E-1,-4.972908974E0
5.890086319E1,-7.379155159E0,-6.962551117E0,-3.873936653E0
5.895285655E1,1.508393168E0,5.411061287E0,-8.724737167E0
5.900484984E1,5.889915943E0,-2.454131603E0,-7.726325035E0
5.905684320E1,2.157241583E0,-2.274561167E0,8.037580490E0
5.910883676E1,-1.752848625E1,-2.558761406E1,7.644919395E0
5.916083081E1,-2.868101883E1,-3.375448608E1,1.804804420E1
5.921282420E1,-3.572257996E0,-5.233884811E0,1.231854343E1
5.926481746E1,-5.245856285E0,1.517970204E0,9.620196342E0
5.931681099E1,-7.034379482E0,2.932986736E0,9.172467232E0
5.936880864E1,-5.935407162E0,5.066285610E0,8.008849144E0
5.942080647E1,-9.366402626E0,7.786181450E0,7.879558563E0
5.947280183E1,-1.659471893E1,2.557085514E0,1.960911036E0
5.952479542E1,-1.626670265E1,2.394274808E-3,-3.122134447E0
5.957678864E1,-6.952973843E0,5.988081455E0,1.652049661E0
5.962878214E1,-1.788523316E0,3.474092722E0,-1.098972082E0
5.968077519E1,8.236305118E-1,-1.723877907E0,-1.243825722E1
5.973276855E1,1.027143860E1,7.853221297E-1,-1.806240845E1
5.978476251E1,1.189475727E1,3.869148016E0,-1.090831566E1
5.983675616E1,-9.787795067E0,-1.619248009E1,1.346779537E1
5.988874949E1,-2.119412041E1,-1.617332649E1,-6.656084061E-1
5.994074278E1,-1.808635139E1,-1.806480408E1,2.037048912E1
5.999273614E1,-1.197376823E1,-7.537177086E0,1.391313076E1
6.004472970E1,-1.885730934E1,-8.092648983E-1,2.430188894E0
6.009672299E1,-1.185644913E1,2.159635782E0,3.775771379E0
6.014871619E1,-4.225894928E0,4.405465603E0,1.357553840E0
6.020071034E1,2.798907280E0,3.088614464E0,8.188420296E0
6.025270406E1,-4.896292210E0,-2.784541607E0,9.663292885E0
6.030469739E1,-2.203211594E1,4.340820312E0,-7.130150318E0
6.035669075E1,-1.500492001E1,-1.960911036E0,6.423839092E0
6.040868411E1,-3.744645834E0,7.175641537E0,-5.451763630E0
6.046068136E1,5.731894016E0,1.308471203E1,-9.443019867E0
6.051267948E1,6.196382999E0,1.206714511E0,-9.991309166E0
6.056467391E1,5.207547665E0,-4.345608711E0,-1.695385933E1
6.061661118E1,3.737462997E0,4.070267081E-1,8.142929077E0
6.066860457E1,-6.632141113E0,-4.350397110E0,1.454521942E1
6.072059796E1,-2.555170059E1,-3.670183945E1,2.169931221E1
6.077259122E1,-1.643669701E1,-1.949179077E1,1.195700836E1
6.082458465E1,-1.184687138E1,-4.185192585E0,6.991282463E0
6.087657804E1,-1.246938324E1,-5.578660369E-1,3.869148016E0
6.092857216E1,-7.211555958E0,4.156461239E0,2.346389294E0
6.098056582E1,-8.092648506E0,6.359193802E0,4.573064744E-1
6.103255891E1,-8.202785492E0,7.589851379E0,1.139674783E0
6.108455224E1,-5.937801361E0,4.910657406E0,4.723904133E0
6.113654570E1,-1.650613022E1,4.218712330E0,1.331695652E1
6.118853892E1,-1.764341164E1,5.818088055E-1,-2.346389294E-1
6.124053232E1,-5.200365067E0,-1.115732074E0,1.295302629E0
6.129252620E1,1.623318315E0,1.367130876E0,5.219519138E-1
6.134451992E1,8.219545364E0,9.744698405E-1,-1.807198715E1
6.139651332E1,4.137306690E0,-5.662459850E0,-1.305119228E1
6.144850664E1,5.478100777E0,-2.413429022E0,1.711906433E0
6.150050007E1,-9.071907043E0,-1.175588894E1,2.392119980E1
6.155249586E1,-2.753894806E1,-2.908086205E1,7.647313595E0
6.160449058E1,-2.573127174E1,-9.914691925E0,6.416656494E0
6.165648404E1,-1.530181026E1,1.012778282E1,3.893090725E0
6.170847727E1,-8.526012421E0,8.593051910E0,1.489238977E0
6.176047070E1,-7.654496670E0,5.607391834E0,7.218738556E0
6.181246399E1,-8.887548447E0,3.335224867E0,6.876357079E0
6.186445725E1,-1.155477047E1,3.047911882E0,6.093429565E0
6.191645087E1,-1.758594894E1,-3.011997700E0,1.254600048E0
6.196844506E1,-1.653246689E1,6.799740195E-1,5.193181992E0
6.202043828E1,2.585816681E-1,4.556304932E0,8.166871071E0
6.207243164E1,1.035763264E1,2.765387297E0,-2.588211060E1
6.212442504E1,3.117345810E0,-4.460534096E0,-9.531607628E0
6.217641836E1,3.000026226E0,-4.714327335E0,-1.611346960E0
6.222841166E1,-4.644893169E0,-6.227508545E0,1.094423008E1
6.228040508E1,-5.138113976E0,-2.104806900E1,1.663063240E1
6.233239874E1,-2.230506325E1,-2.691643715E1,2.227633286E1
6.238439266E1,-1.473197269E1,6.435810566E0,3.342407703E0
6.243638601E1,-1.040073013E1,3.926610649E-1,6.150891781E0
6.248837934E1,-1.055875182E0,3.950553417E0,5.554717541E0
6.254037260E1,-1.573038578E0,2.858764172E0,4.860377789E0
6.259236909E1,-2.518777132E0,-5.411061049E-1,7.398309231E0
6.264436768E1,-1.150449085E1,9.002473354E-1,5.327261448E0
6.269636263E1,-1.059706020E1,4.072661400E0,7.307326794E0
6.274835606E1,-1.426508904E1,5.102199554E0,1.422917557E1
6.280034939E1,-9.103033066E0,7.453377247E0,6.871568680E0
6.285234275E1,8.063917160E0,8.367990494E0,-8.557138443E0
6.290433607E1,5.940196037E0,-2.490045786E0,-1.800015831E1
6.295632940E1,2.609759569E0,-3.806896806E-1,-3.581835032E0
6.300832269E1,-4.108575344E0,-9.936240196E0,1.662823868E1
6.306031691E1,-1.058030033E1,-3.214313889E1,1.574714565E1
6.311231037E1,-2.026992989E1,-1.157631874E1,4.941783428E0
6.316430376E1,-1.920208359E1,-4.022381783E0,4.757423878E0
6.321629712E1,-1.046776962E1,9.888355136E-1,6.699181080E0
6.326829034E1,-7.235498428E0,4.987274647E0,3.469304085E0
6.332028374E1,-4.096604347E0,4.695172787E0,3.718308687E0
6.337227706E1,-1.642472506E0,6.421444893E0,4.786155224E0
6.342427039E1,-7.022408009E0,7.187613010E0,2.205127001E0
6.347626444E1,-1.970009232E1,-2.300898075E0,2.406246185E0
6.352825813E1,-1.749975395E1,1.113337755E0,5.083045483E0
6.358025143E1,-7.350423813E0,2.147664547E0,8.968953133E0
6.363224468E1,-2.576239586E0,5.396695614E0,8.195602417E0
6.368423994E1,8.504464149E0,1.019961119E0,-1.443987179E1
6.373623550E1,1.013017654E1,-4.027170181E0,-1.277585030E1
6.378822876E1,6.057515144E-1,-5.415849686E0,-3.165231228E0
6.384022215E1,-2.023162127E0,-6.021601200E0,2.023880577E1
6.389221545E1,-9.062330246E0,-4.828294754E1,1.377665710E1
6.394420877E1,-1.130097675E1,-2.438808250E1,1.519167328E1
6.399620216E1,-1.097296143E1,4.285751879E-1,5.722316742E0
6.404819539E1,-7.216344357E0,3.600989342E0,3.792531252E0
6.410018938E1,-2.932986736E0,7.058321953E0,5.992869854E0
6.415218310E1,1.620923996E0,3.354378939E0,6.919454098E0
6.420417642E1,-2.909043789E0,4.376734257E0,1.121238899E1
6.425616982E1,-1.875196075E1,-2.523565531E0,-1.110943556E0
6.430816311E1,-1.906082153E1,2.858764172E0,-1.252205729E0
6.436015650E1,1.541913033E0,1.334089947E1,4.472505569E0
6.441214983E1,1.156195259E1,2.853975534E0,-2.102412796E1
6.446414332E1,9.443019867E0,-4.285751820E0,-4.905869007E0
6.451613744E1,1.213897347E0,-1.793311834E0,4.999245644E0
6.456813080E1,-2.212309837E0,-6.811711788E0,-1.381496549E0
6.462012409E1,-2.978717232E1,-3.040489578E1,1.199531651E1
6.467211758E1,-2.116539001E1,-1.368806934E1,8.049551964E0
6.472411290E1,-1.226108170E1,-8.463761330E0,7.328875065E0
6.477611156E1,-7.647313595E0,7.446194887E-1,4.067873001E0
6.482810822E1,-5.435003757E0,3.404658794E0,1.635289669E0
6.488010171E1,-2.449343204E0,4.690384388E0,2.061470509E0
6.493209514E1,-7.230710030E0,3.452544212E0,7.544359684E0
6.498408850E1,-2.233140182E1,8.236305118E-1,2.454131603E0
6.503608192E1,-1.567771149E1,-1.939362586E-1,4.747847080E0
6.508807508E1,-7.108602047E0,1.539518714E0,3.814079762E0
6.514006917E1,9.601042271E-1,-4.462928295E0,-1.994430900E0
6.519206286E1,2.145270157E1,1.418607807E1,-6.454965115E0
6.524405632E1,1.081972790E1,9.912297726E-1,-1.206714535E1
6.529604971E1,-7.541965842E-1,-2.377514839E0,2.425400496E0
6.534804297E1,-7.477320194E0,-1.625951958E1,1.489717770E1
6.540003616E1,-1.408791256E1,-3.409447479E1,1.899138832E1
6.545202952E1,-8.411087036E0,-1.561067200E1,1.292190075E1
6.550402285E1,-1.128661156E1,-3.196356773E0,6.517216206E0
6.555601654E1,-7.496474266E0,2.027950764E0,7.685622215E0
6.560801056E1,-4.790944099E0,5.456552505E0,2.889889717E0
6.566000395E1,-4.331243038E0,-6.225114316E-2,2.226675510E0
6.571199731E1,-9.028810501E0,-1.295302629E0,1.312062621E0
6.576399053E1,-1.128900528E1,-7.666468143E0,8.403904438E-1
6.581598599E1,-1.007032013E1,-1.630501151E0,1.268726254E1
6.586798468E1,-1.541913033E0,1.072874546E1,-2.667222023E0
6.591998063E1,1.428663731E1,1.356356716E1,-1.146857643E1
6.597197379E1,8.810931206E0,6.012023926E0,-5.025582790E0
6.602396715E1,-6.821289062E0,-1.281894779E1,2.018852425E1
6.607596061E1,-4.448562622E0,-2.832187653E1,7.891529560E0
6.612795384E1,-5.253038883E0,-1.949179077E1,9.826104164E0
6.617994730E1,-7.891529560E0,-6.342433929E0,1.073832226E1
6.623194062E1,-1.063536835E1,-3.794925690E0,1.216052151E1
6.628393458E1,-1.219404125E1,1.599375606E0,4.747847080E0
6.633592853E1,-7.067899227E0,1.989642382E0,1.343188167E0
6.638792163E1,-2.063864946E0,3.569863796E0,4.755029678E0
6.643991492E1,-2.147664547E0,5.425426483E0,5.676825523E0
6.649190828E1,-4.690384388E0,-3.519583941E-1,6.064698219E0
6.654390161E1,-3.488458395E0,-5.051919818E-1,4.300117493E0
6.659589490E1,-2.224999619E1,-1.061621475E1,6.308914185E0
6.664788822E1,-9.409499764E-1,1.684611702E1,-2.664827824E0
6.669988234E1,3.550709486E0,-3.110162973E0,5.770202279E-1
6.675187610E1,-1.470084786E0,-1.653964996E1,3.804502726E0
6.680386923E1,-3.974496126E0,-1.662344933E1,6.996070862E0
6.685586262E1,-4.642498970E0,-1.087240219E1,1.069761944E1
6.690785721E1,-9.234718323E0,-1.408791256E1,1.195700836E1
6.695985303E1,-1.439916897E1,-1.135604572E1,1.299612331E1
6.701184672E1,-1.243107510E1,-1.331216812E0,5.387118340E0
6.706383992E1,-7.352818012E0,5.638517380E0,3.148471355E0
6.711583328E1,-1.211503029E0,5.820482254E0,6.929031372E0
6.716782664E1,8.906702399E-1,-1.604164124E0,1.036960411E1
6.721981996E1,-3.390293121E0,-4.302511692E0,3.823656797E0
6.727181359E1,-8.078283310E0,-2.762993097E0,2.856369734E0
6.732380774E1,-5.229096413E0,5.236279011E0,3.696760416E0
6.737580103E1,3.208328247E0,1.221798420E1,2.083019018E-1
6.742779466E1,2.664827824E0,5.511620522E0,-4.965725899E0
6.747978785E1,3.610566378E0,-1.398256540E0,-4.376734257E0
6.753178094E1,1.034326673E0,-4.532361984E0,7.934626579E0
6.758377427E1,-7.989695072E0,-4.085829926E1,1.046298146E0
6.763576746E1,-8.696005821E0,-2.708882523E1,1.843591630E-1
6.768776135E1,-8.451789856E0,-1.582855034E1,7.218738556E0
6.773975540E1,-1.287880421E1,-1.262979984E1,4.096604347E0
6.779174860E1,-1.344624710E1,-9.165284157E0,4.898686409E0
6.784374199E1,-4.125335693E0,2.540325642E0,2.801301479E-1
6.789375244E1,-3.591412306E-2,6.249057293E0,-5.818088055E-1
6.794574702E1,1.680780888E0,-4.455745220E0,3.282550812E0
6.799774555E1,-2.944957972E0,-3.351984739E0,4.082238674E0
6.804974207E1,-1.604164124E0,1.209587669E1,-3.940976381E0
6.810173573E1,2.765147972E1,2.036091232E1,1.397777653E1
6.815372912E1,2.952140808E0,8.391933441E0,-5.815693378E0
6.820572248E1,-7.254652381E-1,-3.787742853E0,-9.596253395E0
6.825771574E1,2.825244367E-1,-1.439438057E1,5.593026161E0
6.830970910E1,5.545140266E0,-4.197882080E1,2.218535042E1
6.836170239E1,-6.512427330E-1,-1.432015800E1,5.638517380E0
6.841369615E1,-9.790189743E0,-1.740877151E1,-4.103786945E0
6.846569010E1,-9.792584419E0,-1.635289764E1,9.984126091E0
6.851768340E1,-1.408073044E1,-1.182053471E1,5.466129303E0
6.856967679E1,-8.856422424E0,2.681587696E0,5.056708336E0
6.862167018E1,-3.632114887E0,9.783006668E0,6.756643295E0
6.867366351E1,8.839662552E0,3.608172178E0,-2.106961727E0
6.872565673E1,9.577099085E-1,-2.205127001E0,1.673598051E0
6.877765022E1,-8.423058510E0,-4.644893110E-1,-2.056682110E0
6.882964388E1,-5.358386993E0,4.015198708E0,6.306519985E0
6.888163773E1,4.369551659E0,1.341512203E1,7.369577885E0
6.893363119E1,2.497228622E0,1.211503029E0,4.783761024E0
6.898562455E1,4.197163582E0,4.158855438E0,-3.234665155E0
6.903761834E1,1.932179809E0,-9.725543976E0,1.245022893E0
6.908961467E1,-5.834847927E0,-4.169150543E1,1.528983879E1
6.914160846E1,-8.384750366E0,-1.418607807E1,-1.625712633E0
6.919360179E1,-5.391906738E0,-2.712713242E0,7.992089272E0
6.924559511E1,-1.764341164E1,-1.624036598E1,1.025707340E1
6.929758844E1,-2.119651413E1,-1.137280560E1,5.784567833E0
6.934958183E1,-1.375032043E1,-1.613741279E0,-3.950553536E-1
6.940157512E1,-7.230710030E0,1.987248063E0,-2.202732861E-1
6.945356888E1,-3.399870098E-1,4.199557781E0,-2.978477955E0
6.950556293E1,3.495641232E0,6.943396926E-1,-8.739103079E-1
6.955755606E1,2.873129770E-2,-1.984853864E0,4.110970020E0
6.960954952E1,-4.661653042E0,-3.447755814E0,4.781366825E0
6.966154281E1,-3.545921087E0,-3.687183261E-1,1.738243461E0
6.971353610E1,3.658451796E0,1.452367115E1,-2.173762131E1
6.976552956E1,-4.362368584E0,-9.194015265E-1,2.688770533E0
6.981752282E1,-1.696343613E1,-2.396669006E1,-8.858816624E-1
6.986951661E1,-1.685569525E0,-1.571601963E1,1.176786041E1
6.992151050E1,1.053480953E-1,-7.755055904E0,1.569925976E1
6.997350379E1,-4.046324492E-1,-7.865192890E0,1.092986488E1
7.002549728E1,-1.863464165E1,-1.774875832E1,8.159688950E0
7.007749091E1,-2.293475914E1,-8.655303001E0,4.563488007E0
7.012948933E1,-1.664739227E1,-4.826858044E0,6.153286457E0
7.018148682E1,-3.124528646E0,2.719896078E0,5.885127544E0
7.023348148E1,6.500456333E0,4.685595989E0,-1.496421814E0
7.028547491E1,4.728692532E0,4.070267081E-1,2.502017260E0
7.033746813E1,-5.458946705E0,-1.003201127E0,6.871568561E-1
7.038946156E1,-1.344864178E1,7.623371124E0,-5.995264053E0
7.044145492E1,-2.569056988E0,2.439765930E0,5.394300938E0
7.049344821E1,4.676018715E0,1.494266891E1,-1.064494610E1
7.054544240E1,-2.889889717E0,2.317657948E0,-4.573064804E0
7.059743589E1,8.260248303E-1,2.988054991E0,-1.031932473E0
7.064942915E1,4.788549617E-3,-9.352037430E0,1.041749001E1
7.070142284E1,-4.091815472E0,-2.979914474E1,1.127703476E1
7.075341590E1,-1.065212822E1,-1.779664421E1,3.478881359E0
7.080540919E1,-7.886741161E0,-1.204559612E1,1.325709915E1
7.085740268E1,-1.351089287E1,-1.403763294E1,1.035044956E1
7.090939621E1,-1.687245369E1,-6.589044094E0,7.735901833E0
7.096139023E1,-1.271359921E1,-2.657645047E-1,5.985687256E0
7.101338359E1,-6.529187202E0,2.351177931E0,6.301731110E0
7.106537688E1,-1.671203852E0,1.762186289E0,5.226701736E0
7.111737030E1,-5.573871613E0,-2.308080912E0,2.279349566E0
7.116936386E1,-7.910684109E0,2.178790092E0,-3.488458395E0
7.122136215E1,-5.157268047E0,-1.960911036E0,9.639349937E0
7.127335960E1,-7.470137477E-1,1.113577175E1,-1.055875182E0
7.132535356E1,1.556518078E1,6.730306625E0,-8.379961967E0
7.137734692E1,7.932232380E0,2.636096478E0,-8.782199860E0
7.142934022E1,-3.756617069E0,-3.751828671E0,4.070267081E-1
7.148133361E1,-2.351177931E0,-8.016032219E0,7.989695072E0
7.153332690E1,-9.031204224E0,-3.078558540E1,1.638402176E1
7.158532026E1,-1.071916866E1,-2.549184418E1,1.899138832E1
7.163731388E1,-1.474155045E1,-1.698977470E1,1.215573311E1
7.168930797E1,-1.639599419E1,-6.747066498E0,1.018285084E1
7.174130123E1,-1.285246754E1,1.968093872E0,7.039167881E-1
7.179329459E1,-4.336031914E0,6.691998005E0,4.252232075E0
7.184528795E1,2.602576733E0,1.561067224E0,-8.140534163E-2
7.189728127E1,2.097384691E0,-3.505218267E0,4.216318130E0
7.194927463E1,-3.088614464E0,3.179596901E0,2.935380936E0
7.200126799E1,-4.118152618E0,9.653716087E0,-7.518022656E-1
7.205326171E1,-4.029564381E0,9.172467232E0,6.926637173E0
7.210525580E1,1.091789365E0,4.896292210E0,-5.820482254E0
7.215724929E1,1.284288979E1,6.000052452E0,-1.679583740E1
7.220924225E1,7.110996246E0,-4.558699131E0,-7.664073467E0
7.226123581E1,2.966506481E0,-8.056735039E0,-7.197190285E0
7.231323203E1,-6.739883423E0,-1.909434128E1,2.103370476E1
7.236522629E1,-2.105285835E1,-2.613350868E1,4.273780346E0
7.241721958E1,-2.632983971E1,-4.295329094E0,2.327235222E0
7.246921308E1,-2.038964462E1,-4.898686409E0,5.614574432E0
7.252120657E1,-9.402317047E0,3.153259993E0,5.691191196E0
7.257319962E1,-6.416656494E0,6.299336910E0,1.106154919E0
7.262519308E1,-4.661653042E0,7.999272346E0,1.762186289E0
7.267718707E1,-4.946571827E0,7.103813171E0,7.010436535E0
7.272918063E1,-1.052044392E1,5.676825523E0,5.121353626E0
7.278117409E1,-2.040401077E1,2.858764172E0,3.761405706E0
7.283316735E1,-1.365454960E1,1.101366431E-1,4.142095566E0
7.288516061E1,-2.355966330E0,8.403904915E0,2.614548206E0
7.293715403E1,8.140534163E-2,-9.217957854E-1,7.656890869E0
7.298914726E1,1.060424328E1,-6.213143349E0,-2.069371796E1
7.304114082E1,1.299133492E1,-7.154093266E0,-2.282222748E1
7.309313457E1,2.231464148E0,-6.526793003E0,7.381549358E0
7.314512836E1,-1.391073704E1,-3.734589767E1,5.767807961E0
7.319712168E1,-2.810639191E1,-3.607693100E1,1.420283794E1
7.324911498E1,-1.455958557E1,-1.558672905E0,9.560338974E0
7.330110857E1,-1.652289009E1,-2.281744003E0,7.707170486E0
7.335310616E1,-1.196658516E1,4.254626274E0,6.684815407E0
7.340510415E1,-8.707977295E0,6.804529190E0,5.949772835E0
7.345709830E1,-6.567495823E0,3.067065954E0,9.526819229E0
7.350909160E1,-1.220361900E1,-1.312062621E0,2.971295118E0
7.356108506E1,-1.022115898E1,2.063864946E0,7.206767082E0
7.361307835E1,-5.844424725E0,6.771008968E0,6.761432171E0
7.366507158E1,-6.028783798E0,6.409473896E0,-4.652075768E0
7.371706504E1,8.341653824E0,2.468497276E0,-2.012388039E1
7.376905833E1,3.577046633E0,-1.097535610E1,-2.300898170E1
7.382105235E1,9.912297249E0,-1.288119793E0,1.771763414E-1
7.387304610E1,-7.592245579E0,-1.629782867E1,1.274711895E1
7.392503950E1,-1.101605797E1,-4.031240463E1,2.659799957E1
7.397703276E1,-9.826104164E0,-2.136650848E1,1.608952713E1
7.402902618E1,-1.166730118E1,-2.521171331E0,7.130150318E0
7.408101934E1,-9.905115128E0,4.719115734E0,5.755836487E0
7.413301270E1,-4.110970020E0,4.769395351E0,8.976136208E0
7.418500609E1,7.398309112E-1,3.294522047E0,1.201925945E1
7.423700031E1,-2.104567528E0,1.786128998E0,1.443029404E1
7.428899374E1,-1.182771778E1,2.358360767E0,1.278303337E1
7.434098710E1,-1.579503059E1,2.590605259E0,4.549122155E-1
7.439298045E1,-9.368797302E0,5.279376030E0,1.197137404E-2
7.444497638E1,-2.988054991E0,7.278595567E-1,6.380742550E0
7.449697114E1,3.675211906E0,-1.101366401E0,-1.486844635E1
7.454896450E1,1.173912907E1,-5.068679810E0,-1.125548553E1
7.460095779E1,3.735068738E-1,-6.557918549E0,3.639297783E-1
7.465295118E1,-3.687183261E-1,1.436564885E-2,1.634571457E1
7.470494458E1,-1.719089317E1,-3.208567810E1,1.989163589E1
7.475693797E1,-2.256125069E1,-1.469605923E1,1.169842625E1
7.480893142E1,-1.324273396E1,8.356019258E-1,1.013257122E1
7.486092551E1,-1.056114578E1,3.253819466E0,5.703162670E0
7.491291877E1,-1.121957207E1,6.962551117E0,6.387925148E0
7.496491213E1,-7.793364525E0,4.757423878E0,5.016005516E0
7.501690542E1,-7.716747761E0,-1.194743156E0,9.811738014E0
7.506889872E1,-1.520125103E1,-1.039115310E0,2.956929445E0
7.512089224E1,-1.424593544E1,-1.058269501E0,1.125309110E0
7.517286415E1,-1.115971470E1,2.585816860E0,9.399923325E0
7.522485764E1,4.271386147E0,2.346389294E0,-2.354529762E1
7.527685173E1,1.248614311E1,-3.682394743E0,-1.193306541E1
7.532884512E1,7.613793612E-1,-1.137280583E0,1.309668303E0
7.538083854E1,6.184412003E0,-5.734288216E0,6.000052452E0
7.543283174E1,-1.811029434E1,-4.448323059E1,2.694756317E1
7.548482836E1,-1.349173832E1,-2.379909134E1,1.624036598E1
7.553682688E1,-9.476539612E0,-5.576265812E0,9.531607628E0
7.558882170E1,-1.259388542E1,-6.153286099E-1,5.830059052E0
7.564081520E1,-9.811738014E0,6.380742550E0,3.344801903E0
7.569280839E1,-3.483669758E0,4.158855438E0,7.470137596E0
7.574480175E1,-7.269018173E0,6.220325947E0,7.362394810E0
7.579679511E1,-1.390594769E1,3.581835032E0,1.857957244E0
7.584878843E1,-1.202644253E1,2.813272953E0,-2.681587934E-1
7.590078176E1,-6.043149471E0,1.300091267E0,3.088614643E-1
7.595277545E1,6.505244732E0,1.364736676E0,-1.354680729E1
7.600476944E1,-2.099778891E0,8.162082672E0,3.694365978E0
7.605676283E1,4.242654800E0,-7.723930359E0,-7.666468143E0
7.610875612E1,1.386285067E0,-6.311308384E0,-1.869928598E0
7.616074948E1,-2.004008055E0,-1.361384678E1,8.205180168E0
7.621274281E1,-3.019898796E1,-2.168015862E1,6.744672298E0
7.626473613E1,-2.502735519E1,-7.094236374E0,4.994457245E0
7.631672956E1,-1.628346252E1,-1.369525194E0,3.521978140E0
7.636872325E1,-1.158350182E1,3.895485163E0,5.202759266E0
7.642071717E1,-7.522811413E0,4.424619675E0,2.272166729E0
7.647271049E1,-4.817280769E0,2.430188894E0,6.431022167E0
7.652470382E1,-9.227535248E0,1.362342358E0,5.590631485E0
7.657669918E1,-2.073920822E1,-2.035133600E0,4.065478802E0
7.662869450E1,-1.698259163E1,3.775771379E0,-3.371139050E0
7.668068786E1,-1.028819847E1,-2.753416002E-1,3.395081758E0
7.673268118E1,1.547659206E1,1.204320192E0,-2.181902695E1
7.678467451E1,1.170321560E1,-4.223500729E0,-1.717413330E1
7.683666784E1,7.666468143E0,-1.467690468E0,-5.109382629E0
7.688866123E1,-1.588361931E1,-2.640885162E1,1.153801060E1
7.694065449E1,-1.801931190E1,-2.465145302E1,1.682456970E1
7.699264834E1,-1.304400921E1,-9.541185379E0,1.753087997E1
7.704464227E1,-1.642233086E1,-2.430188894E0,1.132970810E1
7.709663556E1,-1.155237579E1,1.328822494E0,8.269824982E0
7.714862885E1,-9.026415825E0,5.470917702E0,6.239480019E0
7.720062228E1,-3.430995703E0,3.680000305E0,7.812518597E0
7.725261557E1,1.003201127E0,4.522785187E0,1.064015770E1
7.730460890E1,-2.154847383E-1,7.142121792E0,1.029538155E1
7.735660222E1,-1.676231766E1,-1.659232497E0,6.105400920E-1
7.740859641E1,-1.309189510E1,1.927391171E0,-5.174027920E0
7.746058986E1,-6.284971237E0,3.342407703E0,3.895485163E0
7.751258326E1,1.764580488E0,3.423812985E-1,-1.252923965E1
7.756457658E1,1.167208958E1,-2.403851986E0,-2.202014542E1
7.761657217E1,8.983319283E0,-5.260221958E0,2.027950764E0
7.766857079E1,2.820455790E0,-1.424114609E1,8.818114281E0
7.772056742E1,-3.147753143E1,-5.051680374E1,8.097437859E0
7.777256088E1,-1.150927925E1,-1.811987114E1,1.417650127E1
7.782455430E1,-1.016369629E1,-2.231464148E0,1.137519932E1
7.787654763E1,-1.449733353E1,1.331216812E0,6.979310989E0
7.792854086E1,-1.027622795E1,4.709538460E0,3.237059593E0
7.798053432E1,-4.798126698E0,4.113364220E0,6.361588001E0
7.803252791E1,-9.780612946E0,3.624932051E0,4.434196949E0
7.808452193E1,-1.879266357E1,-6.335251331E0,-2.377514839E0
7.813651532E1,-9.636956215E0,6.823683381E-1,7.182824425E-3
7.818850864E1,-4.357580185E0,6.292154312E0,4.680807114E0
7.824050194E1,7.046350956E0,6.553130150E0,-5.466129303E0
7.829249523E1,1.273514748E1,-2.154847383E0,-1.326907063E1
7.834448859E1,9.498087883E0,4.415042877E0,-9.794978142E0
7.839648195E1,6.680026650E-1,1.029538140E-1,3.861965179E0
7.844847577E1,-1.522998238E1,-3.299310684E1,3.720703125E0
7.850046963E1,-2.590365982E1,-3.966834641E1,1.780622101E1
7.855246302E1,-8.188420296E0,-1.497140026E1,1.344624710E1
7.860445621E1,-4.491659641E0,4.865166187E0,7.376760483E0
7.865644970E1,-1.172715759E1,3.823656797E0,7.716747761E0
7.870844506E1,-5.786962032E0,4.048718929E0,4.398283005E0
7.876044398E1,1.910631299E0,9.864411950E-1,1.057072353E1
7.881243967E1,5.705556870E0,6.131737709E0,1.416213512E1
7.886443290E1,-4.635315895E0,8.595446348E-1,1.117168617E1
7.891642629E1,-2.017894745E1,-5.624151707E0,-8.291373253E0
7.896841988E1,-8.186025620E0,2.913832426E0,-5.940196037E0
7.902041314E1,6.560313106E-1,3.138894320E0,-1.327146530E1
7.907240630E1,6.282577038E0,-2.202732861E-1,-2.743839025E0
7.912439979E1,5.437397957E0,-3.189173937E0,-1.058748341E1
7.917639358E1,-2.284138203E0,-4.608979225E0,1.305837440E1
7.922838730E1,-1.649894714E1,-1.395622826E1,2.585816860E0
7.928038063E1,-3.465233994E1,-1.706160164E1,1.214615631E1
7.933237402E1,-1.428663731E1,-7.771816254E0,1.390834236E1
7.938436732E1,-1.173912907E1,3.737462997E0,7.956175327E0
7.943636064E1,-1.069522572E1,4.745452881E0,5.593026161E0
7.948835390E1,-5.748653889E0,1.005116558E1,4.470110893E0
7.954034736E1,-1.013017654E1,8.461367607E0,4.446168423E0
7.959234164E1,-2.523326302E1,4.850800991E0,-3.926610649E-1
7.964433497E1,-1.852929306E1,-4.453351200E-1,-6.105400920E-1
7.969632826E1,-1.408551884E1,-1.197137386E-1,-4.094209969E-1
7.974832172E1,-4.429408550E0,2.588211060E0,-1.175588965E0
7.980031624E1,-2.035133541E-1,-2.717501879E0,1.110225201E1
7.985231227E1,-3.569863796E0,-5.159662247E0,-1.174631214E1
7.990430573E1,3.261002302E0,2.473285913E0,-1.721004677E1
7.995629892E1,4.597007751E0,-4.369551659E0,-2.367937803E0
8.000829224E1,-1.508393139E-1,5.387118459E-1,8.691217303E-1
8.006028577E1,-1.693709946E1,-9.292180061E0,1.603924751E1
8.011227896E1,-2.935141563E1,-2.536015892E1,2.758204460E0
8.016427236E1,-1.594108200E1,-4.180403709E0,1.574475098E1
8.021626657E1,-1.373356056E1,4.618556023E0,8.274613380E0
8.026826003E1,-9.088666916E0,6.818894863E0,1.106633854E1
8.032025359E1,-1.250050831E1,7.573091030E0,1.214376163E1
8.037224672E1,-1.963544846E1,6.608198643E0,2.478074312E0
8.042424008E1,-1.826352882E1,4.405465722E-1,6.179623127E0
8.047623330E1,-1.412382698E1,-5.966532707E0,-1.338399649E0
8.052822676E1,-1.021158218E1,-2.624125242E0,-1.170560932E1
8.058022009E1,-1.936968327E0,2.118933201E0,-8.655303001E0
8.063221421E1,1.129858303E1,-1.046298146E0,-1.660429573E1
8.068420773E1,1.065691757E1,2.777358770E0,-3.804502726E0
8.073620129E1,-6.675238132E0,-2.480468750E0,2.324840784E0
8.078819458E1,-1.493788052E1,-4.515602112E0,1.656598663E1
8.084018907E1,-3.607693100E1,-3.087417412E1,2.366261864E1
8.089218782E1,-2.194352913E1,1.630501151E0,3.251425266E0
8.094418469E1,-7.680833817E0,4.738269806E0,4.752635479E0
8.099617881E1,-9.026415944E-1,6.112583637E0,3.713520288E0
8.104817214E1,-3.340013266E0,4.898686409E0,9.194015503E0
8.110016540E1,-1.249811459E1,3.838022470E0,3.773377180E0
8.115215882E1,-1.867294884E1,-3.375927508E-1,5.988081455E0
8.120415205E1,-1.716216278E1,-5.363175392E0,1.002004051E1
8.125614554E1,-1.131534290E1,1.130097747E0,4.774183750E0
8.130813979E1,3.328042030E-1,-3.462121487E0,2.564986610E1
8.136013305E1,9.778218269E0,9.364008904E0,-8.760651588E0
8.141212651E1,9.574705124E0,5.006428719E0,-1.489238930E1
8.146411974E1,3.440572977E0,4.987274647E0,-7.822095871E0
8.151611313E1,-6.452570438E0,-4.359974384E0,2.065301514E1
8.156810642E1,-1.314217472E1,-2.072484207E1,1.222516727E1
8.162009972E1,-2.804892921E1,-2.191719246E1,9.943423271E0
8.167209354E1,-1.320681953E1,2.825244367E-1,6.466936111E0
8.172408743E1,-4.438985348E0,5.341627121E0,4.558699131E0
8.177608072E1,6.943397224E-2,5.765413761E0,3.969707727E0
8.182807411E1,-4.223500729E0,5.418243885E0,5.837242126E0
8.188006737E1,-1.579742527E1,1.932179809E0,9.565128326E0
8.193206196E1,-1.833056831E1,-2.403851986E0,1.543349552E1
8.198406081E1,-1.562024879E1,-4.273780346E0,3.883513689E0
8.203605720E1,-8.514040947E0,1.901054144E0,-1.154040456E0
8.208805073E1,-1.067846537E0,6.608198285E-1,-5.415849686E0
8.214004409E1,-1.721483588E0,3.419024467E0,7.472531796E0
8.219203748E1,1.047255802E1,-7.398309112E-1,-1.622839546E1
8.224403084E1,9.045570374E0,6.775797844E0,-7.680833817E0
8.229602417E1,-7.999272346E0,-1.872322917E0,1.811268806E1
8.234801753E1,-2.549902725E1,-3.672099304E1,4.788549542E-1
8.239998219E1,-1.826352882E1,-3.361801147E1,1.016848469E1
8.245197585E1,-9.337671995E-1,-3.091008663E0,6.500456333E0
8.250396914E1,-2.698347807E0,8.305739403E0,4.446168423E0
8.255596246E1,-8.801354408E0,7.292961121E0,5.751048088E0
8.260795599E1,-1.223474383E0,1.484450340E0,1.134407425E1
8.265994925E1,-8.336864471E0,-1.628106833E0,1.534011841E1
8.271194254E1,-1.766735458E1,-1.211503029E0,-1.599375606E0
8.276393587E1,-4.101153183E1,-4.841223717E0,5.468523502E0
8.281592985E1,2.698347807E0,6.694392204E0,-1.089634418E1
8.286792344E1,8.312922478E0,1.984853864E0,-1.406636429E1
8.291991690E1,1.112380123E1,4.934600353E0,-8.300951004E0
8.297191016E1,3.222693920E0,-2.250618219E0,6.273000240E-1
8.302390418E1,-8.095043182E0,-7.304932594E0,2.315263748E1
8.307590054E1,-2.161311913E1,-4.070506668E1,1.429860878E1
8.312789423E1,-1.742792702E1,-1.705920792E1,1.090352726E1
8.317988756E1,-1.136322784E1,-2.753416002E-1,1.735849261E0
8.323188092E1,-4.944177628E0,2.174001455E0,4.043930054E0
8.328387421E1,-2.856369734E0,7.027196407E0,3.723097324E0
8.333586767E1,-1.331216812E0,2.832427025E0,6.021601200E0
8.338786100E1,-3.940976381E0,3.830839634E0,1.307752895E1
8.343985511E1,-1.469845295E1,-1.470084786E0,1.174391747E1
8.349184860E1,-1.540476418E1,-8.284190893E-1,6.280182838E0
8.354384193E1,-1.875196075E1,1.462901950E0,5.719922543E0
8.359583526E1,-5.047131062E0,1.443747759E0,3.620143414E0
8.364782852E1,1.661147881E1,2.269772530E0,-1.131773663E1
8.369982214E1,1.020200539E1,-1.968093872E0,-1.794269562E1
8.375181553E1,9.445414543E0,5.231490612E0,1.719089270E0
8.380380856E1,-1.169603252E1,-1.234248638E1,2.490524673E1
8.385580271E1,-3.066826630E1,-4.672187805E1,1.996585846E1
8.390779627E1,-7.173247337E0,-1.328583050E1,1.115253162E1
8.395978953E1,-4.438985348E0,2.810878515E0,6.237085819E0
8.401178305E1,-8.885153770E0,4.649681568E0,6.505244732E0
8.406377678E1,-2.940169573E0,5.774991035E0,5.648094177E0
8.411577533E1,-6.114977837E0,2.710319042E0,7.778998852E0
8.416777249E1,-1.634092522E1,2.128510237E0,-7.058321953E0
8.421976621E1,-1.367609787E1,-3.272973776E0,-5.296135902E0
8.427175961E1,-1.410946178E1,-3.344801903E0,7.278595448E0
8.432375293E1,-5.353598595E0,5.753442287E0,7.158881426E-1
8.437574626E1,1.485886955E1,5.578660488E0,-7.637736797E0
8.442773968E1,7.628159523E0,3.423812985E-1,-7.338452339E0
8.447973291E1,1.087240219E1,1.666415215E0,2.056682110E0
8.453172640E1,-6.012023926E0,-8.911490440E0,1.831859589E1
8.458372059E1,-2.304489517E1,-2.917184448E1,1.166490650E1
8.463571395E1,-2.459638596E1,-8.312922478E0,-1.010383964E0
8.468770737E1,-1.422678089E1,-4.091815472E0,1.793311834E0
8.473970060E1,-8.030397415E0,1.259388566E0,6.799740314E0
8.479169396E1,-4.467716694E0,7.383943558E0,3.804502726E0
8.484368732E1,-3.083826065E0,7.702382088E0,6.363982677E0
8.489568058E1,-6.143709183E0,3.502824068E0,8.339259148E0
8.494767443E1,-1.368088627E1,-3.854782581E-1,1.060424328E1
8.499966839E1,-1.674316406E1,-4.268991947E0,4.594613552E0
8.505166161E1,-1.491393757E1,-2.762993097E0,4.841223717E0
8.510365500E1,-4.242654800E0,-9.577099085E-1,-1.075029373E0
8.515564869E1,2.585816681E-1,-4.364762783E0,-3.603383541E0
8.520764485E1,1.762186289E0,4.939388752E0,-4.963331699E0
8.525963901E1,1.188518047E1,4.972908974E0,-1.299851799E1
8.531163230E1,3.972101927E0,-6.349617004E0,1.330019665E1
8.536362566E1,-1.970967102E1,-6.068768311E1,2.373205185E1
8.541561902E1,-1.132013130E1,-2.168734169E1,1.029538155E1
8.546761241E1,-1.589798450E0,-2.559479713E0,1.156674194E1
8.551960571E1,-3.794925690E0,1.637683988E0,3.598595142E0
8.557159920E1,-4.319271564E0,3.770982742E0,1.376708031E0
8.562359338E1,-3.629720688E0,8.169265747E0,6.826077461E0
8.567558674E1,-7.285778046E0,3.150865555E0,9.055147171E0
8.572758003E1,-1.270881081E1,-1.391073704E0,2.516382933E0
8.577957339E1,-9.854835510E0,2.719896078E0,9.076695442E0
8.583156665E1,8.973741531E0,6.052726746E0,-1.601530457E1
8.588356001E1,9.756669998E0,9.854835510E0,-1.551729488E1
8.593555344E1,5.054314137E0,3.569863796E0,5.066285610E0
8.598754703E1,-1.145181656E1,-3.576088715E1,5.020794392E0
8.603954101E1,-7.379155159E0,-2.723727036E1,8.715160370E0
8.609153447E1,-1.405439258E0,-1.598417854E1,1.446860313E1
8.614352783E1,-1.319963741E1,-1.398017025E1,9.071907043E0
8.619552119E1,-1.488760090E1,-3.646480560E0,4.431802750E0
8.624751921E1,-9.723150253E0,3.442967176E0,3.021574736E0
8.629951687E1,-4.010410309E0,8.444606781E0,9.337671995E-1
8.635151113E1,-7.374366522E-1,9.282603264E0,3.512401104E0
8.640350438E1,-3.143682718E0,1.300091267E0,3.936187744E0
8.645549768E1,-1.342709351E1,-5.018400192E0,9.395133972E0
8.650749130E1,-5.293741703E0,-2.777358770E0,2.061470509E0
8.655948450E1,1.319245458E0,3.177202702E0,6.438204765E0
8.661147789E1,9.984126091E0,8.051946640E0,-3.847599506E0
8.666347105E1,1.747820675E-1,-3.246636629E0,-3.170019865E0
8.671546517E1,-2.679193497E0,-7.881952763E0,2.928198099E0
8.676745879E1,-3.584229469E0,-2.058836937E1,5.027976990E0
8.681945198E1,-8.540378571E0,-2.638969612E1,1.707596779E1
8.687144541E1,-1.175349522E1,-2.015979385E1,1.192588329E1
8.692343874E1,-1.115253162E1,-1.005834866E1,9.227535248E0
8.697543213E1,-8.418270111E0,9.050358534E-1,3.186779737E0
8.702742546E1,-4.798126698E0,4.297723293E0,4.879531860E0
8.707941898E1,-2.004008055E0,1.561067224E0,4.740664005E0
8.713141290E1,-3.143682718E0,-2.997632027E0,2.681587696E0
8.718340649E1,-8.176448822E0,-2.104567528E0,2.322446585E0
8.723539978E1,-8.399115562E0,3.986467600E0,-1.601769805E0
8.728739331E1,-1.740637779E0,1.149251938E1,-4.268991947E0
8.733938929E1,2.569056988E0,2.813272953E0,8.624177933E0
8.739138376E1,9.306546211E0,6.026389599E0,-1.929785490E0
8.744337708E1,5.820482254E0,1.379102230E0,-8.375173569E0
8.749537041E1,4.755029678E0,-1.783734679E0,4.422225475E0
8.754736390E1,2.727078915E0,-2.725163651E1,6.840443134E0
8.759935726E1,-1.375510883E1,-4.138264465E1,6.143709183E0
8.765135055E1,-9.366402626E0,-1.839281845E1,5.183605194E0
8.770334384E1,-7.125361919E0,-7.213950157E0,5.569083214E0
8.775533770E1,-3.737462997E0,-4.620950520E-1,3.560286522E0
8.780733142E1,-3.586623669E0,7.278595448E0,8.284190893E-1
8.785932478E1,-2.418217510E-1,1.960911036E0,2.044710636E0
8.791131817E1,-5.051919937E0,-8.356019258E-1,8.741497040E0
8.796331146E1,-9.850046158E0,-2.257801056E0,4.831646442E0
8.801530492E1,-7.520417213E0,2.151016426E1,5.602602959E0
8.806729812E1,8.588263512E0,8.739103317E0,-7.893924236E0
8.811929144E1,9.474145889E0,1.182053471E1,-1.017327404E1
8.817128576E1,-5.049525738E0,1.436564885E-2,8.114197731E0
8.822327915E1,-1.554602623E1,-3.850472641E1,-1.144463301E0
8.827527251E1,-5.966532707E0,-2.444794083E1,8.588263512E0
8.832726587E1,6.033572674E0,-2.110792732E1,6.275394440E0
8.837926286E1,-4.544333458E0,-1.684851265E1,2.298503876E0
8.843126101E1,-5.834847927E0,-1.239994907E1,1.085803604E1
8.848325697E1,-5.561900616E0,-1.441353440E0,6.189200401E0
8.853525026E1,-1.141829681E1,1.573277950E1,1.735849261E0
8.858724339E1,-5.892310143E0,6.694392204E0,1.972882390E0
8.863923701E1,-1.774157643E0,2.224281311E0,3.198751211E0
8.869123017E1,-4.254626274E0,-4.620950520E-1,1.015172482E0
8.874322347E1,-3.991255999E0,1.333611012E0,3.488458395E0
8.879521722E1,7.158881426E-1,-1.546701550E0,-1.005595446E0
8.884721118E1,4.383917332E0,-7.518022656E-1,-1.790917516E0
8.889920454E1,1.960911036E0,5.904281616E0,7.800547123E0
8.895119790E1,-3.526766777E0,-6.787769318E0,-3.237059593E0
8.900319112E1,2.865947008E0,-1.717413330E1,-9.409499764E-1
8.905518445E1,-3.102980137E0,-2.384697723E1,1.170560932E1
8.910717797E1,-6.833260536E0,-2.599224663E1,6.414262295E0
8.915917120E1,-9.495694160E0,-2.230506325E1,6.912271500E0
8.921116502E1,-1.149491310E1,-1.019961071E1,5.195576191E0
8.926315894E1,-9.715967178E0,1.422199249E0,6.507638931E0
8.931515220E1,-2.535537004E0,8.545166969E0,5.638517380E0
8.936714549E1,2.415823221E0,8.051946640E0,3.720703125E0
8.941913895E1,-7.637736797E0,-1.620923996E0,5.044736862E0
8.947113584E1,-1.371680069E1,-8.221940041E0,-4.793338299E0
8.952313403E1,-8.834874153E0,-6.703969479E0,3.981678963E0
8.957512889E1,1.013735962E1,5.382329941E0,-1.048692322E1
8.962712221E1,1.279261017E1,2.736656189E0,1.596981287E0
8.967911550E1,-2.782147408E0,-5.377541065E0,-9.792584181E-1
8.972914467E1,-6.158074856E0,-9.086273193E0,-1.561067224E0
8.978113810E1,-5.736682415E0,-2.461793327E1,1.282373619E1
8.983313152E1,-4.158855438E0,-2.978717232E1,1.484210968E1
8.988512475E1,-1.237361240E1,-2.060033989E1,1.142787361E1
8.993711887E1,-1.510069084E1,-6.646506786E0,1.194024849E1
8.998911236E1,-1.299372959E1,-2.121327400E0,8.595446587E0
9.004110579E1,-3.450150013E0,6.177229285E-1,2.791724443E0
9.009309911E1,1.620923996E0,2.571451187E0,5.372752666E0
9.014509237E1,3.222693920E0,2.825244367E-1,4.901080608E0
9.019708577E1,-2.693559170E0,3.624932051E0,4.532361984E0
9.024907906E1,-1.272078228E1,3.112557232E-1,-1.838803053E0
9.030107245E1,-6.725517750E0,3.873936653E0,2.004008055E0
9.035306644E1,2.178790092E0,3.751828671E0,-9.146129489E-1
9.040506013E1,5.506832123E0,2.059076309E0,5.116565228E0
9.045705339E1,1.125309181E1,1.050847244E1,-4.489265442E0
9.050904671E1,1.194743156E0,2.154847383E0,-2.415823221E0
9.056104210E1,-1.834732819E1,-4.401874161E1,1.171997547E1
9.061303749E1,-3.466909885E0,-3.690056229E1,1.100169277E1
9.066503075E1,-5.710345268E0,-2.500101662E1,7.960963726E0
9.071702418E1,-5.990475655E0,-8.147717476E0,5.700768471E0
9.076901744E1,-1.487802410E1,5.590631485E0,1.762186289E0
9.082101076E1,-9.246688843E0,2.305686712E0,3.000026226E0
9.087300416E1,-2.255406857E0,4.395888329E0,3.112557173E0
9.092499738E1,7.661679387E-2,2.329629421E0,-2.849186957E-1
9.097699150E1,5.794144869E-1,6.148497581E0,4.142095566E0
9.102898519E1,-1.406397057E1,4.051113129E0,8.111803055E0
9.108097852E1,-1.095859623E1,3.011997700E0,4.517996788E0
9.113297178E1,1.910631299E0,2.849186957E-1,2.702178574E1
9.118496517E1,7.860404015E0,1.179659176E1,-1.108549237E0
9.123695850E1,2.995237827E0,7.822095871E0,-6.095823765E0
9.128895199E1,4.309694767E-1,-7.925049663E-1,5.324867249E0
9.134094515E1,-5.564294815E0,-9.426259995E0,1.098972130E1
9.139293943E1,-1.289077568E1,-3.649114227E1,1.277585030E1
9.144493279E1,-1.053720379E1,-1.827549934E1,9.914691925E0
9.149692625E1,-1.464577866E1,-6.945791245E0,9.888355255E0
9.154891948E1,-1.629064560E1,-4.790944099E0,6.890722752E0
9.160091510E1,-1.030256462E1,2.324840784E0,2.722290516E0
9.165291372E1,-5.193181992E0,7.506051540E0,-6.895511150E-1
9.170491028E1,7.541965842E-1,3.421418667E0,1.920208454E0
9.175690384E1,5.051919818E-1,2.731867552E0,2.576239586E0
9.180889720E1,-1.755003452E0,1.872322917E0,3.208328187E-1
9.186089052E1,-1.547659206E1,-1.774157643E0,-4.462928295E0
9.191288388E1,-4.527573586E0,5.564294815E0,2.897072554E0
9.196487728E1,5.190787792E0,2.356924057E1,3.462121487E0
9.201687087E1,-5.164450645E0,-7.278595567E-1,3.782954216E-1
9.206886485E1,-1.257712555E1,-1.409988403E1,1.162420464E1
9.212085821E1,-6.328068256E0,-2.625561714E1,1.158110714E1
9.217285154E1,-8.978530765E-1,-9.110215187E0,1.231854343E1
9.222484487E1,-7.003253937E0,-8.262641907E0,7.702382088E0
9.227683822E1,-1.658274651E1,-1.044622135E1,7.960963726E0
9.232883155E1,-2.299222183E1,-7.834067345E0,2.535537004E0
9.238082498E1,-1.459310532E1,1.498816013E0,1.903448462E0
9.243281873E1,-3.696760416E0,1.225150394E1,7.925049663E-1
9.248481272E1,5.636122704E0,1.103042412E1,5.178816319E0
9.253680584E1,-1.618529797E0,4.884320736E0,6.368771076E0
9.258879914E1,-8.597841263E0,-4.285751879E-1,-1.537124395E0
9.264079263E1,-1.331216812E1,-3.960130453E0,-2.698347807E0
9.269278802E1,-6.289760113E0,-3.081431627E0,-2.482862949E0
9.274478687E1,-9.545973778E0,-1.215812778E1,8.004060745E0
9.279678263E1,1.217967606E1,-3.004814863E0,-1.086761379E1
9.284877586E1,-2.774964571E0,-1.520603943E1,-2.875524044E0
9.290076921E1,-1.758834267E1,-3.079995155E1,5.604997158E0
9.295276261E1,-3.732674360E0,-1.408073044E1,1.016130257E1
9.300475586E1,-3.861965179E0,-1.688203239E1,1.525392437E1
9.305674929E1,-2.141678810E1,-1.570165443E1,9.938634872E0
9.310874258E1,-1.926912308E1,-7.491685867E0,6.632141113E0
9.316073654E1,-9.296969414E0,2.633702159E-1,-6.608198285E-1
9.321273039E1,4.163643837E0,3.390293121E0,2.121327400E0
9.326472358E1,9.562733650E0,5.731894016E0,6.905088425E0
9.331671694E1,-3.471698463E-1,2.166818619E0,2.300898075E0
9.336871020E1,-1.639120483E1,6.962551117E0,-7.853221297E-1
9.342070356E1,-1.900335884E1,1.496421814E0,4.656864643E0
9.347269692E1,-2.322446555E-1,5.602602959E0,-1.733694458E1
9.352469038E1,6.064698219E0,-5.863578796E0,-9.672870636E0
9.357668477E1,4.070267081E-2,6.703969836E-2,-3.615354896E-1
9.362867799E1,-8.111803055E0,-1.728187561E1,4.309694469E-2
9.368067122E1,-3.763799906E0,-3.351984787E1,1.751172638E1
9.373266461E1,2.346389294E-1,-1.033847904E1,1.081733322E1
9.378465913E1,-7.491685867E0,-1.823240280E1,9.483722687E0
9.383665522E1,-9.476539612E0,-1.570883656E1,1.733933830E1
9.388864872E1,-9.718361855E0,-9.610619545E0,7.008042336E0
9.394064191E1,-8.394327164E0,1.189954638E0,5.339232683E-1
9.399263527E1,-1.558672905E0,3.950553417E0,4.091815472E0
9.404462870E1,4.067873001E0,1.577827096E0,4.869955063E0
9.409662212E1,5.770202279E-1,1.747820675E-1,2.470891714E0
9.414861555E1,-6.957762718E0,3.213116884E0,-2.372726440E0
9.420060943E1,-1.376708031E1,1.507195950E1,-7.448588848E0
9.425260319E1,9.873989105E0,1.627867508E1,-1.109746361E1
9.430459632E1,-8.116591573E-1,-4.563488007E0,-5.248250484E0
9.435658964E1,-3.000026226E0,-7.932232380E0,4.209135056E0
9.440858300E1,2.729473352E0,-2.087807655E1,1.225868702E1
9.446057629E1,-4.348002911E0,-2.312630081E1,1.285007286E1
9.451256969E1,-8.171659470E0,-2.198183632E1,2.035133541E-1
9.456456318E1,-9.601041794E0,-2.011909103E1,7.898712635E0
9.461655723E1,-9.507665634E0,-1.497140026E1,8.142929077E0
9.466855069E1,-6.081458092E0,1.563461423E0,1.367130876E0
9.472054408E1,-1.774157643E0,4.920234680E0,1.431776285E0
9.477253737E1,2.731867552E0,2.573845387E0,1.204320192E0
9.482453203E1,1.975276709E0,2.011190891E0,2.533142805E0
9.487653082E1,-3.150865555E0,4.932205975E-1,1.637683988E0
9.492852731E1,-7.647313595E0,4.850800991E0,2.664827824E0
9.498052114E1,-1.403284454E1,1.103042412E1,7.110996246E-1
9.503251399E1,9.964971542E0,9.766246796E0,-1.135365105E1
9.508450732E1,-2.054287672E0,-4.000833035E0,6.059909344E0
9.513650071E1,-6.095823765E0,-2.405049133E1,8.092648983E-1
9.518849404E1,-2.923409462E0,-2.359318352E1,1.246698856E1
9.524048746E1,-1.905842781E0,-9.747093201E0,9.222746849E0
9.529248116E1,-8.049551964E0,-2.025317001E1,5.140508175E0
9.534447498E1,-9.246688843E0,-1.856520653E1,1.007750225E1
9.539646837E1,-1.000806904E1,-7.060716629E0,4.393494129E0
9.544846173E1,-8.205180168E0,6.320885658E0,1.920208454E0
9.550045522E1,-2.569056988E0,-7.637736797E-1,2.238646984E0
9.555244841E1,-2.492439985E0,-1.103760719E0,1.891477108E-1
9.560444160E1,-7.063110471E-1,6.251451492E0,2.528354168E0
9.565643526E1,-4.154066563E0,4.479688168E0,4.537150860E0
9.570842905E1,-5.856396198E0,5.650488377E0,-3.849993944E0
9.576042267E1,1.580221415E0,1.639120483E1,4.000833035E0
9.581241610E1,1.268247414E1,7.132544518E0,-7.788576126E0
9.586440952E1,3.502824068E0,-2.212309837E0,8.499675393E-1
9.591640342E1,-1.867534399E0,-3.052221489E1,3.998438835E0
9.596839977E1,-5.334444046E0,-2.949028206E1,1.294344997E1
9.602039336E1,-2.027950764E0,-1.414537525E1,6.093429565E0
9.607238676E1,-1.169124413E1,-2.001374245E1,5.049525738E0
9.612438022E1,-1.236642933E1,-1.318766594E1,9.514847755E0
9.617637338E1,-8.408693314E0,-9.553156495E-1,4.019987583E0
9.622836667E1,-6.433416367E0,6.581861496E0,2.921015322E-1
9.628036006E1,-2.286532402E0,8.954587579E-1,-1.036720991E0
9.633235388E1,2.889889717E0,5.650488734E-1,1.096577883E0
9.638434777E1,5.566689014E0,4.259414673E0,5.825270653E0
9.643634116E1,-2.121327400E0,5.456552505E0,1.027862167E1
9.648833446E1,-1.147336483E1,3.476486921E0,3.392687321E0
9.654032768E1,-1.532335877E-1,2.127313232E1,9.045570374E0
9.659232114E1,1.091789341E1,5.449369431E0,-3.538738251E0
9.664431450E1,-2.351177931E0,-1.128661156E1,-2.849186957E-1
9.669630793E1,-2.430188894E0,-2.561395264E1,3.213116884E0
9.674830171E1,-1.048931789E1,-2.799146652E1,4.486870766E0
9.680029547E1,-3.878725290E0,-1.225389862E1,1.326188850E1
9.685228880E1,-9.967366219E0,-1.957798576E1,1.498576641E1
9.690428219E1,-1.058030033E1,-7.585062504E0,1.032890129E1
9.695627608E1,-8.221940041E0,-2.004008055E0,-1.505998850E0
9.700826935E1,-1.965699673E0,4.484476566E0,-1.541913033E0
9.706026671E1,-9.337671995E-1,5.729499817E0,-4.508419514E0
9.711226110E1,-1.166011810E0,-4.237866402E-1,4.213923812E-1
9.716425436E1,-7.012830734E0,-4.127729893E0,1.482056141E0
9.721624775E1,-2.095229912E1,4.242654800E0,-5.291347504E-1
9.726824111E1,3.859570980E0,9.033598900E0,-9.888355255E0
9.732023441E1,1.126506329E1,4.848406315E0,3.735068798E0
9.737222770E1,-4.407859802E0,-7.225921154E0,6.512427330E0
9.742422188E1,-7.589851379E0,-3.419742584E1,5.073468208E0
9.747621537E1,-6.337645531E0,-1.554842091E1,-2.456526041E0
9.752820880E1,1.072635174E0,-6.074275017E0,9.567522049E0
9.758020213E1,-1.302485466E0,-2.614069176E1,7.759844780E0
9.763219538E1,-1.104718399E1,-1.811747742E1,1.225389862E1
9.768418874E1,-1.412861538E1,-5.825270653E0,1.144463301E0
9.773618214E1,-4.431802750E0,6.021601200E0,5.377541065E0
9.778817560E1,7.589851022E-1,3.876330853E0,5.861184597E0
9.784016985E1,-5.075862408E-1,1.424593568E0,3.603383541E0
9.789216311E1,-9.289786220E-1,2.171607256E0,1.640078187E0
9.794415637E1,-3.933793545E0,-4.125335693E0,4.211529255E0
9.799614983E1,-4.166038036E0,9.675264359E0,5.123748183E-1
9.804814368E1,8.839662552E0,1.606319046E1,-5.597814560E0
9.810014210E1,5.083045483E0,5.698374271E0,-2.178790092E0
9.815213946E1,-4.635315895E0,-7.458166122E0,3.579440832E0
9.820413329E1,-3.536343813E0,-2.225238991E1,-9.816526622E-2
9.825612641E1,-1.391073704E0,-2.520692444E1,1.090592194E1
9.830811977E1,-3.325647593E0,-1.418128967E1,3.268185139E0
9.836011310E1,-5.241067410E0,-2.995716667E1,7.132544518E0
9.841210649E1,-1.113098335E1,-1.997303963E1,5.770202160E0
9.846409978E1,-8.585869789E0,-7.874769688E0,4.917840481E0
9.851609377E1,-3.751828671E0,8.619388938E-2,2.298503816E-1
9.856808746E1,3.967313290E0,3.114951611E0,-2.394274771E-1
9.862008072E1,2.786935806E0,9.409499764E-1,1.438959122E0
9.867207418E1,-7.278595567E-1,8.537983894E0,1.874717116E0
9.872406744E1,-6.907482624E0,-2.106961906E-1,1.757637215E1
9.877606076E1,-9.320911407E0,7.395915031E0,8.614601135E0
9.882805419E1,4.716721535E0,5.511620522E0,-3.687183142E0
9.888004742E1,1.024749660E1,9.402317047E0,1.470084786E0
9.893204130E1,9.601042271E-1,1.240234375E0,2.861158371E0
9.898403519E1,7.661679387E-2,-2.191958618E1,-1.331216812E0
9.903602848E1,-5.928224564E0,-2.819498062E1,8.741497040E0
9.908802188E1,-4.632921696E0,-2.086131668E1,5.049525738E0
9.914001547E1,-8.865999222E0,-1.782537651E1,5.073468208E0
9.919201166E1,-1.504322815E1,-1.464099026E1,5.707951069E0
9.924400582E1,-1.031453609E1,-2.942563772E0,2.485257149E0
9.929599918E1,-4.022381783E0,4.553910732E0,5.865973234E-1
9.934799257E1,6.416656375E-1,3.730280161E0,-4.644893110E-1
9.939998579E1,3.282550812E0,7.374366522E-1,1.484450340E0
9.945197919E1,2.676799297E0,6.052726746E0,5.303318501E0
9.950397255E1,-4.802915096E0,5.933012962E0,9.220352173E0
9.955596653E1,-1.583573341E1,4.465322495E0,1.151646137E0
9.960796022E1,-4.302511692E0,2.315263748E0,1.436085987E1
9.965995365E1,2.810878515E0,5.051919818E-1,-8.308133483E-1
9.971194677E1,-6.943397224E-2,-4.357580185E0,5.291347504E-1
9.976394033E1,2.561874092E-1,-1.044861507E1,1.340793967E-1
9.981593353E1,-1.572799110E1,-3.202582169E1,4.810098171E0
9.986792688E1,-5.628940105E0,-1.587164783E1,2.224281311E0
9.991992024E1,-6.833260536E0,-1.826592255E1,1.483253288E1
9.997191420E1,-1.428184891E1,-1.615656662E1,8.243488312E0
1.000239078E2,-1.294584370E1,7.110996246E-1,-5.411061049E-1
1.000759014E2,-5.485283375E0,3.390293121E0,1.429382086E0
1.001278945E2,-5.746259540E-2,7.807730198E0,8.044763207E-1
1.001798881E2,1.130097747E0,7.103813171E0,4.965725899E0
1.002318861E2,-8.710371971E0,7.484503269E0,3.069460392E0
1.002838836E2,-1.375271416E1,2.085413456E0,3.759011507E0
1.003358779E2,-4.601796150E0,-4.874743462E0,-3.684788942E0
1.003878713E2,-1.764580488E0,-2.004008102E1,4.877137661E0
1.004398646E2,1.118126392E0,1.551729488E1,1.086043072E1
1.004918579E2,1.290514112E0,-6.579467297E0,-6.974522591E0
1.005438513E2,-2.214225388E1,-3.052221489E1,-1.187560320E0
1.005958446E2,1.139435387E1,-1.086282444E1,1.500252628E1
1.006478380E2,4.343214512E0,-2.731149292E1,1.564658546E1
1.006998323E2,-7.604216576E0,-2.018613052E1,8.892336845E0
1.007518257E2,-1.359469223E1,-8.420664787E0,1.053002071E1
1.008038189E2,-1.176067829E1,-2.853975534E0,3.373533249E0
1.008558123E2,-4.285751820E0,5.585843086E0,5.262616158E0
1.009078056E2,4.350397110E0,2.104567528E0,-1.544307232E0
1.009597990E2,-3.857176781E0,-3.000026226E0,1.415016413E0
1.010117923E2,-4.146883965E0,9.507665634E0,-4.666441441E0
1.010637856E2,-2.588211060E0,2.710079575E1,1.298894119E1
1.011157798E2,1.520364523E0,5.978504181E0,-1.177264881E1
1.011677733E2,-3.749434233E0,-4.175615311E0,6.878751755E0
1.012197667E2,-1.506717110E1,-7.149304390E0,1.248853779E1
1.012717602E2,-1.460507661E-1,-1.636486816E1,-3.818868399E0
1.013237561E2,-2.913832426E0,-1.354441261E1,1.265853119E1
1.013757506E2,-2.411034822E0,-5.672037125E0,7.558725357E0
1.014277440E2,-8.087860107E0,-8.327287674E0,6.811711788E0
1.014797372E2,-1.730581856E1,-9.660899162E0,1.185405445E1
1.015317307E2,-2.073920822E1,-1.217967606E1,1.096577883E0
1.015837241E2,-1.585967636E1,-6.459753513E0,5.425426483E0
1.016357173E2,-5.978504181E0,1.101366431E-1,-1.764580488E0
1.016877108E2,4.336031914E0,1.367130876E0,-6.332856655E0
1.017397049E2,9.055147171E0,1.522758722E0,6.306519985E0
1.017916984E2,6.225114316E-2,3.605777979E0,4.039141655E0
1.018436917E2,-9.217958450E0,8.734314919E0,1.745426297E0
1.018956850E2,1.807677507E0,2.320052385E0,-8.322499275E0
1.019476783E2,4.587430477E0,1.484929276E1,-8.600234985E0
1.019996717E2,-1.312302017E1,-3.536343813E0,-1.987248063E0
1.020516650E2,-2.026274681E1,-1.539518738E1,6.979310989E0
1.021036585E2,-4.168432236E0,-1.837127113E1,1.321160793E1
1.021556527E2,-5.344021320E0,-9.143735886E0,1.152125072E1
1.022076459E2,-6.071880817E0,-1.221080184E0,6.929031372E0
1.022596393E2,-1.392270756E1,-1.287162113E1,1.013975334E1
1.023116328E2,-1.370961761E1,-1.026425648E1,9.747093201E0
1.023636301E2,-1.158829021E1,-2.751021862E0,6.062304020E0
1.024156280E2,-6.866780281E0,2.513988495E0,8.916279793E0
1.024676227E2,-5.308107376E0,-1.948939681E0,8.736708641E0
1.025196161E2,-4.719115734E0,1.137280583E0,-7.187613010E0
1.025716095E2,-9.627379417E0,-6.998465061E0,-8.284191132E0
1.026236028E2,-4.070267200E0,6.545947552E0,-1.404242134E1
1.026755961E2,1.230417824E1,4.012804508E0,-7.242681503E0
1.027275893E2,-1.716695070E0,7.640130997E0,-4.568276405E0
1.027795828E2,-5.327261448E0,-1.106154919E1,2.353572130E0
1.028315764E2,-1.199052811E1,-2.975844193E1,1.032650757E1
1.028835703E2,-8.549955368E0,-1.856281281E1,1.114056110E1
1.029355637E2,-7.860404015E0,-4.568276405E0,7.304932594E0
1.029875570E2,-1.182292938E1,-1.142547894E1,8.964164734E0
1.030395504E2,-8.595446587E0,-8.827691078E0,1.240952587E1
1.030915438E2,-1.778946114E1,-4.941783428E0,4.656864643E0
1.031435371E2,-8.277008057E0,-4.053507328E0,2.303292274E0
1.031955304E2,1.446141958E0,5.868367672E0,1.065452290E1
1.032475243E2,-4.094209969E-1,1.678386688E0,1.869928598E0
1.032995180E2,-1.616614342E1,-3.715914488E0,-3.648874760E0
1.033515116E2,7.913078308E0,-7.106207848E0,-1.485647488E1
1.034035047E2,-7.292961121E0,1.678626060E1,-1.421480942E1
1.034555003E2,7.115784645E0,1.349892139E1,2.430188894E0
1.035074954E2,-3.914639235E0,-3.135302925E1,1.849816704E1
1.035594887E2,-2.123482323E1,-2.738332176E1,4.110970020E0
1.036114820E2,-9.567522049E0,-1.051804924E1,-2.894678354E0
1.036634754E2,-4.891503334E0,-4.139701366E0,3.589017868E0
1.037154687E2,-7.716747761E0,-2.473285913E0,7.266623974E0
1.037674621E2,-7.348029613E0,-1.070240855E0,5.099805355E0
1.038194555E2,-1.129858303E1,2.106961727E0,6.723123550E0
1.038714494E2,-1.305598068E1,-3.028757572E0,5.875550270E0
1.039234432E2,-4.060689926E0,3.488458395E0,9.385557175E0
1.039754363E2,-1.819648892E-1,3.220299721E0,7.110996246E0
1.040274299E2,4.103786945E0,4.465322495E0,1.371919513E0
1.040794231E2,-7.115784645E0,-5.195576549E-1,1.072156239E1
1.041314164E2,5.626545906E0,7.340846539E0,-1.143026829E1
1.041834098E2,-4.019987583E0,-8.983319283E0,-1.405439281E1
1.042354032E2,3.519583941E-1,-6.074275017E0,1.096577883E0
1.042873975E2,-5.360781193E0,-3.470980072E1,1.657556534E1
1.043393879E2,-1.400411320E1,-2.569056892E1,1.004398251E1
1.043913813E2,-1.630022240E1,-1.228262997E1,-2.202732861E-1
1.044433746E2,-3.809291124E0,-9.967366219E0,1.006553173E1
1.044953706E2,-2.375120640E0,-3.763799906E0,1.022355366E1
1.045473692E2,7.257047176E0,-2.162030220E0,1.010623360E1
1.045993656E2,2.413429022E0,-5.442186832E0,1.673598099E1
1.046513589E2,-6.107795238E0,-1.084606528E0,7.510839939E0
1.047033524E2,-4.166277695E1,-1.862506294E1,-1.203362560E1
1.047553458E2,9.799766541E0,5.906675816E0,-1.307513428E1
1.048073389E2,1.128182316E1,2.370092583E1,-1.255557728E1
1.048593323E2,5.966532707E0,1.475591564E1,-1.848380208E0
1.049113260E2,-1.645345688E1,-2.753655434E1,2.449103737E1
1.049633200E2,-2.729952049E1,-3.581835175E1,1.254360580E1
1.050153134E2,-1.069043732E1,-1.982938385E1,5.303318501E0
1.050673066E2,-6.426233768E0,-1.071916866E1,8.291373253E0
1.051192999E2,-5.288952827E0,8.367990494E0,3.474092722E0
1.051712933E2,-4.321666241E0,4.520390987E0,5.913859010E-1
1.052232868E2,-5.435003638E-1,8.322499275E0,1.585009933E0
1.052752800E2,6.919454336E-1,7.273807049E0,4.570670605E0
1.053272736E2,-5.446975231E0,9.577099234E-3,3.505218267E0
1.053792677E2,-1.595544720E1,-2.346389294E0,4.800520897E0
1.054312609E2,-4.161249638E0,4.702355862E0,-1.018045616E1
1.054832543E2,-4.934600353E0,-1.327385998E1,1.562982559E1
1.055352477E2,-1.826831698E0,-2.132580566E1,-1.443747759E0
1.055872435E2,6.943397224E-2,-2.044710732E1,1.274472523E1
1.056392423E2,-1.048692346E0,5.530774593E-1,7.834067345E0
1.056912379E2,-9.773429871E0,8.095043182E0,6.045543671E0
1.057432310E2,-1.434649467E1,-4.283357620E0,1.527307892E1
1.057952244E2,-1.984375000E1,-8.047157288E0,3.711125851E0
1.058472178E2,-1.100408745E1,-1.132013130E1,3.739857197E0
1.058992111E2,-2.743839025E0,2.506805658E0,6.198777676E0
1.059512044E2,-7.841249943E0,6.735095024E0,3.890696526E0
1.060031977E2,-5.698373914E-1,1.078620815E1,3.043123245E0
1.060551917E2,-5.051919818E-1,-1.482056141E0,-2.791724443E0
1.061071855E2,-8.523618579E-1,-7.055927753E0,-1.241670895E1
1.061591789E2,-5.147690773E-1,-3.560047150E1,4.689187241E1
1.062111720E2,-2.456526041E0,-8.138139725E0,2.083019018E0
1.062631654E2,-1.047734642E1,-2.632026291E1,4.333637238E0
1.063151587E2,1.007989645E0,-2.226914978E1,1.847183037E1
1.063671521E2,-1.218685865E0,-1.148773098E1,2.304728889E1
1.064191454E2,-7.168458939E0,7.678439140E0,5.250644684E0
1.064711393E2,-1.683414650E1,-1.953728199E0,5.478100777E0
1.065231331E2,-3.057488918E0,1.841197371E0,9.941028595E0
1.065751265E2,-1.051326084E1,-3.627326250E0,1.414298153E1
1.066271198E2,-1.338399601E1,-3.744645834E0,5.420638084E0
1.066791145E2,-7.031985283E0,-3.725491524E0,1.891477108E0
1.067311104E2,-8.011243820E0,-3.632114887E0,8.770228386E0
1.067831040E2,5.353598595E0,8.643332481E0,9.648927450E-1
1.068350970E2,2.350220108E1,1.372877216E1,-1.350849819E1
1.068870905E2,-7.206767201E-1,-1.460507661E-1,9.536396980E0
1.069390838E2,-1.440156269E1,-3.145119476E1,-2.200338602E0
1.069910770E2,-8.918673515E0,-3.285184479E1,1.487802410E1
1.070430705E2,-3.596200705E0,-1.555081463E1,6.828471661E0
1.070950643E2,-3.234665155E0,-4.257020473E0,5.928224564E0
1.071470581E2,-4.580247879E0,4.168432236E0,5.207547665E0
1.071990515E2,-4.879531860E0,2.940169573E0,5.746259689E0
1.072510447E2,-3.876330853E0,5.382329941E0,5.767807961E0
1.073030381E2,-4.757423878E0,7.853221297E-1,5.126142502E0
1.073550314E2,-7.225921154E0,1.235445857E0,8.430241585E0
1.074070248E2,-1.149012470E1,1.714300752E0,1.802888989E0
1.074590183E2,-1.642712021E1,-4.489265442E0,2.832427025E0
1.075110124E2,9.553156495E-1,6.347222328E0,-1.117886925E1
1.075630058E2,9.375980377E0,6.500456333E0,-1.488041782E1
1.076149992E2,2.806090117E0,3.004814863E0,-1.661626697E0
1.076669924E2,-5.669642925E0,-1.723159599E1,7.395915031E0
1.077189875E2,-6.861991405E0,-3.456614685E1,1.525631905E1
1.077709861E2,2.669616461E0,-2.664588356E1,1.023313046E1
