"Time (s)","Gyroscope x (rad/s)","Gyroscope y (rad/s)","Gyroscope z (rad/s)"
5.199348400E-2,1.720150709E0,-8.825964332E-1,-8.859238029E-1
1.039865840E-1,1.640127301E0,-2.034688234E0,-1.783895731E0
1.559799100E-1,1.761689544E0,-7.671428919E-1,-1.800999999E0
2.079732690E-1,1.691440105E0,-1.707264543E0,-9.335712790E-1
2.599667620E-1,1.649901271E0,-3.159902096E0,-3.288146853E-1
3.119599210E-1,1.657842398E0,-2.312021017E0,1.995837241E-1
3.639540730E-1,1.143493891E0,-2.427474499E0,1.244473010E-1
4.159475970E-1,-2.692388557E-2,-2.622340679E0,-4.980243742E-1
4.679409890E-1,-1.037905931E0,7.035334408E-2,-4.748114944E-1
5.199344810E-1,-3.432497501E0,1.043461680E0,-1.998920321E0
5.719277730E-1,-5.304188728E0,5.553803444E-1,-1.543214798E0
6.239209990E-1,-5.503942013E0,1.558421135E0,-2.578020573E0
6.759143250E-1,-8.117834091E0,1.265816689E0,-4.452765942E0
7.279075850E-1,1.772074223E0,5.850971222E0,6.381850243E-1
7.799016380E-1,1.847210646E0,3.728825092E0,2.628384113E0
8.318952940E-1,2.015809536E0,6.170777678E-1,1.038912654E0
8.838890190E-1,2.814210415E0,-8.587726951E-1,3.838508129E0
9.358819120E-1,2.658439636E0,-6.281527132E-2,3.686402559E0
9.878755690E-1,6.419735551E-1,-6.404207706E0,4.033984661E0
1.039871891E0,-1.070892572E0,-6.048072815E0,1.668103814E0
1.091866018E0,-4.801858962E-1,-4.152558327E0,-1.444865465E0
1.143859244E0,-4.181418419E0,3.395903826E0,8.962798119E-2
1.195852937E0,-7.660906792E0,5.597461700E0,-1.888353586E0
1.247846161E0,-1.344560146E0,1.925264001E-1,-6.037040949E-1
1.299839520E0,-4.952589795E-2,5.533321381E0,-2.723406553E0
1.351832680E0,9.309128523E-1,2.406301975E0,-6.116453409E-1
1.403826700E0,2.280925035E0,-8.025730848E-1,9.649978876E-1
1.455820322E0,3.093375683E0,-2.992201149E-1,1.830593824E0
1.507813882E0,2.552760124E0,9.723142534E-2,2.208719492E0
1.559807141E0,1.222906351E0,-1.764685750E0,4.518710673E-1
1.611800333E0,1.152656913E0,5.504934192E-1,1.420092583E0
1.663793792E0,8.130158186E-1,-6.590197682E-1,-1.363921613E-1
1.715787383E0,5.063614845E-1,1.182128072E0,1.184909463E0
1.767780443E0,2.239997149E0,-5.724925518E0,1.608849883E0
1.819774562E0,-5.109322548E0,-3.787871599E0,-1.601857901E0
1.871768186E0,-7.904031277E0,2.262137890E0,-2.419195652E0
1.923761412E0,7.971333265E-1,4.706209660E0,-2.567326128E-1
1.975754639E0,-1.213835120E0,2.416686773E0,2.037677288E0
2.027748163E0,-9.096241593E-1,-2.238106489E0,-3.880686462E-1
2.079745684E0,2.410428524E0,-1.919234753E0,5.221205354E-1
2.131743739E0,3.757997036E0,2.019624472E0,3.534908056E0
2.183738166E0,3.987071514E0,1.011696696E0,4.616750717E0
2.235731390E0,2.979144096E0,-1.104951382E0,4.939898014E0
2.287724717E0,2.132484913E0,-4.063371658E0,3.756652117E0
2.339718176E0,1.588203907E0,-2.401207447E0,2.221547604E0
2.391711469E0,6.456387043E-1,-1.117883483E-3,-1.192578077E0
2.443704795E0,-6.076322079E0,-7.219388485E-1,-1.981205225E0
2.495698187E0,-7.703056812E0,5.358326435E-1,-2.856575251E0
2.547692304E0,-3.921190023E0,6.194277287E0,-4.430465102E-1
2.599685797E0,-6.683323979E-1,4.663449287E0,1.412762046E0
2.651679055E0,-8.399855494E-1,1.088054776E0,-7.350401282E-1
2.703672381E0,3.725819588E-1,-3.847412765E-1,-8.816477656E-1
2.755665841E0,1.349355459E0,6.549513936E-1,3.107612133E-1
2.807659100E0,2.107439280E0,9.255647063E-1,1.949712634E0
2.859652460E0,3.301680803E0,-1.170924783E0,4.327811241E0
2.911646250E0,3.037176371E0,-3.444241583E-1,5.668660164E0
2.963640235E0,2.319409370E0,-3.743889093E0,5.614293575E0
3.014113351E0,1.257725716E0,-5.619856358E0,3.217257977E0
3.066106643E0,1.320644855E0,-2.688925028E0,1.120157599E0
3.118100168E0,8.486445248E-2,-6.632958651E-1,2.392899692E-1
3.170095823E0,-3.394013166E0,2.711734533E0,-2.352000475E0
3.222090682E0,-5.296858311E0,-1.704210162E0,-4.031269073E0
3.274084075E0,-6.404356956E0,8.498173952E-1,-3.193161964E0
3.326077334E0,-3.551005363E0,4.984153271E0,-2.961032867E0
3.378070727E0,-2.064159393E0,5.135647774E0,7.772038691E-3
3.430064020E0,-1.357999325E0,7.135944963E-1,-1.035585761E0
3.482057312E0,-4.392579198E-1,2.206262052E-1,-8.333894014E-1
3.534050970E0,5.051397681E-1,-1.026760578E0,-5.969845653E-1
3.586045056E0,2.107439280E0,-1.691058129E-1,2.172988057E-1
3.638038348E0,3.351771832E0,1.268870950E0,2.870286703E0
3.690031740E0,3.825192451E0,-1.211345755E-2,4.888585567E0
3.742025167E0,2.418980360E0,-1.541109085E0,5.418816566E0
3.794018426E0,2.385383129E0,-4.479981899E0,3.745656490E0
3.846011685E0,1.932731867E0,-5.184309483E0,3.187325716E0
3.898005044E0,-2.043390036E0,-8.459445238E-1,-3.624123037E-1
3.949998766E0,-3.478312492E0,2.097815275E0,-1.833375812E0
4.001992753E0,-7.428777695E0,-1.437262058E0,-3.675134420E0
4.053986080E0,-7.504525185E0,2.488157988E0,-2.537092447E0
4.105979473E0,-3.488697290E0,5.338455200E0,-2.604287863E0
4.157972665E0,-7.672925591E-1,3.579774141E0,7.896795869E-1
4.209969186E0,-6.540839374E-2,1.904781699E0,-7.924614549E-1
4.261967706E0,2.131461501E-1,8.990103751E-2,-6.293604374E-1
4.313962699E0,1.087905169E0,-9.058093429E-1,5.942026973E-1
4.365956125E0,2.018863678E0,1.522092968E-1,2.344331503E0
4.417949450E0,3.028013229E0,-5.973224044E-1,5.327797413E0
4.469942842E0,2.261377335E0,-2.729852915E0,6.751724243E0
4.521936168E0,4.296169281E0,-1.880426556E-1,5.652777672E0
4.573929394E0,1.843545556E0,-5.364514828E0,4.457314491E0
4.625922720E0,-3.215640306E0,-3.278409958E0,3.803998530E-1
4.677916807E0,-4.339632511E0,5.640833378E0,-1.551766992E0
4.729910462E0,-6.688409328E0,-1.843487382E0,-4.728877068E0
4.781903821E0,-7.577218056E0,-4.754364118E-2,-2.708745718E0
4.833897181E0,-5.557086945E0,9.772115707E0,-2.887118340E0
4.885890473E0,2.415926218E0,5.883347034E0,2.829358578E0
4.937883800E0,-2.211790383E-1,2.184557915E0,-2.310762852E-1
4.989877159E0,4.012926519E-1,2.759278379E-2,1.006235555E-1
5.041870451E0,4.862029254E-1,-1.963827848E0,5.236519873E-2
5.093864503E0,1.299264550E0,-4.158953726E-1,4.976859689E-1
5.145858260E0,2.034746408E0,6.024169922E-1,3.331489801E0
5.197851586E0,2.364002705E0,-1.651064992E0,4.506183624E0
5.249844845E0,2.272372723E0,-3.645539999E0,4.624080658E0
5.301839968E0,1.637073040E0,-3.005353212E0,1.875187159E0
5.353835559E0,5.167461634E-1,-3.704793930E0,-4.143358469E-1
5.405828784E0,8.179027438E-1,2.829344571E-1,2.771635950E-1
5.457822177E0,-1.610286593E0,-8.997007012E-1,-2.231350243E-1
5.509815503E0,-4.696988583E0,-1.978164911E-1,-2.041069984E0
5.561808762E0,-7.989552021E0,1.987248540E0,-2.803429842E0
5.613802222E0,-5.839306831E0,6.924871922E0,-9.873274565E-1
5.665795481E0,-1.980470896E0,3.221807241E0,-2.713933587E-1
5.717789500E0,-1.683590412E0,1.217558265E0,-1.055133581E0
5.769783190E0,-7.611839175E-1,-1.715492904E-1,-7.270988822E-1
5.821776416E0,9.097310901E-2,-2.637899518E-1,9.943193793E-1
5.873769908E0,2.517940760E0,-2.039575100E0,2.436572313E0
5.925763201E0,2.999302387E0,-3.981803060E-1,3.465880156E0
5.977756560E0,3.198444605E0,-5.814398527E-1,5.725470543E0
6.029750054E0,2.314522743E0,-2.361501217E0,6.821362972E0
6.081743146E0,1.243065000E0,-4.198372841E0,5.656442642E0
6.133737364E0,7.264714688E-2,-4.299165726E0,3.417011023E0
6.185730888E0,-6.219066381E-1,-3.704183102E0,6.656739116E-1
6.237724180E0,1.406776905E0,4.971936226E0,5.795419216E-1
6.289717573E0,-1.467344165E0,1.415478587E0,2.487626486E-2
6.341712993E0,-3.957841873E0,4.389170647E0,-2.556029320E0
6.393711652E0,-3.717771769E0,3.865048409E0,-1.677605271E0
6.445708247E0,-4.755021095E0,5.173521519E0,-2.749062777E0
6.497701807E0,-5.054955482E0,8.490519524E0,-1.334909797E0
6.549695266E0,-1.835695982E0,1.864464641E0,-2.242044687E0
6.601688593E0,-1.604788780E0,-3.739613295E0,-4.393813312E-1
6.653681885E0,7.631234080E-2,-5.445759773E0,4.610340595E-1
6.705675178E0,1.404944181E0,-2.604625463E0,1.202013493E0
6.757668868E0,1.940062284E0,-2.364555359E0,2.044396639E0
6.809662887E0,1.972438097E0,-1.307147861E0,5.092924237E-1
6.861656246E0,2.133706570E0,1.173899770E-1,1.080451369E0
6.913649572E0,7.983550429E-1,5.407196283E-1,1.757900953E0
6.965642865E0,4.245055318E-1,-3.665698528E0,8.306075335E-1
7.017636191E0,3.738037050E-1,1.619831324E-1,2.731972747E-2
7.069629617E0,5.295743346E-1,2.772210360E0,7.310364842E-1
7.121622910E0,2.198656797E-1,1.665322542E0,-1.670885563E0
7.173616929E0,-1.317071319E0,8.650890589E-1,1.707810044E0
7.225610586E0,-2.538801670E0,-8.997007012E-1,2.597840548E0
7.277603978E0,-5.555254459E0,3.372690916E0,-1.235949636E0
7.329597338E0,-6.613273144E0,-3.144917488E-1,-2.267700911E0
7.381590730E0,-6.627322674E0,3.869935036E0,-4.751479149E0
7.433585917E0,-1.092272878E0,4.097787857E0,1.727056652E-1
7.485584739E0,-1.854632735E0,-3.102157116E-1,8.299966455E-1
7.537580663E0,9.052564502E-1,-2.180074215E0,5.726692200E0
7.589573889E0,1.765965581E0,-1.346853971E0,4.830553055E0
7.641567182E0,7.922464013E-1,-1.959551930E0,5.442029476E0
7.693560675E0,-6.524499059E-1,-3.107978582E0,4.502518654E0
7.745553934E0,-7.212791592E-2,-4.596046448E0,3.519636154E0
7.797547427E0,7.000057101E-1,-2.747568130E0,4.415775776E0
7.849540952E0,-9.920910001E-1,-4.239911556E0,7.976207733E-1
7.901534539E0,-2.403800488E0,4.888858318E0,1.454300880E0
7.953528395E0,-3.816121101E0,1.095996141E0,-2.181569099E0
8.005521788E0,-4.733029842E0,-3.658044338E-1,-6.397451162E-1
8.057514980E0,-3.839944839E0,8.704321861E0,-1.262827635E0
8.109508306E0,-3.986552477E0,7.298721790E0,-1.348348737E0
8.161501599E0,-4.300949275E-1,3.104234040E-1,-1.996476769E0
8.213495159E0,1.057972789E0,2.218479365E-1,-6.275278330E-1
8.265488351E0,4.074012935E-1,-2.700531483E0,-1.361176968E0
8.317482403E0,1.352409840E0,-3.450350165E-1,5.642702579E-1
8.369475994E0,2.932718277E0,3.006495237E-1,3.901427031E0
8.421469319E0,2.922333479E0,-8.908247948E-2,5.075510025E0
8.473462645E0,3.066497803E0,-1.297984719E0,4.509849072E0
8.525457036E0,1.723815918E0,-2.214893579E0,3.015061617E0
8.577453194E0,6.639647484E-1,-3.234427691E0,-3.190408647E-1
8.629446754E0,-1.800876617E0,8.070568442E-1,-3.448503494E0
8.681440013E0,-2.987176657E0,1.218169212E0,-2.844968796E0
8.733433772E0,-4.563209057E0,-2.274758339E0,-2.013581038E0
8.785426698E0,-4.406827450E0,4.961264431E-1,-1.719143987E0
8.837419990E0,-2.477715254E0,4.544330597E0,-2.097880363E0
8.889413383E0,-1.226312015E-2,1.523601770E0,2.277747393E0
8.941407435E0,-3.372434378E-1,-1.202078938E0,2.276835293E-1
8.993400992E0,-5.807801336E-2,-4.183388352E-1,5.074598193E-1
9.045394318E0,4.049578607E-1,5.202739313E-2,4.805817306E-1
9.097387578E0,1.045144677E0,-7.231605649E-1,2.646709919E0
9.149380971E0,1.489854455E0,-8.202881217E-1,4.999762535E0
9.201374297E0,1.123335361E0,-9.949956536E-1,6.562355995E0
9.253367589E0,3.011107445E-1,-3.949750662E0,5.098112106E0
9.305361147E0,-4.563621581E-1,-4.759147644E0,2.617388487E0
9.357355401E0,-1.232161045E0,-2.891121387E0,1.360537410E-1
9.409348660E0,-9.096241593E-1,-1.906406641E0,-1.129659057E0
9.461342086E0,1.922347188E0,-1.974212646E0,-8.333894014E-1
9.513335312E0,-2.054996490E0,-3.175460696E-1,-2.713632584E0
9.565329867E0,-6.506982327E0,-8.276185393E-1,-2.176071405E0
9.617328688E0,-5.169187546E0,1.207935333E1,-1.987313867E0
9.669325179E0,-6.927670240E-1,1.192969131E1,-1.754574180E0
9.721318672E0,-6.915453076E-1,-1.388392806E0,-3.062436819E0
9.773312031E0,1.471727192E-1,-8.838181496E-1,-1.377059460E0
9.825305423E0,1.615081906E0,-1.071353793E0,5.844288468E-1
9.877298747E0,3.406749725E0,-6.602414846E-1,2.068220377E0
9.929292106E0,4.266848087E0,1.249934077E0,4.221520424E0
9.981285333E0,3.053058624E0,-1.440927267E0,4.680280209E0
1.003327896E1,3.250978947E0,-4.181268692E0,3.145786762E0
1.008527311E1,2.018252850E0,-2.270482063E0,9.368980527E-1
1.013726660E1,1.370735884E0,-2.341342449E0,-4.919157326E-1
1.018925966E1,-1.257817388E0,-1.056692958E0,-2.371548176E0
1.024125299E1,-3.312157154E0,-9.559002519E-1,-2.411865234E0
1.029324638E1,-5.318849564E0,3.873924315E-1,-2.614061594E0
1.034523974E1,-2.812469482E0,6.410523891E0,-1.217012763E0
1.039525815E1,-1.874180436E0,4.249893665E0,-2.290913820E0
1.044725180E1,-1.098381519E0,1.398985267E0,-1.463802338E0
1.049924586E1,-8.405963778E-1,-7.494277954E-1,-1.339796782E0
1.055123918E1,-1.497077942E-1,-2.518493652E0,-1.061853051E0
1.060323244E1,2.051850557E0,-1.607693434E0,1.828761339E0
1.065522637E1,3.502044678E0,1.190680146E0,4.465866566E0
1.070722269E1,3.206996918E0,-7.873014808E-1,4.373014927E0
1.075921648E1,2.859414339E0,-3.833075762E0,3.186104059E0
1.081120987E1,2.106217623E0,-2.790328503E0,1.659551620E0
1.086320317E1,1.390894413E0,-2.585077763E0,-6.110345125E-1
1.091519643E1,1.696326971E0,-1.337691069E0,-2.420718521E-1
1.096718989E1,-6.316804886E-1,-3.448230505E0,-1.716700554E0
1.101918315E1,-3.153332233E0,2.841848850E0,-2.354443789E0
1.107117684E1,-7.959619999E0,-3.407589793E-1,-3.581672192E0
1.112317082E1,-3.659128666E0,8.163706779E0,-7.875745296E-1
1.117516408E1,-7.947815061E-1,4.711096764E0,-3.000128508E0
1.122715754E1,-3.103653491E-1,-7.323235869E-1,-1.622016430E0
1.127915080E1,2.724000812E-1,-4.091758728E-1,1.556014270E-1
1.133114413E1,1.734200597E0,-2.647997141E0,1.866634965E0
1.138313758E1,3.233263969E0,-1.329138875E0,3.464658499E0
1.143513081E1,3.608946085E0,1.415478587E0,4.356521606E0
1.148712467E1,1.247341037E0,-7.738624215E-1,3.288118362E0
1.153911855E1,7.934681177E-1,-2.386546612E0,1.501948476E0
1.159111181E1,1.582706094E0,-9.045875669E-1,2.106705189E0
1.164310517E1,1.026818633E0,-4.306496143E0,6.730042696E-1
1.169509890E1,-3.195283413E-1,-2.188015461E0,-1.406682134E-1
1.174709735E1,-3.169825792E0,-4.843122959E-1,-1.454028487E0
1.179909498E1,-5.453239918E0,2.953637123E0,-2.342837334E0
1.185108954E1,-6.857008457E0,5.937102795E0,-3.460109949E0
1.190308293E1,-4.813053131E0,6.881501198E0,-3.851063728E0
1.195507615E1,-3.372434378E-1,-2.770169973E0,-2.662320137E0
1.200706955E1,-1.061729670E0,-1.707875371E0,-9.073040485E-1
1.205906291E1,1.023153424E0,3.140885830E-1,1.084727407E0
1.211105633E1,2.552149057E0,-1.273550153E0,2.878227711E0
1.216305062E1,3.821527004E0,-7.381084561E-2,4.208081722E0
1.221504391E1,3.115977764E0,1.723965526E0,4.661953926E0
1.226703717E1,1.668227196E0,-6.700153351E-1,4.274665833E0
1.231903056E1,1.141859889E-1,-3.388976574E0,2.143357038E0
1.237102389E1,-4.679685831E-1,-3.313840151E0,8.232771754E-1
1.242301721E1,-5.907524824E-1,-3.003520489E0,-3.019366562E-1
1.247501061E1,1.705489993E0,-4.157444954E0,1.123211980E0
1.252700393E1,-8.937416673E-1,2.437456131E0,-2.848324180E-1
1.257899825E1,-4.740360260E0,-1.257343888E-1,-1.081400633E0
1.263099164E1,-8.849040031E0,1.813151836E0,-3.290289402E0
1.268298493E1,-8.432429314E0,6.788649559E0,-3.132686377E0
1.273497826E1,-2.217898965E-1,1.087443948E0,-2.688587189E0
1.278697195E1,-7.823656499E-2,2.916374445E0,-1.962569654E-1
1.283897047E1,6.144846082E-1,-2.735637724E-1,2.153130770E0
1.289096779E1,3.031067610E0,-2.050570726E0,3.159836769E0
1.294296162E1,4.378025532E0,1.956705213E0,4.333309174E0
1.299495488E1,3.094597340E0,3.759979486E0,5.164696217E0
1.304694824E1,1.018877387E0,-7.402648330E-1,4.129890442E0
1.309894176E1,4.495509863E-1,-3.500764847E0,3.636922359E0
1.315093499E1,8.661611080E-1,-7.084100723E0,2.128085136E0
1.320292825E1,2.491673470E0,-1.784233570E0,1.330295324E0
1.325492191E1,5.179678798E-1,4.118270278E-1,1.177578926E0
1.330691599E1,-1.621893048E0,8.302696943E-1,-2.451261729E-1
1.335890922E1,-4.957217216E0,9.475558400E-1,-4.043486118E0
1.341090264E1,-7.564390182E0,9.750447869E-1,-4.729487896E0
1.346289600E1,-7.983443737E0,4.007990837E0,-5.391055107E0
1.351488933E1,-8.560100555E0,3.040991068E0,-6.355611324E0
1.356688279E1,2.285201073E0,2.016570091E0,-8.682087660E-1
1.361887598E1,1.546054125E0,1.674485445E0,1.999192715E0
1.367087000E1,2.362170219E0,6.659469604E-1,5.594745636E0
1.372286369E1,2.280925035E0,1.515984386E-1,4.633243561E0
1.377485702E1,1.721983314E0,-4.934752882E-1,3.724886894E0
1.382685038E1,1.239399791E0,-2.399374723E0,3.073093653E0
1.387884390E1,1.087294340E0,-4.268622398E0,7.255386710E-1
1.393083999E1,3.509375095E0,-2.782387495E0,2.204443455E0
1.398283435E1,2.221671104E0,1.473223716E-1,2.757887363E0
1.403482761E1,2.648054838E0,-1.007212996E0,3.864775181E0
1.408682124E1,1.362794518E0,-1.733818799E-1,2.914879560E0
1.413881443E1,-2.675635576E0,-6.052635908E-1,-1.951883674E0
1.419080759E1,-6.810582638E0,1.052624583E0,-5.495512962E0
1.424280111E1,-7.764753819E0,2.339107037E0,-5.548658371E0
1.429479470E1,-8.121499062E0,1.631114006E0,-5.741080761E0
1.434678866E1,-5.674983978E0,-3.548088670E-1,-5.359290123E0
1.439878202E1,2.149588823E0,3.273119926E0,-1.391720176E0
1.445077527E1,1.434876561E0,4.786232948E0,4.817725182E0
1.450276867E1,2.221671104E0,2.450608015E-1,4.002830982E0
1.455476209E1,3.518537998E0,1.735571980E0,2.840965033E0
1.460675539E1,2.510610342E0,1.232218981E0,3.014450788E0
1.465874878E1,8.478351235E-1,-2.633336067E0,2.976577044E0
1.471074260E1,1.246730089E0,-5.166594028E0,2.359603167E0
1.476273652E1,2.415315390E0,-2.227110863E0,2.269806147E0
1.481472981E1,1.601032019E0,2.100258589E0,3.134791374E0
1.486672301E1,1.448926568E0,-2.753676653E0,9.075765610E-1
1.491871647E1,-2.590725422E0,-1.004769444E0,-1.992200851E0
1.497071402E1,-6.775152206E0,-2.045360059E-1,-4.050816536E0
1.502271201E1,-7.900366306E0,1.038574696E0,-3.628098011E0
1.507470640E1,-6.593725204E0,2.130801678E0,-3.618324041E0
1.512669960E1,-1.881510735E0,-1.946723580E0,-3.705677748E0
1.517869309E1,3.555800676E0,1.789938927E0,2.914268732E0
1.523068641E1,1.397003055E0,3.258459091E0,3.872716665E0
1.528267967E1,2.134928226E0,1.370885491E0,3.053546190E0
1.533467306E1,1.955944657E0,1.668987632E0,2.285077572E0
1.538666636E1,1.376844525E0,-6.663501859E-1,2.911214590E0
1.543866038E1,1.527117252E0,-3.437234879E0,2.424965858E0
1.549065413E1,1.075687885E0,-2.137313604E0,3.376082897E0
1.554264742E1,1.137385249E0,9.151799679E-1,5.562369823E0
1.559464069E1,1.906464577E0,-3.004742146E0,5.095668316E0
1.564663414E1,5.271309018E-1,-2.222223759E0,1.673601508E0
1.569862744E1,-2.205681652E-1,1.446632743E0,-7.930723429E-1
1.575062093E1,-4.722644806E0,1.218780041E0,-4.449100494E0
1.580261432E1,-7.408619404E0,1.282920957E0,-4.152220249E0
1.585460834E1,-6.786758900E0,1.256042838E0,-3.540744066E0
1.590660173E1,-4.902239323E0,1.729463339E0,-3.609771967E0
1.595859526E1,8.667719960E-1,3.863826513E0,2.537975788E0
1.601058858E1,-7.762569934E-2,3.383686543E0,1.829372168E0
1.606258447E1,1.866147518E0,1.255431890E0,1.999192715E0
1.611457907E1,1.425713658E0,7.050423622E-1,2.202610731E0
1.616657249E1,3.139389455E-1,-1.693825483E0,3.665022135E0
1.621856578E1,3.477350250E-2,-4.224029064E0,4.353467464E0
1.627055908E1,5.039179921E-1,-4.158055782E0,4.349802017E0
1.632255244E1,1.028040409E0,2.698295593E0,5.427979469E0
1.637454573E1,3.334866166E-1,-1.714594841E0,3.938079119E0
1.642653912E1,3.251589775E0,7.074857950E-1,2.567297459E0
1.647853334E1,-5.211138725E-1,2.249022573E-1,1.291810751E0
1.653052700E1,-3.130730152E0,1.694644094E0,-2.114373684E0
1.658252029E1,-4.238839626E0,7.697940469E-1,-3.917037010E0
1.663451362E1,-7.293166161E0,-4.517855644E0,-3.642147779E0
1.668650698E1,-6.521643162E0,3.812837601E-1,-2.483336449E0
1.673850017E1,-9.756785393E0,6.743445396E0,-4.535233021E0
1.679049343E1,1.806893587E0,5.549203396E0,3.597827196E0
1.684248692E1,1.061637998E0,2.847670615E-1,2.673897743E-1
1.689448108E1,4.385554194E-1,-2.943331897E-1,1.390771031E0
1.694647453E1,1.646235943E0,-5.808289647E-1,2.940536022E0
1.699846793E1,-2.810438275E-1,-2.211228371E0,4.318647861E0
1.705046112E1,9.730625153E-1,-2.512995958E0,5.150646687E0
1.710245781E1,3.035542071E-1,-1.848374367E0,5.340625286E0
1.715445606E1,3.539307356E0,3.034882307E0,6.140858650E0
1.720645202E1,9.150303602E-1,-3.054833174E0,3.350426674E0
1.725844555E1,1.532813609E-1,7.783461809E-1,2.010799170E0
1.731043881E1,7.997753471E-2,8.705868125E-1,-2.298545390E-1
1.736243220E1,-1.535760999E0,1.296359897E0,-2.697750330E0
1.741442563E1,-2.612716436E0,-6.718478799E-1,-3.620767593E0
1.746641879E1,-6.455669880E0,-6.107614040E-1,-4.811343670E0
1.751841267E1,-5.331067085E0,2.920039892E0,-3.224926710E0
1.757040670E1,-5.226608753E0,7.982279778E0,-2.042291641E0
1.762239982E1,1.369513988E0,-7.258912176E-2,-1.370030195E-1
1.767439315E1,2.858391106E-1,-3.144917488E-1,2.056923807E-1
1.772439822E1,8.808218241E-1,-1.274160981E0,1.756679177E0
1.777639151E1,4.434423447E-1,-2.886234283E0,1.550206780E0
1.782838487E1,8.960934877E-1,-4.161721230E0,3.751765251E0
1.788037829E1,2.154475927E0,-4.097579956E0,3.269792557E0
1.793237225E1,3.219825029E0,2.312228680E0,2.530645609E0
1.798436584E1,1.789789319E0,1.447243690E0,3.542238235E0
1.803635923E1,2.564977407E0,-2.626616716E0,1.330295324E0
1.808835255E1,-2.513145447E0,-1.202078938E0,-1.399661541E0
1.814034581E1,-1.313406110E0,2.349491596E0,-3.052052021E0
1.819234207E1,-5.377492905E0,-5.442705631E0,-4.389846802E0
1.824434076E1,-5.949873447E0,-2.561865091E0,-1.782063127E0
1.829633588E1,-7.056150436E0,3.424003601E0,3.406935930E-1
1.834832927E1,7.631234080E-2,3.956677914E0,1.574340165E-1
1.840032260E1,5.723348856E-1,4.223626137E0,1.796996355E0
1.845231589E1,9.742842317E-1,1.061176777E0,2.997656167E-1
1.850430932E1,1.579040885E0,-9.760588408E-1,1.757599860E-1
1.855630254E1,1.127000570E0,-1.282713175E0,1.542876363E0
1.860829603E1,5.393481851E-1,-1.360903978E0,3.062709332E0
1.866029025E1,7.024492025E-1,1.540418863E-1,3.313163757E0
1.871228361E1,-2.407267094E-1,9.695469737E-1,2.688248873E0
1.876427690E1,1.260779977E0,3.208081126E-1,7.353125811E-1
1.881627046E1,6.602994800E-1,-2.503832817E0,2.503767252E0
1.886826356E1,-2.499095440E0,-4.975393772E0,-2.882231474E0
1.892025695E1,-6.147182465E0,-1.245450497E0,-2.868792534E0
1.897225021E1,-6.678635597E0,-2.542928219E0,-3.033115149E0
1.902424370E1,-5.352447033E0,1.924940228E0,-5.612799168E0
1.907623785E1,4.519944787E-1,2.209603548E0,3.037405200E-2
1.912823131E1,1.201526165E0,-2.489172220E0,4.244122505E0
1.918022463E1,2.134317398E0,-2.173965693E0,2.958251238E0
1.923221793E1,1.087294340E0,2.856509686E0,3.282009840E0
1.928421292E1,8.288983107E-1,-1.861202478E0,2.344942331E0
1.933620871E1,2.276648998E0,-3.144019604E0,2.489106655E0
1.938820197E1,2.215562582E0,6.903815866E-1,6.145746231E0
1.944019529E1,9.559583068E-1,-3.021846533E0,6.292964458E0
1.949218865E1,4.863052368E0,-3.393863440E0,5.181190014E0
1.954418195E1,3.927405477E-1,-2.452520132E0,1.200181007E0
1.959617531E1,-5.134367943E0,-7.989078760E-1,-3.055717230E0
1.964816896E1,-7.429389000E0,2.230983734E0,-5.651283741E0
1.970016301E1,-6.576621056E0,-1.290654421E0,-5.753297806E0
1.975215634E1,-8.460941911E-1,3.651856184E0,-3.180333853E0
1.980414960E1,3.104982138E0,5.868075371E0,3.449386835E0
1.985614296E1,1.379287958E0,1.593851328E0,3.139678240E0
1.990813628E1,5.126686394E-2,5.840910077E-1,2.319896936E0
1.996012971E1,3.133280575E-1,4.643614292E-1,1.464074850E0
2.001212310E1,9.158396721E-2,-1.804392099E0,1.071288466E0
2.006411653E1,1.958388209E0,-5.905130386E0,9.662196040E-1
2.011611071E1,2.418369532E0,-2.314140797E-1,-1.828179210E-1
2.016810407E1,3.185616493E0,3.447827339E0,2.952142477E0
2.022009733E1,1.571710467E0,-2.657770634E0,1.146734506E-1
2.027209079E1,-7.617948055E-1,-5.340080261E0,-2.519377470E0
2.032408591E1,-1.969475389E0,-2.774446011E0,-2.444241047E0
2.037608484E1,-3.525349140E0,3.190042257E0,-3.584115744E0
2.042808069E1,-6.301120758E0,2.571846485E0,-3.251194000E0
2.048007398E1,-7.150834560E0,9.793208838E-1,-3.396579981E0
2.053206734E1,-5.778220177E0,-3.191056252E0,-5.497345924E0
2.058406071E1,3.423242807E0,3.913917542E0,3.812851667E0
2.063605396E1,8.154593110E-1,3.439275265E0,3.785362720E0
2.068804732E1,3.614443779E0,2.400804281E0,2.516595602E0
2.074004072E1,2.239386320E0,1.178462863E0,1.583193541E0
2.079203444E1,1.474582911E0,-2.587521315E0,2.109759331E0
2.084402839E1,2.728078365E0,-1.924121737E0,3.701673985E0
2.089602165E1,1.794065475E0,-2.043851376E0,5.023586273E0
2.094801498E1,6.028781533E-1,-6.468024254E-1,3.313163757E0
2.100000833E1,4.593248665E-1,-3.924094439E0,2.143967867E0
2.105200173E1,2.461328804E-1,-5.726147175E0,-2.259759665E0
2.110399505E1,-4.745857716E0,3.178435802E0,-2.063060999E0
2.115598831E1,-5.822813511E0,-9.723936319E-1,-3.070988655E0
2.120798230E1,-6.164897919E0,8.803606629E-1,-3.988508224E0
2.125997612E1,-6.900990486E0,2.646982908E0,-6.072169781E0
2.131196945E1,1.529560804E0,5.388546467E0,2.075550795E0
2.136396274E1,1.624855757E0,4.548606396E0,4.030319691E0
2.141595716E1,1.845378041E0,2.369650126E0,1.168416023E0
2.146795325E1,2.117824078E0,7.209248543E-1,1.446359754E0
2.151994678E1,3.041452169E0,-1.371899486E0,1.094501376E0
2.157194031E1,4.049379826E0,-5.759420991E-1,2.136026621E0
2.162393343E1,4.543570042E0,-2.381336093E-1,1.495839715E0
2.167592676E1,4.809296608E0,-5.406053543E0,5.606051087E-1
2.172792008E1,-1.234604478E0,-1.181309581E0,-1.299479604E0
2.177991341E1,-6.852731705E0,6.119037420E-2,-2.827864408E0
2.183190723E1,-7.271174908E0,-4.250583351E-1,-3.399023533E0
2.188390105E1,-4.299315453E0,-2.090888023E0,-3.862059355E0
2.193589461E1,-7.090618461E-2,-7.573691010E-1,6.449044943E-1
2.198788774E1,7.916355729E-1,5.838142872E0,1.724303365E0
2.203988120E1,5.735566616E-1,5.499112606E0,3.318050861E0
2.209187439E1,1.116615891E0,2.202272892E0,2.710239887E0
2.214386775E1,1.221073866E0,-3.621392548E-1,1.349232197E0
2.219586114E1,1.035981655E0,-1.797672629E0,1.712086082E0
2.224785503E1,1.203358769E0,-2.819650173E0,1.127488017E0
2.229984882E1,7.592597008E-1,2.185779810E0,2.382205248E0
2.235184218E1,2.620153725E-1,-7.915775180E-1,3.639976740E0
2.240383554E1,4.648226202E-1,-3.473886728E0,2.311344862E0
2.245582993E1,1.306793541E-1,-1.777513981E0,9.515588284E-1
2.250782878E1,1.318812251E0,-5.308314800E0,-7.979592085E-1
2.255982564E1,-4.142323017E0,-4.366971493E0,-2.479671240E0
2.261181980E1,-6.729337215E0,2.378813267E0,-1.810163021E0
2.266381326E1,-6.548521519E0,2.979904652E0,-4.683672905E0
2.271580645E1,-2.095924616E0,2.650648117E0,-1.644618392E0
2.276780001E1,-1.356578916E-1,2.488157988E0,2.506821871E0
2.281979327E1,4.226729572E-1,1.138756752E0,1.015699744E0
2.287178690E1,1.417772412E0,1.458850145E0,2.107926846E0
2.292378095E1,1.980990291E0,1.965257287E0,1.910006523E0
2.297577438E1,2.078728437E0,-2.696866274E0,1.931386709E0
2.302776744E1,3.739060402E0,-3.457393646E0,1.416427255E0
2.307976066E1,4.571670055E0,1.103326559E0,3.206873178E0
2.313175435E1,3.487383842E0,2.463723421E0,4.123782158E0
2.318374748E1,1.494741440E0,-4.164775372E0,2.735285282E0
2.323574077E1,-6.451194882E-1,-3.111643791E0,-6.770078540E-1
2.328773450E1,-6.067770481E0,-2.156861305E0,-3.409408092E0
2.333972871E1,-8.040254593E0,5.358326435E-1,-3.779592514E0
2.339172181E1,-6.181391239E0,1.763060927E0,-3.112527609E0
2.344371523E1,-6.408434510E-1,1.566362262E0,-3.329995632E0
2.349570846E1,1.166095972E0,7.448383808E0,3.653415680E0
2.354770295E1,8.181012422E-2,1.754508734E0,3.990613461E0
2.359970163E1,9.828363657E-1,-8.202881217E-1,1.743240237E0
2.365169822E1,9.700081944E-1,-2.283597589E-1,1.681542873E0
2.370369178E1,7.965224385E-1,-1.624186873E0,1.385273218E0
2.375568524E1,1.276662588E0,-1.953443289E0,1.849530816E0
2.380767850E1,2.122100115E0,-6.400829554E-1,2.921599388E0
2.385967196E1,1.710376859E0,1.296970725E0,4.244122505E0
2.391166522E1,1.899745107E0,-7.060564160E-1,3.263683796E0
2.396365855E1,1.217408538E0,-4.639417648E0,1.140316129E0
2.401565234E1,-1.516824245E0,-1.933284640E0,-6.739535332E-1
2.406764632E1,-4.532666206E0,-1.263165474E0,-3.204768419E0
2.411963955E1,-6.939475060E0,-1.383505940E0,-3.718505859E0
2.417163281E1,-6.326166630E0,7.905634642E-1,-3.076486588E0
2.422362637E1,-6.021344662E0,2.380645752E0,-4.061812401E0
2.427561959E1,1.420215845E0,3.625589132E0,2.358381510E0
2.432761292E1,4.098447561E-1,3.089860439E0,1.559980631E0
2.437960621E1,1.563769221E0,2.475940704E0,1.749959707E0
2.443160023E1,2.079339504E0,6.213538051E-1,5.880939960E-1
2.448359389E1,1.806893587E0,-1.637625813E0,1.705366611E0
2.453558725E1,2.996248245E0,-2.569806099E0,1.282037020E0
2.458758051E1,3.749444962E0,1.417922139E0,3.160447598E0
2.463957447E1,2.768395424E0,3.328097582E0,4.399282455E0
2.469157086E1,1.878364921E0,-5.005326271E0,3.379137278E0
2.474356458E1,2.717892230E-1,-3.519701719E0,1.081673145E0
2.479555791E1,-4.246170044E0,-1.786066175E0,-1.863919020E0
2.484755127E1,-6.706735134E0,5.614889860E-1,-2.844968796E0
2.489954459E1,-5.926660538E0,-2.075903267E-1,-2.020300627E0
2.495153795E1,-2.497873783E0,5.519271374E0,-3.110695124E0
2.500352185E1,6.810688972E-1,8.067801476E0,8.018968701E-1
2.505551580E1,-2.150703818E-1,5.754454613E0,5.233423114E-1
2.510750956E1,6.505256891E-1,5.358326435E-1,1.387716651E0
2.515950285E1,9.736734033E-1,-1.651675820E0,8.996353149E-1
2.521149627E1,9.364106059E-1,-1.776292205E0,1.635727882E0
2.526348950E1,4.454734921E-2,-3.820858240E0,1.881295800E0
2.531548296E1,5.063614845E-1,-4.440275192E0,2.005912304E0
2.536747639E1,5.350721478E-1,-7.249932289E-1,2.643044710E0
2.541946974E1,9.028130174E-1,1.285364389E0,9.552240372E-1
2.547146393E1,1.855152011E0,-5.130553246E0,1.421623975E-1
2.552345729E1,-3.319487572E0,-1.924732566E0,-1.621405482E0
2.557545058E1,-7.419004440E0,-5.606704950E-1,-3.119858027E0
2.562744394E1,-7.420226097E0,-6.724588275E-1,-2.981802464E0
2.567943770E1,-6.486823559E0,3.140562057E0,-3.036169529E0
2.573143615E1,2.708530664E0,2.809473038E0,2.841575861E0
2.578343338E1,6.144846082E-1,1.668987632E0,3.412123919E0
2.583542724E1,4.379445910E-1,1.957926989E0,2.728565931E0
2.588742066E1,1.474582911E0,1.401428699E0,1.579528332E0
2.593941396E1,8.991478086E-1,-6.657392383E-1,2.517206430E0
2.599140731E1,1.282771230E0,-2.938768864E0,1.850752473E0
2.604340064E1,7.403228879E-1,-1.492850780E0,2.674809933E0
2.609539390E1,-2.865416408E-1,6.971010566E-1,3.443278074E0
2.614738736E1,-3.225826621E-1,-2.410370350E0,4.188533783E0
2.619938178E1,-4.826293588E-1,-1.779346585E0,1.510500431E0
2.625137494E1,2.363590449E-1,-3.972352743E0,2.783853412E-1
2.630336846E1,-2.213821650E0,-1.133661985E0,-1.915842652E0
2.635536165E1,-6.675580978E0,2.919429064E0,-2.924991846E0
2.640735521E1,-8.710984230E0,2.634154797E0,-4.744148731E0
2.645934837E1,-3.236409903E0,-1.006602049E0,-3.991562843E0
2.651134163E1,-6.671106815E-1,7.730603695E0,1.738353252E0
2.656333545E1,3.878535926E-1,2.742888927E0,4.316815376E0
2.661532937E1,-8.405963778E-1,-2.169078588E0,-5.939302444E-1
2.666732263E1,3.560886085E-1,2.413956076E-1,3.464047670E0
2.671931599E1,8.303186297E-2,-2.420755148E0,2.727344036E0
2.677130975E1,9.241933227E-1,-4.701725960E0,2.988183498E0
2.682330584E1,2.376219988E0,-3.690743923E0,3.821403742E0
2.687530000E1,1.998094320E0,3.012604117E-1,4.550166130E0
2.692729332E1,1.144715667E0,3.247970715E-2,5.196461201E0
2.697928668E1,1.764133096E0,-2.986416340E0,1.994916677E0
2.703128001E1,-1.796600461E0,-1.487353086E0,6.748369336E-1
2.708327340E1,-7.569887638E0,3.475316048E0,-3.902376413E0
2.713526666E1,-7.911361694E0,1.956094384E0,-3.508979321E0
2.718726038E1,-9.605291367E0,2.308563709E0,-4.076472759E0
2.723925437E1,1.094975974E-2,7.923960686E-1,2.776213408E0
2.729124773E1,6.896210313E-1,-1.480022550E0,1.655886531E0
2.734324102E1,1.538112879E0,-1.202689767E0,1.740796804E0
2.739523441E1,2.391491652E0,2.543746710E0,3.042550564E0
2.744722771E1,1.699992180E0,7.147123106E-4,2.721846342E0
2.749922103E1,1.853319287E0,-2.178852558E0,2.785987139E0
2.755121442E1,2.280925035E0,-3.450673819E0,2.219104290E0
2.760320802E1,1.615692735E0,8.775182724E0,3.694954634E0
2.765520204E1,-1.460426003E-1,-1.995592952E0,5.948436737E0
2.770719536E1,-8.699179292E-1,-2.657159805E0,3.501921177E0
2.775918876E1,-5.180595517E-1,-6.541327834E-1,3.495812416E0
2.781118221E1,-5.648716927E0,4.667114258E0,-2.056952477E0
2.786317990E1,-6.914429665E0,3.522963524E0,-4.880982399E0
2.791517779E1,-6.869225502E0,3.645747662E0,-5.503454208E0
2.796717312E1,-7.475814342E0,-1.998647213E0,-4.656795025E0
2.801916635E1,-3.800039887E-1,-1.258889437E0,-1.683102846E0
2.807115974E1,6.898195297E-2,1.235273361E0,3.150062799E0
2.812315310E1,1.628520846E0,-2.382881641E0,4.627135277E0
2.817514636E1,2.652941942E0,-9.125288129E-1,4.498242855E0
2.822713978E1,2.606516123E0,-1.275993705E0,3.137234688E0
2.827913374E1,1.618136287E0,-4.928644001E-1,2.731009245E0
2.833112736E1,1.440374374E0,-7.176628709E-1,1.851974249E0
2.838312082E1,1.564380169E0,-1.932673812E0,1.836702585E0
2.843511408E1,1.795287132E0,1.881568789E0,3.643031120E0
2.848710741E1,2.650696933E-1,-2.909447193E0,4.595981121E0
2.853910080E1,-6.915453076E-1,-2.977253437E0,3.641809225E0
2.859109406E1,-2.028530687E-1,1.716635108E0,1.882517457E0
2.864308765E1,-4.767238140E0,1.760006547E0,-2.295189857E0
2.869508180E1,-8.961438179E0,4.246228218E0,-5.336688042E0
2.874707509E1,-8.298039436E0,8.510066986E0,-6.401426315E0
2.879906845E1,-4.664612770E0,3.446318507E-1,-6.090495586E0
2.885106181E1,-1.778075993E-1,-2.089055061E0,-2.351389647E0
2.890305530E1,1.943727374E0,1.282309890E0,3.316218376E0
2.895505289E1,2.896066427E0,-2.753676653E0,3.917920351E0
2.900705071E1,3.164236069E0,7.374182343E-1,5.007704258E0
2.905904507E1,2.622398615E0,-4.389573574E0,3.020559311E0
2.911103836E1,2.307192087E0,-3.809251785E0,6.644521356E-1
2.916303182E1,1.053085804E0,-5.099686384E-1,-2.481804937E-1
2.921502512E1,2.657828808E0,-7.659211159E-1,1.417038202E0
2.926701844E1,1.785513282E0,8.394326568E-1,1.282647848E0
2.931901180E1,4.605465829E-1,-1.313867331E0,1.181854963E0
2.937100523E1,-1.344560146E0,1.061176777E0,7.169865966E-1
2.942299941E1,-4.106893063E0,1.322627068E0,-2.400869608E0
2.947499281E1,-5.100770473E0,2.437456131E0,-3.741718769E0
2.952698610E1,-5.770278931E0,2.117362738E0,-4.852272034E0
2.957897956E1,-7.053095818E0,-4.806470871E-1,-6.647604942E0
2.963097292E1,1.121502757E0,7.401853800E-2,-2.444851875E0
2.968296624E1,1.778182864E0,1.157693505E0,2.153130770E0
2.973495950E1,2.726245880E0,3.867815435E-1,4.222742081E0
2.978695323E1,2.379274368E0,9.112276882E-2,3.911811829E0
2.983894715E1,3.288852692E0,1.026357412E0,2.614333868E0
2.989094054E1,2.072009087E0,1.025135756E0,2.075550795E0
2.994293386E1,1.549108386E0,-2.616231918E0,1.701090455E0
2.999492719E1,1.177091599E0,-3.365152836E0,1.582582593E0
3.004692301E1,9.620669484E-1,-2.546593189E0,2.552025795E0
3.009891791E1,1.561325788E0,-1.230178714E0,3.356535435E0
3.015091113E1,1.624244928E0,-1.349297523E0,1.043188572E0
3.020290446E1,-2.745274067E0,-6.028201580E-1,-2.276864052E0
3.025489792E1,-6.236979961E0,2.290237665E0,-4.534011364E0
3.030689131E1,-6.682911396E0,2.139066756E-1,-6.634166241E0
3.035888457E1,-7.204590321E0,5.256598949E0,-7.637206554E0
3.041087816E1,-1.157024503E0,9.200956345E0,1.409406513E-1
3.046287218E1,1.964496851E0,2.595059395E0,4.850711823E0
3.051486550E1,1.607751489E0,-2.657159805E0,4.461590290E0
3.056685890E1,2.380496025E0,-1.158096671E0,3.393798113E0
3.061885222E1,1.966940284E0,1.274979591E0,3.553844690E0
3.067084568E1,1.249784470E0,-1.969936490E0,2.343720675E0
3.072283887E1,1.262001872E0,-4.665074348E0,-2.573434711E-1
3.077483220E1,1.004827499E0,-4.079541266E-1,4.549253881E-1
3.082682592E1,2.925387859E0,1.876394749E-1,1.919780254E0
3.087881984E1,1.987709761E0,-4.745384455E-1,7.066018581E-1
3.093081320E1,-2.684798479E0,-1.842876554E0,-1.067961693E0
3.098280659E1,-6.734224319E0,6.244081259E-1,-3.590835094E0
3.103479992E1,-6.718341827E0,1.576747060E0,-3.797307730E0
3.108679651E1,-7.608372688E0,-4.665971994E-1,-5.117998123E0
3.113879489E1,-6.005263925E-1,2.092317343E0,-1.060631275E0
3.119078982E1,2.167304039E0,1.548647165E0,1.235000372E0
3.124278331E1,2.536877394E0,1.767947912E0,3.244136095E0
3.129477661E1,2.330404997E0,1.857745171E0,4.274665833E0
3.134676993E1,1.774517655E0,6.677795649E-1,3.397463322E0
3.139876342E1,1.020709991E0,1.210551709E-1,2.565464735E0
3.145075655E1,8.850979209E-1,-3.189223528E0,2.398087740E0
3.150275024E1,1.062447354E-1,-4.574055195E0,1.723081708E0
3.155474413E1,5.081940889E-1,-3.200829983E0,2.134193897E0
3.160673752E1,-2.814561687E-2,-2.326358259E-1,3.067595959E0
3.165873101E1,-6.182414293E-1,-3.759771824E0,2.431074381E0
3.171072434E1,-2.715952635E0,-1.998647213E0,-1.728917837E0
3.176271760E1,-5.789826870E0,2.041615486E0,-1.970209599E0
3.181471099E1,-7.718327999E0,4.814943790E0,-3.669025898E0
3.186670438E1,-6.265690327E0,3.486311674E0,-4.425887585E0
3.191869767E1,2.582081556E0,2.981126308E0,-7.038859725E-1
3.197069163E1,8.111832142E-1,1.050792098E0,1.021808386E0
3.202268525E1,3.229598522E0,1.745345831E0,3.741991282E0
3.207467858E1,4.136122704E0,1.888899207E0,3.957015753E0
3.212667203E1,3.369486809E0,9.023517966E-1,2.987572670E0
3.217866749E1,2.126376152E0,-1.864867806E0,1.567921877E0
3.223066325E1,2.294363976E0,-4.198983669E0,-5.652195215E-1
3.228259810E1,3.276024342E0,-4.143498838E-2,1.635727882E0
3.233459146E1,3.076882362E0,-3.297633827E-1,1.837924361E0
3.238658482E1,-8.556694537E-2,-3.875836134E0,1.800360382E-1
3.243857818E1,-4.813053131E0,1.678761601E0,-2.555418491E0
3.249057171E1,-6.449561119E0,7.479537964E0,-3.987286568E0
3.254256480E1,-5.852134705E0,1.204942131E1,-4.551115036E0
3.259455889E1,1.050642490E0,-1.214583367E-1,-4.285999775E0
3.264655258E1,1.929876059E-1,-5.373066902E0,-3.343434811E0
3.269854587E1,6.987839937E-1,-3.057276726E0,-1.632702351E-1
3.275053920E1,2.629729033E0,-4.201714396E-1,2.056003094E0
3.280253259E1,3.006632805E0,1.504664898E0,2.557523727E0
3.285452591E1,2.728078365E0,4.288377762E0,3.732217550E0
3.290651931E1,2.628507376E0,8.565369248E-1,2.812254429E0
3.295851280E1,2.577805519E0,1.036131382E0,3.354702711E0
3.301050695E1,1.941894770E0,-3.938755274E0,2.546528101E0
3.306250024E1,-4.997335672E-1,-4.731657982E0,-1.315052360E-1
3.311449360E1,6.945080161E-1,-1.148933768E0,1.657108188E0
3.316648689E1,-1.187567830E0,-2.603403807E0,5.239531994E-1
3.321848251E1,-5.191178799E0,3.664073467E0,-1.260995150E0
3.327048114E1,-5.591906071E0,4.699490070E0,-3.570065737E0
3.332247766E1,-3.942569971E0,3.161331654E0,-2.125980139E0
3.337447122E1,-2.039113998E0,9.909272194E-1,-1.590862274E0
3.342646458E1,-5.583766699E-1,-1.600973964E0,-2.178514719E0
3.347845794E1,1.853930235E0,3.379123211E-1,1.431698918E0
3.353045117E1,3.614443779E0,2.833296776E0,3.410291433E0
3.358244470E1,3.457451344E0,-6.159354374E-2,3.666854620E0
3.363443818E1,3.223490000E0,2.713280022E-1,3.206873178E0
3.368643227E1,2.017031193E0,-1.342578053E0,1.420703411E0
3.373842560E1,2.193571329E0,-1.442759871E0,2.426539920E-2
3.379041892E1,-2.101834565E-1,1.606679440E0,1.944214821E0
3.384241225E1,1.052474976E0,-3.506873608E0,3.457938910E0
3.389440561E1,6.902319193E-1,-2.269260406E0,2.575238705E0
3.394639903E1,-1.149694204E0,-2.552701950E0,4.243821502E-1
3.399839229E1,-6.218653679E0,-1.429320812E0,-2.626889706E0
3.405038605E1,-8.148377419E0,7.164331436E0,-5.094785213E0
3.410237993E1,-7.569887638E0,6.529031754E0,-6.024522305E0
3.415437326E1,3.338332653E0,1.077059269E0,-3.281737328E0
3.420636652E1,-2.028118372E0,1.914555550E0,1.302806377E0
3.425835998E1,2.628507376E0,-1.384727716E0,2.618610144E0
3.431035537E1,2.196014643E0,-5.606704950E-1,4.442653656E0
3.436235432E1,1.406165957E0,-9.278004766E-1,3.864775181E0
3.441434998E1,1.328586102E0,6.861055493E-1,3.395019770E0
3.446634324E1,1.282160282E0,-2.058511972E0,2.668700933E0
3.451833660E1,1.110507250E0,-4.263735294E0,1.406042576E0
3.457033002E1,6.822906733E-1,-4.066425800E0,2.469559193E0
3.462232325E1,2.347509384E0,-1.107394934E0,3.288118362E0
3.467431681E1,1.834993362E0,1.394098401E0,4.612473965E0
3.472631000E1,9.402743727E-2,-1.122953594E-1,2.486663103E0
3.477830435E1,-3.499082088E0,5.691431463E-2,-1.713035345E0
3.483029768E1,-7.081806660E0,9.328950644E-1,-5.017816544E0
3.488229104E1,-7.400067329E0,1.337287784E0,-5.366009712E0
3.493428433E1,-8.989539146E0,2.128358364E0,-6.015970230E0
3.498627759E1,-2.086761475E0,2.731893301E0,-3.386806250E0
3.503827101E1,3.475166559E0,5.051348686E0,1.796996355E0
3.509026434E1,1.567434430E0,3.887650251E0,4.696773529E0
3.514225757E1,2.970591784E0,-1.509344101E0,4.424938679E0
3.519425188E1,2.197847366E0,-3.358720541E-1,2.964359760E0
3.524624531E1,1.309038401E0,-1.301039219E0,1.793331146E0
3.529823860E1,2.128819466E0,-2.236274004E0,5.966461301E-1
3.535023199E1,3.752499342E0,-1.613191247E0,1.563645840E0
3.540222648E1,3.946754694E0,-2.599127769E0,2.260032177E0
3.545422264E1,3.972410917E0,-4.617102742E-1,3.485428095E0
3.550621603E1,1.935175300E0,-1.208187580E0,-1.107056975E0
3.555820946E1,-4.769070625E0,5.202739313E-2,-3.706899405E0
3.561020262E1,-7.384795666E0,4.025705814E0,-4.708718777E0
3.566219608E1,-7.667015553E0,2.337885141E0,-5.603025436E0
3.571418937E1,-6.922370434E0,-3.097593784E0,-6.372715473E0
3.576618270E1,-1.898263767E-2,9.417709708E-2,-1.016649008E0
3.581817682E1,6.719059348E-1,2.824744701E0,1.638782263E0
3.587017037E1,1.558271527E0,2.375148058E0,3.375472069E0
3.592216370E1,3.153851509E0,1.465569615E0,3.619207382E0
3.597415706E1,2.337124586E0,9.316733479E-1,3.345539808E0
3.602615035E1,1.023153424E0,-2.741459370E0,3.379137278E0
3.607814364E1,6.657972932E-1,-6.050516605E0,3.366309166E0
3.613013704E1,1.357296705E0,-6.097553253E0,1.980866790E0
3.618213049E1,4.601602077E0,1.488782525E0,4.193420887E0
3.623412468E1,2.691426516E0,4.361070633E0,4.581931114E0
3.628611804E1,-1.981081843E0,-3.994343996E0,-2.121394575E-1
3.633811143E1,-7.075087070E0,1.736793756E0,-2.637274504E0
3.639010469E1,-8.009711266E0,2.686078310E0,-4.213306427E0
3.644209958E1,-8.324916840E0,5.440469742E0,-4.665347099E0
3.649409820E1,-1.134422660E0,3.887039423E0,-2.290913820E0
3.654609452E1,2.904618502E0,2.328111410E0,6.125286222E-1
3.659808808E1,1.334694743E0,1.565140605E0,3.381580830E0
3.665008141E1,2.026805162E0,1.034298658E0,3.446943283E0
3.670207463E1,2.578416586E0,5.614889860E-1,3.062709332E0
3.675406806E1,1.425102830E0,-4.989730418E-1,2.826304197E0
3.680606135E1,7.604814172E-1,-3.624770403E0,1.892291307E0
3.685805474E1,3.408169746E-1,-5.472637653E0,1.219728589E0
3.691004827E1,1.119059324E0,2.071871608E-1,1.711475253E0
3.696204245E1,3.786906302E-1,2.618883133E0,3.687624216E0
3.701403574E1,1.827052116E0,-4.360252380E0,8.324401379E-1
3.706602900E1,1.343246818E0,-4.910317957E-1,-6.574602127E-1
3.711802246E1,-2.892492771E0,-6.932281852E-1,-4.480254650E0
3.717001579E1,-6.558294773E0,5.155806541E0,-5.610355377E0
3.722200905E1,-6.804473400E0,-1.907628298E0,-5.609133720E0
3.727400251E1,-3.120956182E0,-3.024900913E0,-3.876109123E0
3.732599630E1,-4.936249256E-1,5.568751335E0,2.896553755E0
3.737799055E1,-1.095938087E0,4.642068863E0,2.497047901E0
3.742998348E1,6.847341061E-1,-3.105027974E-2,1.836702585E0
3.748197667E1,8.869305253E-1,-8.080708385E-1,3.605157375E0
3.753397086E1,1.823997855E0,-1.808668137E0,3.684570074E0
3.758596712E1,2.441582441E0,-4.406067371E0,2.799426317E0
3.763796081E1,1.938840508E0,-1.232011318E0,4.172651291E0
3.768995407E1,1.966940284E0,2.463723421E0,5.156755447E0
3.774194750E1,5.796653032E-1,-8.129577637E-1,4.050478458E0
3.779394079E1,-2.327854782E-1,-7.304909825E-1,1.784779072E0
3.784593418E1,8.631067276E-1,3.146670580E0,8.648159504E-1
3.789792744E1,-2.160065413E0,-4.232257605E-1,-2.713933587E-1
3.794992123E1,-1.455126882E0,-6.303091049E-1,-4.147333622E0
3.800191508E1,-6.302342892E0,3.320767403E0,-4.166881084E0
3.805390861E1,-5.668875694E0,4.714047164E-2,-3.425901651E0
3.810590177E1,-4.958438873E0,-3.746332645E0,-1.953105330E0
3.815789506E1,-9.499412775E-1,7.707286626E-2,-8.798151612E-1
3.820988855E1,1.366459727E0,6.977406502E0,2.503156424E0
3.826188185E1,1.634629607E0,3.525407314E0,2.133583069E0
3.831387510E1,2.577393055E-1,-1.905184865E0,2.619831800E0
3.836586903E1,-4.526969492E-1,-2.247880459E0,4.197696686E0
3.841786281E1,-1.651214600E0,-3.772599936E0,5.269154072E0
3.846985614E1,-8.980177045E-1,-4.894148350E0,5.283204079E0
3.852184947E1,-5.479919314E-1,-2.343175411E0,4.124392986E0
3.857384342E1,3.334866166E-1,1.011085868E0,1.891680479E0
3.862584208E1,1.582095265E0,2.574900866E0,1.922223806E0
3.867783944E1,1.815445662E0,5.147254467E0,1.154976964E0
3.872983380E1,-7.471340299E-1,8.718085289E-1,-2.884976268E-1
3.878182719E1,-3.254735947E0,-2.539263010E0,-1.737469912E0
3.883382062E1,-4.844817638E0,1.047126889E0,-3.584726572E0
3.888581401E1,-5.480729103E0,-1.746970654E0,-2.819312334E0
3.893780733E1,-5.590684414E0,-1.410384059E0,-2.987300396E0
3.898980053E1,-1.402592421E0,4.912071228E0,1.136651039E0
3.904179471E1,1.357296705E0,5.590131760E0,2.833634853E0
3.909378817E1,4.000709355E-1,-4.922535419E-1,-1.455551386E-1
3.914578156E1,6.419735551E-1,5.601634271E-3,1.484844208E0
3.919777496E1,1.365238070E0,-1.936949849E0,2.580736637E0
3.924976818E1,1.315757990E0,-2.850193262E0,3.563618660E0
3.930176177E1,1.018266559E0,8.266045451E-1,6.426743984E0
3.935375503E1,-6.420651674E-1,-4.824796915E-1,7.219646931E0
3.940574836E1,2.322463751E0,-4.581385136E0,5.273430824E0
3.945774261E1,1.733589768E0,-2.643720865E0,4.523288250E0
3.950973590E1,-1.640218973E0,-1.264387250E0,4.622557759E-1
3.955976929E1,-2.584005833E0,3.110629559E0,-2.841303349E0
3.961176272E1,-6.168562889E0,7.435268760E-1,-6.185790539E0
3.966375634E1,-6.308451176E0,9.723142534E-2,-2.093604565E0
3.971575483E1,-5.798378944E0,1.487560630E0,-3.295787096E0
3.976775209E1,-8.220458984E0,1.321405411E0,-4.304325581E0
3.981974598E1,2.230834007E0,3.952402115E0,1.355340838E0
3.987173931E1,3.203942299E0,3.975614786E0,1.814711452E0
3.992373263E1,1.373179197E0,1.452130437E0,5.114347115E-2
3.997572599E1,2.051850557E0,-4.714841247E-1,3.406935930E-1
4.002771939E1,2.629729033E0,-1.223459244E0,1.475070357E0
4.007971261E1,3.681028128E0,1.865075469E0,3.008342028E0
4.013170656E1,2.006646395E0,8.357675076E-1,5.365670681E0
4.018370035E1,3.213105440E0,-9.840000868E-1,6.194004536E0
4.023569361E1,2.923555136E0,-4.311382771E0,4.172651291E0
4.028768707E1,7.696443796E-1,-3.471443415E0,9.668304324E-1
4.033968036E1,-4.362035990E-1,-7.075652480E-2,-2.351389647E0
4.039167366E1,-1.653658032E0,1.000090241E0,-2.648270130E0
4.044366705E1,-4.218681335E0,3.531839550E-1,-3.909096003E0
4.049566031E1,-4.981651783E0,-7.482060790E-1,-3.054495335E0
4.054765413E1,-7.019498348E0,3.122559786E-1,-2.524875164E0
4.059964812E1,-9.343840599E0,-1.129062176E-1,-2.281750917E0
4.065164144E1,3.633380651E0,2.911487579E0,1.214841843E0
4.070363467E1,2.168113440E-1,7.133788109E0,1.146424770E0
4.075562836E1,7.592597008E-1,8.693650961E-1,-6.104235649E-1
4.080762445E1,9.241933227E-1,-2.026746988E0,1.513554811E0
4.085961874E1,1.834382534E0,6.823364645E-3,3.456106424E0
4.091161214E1,1.684720635E0,7.707286626E-2,5.440807819E0
4.096360553E1,4.923115969E-1,-2.171522141E0,4.454871178E0
4.101559872E1,2.968346775E-1,-1.937560678E0,4.376069546E0
4.106759211E1,1.092990637E-1,-4.678513050E0,3.172054052E0
4.111958547E1,1.307205796E0,-5.474470615E0,1.434753299E0
4.117157936E1,3.171917796E-2,7.007663250E-1,8.874179721E-1
4.122357312E1,-3.116680145E0,8.296588659E-1,-1.726474404E0
4.127556651E1,-7.324320316E0,9.060170054E-1,-3.482712030E0
4.132755973E1,-5.943764687E0,5.720857143E0,-2.846190453E0
4.137955309E1,-3.415393353E0,4.500348091E0,-3.254859209E0
4.143154645E1,2.119045734E0,6.134412766E0,1.110994577E0
4.148353988E1,-4.074929059E-1,1.730685115E0,-2.255483627E0
4.153553324E1,1.298042893E0,8.339349627E-1,-5.056131631E-3
4.158752725E1,1.374400973E0,-5.026382208E-1,1.172081232E0
4.163952068E1,1.484356642E0,-8.416684866E-1,3.666854620E0
4.169151410E1,2.186851740E0,-1.694436431E0,4.190366268E0
4.174350743E1,2.172801733E0,3.825055063E-1,4.277720451E0
4.179550096E1,1.184421897E0,-1.331582427E0,2.583790779E0
4.184749858E1,8.288983107E-1,-2.151363611E0,1.952156186E0
4.189949646E1,1.977935791E0,-4.965008736E0,2.042564154E0
4.195149079E1,-2.059074044E-1,-6.400541782E0,-5.114634037E-1
4.200348408E1,-2.066602945E0,1.268870950E0,-9.482320547E-1
4.205547744E1,-3.165549517E0,2.861396790E0,-5.881227553E-2
4.210747080E1,-3.105684757E0,7.999384403E0,-3.038613081E0
4.215946413E1,-3.297496319E0,7.262680531E0,-4.000725746E0
4.221145752E1,-2.755048037E0,-1.985819101E0,-5.752076149E0
4.226345088E1,-9.065698385E-1,1.613722742E-1,-4.300660610E0
4.231544507E1,3.945731223E-1,1.058733225E0,-1.428372145E0
4.236743856E1,5.081940889E-1,-1.538341939E-1,7.585254312E-1
4.241943182E1,1.693272710E0,-1.954664946E0,3.080424309E0
4.247142511E1,1.825830460E0,1.998567879E-1,3.075537443E0
4.252341850E1,1.243675828E0,-1.205133319E0,3.551401377E0
4.257541183E1,2.622138895E-2,-1.602806568E0,2.823250055E0
4.262740516E1,-1.001864791E0,-2.746957302E0,2.042564154E0
4.267939878E1,1.560104012E0,-6.957040310E0,3.092641592E0
4.273139280E1,3.560886085E-1,-2.475732803E0,1.158951893E-1
4.278338616E1,-2.978624821E0,1.202897429E0,-8.566023111E-1
4.283537955E1,-5.599236965E0,2.430125713E0,-3.234700680E0
4.288737301E1,-5.434914112E0,7.243744373E0,-1.534051895E0
4.293936873E1,1.289490700E0,1.222768947E-1,-1.113776565E0
4.299136349E1,1.054307580E0,2.315283298E0,-1.150428414E0
4.304335692E1,8.912066221E-1,1.070339680E0,1.568231732E-1
4.309535017E1,9.235824347E-1,-1.317532420E0,1.153755307E0
4.314734370E1,1.668838024E0,-3.859629929E-1,3.194045067E0
4.319933699E1,1.924179673E0,-8.001296520E-1,4.493966103E0
4.325133015E1,1.520397782E0,-1.977267027E0,1.736520648E0
4.330332361E1,6.169281006E-1,-1.365790844E0,6.278002262E-1
4.335531799E1,5.588958859E-1,-5.448203087E0,-1.859643102E0
4.340731135E1,-1.696418524E0,3.137507915E0,-2.507771015E0
4.345930458E1,-4.342076302E0,3.394682169E0,-2.696528435E0
4.351129790E1,-4.109947205E0,1.944487929E0,-1.979983568E0
4.356329136E1,-2.703124523E0,1.926772833E0,-2.038015604E0
4.361528472E1,4.159534276E-1,8.485956192E-1,9.051330686E-1
4.366727785E1,1.946170926E0,4.847930431E0,1.448803067E0
4.371927137E1,1.141050458E0,1.754508734E0,-2.765814587E-2
4.377126556E1,4.532161951E-1,-1.253391623E0,2.276835293E-1
4.382325908E1,-1.973552853E-1,-2.392044544E0,1.075564504E0
4.387525244E1,-1.411556900E-1,-6.718478799E-1,2.397476912E0
4.392724554E1,5.375156403E-1,-3.151026368E-1,4.744421482E0
4.397924232E1,8.221788406E-1,-2.644008100E-1,4.353467464E0
4.403124062E1,1.477835625E-1,-1.658395290E0,3.447554111E0
4.408323664E1,-6.774953604E-1,-3.684635162E0,2.746891737E0
4.413523010E1,-6.664997935E-1,-5.297319412E0,9.906542301E-1
4.418722319E1,-1.411755323E0,2.152182102E0,-3.520275950E-1
4.423921665E1,-4.951719761E0,-1.048751831E0,-2.813203573E0
4.429120994E1,-6.540580273E0,2.494877338E0,-4.460707188E0
4.434320320E1,-6.620603561E0,4.544330597E0,-4.121677399E0
4.439519706E1,-1.201006889E0,3.354975939E0,4.750839472E-1
4.444719101E1,1.649290442E0,4.512565613E0,1.580139160E0
4.449918421E1,5.833305120E-1,2.503429651E0,-4.241096675E-1
4.455117770E1,1.446483016E0,-1.666623652E-1,7.634123564E-1
4.460317092E1,2.502058268E0,-1.571652412E0,2.255145311E0
4.465516425E1,3.111701727E0,-1.199024677E0,3.515360355E0
4.470715761E1,3.447066545E0,-1.138548970E0,4.128057957E0
4.475915107E1,2.853305578E0,8.589804173E-1,3.643031120E0
4.481114519E1,1.600421190E0,-2.058511972E0,1.818987608E0
4.486313858E1,1.007271051E0,-2.946710110E0,6.497913599E-1
4.491513217E1,3.072193861E-1,-2.580801725E0,-6.446320415E-1
4.496712523E1,-1.444131255E0,-2.421365976E0,-2.122315168E0
4.501911859E1,-4.596806526E0,-6.584088802E-1,-3.704456091E0
4.507111518E1,-5.729961872E0,1.191901922E0,-3.939028263E0
4.512311370E1,-5.072670937E0,5.047683716E0,-3.619545937E0
4.517510852E1,-1.061729670E0,4.321364880E0,7.191288471E-2
4.522710205E1,2.670656919E0,3.717829943E0,1.592967391E0
4.527909517E1,1.175869703E0,1.632335782E0,-1.351704299E-1
4.533108856E1,2.231444836E0,6.433449984E-1,5.172336698E-1
4.538308206E1,1.624855757E0,-7.891340256E-1,1.670547247E0
4.543507532E1,1.629742622E0,-5.120883137E-2,4.011382580E0
4.548706858E1,1.502682686E0,-5.759420991E-1,5.258769512E0
4.553906296E1,6.731277108E-1,-5.014165044E-1,4.817114353E0
4.559105628E1,3.182149529E-1,-2.233219385E0,3.273457527E0
4.564304964E1,1.894247293E0,-5.580761433E0,2.916101456E0
4.569504297E1,2.852282524E-1,-2.907614708E0,-2.451261729E-1
4.574703623E1,-2.648146629E0,-1.609526157E0,-2.038626671E0
4.579902959E1,-4.015263081E0,1.758174062E0,-1.987313867E0
4.585102301E1,-4.275491714E0,1.866297126E0,-2.713021755E0
4.590301647E1,-2.996339798E0,5.573027134E0,-2.730125904E0
4.595501082E1,-3.567911088E-1,8.233956337E0,-4.870288074E-1
4.600700399E1,-7.648491263E-1,-1.135170907E-1,-1.419209242E0
4.605899741E1,-7.086494565E-1,-1.371288538E0,-8.981410861E-1
4.611099057E1,-5.563455075E-2,-1.161151052E0,-7.668051124E-1
4.616298603E1,3.255453408E-1,-1.932673812E0,2.588376403E-1
4.621498139E1,9.095325470E-1,1.070052609E-1,1.863580704E0
4.626697481E1,1.235734582E0,1.336676955E0,3.643642187E0
4.631896804E1,4.721530080E-1,-2.023692846E0,3.611266136E0
4.637096130E1,-3.140305579E-1,-1.177644253E0,2.553247452E0
4.642295469E1,-7.941706777E-1,-2.666322947E0,1.791498542E0
4.647494805E1,-1.368383884E0,-3.817803860E0,8.929157853E-1
4.652694144E1,6.199824214E-1,-6.368777275E0,2.545616031E-1
4.657893562E1,-1.049512386E0,3.237078905E0,-1.632702351E-1
4.663092908E1,-3.174712420E0,1.480230331E0,-1.939055562E0
4.668292234E1,-6.356098652E0,1.593851328E0,-3.783257484E0
4.673491564E1,-8.971823692E0,6.169842720E0,-6.173573017E0
4.678690910E1,2.874075174E0,2.186390638E0,-1.870638609E0
4.683887941E1,1.797730565E0,6.811251640E0,4.581931114E0
4.689087270E1,2.335902929E0,2.038561106E0,-3.672992289E-1
4.694286633E1,1.776350379E0,4.949046969E-1,1.096333861E0
4.699486035E1,1.949225187E0,1.191901922E0,3.923418283E0
4.704685367E1,1.894858122E0,-1.258889437E0,5.776782990E0
4.709884710E1,7.922464013E-1,-2.406705379E0,4.876978874E0
4.715084039E1,5.998238325E-1,-5.420714378E0,5.205624580E0
4.720283605E1,-4.478100240E-1,-9.524506569E0,1.880684972E0
4.725483487E1,-4.821605206E0,2.884609699E0,5.233423114E-1
4.730683046E1,-6.439176083E0,-6.089287996E-1,-2.779605865E0
4.735882369E1,-5.855800152E0,3.641795218E-1,-1.878579855E0
4.741081714E1,-3.394013166E0,6.922428608E0,-1.614075184E0
4.746281037E1,8.105723858E-1,5.646942616E0,2.377929211E0
4.751480373E1,1.156322122E0,2.584063768E0,-6.959447265E-1
4.756679709E1,1.395781279E0,2.210825205E0,-1.107358187E-1
4.761879052E1,8.655502200E-1,-5.594487190E-1,-6.064487249E-2
4.767078414E1,-1.765858829E-1,-1.822718024E0,1.406042576E0
4.772277809E1,-5.052313805E-1,-2.894786596E0,3.597827196E0
4.777477142E1,-1.531744562E-2,-2.300414562E0,4.179981232E0
4.782676481E1,5.252982974E-1,-3.126915216E0,3.267960072E0
4.787875813E1,2.149787396E-1,-3.208771229E0,9.307894111E-1
4.793075143E1,-2.107943296E-1,-2.897840738E0,-3.892903626E-1
4.798274479E1,-1.552254438E0,-1.548439622E0,-1.185858607E0
4.803473805E1,-1.483226657E0,5.975300074E-1,-3.621025756E-2
4.808673233E1,-2.486878157E0,-1.663282275E0,-1.905457854E0
4.813872579E1,-2.984122515E0,-1.550559253E-1,-6.452429295E-1
4.819071902E1,-3.550394535E0,3.450881481E0,-3.642449081E-1
4.824271247E1,-4.130105972E0,3.730658054E0,1.320521474E0
4.829470710E1,-5.168378353E-1,9.072387218E-1,2.533398867E-1
4.834670309E1,-1.196120024E0,4.913903713E0,-5.468935966E-1
4.839869652E1,1.243675828E0,4.452089787E0,-9.457886219E-1
4.845068978E1,1.943116546E0,1.149752140E0,6.213904545E-2
4.850268313E1,2.029859304E0,-1.354795337E0,3.082867622E0
4.855467646E1,2.638892174E0,-1.735975266E0,4.041925907E0
4.860666978E1,2.473958492E0,-1.068299413E0,4.539781094E0
4.865866315E1,1.074466228E0,-2.772289813E-1,2.822639227E0
4.871065703E1,4.898681045E-1,-1.594865322E0,2.026681662E0
4.876265112E1,-7.984467149E-1,-2.830034971E0,1.219728589E0
4.881464418E1,-7.966140509E-1,-4.787858009E0,9.821020961E-1
4.886663747E1,6.776022911E-2,-1.443981528E0,1.037079930E0
4.891863083E1,-1.186346054E0,2.308563709E0,5.105141401E-1
4.897062416E1,-5.048847198E0,1.451519608E0,-2.687976360E0
4.902261748E1,-6.682911396E0,5.451465130E0,-2.556029320E0
4.907461084E1,-3.698834896E0,1.488171577E0,-3.689184427E0
4.912660479E1,6.138737798E-1,4.507067204E0,1.613736868E0
4.917859855E1,7.745313048E-1,3.323821545E0,3.376392722E-1
4.923059184E1,-3.119994141E-2,-1.691381931E0,1.734688163E0
4.928258520E1,-2.639396191E-1,-2.534986734E0,4.243511677E0
4.933457996E1,-5.278334022E-1,-2.974809885E0,5.884906769E0
4.938657871E1,-4.013842642E-1,-2.440913677E0,6.732176781E0
4.943857550E1,-1.389153481E0,-1.878917575E0,5.245941639E0
4.949056957E1,-9.383348227E-1,-1.412827492E0,4.278942108E0
4.954256283E1,5.399590731E-1,-1.335858345E0,2.617388487E0
4.959455622E1,2.254657745E0,1.835753918E0,4.195864201E0
4.964654978E1,-1.484860629E-1,-1.661449552E0,2.908160210E0
4.969854300E1,2.561052516E-2,4.761798382E0,3.541326225E-1
4.975053676E1,-1.771555066E0,1.845527768E0,-1.455551386E-1
4.980253054E1,-5.930936337E0,5.187284350E-1,-6.468621254E0
4.985452397E1,-6.461778164E0,6.022013664E0,-4.044707775E0
4.990651723E1,-3.423945665E0,7.146005154E0,-4.512630939E0
4.995851055E1,2.399432898E0,5.164969921E0,8.513769507E-1
5.001050388E1,-2.321746051E-1,7.074857950E-1,-8.657652736E-1
5.006249720E1,-1.258840561E-1,-2.649829626E0,1.779281259E0
5.011449057E1,5.187772959E-2,-3.603390217E0,2.914268732E0
5.016648422E1,2.326938510E-1,-3.663866043E0,4.493355274E0
5.021847814E1,2.330404997E0,-3.898438215E0,4.240457535E0
5.027047153E1,3.905826569E0,-1.856926560E0,2.249647379E0
5.032246493E1,2.552149057E0,2.869337797E0,9.411741495E-1
5.037445822E1,2.252825260E0,-6.571871042E-1,-5.884324312E-1
5.042645287E1,-1.304854035E0,-3.505328000E-1,-2.928046465E0
5.047845173E1,-3.264509678E0,7.636854053E-1,-4.466205120E0
5.053044808E1,-4.631015301E0,-2.360890388E0,-2.763112783E0
5.058244168E1,-4.486851215E0,-4.396904469E0,-2.321457148E0
5.063443487E1,-5.784328461E0,4.177811146E0,-4.039511383E-1
5.068642820E1,-1.041571021E0,1.899894834E0,1.914893270E0
5.073842159E1,-2.568734169E0,-1.619910717E0,5.099032521E-1
5.079041495E1,3.782783076E-2,-1.270495892E0,8.177793622E-1
5.084240824E1,2.174222171E-1,-1.646788836E0,2.120754957E0
5.089440203E1,8.062963486E-1,-2.775056839E0,2.732230902E0
5.094639598E1,1.233901978E0,-4.052376270E0,3.231307745E0
5.099838931E1,1.121502757E0,-1.242396116E0,3.968622208E0
5.105038274E1,6.578561068E-1,9.579405785E-1,2.828747749E0
5.110237589E1,-3.720627427E-1,-1.126331687E0,1.464074850E0
5.115436919E1,-1.037905931E0,4.057183862E-1,6.577326655E-1
5.120636258E1,-7.831750512E-1,-4.836727142E0,-1.013594627E0
5.125835597E1,-1.584019423E0,4.497006536E-1,-9.867165685E-1
5.131034992E1,-3.568109512E0,1.423419952E0,-3.496151209E0
5.136234351E1,-3.804514647E0,2.111254215E0,-4.256067276E0
5.141433691E1,-5.164300919E0,1.896840453E0,-4.262175560E0
5.146633033E1,1.164263248E0,3.719051600E0,3.429228306E0
5.151832456E1,2.358504772E0,3.885817528E0,2.309512138E0
5.157032065E1,7.360467911E-1,1.551701546E0,3.810107112E-1
5.162231417E1,1.189308882E0,-7.384322286E-1,1.572808862E0
5.167430767E1,1.015212178E0,-1.543552637E0,2.500102282E0
5.172630093E1,1.608973265E0,-1.294930458E0,3.748099804E0
5.177829435E1,1.942505598E0,-1.042643070E0,3.768869400E0
5.183028761E1,8.270657063E-1,-3.260982037E-1,1.952156186E0
5.188228094E1,2.278069109E-1,-2.791550398E0,6.687282324E-1
5.193427496E1,-3.121979535E-1,-6.878849506E0,-1.217623711E0
5.198626858E1,-1.865628242E0,2.097204447E0,-2.648880959E0
5.203826214E1,-4.200966358E0,-1.471146643E-1,-3.390471458E0
5.209025543E1,-4.528389454E0,2.232816458E0,-3.499205351E0
5.214224859E1,-4.397053719E0,6.057950482E-2,-3.860837698E0
5.219424218E1,3.805232346E-1,9.267864227E-1,1.725525141E0
5.224623534E1,1.056140184E0,4.384894371E0,2.686416149E0
5.229822864E1,1.304762363E0,4.359238148E0,1.402377486E0
5.235022282E1,6.987839937E-1,-6.535219550E-1,5.679354668E-1
5.240221628E1,1.044533849E0,-2.360279560E0,1.299141169E0
5.245420967E1,1.706711650E0,-6.639066935E-1,2.980242491E0
5.250620306E1,2.819097519E0,-9.375742674E-1,4.021156788E0
5.255819699E1,2.124543428E0,-8.667139411E-1,3.332100630E0
5.261019558E1,1.114783168E0,-1.233844042E0,2.925875187E0
5.266219266E1,-2.761569023E-1,-2.919221163E0,1.150700927E0
5.271418636E1,-6.805496812E-1,-1.345021367E0,3.480239809E-1
5.276617975E1,-3.193038225E0,-2.341953516E0,-2.107043505E0
5.281817304E1,-4.296261311E0,2.017791748E0,-2.780216932E0
5.287016637E1,-4.092232227E0,-3.517545462E-1,-3.436897039E0
5.292215963E1,-2.373257399E0,5.380604744E0,-3.977512836E0
5.297415315E1,4.568813741E-1,4.727589607E0,1.925888896E0
5.302614671E1,4.703204334E-1,7.056531906E-1,4.384320378E-1
5.307814063E1,6.835123897E-1,5.083436966E-1,-3.214843273E-1
5.313013406E1,9.290801883E-1,5.101763010E-1,-2.384066582E-1
5.318212748E1,1.034149051E0,-9.681175351E-1,1.865413189E0
5.323412067E1,1.463587284E0,-6.956716776E-1,3.205040693E0
5.328611403E1,1.282160282E0,-4.165062606E-1,4.435323238E0
5.333810743E1,1.233901978E0,-2.593019009E0,2.409694195E0
5.339010089E1,1.926623225E0,-2.497113228E0,2.090822458E0
5.344209434E1,7.116121650E-1,-3.205106258E0,1.465296507E0
5.349408856E1,-1.858908772E0,-3.150128126E0,-1.520002007E0
5.354608182E1,-4.112390518E0,-1.122953594E-1,-2.946372271E0
5.359807508E1,-5.489891529E0,1.103326559E0,-3.504703045E0
5.365006884E1,-4.660336971E0,2.932257175E0,-3.380086660E0
5.370206500E1,-1.013471246E0,2.053832769E0,-2.041981965E-1
5.375405929E1,1.466030717E0,6.096539021E0,1.633284450E0
5.380605245E1,1.459509730E-1,9.188451767E-1,3.465010971E-2
5.385804571E1,8.753240705E-1,-5.417336226E-1,1.849229634E-1
5.391003904E1,1.080574870E0,-1.143435955E0,1.856250286E0
5.396203249E1,2.148367167E0,-1.980932117E0,3.072482824E0
5.401402585E1,2.706697941E0,1.314398795E-1,4.313150406E0
5.406413088E1,2.860025167E0,5.263825879E-2,3.501921177E0
5.411612500E1,1.754359126E0,-2.549647808E0,1.255769730E0
5.416811826E1,5.081940889E-1,-2.686768472E-1,-1.217313930E-1
5.422011152E1,1.661507726E0,5.449956656E-1,4.188843369E-1
5.427210501E1,-1.914497495E0,-4.118960381E0,-2.541979551E0
5.432409823E1,-3.903474569E0,-5.680008531E-1,-1.352014065E0
5.437609173E1,-5.204006672E0,-5.276837349E-1,-1.706926703E0
5.442808515E1,-5.998131752E0,2.364152431E0,-3.179111958E0
5.448007861E1,-8.368288994E0,-1.638847709E0,-2.827864408E0
5.453207266E1,3.842296600E0,1.174797773E0,2.076772690E0
5.458406602E1,7.555944920E-1,5.940157890E0,1.555093765E0
5.463605928E1,1.500239253E0,3.264567614E0,7.444755435E-1
5.468805284E1,1.934564471E0,-1.408551335E0,3.250244856E0
5.474005076E1,3.031678438E0,-1.859980822E0,3.374861240E0
5.479204842E1,3.045117378E0,4.509223998E-1,4.701049805E0
5.484404264E1,1.407387733E0,-3.517545462E-1,3.564840317E0
5.489603604E1,2.901151776E-1,-1.217961431E0,1.365114570E0
5.494802936E1,7.140556574E-1,-6.955207825E0,1.405431747E0
5.500002265E1,-8.015010357E-1,-2.519104481E0,-2.703858852E0
5.505201601E1,-4.108725548E0,2.420064807E-1,-1.372172594E0
5.510400931E1,-6.783093452E0,1.355613828E0,-1.603690386E0
5.515600260E1,-4.587032795E0,6.467333794E0,-1.444865465E0
5.520799655E1,-4.524984211E-2,8.684164047E0,-1.067961693E0
5.525999034E1,5.442351103E-1,7.465811968E-1,4.598123133E-1
5.531198367E1,1.519786835E0,2.489990473E0,-8.077331185E-1
5.536397703E1,1.542999744E0,1.944487929E0,1.262799054E-1
5.541597039E1,1.047588110E0,-1.415270925E0,1.574340165E-1
5.546796368E1,9.046456218E-1,-2.035299301E0,2.090211630E0
5.551995710E1,1.754359126E0,7.288661003E-1,3.956404924E0
5.557195046E1,1.149602532E0,3.959445059E-1,5.126212120E0
5.562394432E1,7.928572893E-1,-9.015332460E-1,4.106066704E0
5.567593804E1,7.164991498E-1,-4.580450654E-1,2.478111029E0
5.572793140E1,-3.242167458E-2,-2.184350252E0,1.831815720E0
5.577992489E1,9.333562851E-1,-6.090833664E0,1.457966208E0
5.583192081E1,-1.382433891E0,-5.189196110E0,-8.187286258E-1
5.588391537E1,-4.348795414E0,-1.596697927E0,-1.779008746E0
5.593590870E1,-6.689020157E0,2.517479420E0,-2.629333258E0
5.598790202E1,-5.029910088E0,6.799644947E0,-1.397217989E0
5.603989538E1,-1.441687703E0,5.235830307E0,-1.759461045E0
5.609188871E1,-2.291202843E-1,2.537027121E0,-1.593305826E0
5.614388220E1,-6.438977718E-1,-9.076418877E-1,-3.856251836E-1
5.619587543E1,5.711131692E-1,-3.639718294E-1,2.093575746E-1
5.624786958E1,7.800291181E-1,-1.295541406E0,2.710239887E0
5.629986297E1,1.072022676E0,-2.222223759E0,4.107899189E0
5.635185663E1,2.029248476E0,-8.691574335E-1,4.707768917E0
5.640384972E1,1.098900795E0,-1.048140883E0,3.244747162E0
5.645584305E1,-2.682156563E-1,-1.875252485E0,1.766453147E0
5.650783654E1,-1.533729881E-1,-5.494018078E0,8.941375017E-1
5.655982973E1,4.183968902E-1,-3.053287566E-1,-8.385775238E-2
5.661182329E1,-2.457556725E0,-2.193513155E0,-2.916440010E0
5.666381744E1,-4.069630146E0,1.278644800E0,-1.460748076E0
5.671581074E1,-3.945624590E0,1.352559447E0,-2.851688147E0
5.676780409E1,-3.144169092E0,8.323143005E0,-3.495540142E0
5.681979749E1,-9.900598228E-2,5.949320316E0,3.098491952E-2
5.687179451E1,-4.158465192E-2,-1.332804084E0,-5.352871418E-1
5.692379267E1,-4.710229039E-1,-6.248112917E-1,-4.980243742E-1
5.697578843E1,6.348416954E-2,8.257065713E-2,2.441768944E-1
5.702778185E1,-1.191645339E-1,-9.180266261E-1,1.698036075E0
5.707977531E1,-1.943009645E-1,-1.281778514E-1,3.446943283E0
5.713176871E1,9.474061728E-1,-1.514841914E0,3.974730968E0
5.718376177E1,6.499148011E-1,-1.622965097E0,2.698022366E0
5.723575506E1,4.220620692E-1,-2.222223759E0,1.950323462E0
5.728774878E1,3.377626538E-1,-2.340120792E0,1.327851772E0
5.733974277E1,4.770399332E-1,-2.834921837E0,1.451857448E0
5.739173612E1,1.158765554E0,-4.891705036E0,1.274095654E0
5.744372949E1,3.994600475E-1,-1.497737765E0,-1.135767698E0
5.749572274E1,-2.684798479E0,2.112475872E0,-2.016024590E0
5.754771614E1,-6.491711140E0,9.487776160E-1,-4.803402901E0
5.759970953E1,-7.123345375E0,7.855831146E0,-5.074626923E0
5.765170282E1,-1.930990815E0,3.052597523E0,-3.324497700E0
5.770369654E1,1.067135692E0,4.679942608E0,-5.200154781E-1
5.775569050E1,1.399446368E0,1.201064944E0,1.612514973E0
5.780768382E1,2.163028002E0,-1.321197629E0,1.461631298E0
5.785967718E1,2.828871012E0,7.600201964E-1,2.801869631E0
5.791167048E1,2.503890753E0,2.714178324E0,3.296059608E0
5.796366733E1,9.205281138E-1,-3.334285915E-1,2.288132191E0
5.801566565E1,5.920811370E-2,-2.174576521E0,1.390771031E0
5.806766051E1,1.559493184E0,-3.979072332E0,5.141793489E-1
5.811965380E1,1.297432065E0,-4.683399677E0,-1.993112862E-1
5.817164710E1,-1.617006063E0,-5.924354196E-1,-1.135767698E0
5.822364056E1,-3.795351505E0,3.195863664E-1,-1.262216806E0
5.827563401E1,-4.208296299E0,8.022597313E0,-1.598192692E0
5.832762707E1,-7.212791592E-2,6.252309799E0,6.302437186E-1
5.837962067E1,6.938970685E-1,8.045095019E-3,-1.207238913E0
5.843161449E1,7.586488128E-1,9.548862576E-1,-8.706521392E-1
5.848360824E1,8.417264819E-1,-4.525473118E-1,-8.474393487E-1
5.853560157E1,3.756363094E-1,-1.740251184E0,1.121379375E0
5.858759483E1,7.570147514E-2,-1.508122444E0,3.023002863E0
5.863958819E1,-3.451846838E-1,-9.473481178E-1,3.790860653E0
5.869158175E1,1.117425263E-1,-1.501402974E0,2.817141294E0
5.874357504E1,3.909079432E-1,-1.071353793E0,2.330892563E0
5.879556823E1,-9.584934115E-1,-1.918623924E0,1.299752116E0
5.884756225E1,-1.585852027E0,-3.385922194E0,1.103973985E-1
5.889955587E1,-9.358913302E-1,-2.235052109E0,-6.104235649E-1
5.895154926E1,-2.356153011E0,-1.938782454E0,-1.993112862E-1
5.900354259E1,-1.361053586E0,4.668048918E-1,-1.228008270E0
5.905553801E1,-3.042154789E0,4.522339344E0,-1.239003897E0
5.910753320E1,-6.174671650E0,6.371428013E0,-5.285676122E-1
5.915952670E1,2.313300848E0,2.487259954E-1,3.406935930E-1
5.921152002E1,-4.288732409E-1,2.331165552E0,-1.824823737E0
5.926351322E1,1.092990637E-1,1.467402220E0,4.677535594E-1
5.931550651E1,6.865667105E-1,-2.347451210E0,1.252104521E0
5.936750000E1,3.964057267E-1,-3.152571678E0,2.303403616E0
5.941949336E1,1.186865330E0,-3.165399790E0,2.515373707E0
5.947148722E1,1.652344704E0,1.143356487E-1,1.416427255E0
5.952348084E1,1.209467411E0,1.099661231E0,2.170235157E0
5.957547423E1,1.807702929E-1,-1.151377201E0,1.555093765E0
5.962746769E1,2.625453234E0,-1.092734098E0,7.334799170E-1
5.967946088E1,-1.717798829E0,-2.636390686E0,3.803998530E-1
5.973145438E1,-3.309713602E0,-2.005977631E0,-1.180661991E-1
5.978344770E1,-5.067783833E0,-9.100853801E-1,5.175433680E-2
5.983544089E1,-5.692699432E0,7.761757851E0,-2.193175554E0
5.988743515E1,-3.714717388E0,-4.311670363E-1,-1.139432907E0
5.993942864E1,2.547262192E0,-6.944499612E-1,7.780731320E-1
5.999142196E1,-4.783532917E-1,3.511968374E0,1.937495351E0
6.004341532E1,-4.319275618E-1,-7.011694312E-1,1.382829666E0
6.009541131E1,-7.457137108E-2,-2.129372358E0,2.206276178E0
6.014740984E1,4.110665023E-1,-2.085390091E0,3.690678596E0
6.019940610E1,1.697548747E0,-2.605847120E0,4.930734634E0
6.025139989E1,1.275440812E0,-1.501690000E-1,5.764565945E0
6.030339298E1,7.849160433E-1,-1.244839430E0,3.776810646E0
6.035538644E1,-9.228646755E-2,-1.006889194E-1,2.597840548E0
6.040737986E1,-1.846691370E0,-2.894462943E-1,1.103973985E-1
6.045937302E1,-1.223608851E0,1.034909487E0,-1.786950111E0
6.051136661E1,-4.956606388E0,1.384324431E0,-2.527318954E0
6.056336067E1,-5.574802399E0,5.202232361E0,-3.891380787E0
6.061535399E1,-2.745274067E0,5.013474941E0,-5.823237896E-1
6.066734725E1,-1.641440630E0,-2.139146328E0,-8.963085413E-1
6.071934061E1,9.070890546E-1,2.401415110E0,-3.254506737E-2
6.077133410E1,8.624958992E-1,3.266400337E0,4.512601793E-1
6.082332746E1,-6.296493858E-2,-1.158707500E0,1.775925756E-1
6.087532069E1,-1.765858829E-1,-2.515439272E0,2.080437660E0
6.092731448E1,1.746616513E-1,-5.500126839E0,2.586234093E0
6.097930850E1,2.104384899E0,-1.083571076E0,2.456119776E0
6.103130189E1,1.763522148E0,4.169259071E0,5.686986446E0
6.108329528E1,4.282119751E0,-1.189250708E0,5.319245338E0
6.113528844E1,2.638281345E0,-2.266817093E0,4.177537918E0
6.118728403E1,-7.762569934E-2,-2.497724056E0,2.082270622E0
6.123928292E1,-2.018344641E0,2.302454948E0,-1.256108165E0
6.129127844E1,-4.640789032E0,5.834801793E-1,-4.360525608E0
6.134321565E1,-6.081209660E0,-1.018208504E0,-2.863294601E0
6.139520904E1,-4.896131039E0,2.712956190E0,-2.076500177E0
6.144720237E1,-4.286487103E0,1.086833119E0,-4.423444271E0
6.149919569E1,1.470306873E0,3.161942482E0,2.194058895E0
6.155118912E1,2.078728437E0,3.274341583E0,1.941771388E0
6.160318235E1,1.897912502E0,5.645433068E-1,6.882759333E-1
6.165517633E1,1.414107203E0,-5.887702703E-1,5.923700333E-1
6.170717019E1,1.186254501E0,-8.367815614E-1,8.837528229E-1
6.175916342E1,3.243236244E-1,-1.480022550E0,2.983296633E0
6.181115671E1,1.447292417E-1,-2.249102116E0,4.506794453E0
6.186315010E1,5.259091854E-1,-7.805818915E-1,4.022989273E0
6.191514343E1,1.017044783E0,1.479332447E-1,4.033373833E0
6.196713678E1,1.322477460E0,-2.142200708E0,3.781086683E0
6.201913034E1,5.735566616E-1,-3.394474268E0,1.911228180E0
6.207112436E1,-7.410253286E-1,-1.049649715E-1,7.481406927E-1
6.212311775E1,-1.942597270E0,2.361097813E0,-2.457069397E0
6.217511105E1,-4.569317818E0,-3.945150971E-1,-3.736220837E0
6.222710451E1,-4.945000172E0,2.471053600E0,-4.019051552E0
6.227909903E1,-4.605969906E0,9.353672981E0,-1.960435748E0
6.233109519E1,1.616914392E0,4.997592449E0,1.715751171E0
6.238308851E1,-2.203696407E-2,1.607290268E0,-2.387430668E0
6.243508174E1,7.024492025E-1,-1.544163465E0,-5.310111046E-1
6.248707517E1,-3.677866757E-1,-2.463515520E0,8.684811592E-1
6.253906846E1,2.253634632E-1,-2.345618725E0,3.094474077E0
6.259106172E1,7.659791708E-1,-1.663893104E0,5.146370411E0
6.264305511E1,1.246119261E0,-2.117765903E0,5.475626945E0
6.269504930E1,6.352540255E-1,-1.936949849E0,3.460993052E0
6.274704275E1,3.361545563E0,-9.151268959E0,2.930762291E0
6.279903608E1,8.405047655E-1,-2.046294689E0,4.714187682E-1
6.285102944E1,-3.386071682E0,-1.981542945E0,-4.400231361E0
6.290302283E1,-5.744622707E0,3.011669397E0,-2.669039488E0
6.295501606E1,-4.751355648E0,1.153417468E0,-2.562137842E0
6.300700955E1,-3.395234823E0,3.000386953E-1,-2.989743710E0
6.305900298E1,-5.021770597E-1,5.572416306E0,-4.827527404E-1
6.311099706E1,2.531990767E0,6.687245369E0,2.770104647E0
6.316299052E1,3.231019080E-1,-8.908247948E-2,-2.261893451E-1
6.321498381E1,6.670190692E-1,-2.222834826E0,4.744730890E-1
6.326697707E1,5.747783780E-1,-9.241352677E-1,-3.526384532E-1
6.331897192E1,1.171593785E0,-9.015332460E-1,1.960708261E0
6.337097081E1,1.780015469E0,1.153417468E0,3.477486610E0
6.342296700E1,1.580873370E0,-1.015154123E0,3.369363546E0
6.347496053E1,1.408609509E0,-1.712151527E0,1.930775881E0
6.352695376E1,2.079339504E0,-3.239925385E0,1.147646666E0
6.357894725E1,-2.706591189E-1,-2.515439272E0,-7.069402933E-1
6.363094054E1,-3.236409903E0,-6.681827307E-1,-2.681867599E0
6.368293387E1,-5.595571518E0,6.940467358E-1,-1.951883674E0
6.373492713E1,-5.145974636E0,9.536644816E-1,-1.804665208E0
6.378692108E1,-3.255957603E0,5.600516796E0,-2.457680225E0
6.383891484E1,1.232680321E0,9.701254845E0,3.180606127E0
6.389090820E1,5.393481851E-1,8.589804173E-1,3.461913764E-1
6.394290152E1,1.115394115E0,-8.624378443E-1,2.820505500E-1
6.399489481E1,1.145326495E0,-9.213680029E-2,-2.457370460E-1
6.404688814E1,8.863196373E-1,-1.833713651E0,5.361704826E-1
6.409888153E1,8.288983107E-1,-2.147698164E0,1.773172617E0
6.415087486E1,9.791711569E-1,-2.931114733E-1,2.697411537E0
6.420286855E1,3.609755635E-1,-2.912788689E-1,3.323548555E0
6.425486260E1,2.805398591E-2,-1.439705610E0,3.040107250E0
6.430685590E1,-2.798220813E-1,-2.010253668E0,2.168402433E0
6.435884915E1,1.826028973E-1,-3.207549572E0,1.361449480E0
6.441084331E1,-3.231935501E-1,-3.161123753E0,-7.591649890E-2
6.446283967E1,-3.037267923E0,-1.752144843E-1,-1.380113721E0
6.451483316E1,-4.971267223E0,6.494536400E-1,-3.085038900E0
6.456682662E1,-5.343894958E0,-1.248504758E0,-3.434453726E0
6.461881985E1,-4.210128784E0,9.884838462E-1,-4.169324875E0
6.467081324E1,2.866133928E0,4.711707592E0,1.788444161E0
6.472280657E1,9.736734033E-1,6.237038136E0,2.971079350E0
6.477479986E1,4.379445910E-1,1.062398553E0,5.526638031E-1
6.482679362E1,1.040257692E0,-1.152598858E0,1.278371692E0
6.487878750E1,1.716485500E0,-2.461683035E0,2.380372524E0
6.493078089E1,2.679209232E0,-1.148322701E0,2.889223337E0
6.498277429E1,2.349341869E0,2.006185293E0,4.275276661E0
6.503476751E1,-2.692388557E-2,-1.519728899E0,2.216660738E0
6.508676094E1,5.723348856E-1,-1.029419708E1,7.676883936E-1
6.513875426E1,-1.347614527E0,5.358326435E-1,-1.465634942E0
6.519074756E1,-5.865573883E0,1.626227140E0,-2.463788748E0
6.524274178E1,-5.720188141E0,1.898062110E0,-1.911566496E0
6.529473517E1,-5.080611706E0,7.759314060E0,-1.885910273E0
6.534672856E1,-3.119994141E-2,4.165593624E0,-2.144917011E0
6.539872202E1,1.107452869E0,1.317740202E0,9.314002395E-1
6.545071610E1,1.605919003E0,9.671035409E-1,4.280473292E-1
6.550271473E1,1.933953524E0,8.388218284E-1,3.608521521E-1
6.555471196E1,1.827662945E0,-1.715492904E-1,-1.247857213E-1
6.560670622E1,1.357296705E0,-1.979099512E0,1.017532229E0
6.565869958E1,8.423373699E-1,7.197031379E-1,2.883725643E0
6.571069293E1,1.398835540E0,2.209499478E-2,4.634465218E0
6.576268639E1,4.959767759E-1,-2.525824070E0,4.446318626E0
6.581467952E1,-2.413375825E-1,-2.635168791E0,3.280788183E0
6.586667328E1,-1.535760999E0,-2.553923845E0,1.140316129E0
6.591866743E1,-2.230925798E0,-5.322976112E0,-7.225131243E-2
6.597066056E1,-4.680495262E0,2.723340988E0,-1.676994205E0
6.602265408E1,-5.066562176E0,2.574900866E0,-2.995241404E0
6.607464741E1,-4.188748837E0,1.334844351E0,-3.171781540E0
6.612664057E1,-3.951733112E0,1.541316867E0,-3.126577616E0
6.617863399E1,1.836215138E0,4.415438175E0,3.130515099E0
6.623062735E1,2.279703379E0,4.789287567E0,9.033004642E-1
6.628262074E1,1.503904462E0,4.454246163E-1,6.030644849E-2
6.633461503E1,1.895468950E0,-7.537038326E-1,1.388069056E-2
6.638660835E1,1.820943475E0,-7.750841379E-1,1.311358571E0
6.643860181E1,1.622412205E0,2.933191657E-1,3.336987495E0
6.649059500E1,7.116121650E-1,-1.590589285E0,2.962527275E0
6.654258892E1,-4.453665912E-1,-1.721925259E0,1.934441090E0
6.659458781E1,5.796653032E-1,-6.630838394E0,1.782034487E-1
6.664658474E1,-2.422737360E0,-1.918623924E0,-1.947607636E0
6.669857826E1,-5.246767521E0,-8.908247948E-2,-3.259135246E0
6.675057159E1,-4.891854286E0,2.641485214E0,-3.411240816E0
6.680256505E1,-3.952954769E0,2.520534039E0,-3.333050013E0
6.685455831E1,8.777675033E-1,4.303038597E0,2.765828609E0
6.690655170E1,2.023139954E0,2.476551533E0,3.726719618E0
6.695854503E1,1.709766030E0,-1.159605458E-1,5.282292366E-1
6.701053868E1,1.586982012E0,7.942286134E-1,-1.333378255E-1
6.706253294E1,9.113650918E-1,-1.292487025E0,2.600593865E-1
6.711452626E1,9.791711569E-1,-3.085987329E0,2.887700498E-1
6.716651939E1,1.532615066E0,-7.482060790E-1,1.595410824E0
6.721851268E1,1.906464577E0,-1.959839016E-1,1.567311049E0
6.727050611E1,1.580262542E0,3.055364788E-1,4.970751107E-1
6.732249934E1,1.268110514E0,2.560851097E0,-3.984533250E-1
6.737449266E1,-2.111196041E0,-3.510538816E0,-2.603065968E0
6.742648658E1,-4.674997330E0,-1.016375899E0,-3.280515671E0
6.747848050E1,-6.285238266E0,1.078281045E0,-2.990354538E0
6.753047383E1,-2.571177721E0,6.567839980E-1,-2.556029320E0
6.758246709E1,4.501618743E-1,2.097815275E0,1.327240944E0
6.763446094E1,7.875579596E-2,8.382109404E-1,3.745656490E0
6.768645687E1,6.590777636E-1,2.505585849E-1,1.894734740E0
6.773845109E1,6.425843835E-1,1.599349022E0,1.902065158E0
6.779044442E1,-3.335782588E-1,-7.842471600E-1,1.688262343E0
6.784243774E1,3.915188015E-1,-3.431736946E0,2.012020826E0
6.789443104E1,2.811766863E0,-4.547177315E0,1.610682487E0
6.794642443E1,3.387201786E0,-1.067975685E-1,3.209927797E0
6.799841776E1,2.035968065E0,1.001312017E0,3.515360355E0
6.805041191E1,6.602994800E-1,-5.527291894E-1,3.126239061E0
6.810240540E1,-1.504606962E0,-1.897854447E0,-4.564855397E-1
6.815439893E1,-3.834446907E0,-4.885883629E-1,-2.635441780E0
6.820639228E1,-6.535692692E0,1.921275020E0,-4.309212685E0
6.825838541E1,-6.693907261E0,3.592925966E-1,-4.096020699E0
6.831037867E1,-5.816093922E0,1.249323249E0,-3.906652451E0
6.836237193E1,2.792219162E0,2.960356951E0,-1.515725851E0
6.841436542E1,2.902174950E0,4.035479546E0,5.880630493E0
6.846635978E1,9.193063974E-1,1.093552589E0,4.016880512E0
6.851835307E1,2.010922670E0,-7.689754963E-1,2.304014444E0
6.857034646E1,7.226077914E-1,-8.202881217E-1,3.346150637E0
6.862233962E1,7.928572893E-1,-5.136662006E0,2.526980162E0
6.867235063E1,7.433772087E-1,-5.939949512E0,2.686416149E0
6.872434828E1,2.603461981E0,-9.027550220E-1,4.606365681E0
6.877634591E1,1.298653722E0,3.385231793E-1,7.209873199E0
6.882834020E1,1.899332702E-1,-5.749360085E0,3.875770807E0
6.888033349E1,-3.664015532E0,5.855247021E0,2.979330420E-1
6.893232695E1,-7.086693287E0,1.578579545E0,-3.576785088E0
6.898432014E1,-8.364012718E0,-9.797239900E-1,-4.619532108E0
6.903631357E1,-8.178920746E0,-4.381632328E0,-6.640885353E0
6.908830686E1,2.339155674E-1,9.646887779E0,-2.528540611E0
6.914030025E1,1.510013103E0,1.031212044E1,5.147592068E0
6.919229460E1,1.456256986E0,-1.928397655E0,3.396852493E0
6.924428786E1,2.026805162E0,2.955470085E0,3.810408115E0
6.929628119E1,6.358649135E-1,7.746809721E-1,3.502532244E0
6.934827472E1,9.901667237E-1,-3.787260771E0,2.012020826E0
6.940026791E1,1.629742622E0,-6.622897148E0,1.537378669E0
6.945226120E1,1.482524157E0,-2.024914503E0,8.684811592E-1
6.950425460E1,3.237127662E-1,4.171702862E0,4.076745510E0
6.955624802E1,-1.027521133E0,-1.379840732E0,4.049256802E0
6.960824214E1,3.108845949E-1,-5.668725491E0,2.731972747E-2
6.966023553E1,-2.406854868E0,6.452062607E0,-1.471743584E0
6.971222906E1,-4.241894245E0,1.274979591E0,-5.067907333E0
6.976422238E1,-6.919927120E0,1.088054776E0,-5.582866669E0
6.981621834E1,-9.549701691E0,1.832699537E0,-4.928629875E0
6.986821293E1,3.636435032E0,2.014126539E0,4.781382680E-1
6.992020626E1,1.681666255E0,2.260915995E0,4.240457535E0
6.997219952E1,8.912066221E-1,3.196150780E0,2.823860884E0
7.002419291E1,2.180132389E0,2.088041306E0,3.150062799E0
7.007618623E1,1.890582204E0,-3.480893672E-1,3.278344393E0
7.012817956E1,2.204765379E-1,-2.640055656E0,3.043772221E0
7.018017305E1,2.968346775E-1,-4.482425213E0,2.630827427E0
7.023216717E1,-5.760917068E-1,-6.341898918E0,2.474445820E0
7.028416063E1,-2.065182626E-1,-2.225278378E0,2.636325121E0
7.033615399E1,7.189425826E-1,2.270586230E-2,2.203221798E0
7.038814728E1,4.649860382E0,5.297240019E-1,1.528826594E0
7.044014057E1,2.375807613E-1,5.398930550E0,-6.305821538E-1
7.049213397E1,-4.095897198E0,1.219390869E0,-5.785673618E0
7.054412729E1,-5.839306831E0,1.293201745E-2,-6.508327484E0
7.059612082E1,-6.159399986E0,-6.795161247E0,-2.890783548E0
7.064811493E1,-7.214776874E-1,-3.552077532E0,-5.811020732E-1
7.070010823E1,6.816797853E-1,4.000660419E0,4.160434246E0
7.075210159E1,2.375807613E-1,6.345160961E0,3.173886776E0
7.080409511E1,1.267499566E0,4.411485493E-1,2.985739946E0
7.085609196E1,6.761820316E-1,-2.210617542E0,4.156157494E0
7.090809016E1,1.773295999E0,-4.901478767E0,3.035830975E0
7.096008595E1,2.553370953E0,-6.399320126E0,1.608239055E0
7.101207938E1,1.781237125E0,-2.117155075E0,1.424979329E0
7.106407260E1,7.629248500E-1,5.656715870E0,3.287507534E0
7.111606600E1,-9.228646755E-2,1.598127365E0,5.096279144E0
7.116805942E1,1.695105195E0,-4.798853397E0,1.257602334E0
7.122005265E1,4.422205985E-1,1.179073691E0,2.104261398E0
7.127204670E1,-3.850940466E0,3.687897205E0,-2.704469681E0
7.132404029E1,-5.586408615E0,7.361964583E-1,-4.885258675E0
7.137603362E1,-7.298052788E0,-4.393850327E0,-5.218791008E0
7.142802708E1,-7.828895092E0,1.468623877E0,-2.910942078E0
7.148002060E1,1.580873370E0,1.940211892E0,1.036778763E-1
7.153201366E1,5.552307367E-1,7.783461809E-1,4.134167194E0
7.158400715E1,8.722697496E-1,1.340342164E0,1.189796209E0
7.163600051E1,1.740309358E0,2.400804281E0,1.881295800E0
7.168799466E1,7.995767593E-1,-9.091507643E-2,2.738339663E0
7.173998799E1,1.402500749E0,-2.737183332E0,2.715737581E0
7.179198135E1,1.989542246E0,-4.425004005E0,3.046215773E0
7.184397481E1,1.623023152E0,-2.143422365E0,3.543459892E0
7.189596813E1,8.802109957E-1,-3.615283668E-1,6.595953465E0
7.194796479E1,4.935332835E-1,-3.848958015E0,4.817725182E0
7.199996314E1,1.292545080E0,-1.460474968E0,4.013826370E0
7.205195804E1,-1.104490280E0,2.044669867E0,1.300362945E0
7.210395139E1,-4.093453884E0,3.252961159E0,-5.671442509E0
7.215594465E1,-5.008529663E0,4.012266636E0,-4.070975304E0
7.220793808E1,-6.175282478E0,3.140885830E-1,-4.165048122E0
7.225993137E1,-5.808763504E0,-2.585688829E0,-2.479671240E0
7.231192466E1,8.569980860E-1,1.532153964E0,4.286582172E-1
7.236391809E1,2.552760124E0,4.916957855E0,2.252701998E0
7.241591224E1,3.050004482E0,4.216295719E0,2.461006880E0
7.246790570E1,2.673100471E0,1.882790565E0,2.116478682E0
7.251989906E1,1.595534205E0,-2.582634449E0,3.256964445E0
7.257189235E1,1.855152011E0,-6.302803516E0,2.955196857E0
7.262388574E1,2.558868647E0,-5.591756821E0,2.763385296E0
7.267587904E1,2.541153669E0,1.882179737E0,4.401725769E0
7.272787243E1,1.016433954E0,1.114322066E0,3.313163757E0
7.277986592E1,3.106814861E0,-3.103702307E0,1.457966208E0
7.283186014E1,2.170358419E0,2.339107037E0,1.315023661E0
7.288385373E1,-7.929489017E-1,-9.400177598E-1,-1.572536349E0
7.293584682E1,-4.868030548E0,1.554755807E0,-6.538259983E0
7.298783998E1,-4.340243340E0,2.865996361E-1,-4.623197079E0
7.303983554E1,-5.668264866E0,1.906614304E0,-4.090522766E0
7.309183073E1,-5.812428474E0,9.651164055E0,-1.041083574E0
7.314382405E1,4.873436928E0,5.232775211E0,4.260615826E0
7.319581755E1,-6.884909868E-1,-2.134259224E0,-2.578631401E0
7.324781100E1,2.174634457E0,-1.016375899E0,-2.216035873E-2
7.329980413E1,2.086669922E0,-1.593319923E-1,3.083177507E-1
7.335179756E1,1.397003055E0,-1.583258867E0,1.466518164E0
7.340379128E1,9.107542634E-1,-1.531335354E0,3.550179720E0
7.345578510E1,1.541778088E0,-1.036534429E0,4.583763599E0
7.350777849E1,1.270553946E0,1.172965050E0,3.731606722E0
7.355977182E1,6.694624424E-1,-1.297984719E0,2.840354204E0
7.361176508E1,5.802761912E-1,-3.166010857E0,2.158628702E0
7.366375843E1,5.558415651E-1,-4.842835903E0,3.058742583E-1
7.371575173E1,-8.678868413E-2,-3.374315739E0,-1.471743584E0
7.376774522E1,-3.790464640E0,-6.211461425E-1,-2.964698315E0
7.381973878E1,-6.081820488E0,7.062640786E-1,-3.486377239E0
7.387173280E1,-7.886926651E0,7.168607235E0,-4.114957333E0
7.392372609E1,-1.250486970E0,5.700087547E0,-2.278085709E0
7.397571945E1,7.940790057E-1,3.573054790E0,1.343734384E0
7.402771284E1,-4.905706048E-1,1.296072900E-1,-1.122939587E0
7.407970869E1,1.150824308E0,5.089545846E-1,2.447877526E-1
7.413170762E1,1.200915337E0,-4.171171188E-1,1.791498542E0
7.418370278E1,2.188684225E0,-2.093942165E0,3.294227123E0
7.423569607E1,2.468460798E0,-3.505328000E-1,4.941730499E0
7.428768953E1,1.242454052E0,-1.927786827E0,4.114619255E0
7.433968275E1,9.657320976E-1,-1.012099862E0,2.842186689E0
7.439167608E1,3.246092081E0,-3.957692146E0,2.181841612E0
7.444366947E1,5.332395434E-1,-3.495877981E0,-1.017870784E0
7.449566273E1,-3.510688543E0,-7.319997996E-2,-2.937819958E0
7.454765655E1,-6.988344193E0,-1.155653238E0,-2.221885920E0
7.459965051E1,-6.890605927E0,2.807640553E0,-3.959797621E0
7.465164397E1,-6.470330715E0,-1.363958240E0,-3.491874933E0
7.470363716E1,1.729313731E0,2.596281290E0,1.683986306E0
7.475563058E1,6.260910630E-1,5.822260857E0,3.173275709E0
7.480762384E1,-1.778075993E-1,3.562382758E-1,4.396537840E-1
7.485961714E1,3.988491893E-1,-1.677332163E0,6.497913599E-1
7.491161050E1,1.775128484E0,-3.221599340E0,2.145189524E0
7.496360455E1,3.343830585E0,-5.557835102E-1,3.247801304E0
7.501559811E1,3.919265509E0,4.558093250E-1,4.284439564E0
7.506759150E1,2.790386677E0,1.350116134E0,3.251466513E0
7.511958489E1,1.128222346E0,-2.611956120E0,2.147633076E0
7.517157972E1,1.659675002E0,-2.745735407E0,1.155587912E0
7.522357561E1,9.402743727E-2,-1.024927974E0,7.273712754E-1
7.527556897E1,-3.392791510E0,-3.958913803E0,-1.816882491E0
7.532756226E1,-4.425153732E0,3.246241808E0,-3.036780357E0
7.537955572E1,-4.053136826E0,3.501296341E-1,-2.913996220E0
7.543154898E1,-4.772124767E0,3.416673183E0,-5.516892910E0
7.548354244E1,2.064266354E-1,6.174729824E0,6.650630236E-1
7.553553563E1,-9.841496944E-1,1.810097575E0,-1.565205932E0
7.558752972E1,1.033538222E0,3.599034846E-1,-2.195618868E0
7.563952327E1,8.209570646E-1,7.306986451E-1,8.244988918E-1
7.569151660E1,9.712299109E-1,-6.095396876E-1,3.083478451E0
7.574350989E1,1.973048925E0,-1.864867806E0,3.746267319E0
7.579550318E1,2.635837555E0,6.372363567E-1,4.275276661E0
7.584749661E1,1.286436439E0,-5.716660023E-1,2.350440264E0
7.589946869E1,2.797106266E0,-4.542290211E0,2.913047075E0
7.595146195E1,3.322649002E-1,-2.505665302E0,-5.331448838E-2
7.600345590E1,-4.266328812E0,-5.723092556E0,-2.293357372E0
7.605544956E1,-5.202174187E0,1.107602596E0,-1.036807537E0
7.610744295E1,-5.723242283E0,2.599335432E0,-2.835194826E0
7.615943621E1,-3.629807234E0,2.701062858E-1,-3.507146597E0
7.621143116E1,-5.467702150E-1,3.718440771E0,4.420972168E-1
7.626343005E1,1.458700418E0,3.103299379E0,1.627175808E0
7.631542621E1,8.637176752E-1,2.884609699E0,5.175433680E-2
7.636741960E1,1.189308882E0,1.220612526E0,7.823491693E-1
7.641941289E1,1.667616367E0,-1.787898660E0,2.693746567E0
7.647140622E1,2.238164663E0,3.977771401E-1,4.146384239E0
7.652339958E1,1.667616367E0,-3.835195303E-1,6.393146515E0
7.657539287E1,7.983550429E-1,-1.730477452E0,4.934400558E0
7.662738630E1,9.728029370E-3,-2.326681852E0,3.071871996E0
7.667937959E1,-1.763613820E0,-2.620507956E0,7.646340728E-1
7.673137381E1,-6.121327877E-1,-9.197083473E0,-2.155301809E0
7.678336723E1,-4.700043201E0,2.252974749E0,-2.100323915E0
7.683536059E1,-5.456294060E0,4.626797199E0,-2.486390829E0
7.688735395E1,-5.159413338E0,7.591937065E0,-4.140002728E0
7.693934718E1,-1.216278553E0,9.188738823E0,-2.093862742E-2
7.699134060E1,4.232838154E-1,1.703806996E0,-1.132713437E0
7.704333403E1,8.484460115E-1,1.986350566E-1,3.403924406E-2
7.709532745E1,7.537618876E-1,-7.549256086E-1,1.140625924E-1
7.714732164E1,1.530782461E0,-1.688327670E0,3.913954198E-1
7.719931496E1,1.037814260E0,-2.051181555E0,2.867842913E0
7.725130829E1,1.513067365E0,-5.487402529E-2,4.399282455E0
7.730330258E1,1.611416698E0,1.135091424E0,5.059016705E0
7.735529874E1,8.783783913E-1,-1.291876078E0,4.395617008E0
7.740729230E1,1.787346005E0,-4.057874203E0,3.369363546E0
7.745928572E1,-7.294189334E-1,-6.341898918E0,1.483622432E0
7.751127891E1,-4.227233410E0,-5.107340336E0,-3.571898222E0
7.756327231E1,-6.207658291E0,2.485714674E0,-1.669053078E0
7.761526570E1,-5.262650013E0,3.888261318E0,-3.260356903E0
7.766725896E1,-2.897379637E0,2.370260954E0,-2.670871973E0
7.771925252E1,4.403880239E-1,1.762450099E0,8.800876141E-1
7.777124667E1,3.603646755E-1,3.080697298E0,-4.906939864E-1
7.782324000E1,5.668371320E-1,6.213538051E-1,3.584086895E-1
7.787523332E1,1.028040409E0,2.982060909E-1,1.077397108E0
7.792722665E1,1.166095972E0,-1.415881872E0,2.973522663E0
7.797922007E1,2.119656563E0,-3.532529831E0,3.500088692E0
7.803121330E1,3.536864042E0,-1.783622622E0,3.488482237E0
7.808320669E1,2.539320946E0,4.646344662E0,9.087982774E-1
7.813520061E1,1.173426270E0,3.085907996E-1,1.786000729E0
7.818719427E1,-4.862945676E-1,-3.482439041E0,-1.284509152E-1
7.823918773E1,9.728029370E-3,1.650374532E-1,6.552891731E-1
7.829118105E1,-3.365302563E0,-3.823912621E0,-1.758239388E0
7.834317524E1,-6.316392422E0,-3.790925741E0,-3.818687677E0
7.839517400E1,-7.324931145E0,3.075810194E0,-3.205990076E0
7.844717116E1,-8.300482750E0,8.162485123E0,-3.744773149E0
7.849916535E1,2.396378756E0,1.773445725E0,1.274706602E0
7.855115878E1,1.154077128E-1,2.778929949E0,1.824485183E0
7.860315200E1,8.075180650E-1,1.990302801E0,1.388069056E-2
7.865514536E1,1.535058618E0,7.096421719E-2,1.335182309E0
7.870713872E1,1.268721342E0,-1.698712349E0,3.204429865E0
7.875913211E1,1.833771586E0,-3.932933509E-1,4.631411076E0
7.881112630E1,1.129444003E0,-2.316297054E0,6.722403049E0
7.886311976E1,-7.275863290E-1,-1.859980822E0,4.633243561E0
7.891511308E1,1.099511623E0,-5.949112892E0,3.276511908E0
7.896710644E1,-6.357580423E-2,-6.663501859E-1,6.058091521E-1
7.901909963E1,-2.584005833E0,-7.109432817E-1,-2.430802107E0
7.907109303E1,-4.703097343E0,7.814005017E-1,-2.131478071E0
7.912308635E1,-5.124594212E0,2.521144867E0,-3.164451122E0
7.917507998E1,-4.737305641E0,4.510733128E0,-2.962255001E0
7.922707410E1,-2.859506130E0,6.274624467E-1,-2.035572290E0
7.927906739E1,2.142258644E0,7.007663250E-1,1.469572544E0
7.933106068E1,2.353007078E0,4.100231647E0,1.578917503E0
7.938305417E1,9.461844563E-1,1.692200541E0,5.777093172E-1
7.943504820E1,8.826544881E-1,-1.795229077E0,2.111592054E0
7.948704692E1,1.448315620E0,-4.452493191E0,2.796371937E0
7.953904381E1,3.852681398E0,-4.819012165E0,2.239262581E0
7.959103737E1,3.714625835E0,2.180892706E0,6.161938310E-1
7.964303076E1,2.908283710E0,5.370220184E0,1.663216829E0
7.969502429E1,3.117199421E0,1.658603072E0,2.195280552E0
7.974701761E1,8.484460115E-1,-4.205092430E0,8.196119666E-1
7.979901077E1,-2.793532372E0,-3.163567066E0,-8.663761020E-1
7.985100406E1,-3.291998625E0,4.142704904E-1,-1.198686719E0
7.990299772E1,-4.624906540E0,2.780475318E-1,-2.931100607E0
7.995499174E1,-4.930950165E0,8.965773582E0,-3.074654102E0
8.000698510E1,-2.052552938E0,1.048348665E0,-1.840095282E0
8.005897849E1,-5.467702150E-1,-3.664153218E-1,-1.909123063E0
8.011097175E1,1.343445480E-1,3.722716570E0,-2.823889554E-1
8.016296518E1,4.458858073E-1,3.171429038E-1,-2.891084552E-1
8.021495840E1,9.816146493E-1,-2.577747583E0,7.017149925E-1
8.026695170E1,2.302503884E-1,-3.499219418E-1,2.989405155E0
8.031894582E1,-3.659541011E-1,2.389521599E-1,4.837883472E0
8.037093940E1,-9.762085080E-1,-2.858745575E0,4.549555302E0
8.042293276E1,-6.799388528E-1,-2.155028820E0,3.327213764E0
8.047492619E1,-9.187871814E-1,-1.896632671E0,2.781100273E0
8.052691992E1,-9.878149629E-1,-2.419533491E0,2.012020826E0
8.057891617E1,2.874075174E0,3.147892237E0,1.640614867E0
8.063091020E1,9.449626803E-1,-4.213931561E-1,3.563618660E0
8.068290342E1,-3.174712420E0,-9.381851554E-1,-3.746296167E-1
8.073489678E1,-4.365900040E0,3.829618216E0,-3.047165155E0
8.078689014E1,-4.503344059E0,4.123444557E0,-5.220623493E0
8.083888347E1,-4.168590546E0,3.557782888E0,-4.342810154E0
8.089087679E1,-4.154341817E-1,8.974649310E-1,-2.477227688E0
8.094287071E1,-6.982647777E-1,3.172937870E0,-2.280219495E-1
8.099486450E1,-1.230939388E0,-1.883804560E0,1.814100623E0
8.104685793E1,-9.106473625E-2,-3.053611517E0,3.311942101E0
8.109885125E1,3.713602722E-1,-1.930841208E0,5.167750835E0
8.115084451E1,8.295091987E-1,-3.567349195E0,3.772534370E0
8.120283774E1,1.589425564E0,-2.313242912E0,2.627773285E0
8.125483120E1,-5.968611240E-1,1.880957842E0,3.963124514E0
8.130682456E1,1.667005539E0,-1.613191247E0,2.183674097E0
8.135881841E1,-2.920393944E-1,-2.682816505E0,5.398356915E-1
8.141081213E1,-2.665251017E0,1.852858186E0,-4.723680317E-1
8.146280573E1,-3.880261898E0,5.288364410E0,-1.554210424E0
8.151479905E1,-5.275477886E0,3.362306118E0,-3.294565439E0
8.156679257E1,-2.956022739E0,3.045877934E0,-3.062436819E0
8.161879070E1,1.170982957E0,4.559602261E0,4.747828096E-2
8.167078829E1,1.123533919E-1,-1.517285347E0,-9.885491729E-1
8.172278322E1,-5.803678036E-1,-3.259473085E0,6.577326655E-1
8.177477658E1,-1.033018947E0,-1.932673812E0,1.983921170E0
8.182676990E1,-5.779243112E-1,-7.616451383E-1,4.026043892E0
8.187876319E1,4.623791873E-1,-2.169078588E0,5.142094135E0
8.193075655E1,5.931043029E-1,-3.406080723E0,3.330268145E0
8.198274985E1,5.979912877E-1,-1.422601342E0,2.813476086E0
8.203474400E1,-9.438326359E-1,-2.962592602E0,1.012645364E0
8.208673752E1,-6.921561360E-1,-1.157485843E0,1.380997062E0
8.213873092E1,-5.589874983E-1,1.646996617E0,-1.353235722E0
8.219072418E1,-1.759337783E0,7.044314742E-1,-2.190121174E0
8.224271760E1,-2.712287664E0,-7.530930042E-1,-2.759447575E0
8.229471086E1,-3.265731335E0,7.742209911E0,-1.931114316E0
8.234670419E1,-1.763002872E0,5.722078800E0,-1.651028246E-1
8.239869768E1,-5.467702150E-1,4.961264431E-1,-1.993112862E-1
8.245069186E1,6.651864648E-1,-1.834935308E0,-1.183415174E0
8.250268522E1,6.653849781E-2,-2.226500034E0,7.719644904E-1
8.255467858E1,-2.489275998E-3,-1.356627822E0,1.605184674E0
8.260667184E1,-5.809786320E-1,1.044072509E0,3.448164940E0
8.265866546E1,1.233901978E0,-2.958927393E0,2.316231728E0
8.271066355E1,2.596742392E0,-1.220691949E-1,1.588691235E0
8.276266104E1,6.541908383E-1,-7.940210104E-1,1.103664279E0
8.281465520E1,-9.181762934E-1,-1.949778080E0,1.876761205E-2
8.286664853E1,1.244897604E0,-7.585620403E0,2.539507151E-1
8.291864195E1,2.693457603E-1,2.146684408E0,-2.005028963E0
8.297063521E1,-2.034837961E0,2.259694338E0,-1.906679630E0
8.302262867E1,-4.328636646E0,2.118584394E0,-4.694668293E0
8.307462196E1,-3.092245579E0,3.106964588E0,-3.254859209E0
8.312661578E1,-3.189373255E0,-1.272328496E0,-2.972028494E0
8.317858032E1,3.710349560E0,1.334844351E0,1.804326773E0
8.323057364E1,5.362938643E-1,4.321975708E0,1.460409522E0
8.328256690E1,5.393481851E-1,4.594745040E-1,6.125286222E-1
8.333456039E1,1.183811069E0,-2.458017826E0,2.566075802E0
8.338655372E1,3.445234060E0,-2.246945649E-1,2.974744558E0
8.343854701E1,2.157530308E0,6.604778767E0,4.763968945E0
8.349054034E1,5.796653032E-1,-3.206003904E-1,4.416386604E0
8.354253399E1,1.117425263E-1,-5.211798191E0,3.523000479E-1
8.359452795E1,-9.132893682E-1,-2.950986147E0,-3.239277899E-1
8.364652134E1,-2.543077946E0,-2.361501217E0,-2.505327702E0
8.369851463E1,-4.366510868E0,1.794825912E0,-2.777162552E0
8.375050819E1,-3.668291569E0,9.112276882E-2,-2.931100607E0
8.380250421E1,-2.828351736E0,2.551077127E0,-3.816855192E0
8.385449870E1,1.524673820E0,3.413007975E0,2.554469347E0
8.390649210E1,-2.321746051E-1,1.864464641E0,1.197737575E0
8.395848535E1,-8.424290419E-1,-9.626197219E-1,9.268230200E-2
8.401047868E1,-8.251262456E-2,-5.453988314E-1,4.256038368E-1
8.406247207E1,-7.823656499E-2,-1.629073739E0,1.798828959E0
8.411446533E1,1.431211472E0,-2.111046314E0,2.927096844E0
8.416645942E1,2.762897730E0,-7.475951910E-1,3.264905453E0
8.421845301E1,1.577819109E0,2.395630181E-1,2.689470530E0
8.427044640E1,1.471727192E-1,2.137521267E0,1.722470880E0
8.432243973E1,4.055686891E-1,-5.509901047E0,1.145813942E0
8.437443299E1,-7.709577680E-1,-6.197124004E0,-1.317805529E0
8.442642638E1,-3.328650713E0,6.384580135E-1,-2.476616859E0
8.447841997E1,-5.301744938E0,-1.262554526E0,-2.393539190E0
8.453041303E1,-5.823424339E0,4.157042027E0,-3.491874933E0
8.458240692E1,-7.679843903E0,4.029371262E0,-1.010540366E0
8.463440064E1,3.323060989E0,8.583695292E-1,3.602102995E0
8.468639403E1,1.687774897E0,3.436831713E0,5.502203703E-1
8.473838742E1,1.592479825E0,1.882790565E0,-6.556276083E-1
8.479038085E1,2.297418356E0,-7.158302069E-1,4.646992385E-1
8.484237797E1,2.007868290E0,1.742902398E0,1.929554105E0
8.489437616E1,1.824608684E0,2.734947443E0,4.815892696E0
8.494637068E1,-1.710880846E-1,-2.978475094E0,5.051075459E0
8.499836408E1,3.285187483E0,-2.691979170E0,2.911825418E0
8.505035734E1,6.285345554E-1,-4.895980835E0,5.001294017E-1
8.510235073E1,-9.462760687E-1,-2.190459013E0,-1.511449814E0
8.515434406E1,-3.502747059E0,1.503443241E0,-2.527318954E0
8.520633741E1,-3.985941648E0,-3.536195040E0,-2.267700911E0
8.525833077E1,-3.034824371E0,1.799712896E0,-2.784492970E0
8.531032476E1,-5.473811030E-1,7.718997002E0,-4.146111965E0
8.536231835E1,1.905441433E-1,6.767879963E0,1.102442503E0
8.541431188E1,-1.257206559E0,-4.183388352E-1,4.763056934E-1
8.546630507E1,-1.436800957E0,-1.718870997E0,-1.974786818E-1
8.551829843E1,4.882340506E-2,-1.197192073E0,-5.878216028E-1
8.557029179E1,1.844354868E-1,-1.779346585E0,6.491805315E-1
8.562228505E1,6.120411158E-1,-7.390431166E-1,2.042564154E0
8.567427864E1,1.925401449E0,-1.507511616E0,3.460993052E0
8.572627279E1,1.611416698E0,-7.503257692E-2,2.189782619E0
8.577826612E1,7.812508345E-1,-9.840000868E-1,1.425590277E0
8.583025944E1,4.821253940E-2,-1.608304262E0,6.516240239E-1
8.588225283E1,8.364272118E-2,-4.853220940E0,-3.929555714E-1
8.593424839E1,-2.694373727E-1,-6.046240330E0,-1.754875332E-1
8.598624345E1,-3.140504122E0,-6.260330081E-1,-2.771054029E0
8.603823677E1,-6.326166630E0,9.634383321E-1,-2.942707062E0
8.609023013E1,-8.054304123E0,6.055610657E0,-3.174835920E0
8.614222342E1,3.283965826E0,5.141652748E-2,1.083505750E0
8.619421685E1,8.869305253E-1,1.814373612E0,2.317453623E0
8.624621021E1,2.775725842E0,3.849776506E0,-1.901482940E-1
8.629820347E1,2.509999514E0,2.059941292E0,8.697028756E-1
8.635019769E1,2.109882832E0,-7.989078760E-1,1.169637680E0
8.640219114E1,2.643168211E0,-1.794905365E-1,2.558745384E0
8.645418450E1,2.451356411E0,-6.892392784E-2,2.239873648E0
8.650617786E1,2.973035336E0,-1.097164631E1,2.365101099E0
8.655817106E1,2.546849847E-1,4.734309673E0,-5.859889388E-1
8.661016448E1,-3.567498684E0,1.271638125E-1,-2.589016199E0
8.666215791E1,-6.715287685E0,-3.346503079E-1,-3.741718769E0
8.671415123E1,-4.106893063E0,2.827188253E0,-4.026992798E0
8.676614545E1,-2.297509909E0,-3.334609509E0,-3.948191404E0
8.681813884E1,2.015198708E0,9.597731233E-1,6.259676218E-1
8.687013230E1,3.090519905E-1,4.319532394E0,3.851336241E0
8.692212550E1,1.271164775E0,6.158559918E-1,6.785020828E-1
8.697412182E1,5.509546399E-1,6.769425869E-1,1.872743607E0
8.702612040E1,3.145497739E-1,-1.821496367E0,1.948490977E0
8.707811553E1,4.880355299E-1,-3.330944300E0,2.941757917E0
8.713010886E1,6.517473459E-1,-1.838600636E0,3.677239418E0
8.718210215E1,8.087397218E-1,-5.496748686E-1,4.598424435E0
8.723409571E1,-2.737134397E-1,-1.327917218E0,2.578903913E0
8.728608923E1,-1.101435781E0,-5.174535751E0,1.126266360E0
8.733808229E1,-2.631653309E0,-8.202881217E-1,-8.914216161E-1
8.739007552E1,-4.685993195E0,1.251766682E0,-2.587794542E0
8.744206937E1,-4.668277740E0,2.452116966E0,-2.820533991E0
8.749406316E1,-4.634069443E0,1.810708404E0,-4.667179585E0
8.754605649E1,-1.305464864E0,1.784441233E0,-6.983881593E-1
8.759804988E1,1.489243627E0,4.204078674E0,2.066998720E0
8.765004314E1,1.952890396E0,3.670182228E0,1.941771388E0
8.770203657E1,2.181964874E0,2.524809837E0,1.870911002E0
8.775402996E1,1.693883538E0,-4.336104691E-1,9.869890213E-1
8.780602335E1,2.647444010E0,-2.435415745E0,2.209330320E0
8.785801711E1,2.835590601E0,-1.250948071E0,2.857458591E0
8.791001096E1,2.349341869E0,5.682085156E-1,3.961902857E0
8.796200428E1,7.500966787E-1,1.041018248E0,2.172678471E0
8.801399761E1,-1.009806037E0,-1.511176705E0,7.435635477E-2
8.806599263E1,-2.277962446E0,-8.057208061E0,-2.495553732E0
8.811798829E1,-3.800238609E0,-2.649218798E0,-1.598803639E0
8.816998152E1,-5.225387096E0,4.709875107E0,-1.267103791E0
8.822197484E1,-5.828921795E0,-1.364569068E0,-2.826642513E0
8.827396837E1,-4.722033978E0,1.664100885E0,-4.364190578E0
8.832596146E1,-1.150305033E0,6.251087666E0,-2.593292236E0
8.837795499E1,3.238150835E0,3.947515249E0,5.123157501E0
8.842994831E1,1.565601826E0,1.614009738E0,2.770104647E0
8.848194194E1,3.244870424E0,6.567839980E-1,5.990896225E-1
8.853393589E1,2.003592253E0,8.492065668E-1,2.105793059E-1
8.858592925E1,1.706711650E0,-1.468416214E0,1.066401482E0
8.863792264E1,2.062235355E0,-1.683440804E0,1.563645840E0
8.868991593E1,1.938840508E0,8.253828287E-1,2.674809933E0
8.874190926E1,2.753734589E0,-7.815306187E0,5.698592663E0
8.879390265E1,-4.074929059E-1,-2.930827618E0,5.147902369E-1
8.884589591E1,-5.235161304E0,1.582855701E0,-1.881023288E0
8.889788990E1,-7.285224438E0,3.491198778E0,-3.647645473E0
8.894988369E1,-5.083055496E0,2.694630384E0,-5.042251110E0
8.900187691E1,-2.920393944E-1,-5.348021507E0,-5.877303600E0
8.905387030E1,3.917433023E0,1.391654849E0,4.508626938E0
8.910586559E1,2.101941347E0,4.490574360E0,5.938051701E0
8.915786425E1,1.651122928E0,-1.953730285E-1,2.138469934E0
8.920986091E1,1.413496375E0,2.169897318E0,1.832426548E0
8.926185473E1,3.780797720E-1,3.292667389E0,8.281640410E-1
8.931384789E1,4.088215530E-2,-2.465959311E0,2.102428913E0
8.936584135E1,-2.814561687E-2,-3.754273891E0,3.348593950E0
8.941783471E1,-2.010204792E-1,-1.908239126E0,4.300322056E0
8.946982790E1,-2.847090065E-1,-2.059122801E0,5.473183632E0
8.952182143E1,-1.871736884E0,-2.692589998E0,2.170845985E0
8.957381545E1,-4.279767513E0,-2.189848185E0,-7.503117323E-1
8.962580901E1,-4.588865757E0,-2.284532309E0,-1.320859909E0
8.967780236E1,-5.399483681E0,5.059900761E0,-2.549309731E0
8.972979562E1,-6.164897919E0,3.055651903E0,-4.562721729E0
8.978178892E1,-3.011000395E0,-6.089287996E-1,-2.081387281E0
8.983378238E1,7.128339410E-1,5.351283073E0,-2.720042467E-1
8.988577567E1,9.009804130E-1,4.582203865E0,3.806132078E0
8.993776919E1,2.511221170E0,1.949374914E0,3.672963619E0
8.998976338E1,1.103787661E0,7.279681414E-2,2.722457170E0
9.004175664E1,1.388450980E0,-3.295514107E0,3.117076159E0
9.009374996E1,2.146534681E0,-5.487298965E0,3.470156193E0
9.014574336E1,1.995040059E0,-5.875484943E-1,3.705339432E0
9.019773868E1,1.057972789E0,-3.539860249E0,5.520220280E0
9.024973730E1,5.515654683E-1,-1.936339021E0,2.421911478E0
9.030173336E1,-4.007734060E-1,-2.706640244E0,3.480540991E0
9.035372668E1,-3.951733112E0,-1.376786351E0,-2.017857075E0
9.040571997E1,-4.420877457E0,8.415383339E0,-2.288470507E0
9.045574914E1,-4.980430126E0,3.029384613E0,-4.223691463E0
9.050774254E1,-5.824035168E0,-8.752660751E-1,-4.111292362E0
9.055973593E1,-1.089218497E0,9.554970860E-1,-2.067337275E0
9.061172929E1,1.279716969E0,6.070271969E0,2.819584608E0
9.066372301E1,1.887527823E0,2.427071571E0,2.054170609E0
9.071571700E1,1.530782461E0,5.437739491E-1,2.156795979E0
9.076771016E1,1.371957541E0,-2.214893579E0,2.615555763E0
9.081970358E1,1.461143851E0,-4.696228027E0,2.345553160E0
9.087169684E1,2.827649355E0,-3.861786127E0,3.531242609E0
9.092369017E1,2.561312199E0,-1.752144843E-1,3.482984304E0
9.097568353E1,1.667005539E0,2.592616081E0,3.617985487E0
9.102767692E1,4.684878290E-1,-2.616335824E-2,2.530034781E0
9.107967064E1,-1.606621504E0,-2.283597589E-1,1.395046949E0
9.113166456E1,-3.897977114E0,1.644266099E-1,-1.651337981E0
9.118365789E1,-4.535109520E0,3.970727921E0,-3.579839706E0
9.123565118E1,-6.769043446E0,3.944460630E0,-2.983024120E0
9.128764551E1,-6.442230701E0,-1.111670852E0,-4.466205120E0
9.133964170E1,-1.110598922E0,-3.713956833E0,-4.053259850E0
9.139163526E1,2.563755512E0,5.518660545E0,4.267946243E0
9.144362865E1,3.621163368E0,3.905976295E0,4.176316261E0
9.149562191E1,2.180132389E0,4.530280113E0,2.539507151E-1
9.154761523E1,4.220620692E-1,-5.899919868E-1,2.395644188E0
9.159960863E1,-3.058907762E-2,-4.046878338E0,2.781100273E0
9.165160185E1,2.919477820E-1,-5.907573700E0,3.347372293E0
9.170359568E1,5.869956613E-1,-4.646748066E0,4.517789841E0
9.175558960E1,-2.663830519E-1,1.690367937E0,4.388286591E0
9.180758296E1,6.187607050E-1,-1.269561201E-1,3.724276066E0
9.185957631E1,-2.028530687E-1,-2.247269392E0,1.729190350E0
9.191156957E1,-1.808817744E0,1.119819880E0,-6.232517958E-1
9.196356297E1,-3.751369476E0,3.898645639E0,-2.564581633E0
9.201555639E1,-3.949289560E0,-1.032869220E0,-3.521196604E0
9.206754962E1,-4.026869774E0,-2.143098563E-1,-2.643993855E0
9.211954360E1,-4.478298664E0,9.151799679E-1,-1.405159354E0
9.217153723E1,2.359115839E0,3.541289806E0,2.376707554E0
9.222353072E1,2.167915106E0,3.642693281E0,2.784765482E0
9.227552408E1,2.102552176E0,1.156471848E0,1.343123436E0
9.232751813E1,2.128208637E0,4.990769085E-3,1.883128285E0
9.237951692E1,8.282874823E-1,-1.841654897E0,2.047451019E0
9.243151402E1,-4.586071149E-2,-4.896591663E0,2.657094717E0
9.248350831E1,1.084850788E0,-3.539860249E0,2.928318739E0
9.253550167E1,7.995767593E-1,-4.507146776E-1,2.718791962E0
9.258749493E1,-1.814727932E-1,4.073353291E0,1.302806377E0
9.263948832E1,7.081454992E-2,2.507705450E0,3.107612133E-1
9.269148168E1,-1.994520903E0,-8.724988252E-2,-3.144292831E0
9.274347504E1,-4.360401630E0,-6.089287996E-1,-4.176043987E0
9.279546926E1,-5.443465710E0,-3.168454170E0,-3.696514845E0
9.284746262E1,-5.028688431E0,-1.140992403E0,-2.933544159E0
9.289945601E1,1.378066182E0,-8.358469605E-2,2.512319565E0
9.295144934E1,1.776350379E0,4.063579559E0,2.842186689E0
9.300344263E1,7.287164330E-1,3.340314865E0,2.694968224E0
9.305543602E1,1.870423555E0,2.045280695E0,1.267987013E0
9.310742938E1,1.283382058E0,-1.028593302E0,1.645501733E0
9.315942297E1,7.940790057E-1,-3.401804686E0,1.538600326E0
9.321141719E1,5.595067739E-1,-5.607639313E0,1.599076033E0
9.326341025E1,1.028040409E0,-6.266438961E-1,1.160474777E0
9.331540361E1,9.412975311E-1,2.219377279E0,2.216660738E0
9.336739710E1,6.890102029E-1,5.150632262E-1,3.106691360E0
9.341939116E1,-3.952756226E-1,-3.749673963E-1,7.463080883E-1
9.347138981E1,-2.015290260E0,-3.960239515E-2,-6.654015183E-1
9.352338670E1,-5.017693043E0,-1.110449195E0,-4.574327946E0
9.357538033E1,-5.054344654E0,7.264513016E0,-6.043458939E0
9.362737368E1,-4.989593029E0,-6.248112917E-1,-6.084998131E0
9.367936701E1,8.771566749E-1,-3.162345409E0,-1.644618392E0
9.373136034E1,3.542560339E-1,3.033660650E0,4.082853794E0
9.378335369E1,-9.778425843E-2,3.332373857E0,3.540405750E0
9.383534705E1,1.796508908E0,-7.152193785E-1,2.077383518E0
9.388734074E1,1.632186174E0,-1.607693434E0,2.872119188E0
9.393933476E1,2.156919479E0,-5.935062885E0,8.825310469E-1
9.399132809E1,3.227766037E0,-3.408524275E0,-4.039511383E-1
9.404332141E1,3.269304991E0,5.326848507E0,5.587724447E-1
9.409531467E1,1.775739551E0,5.632892132E0,2.902051449E0
9.414730803E1,1.160598159E0,-1.724979639E0,2.723679066E0
9.419930136E1,1.750083089E0,-8.031839728E-1,5.154010653E-1
9.425129465E1,-2.901655674E0,-4.837948799E0,-2.676369905E0
9.430328901E1,-6.563793182E0,-8.099034429E-1,-5.527277946E0
9.435528243E1,-5.401316643E0,8.913562894E-1,-5.915788174E0
9.440727569E1,-5.052512169E0,-7.316839695E0,-6.318959236E0
9.445926908E1,1.188086987E0,1.270092607E0,1.865413189E0
9.451126280E1,-1.655903012E-1,3.701336384E0,6.120090008E0
9.456325913E1,8.730791509E-2,-9.833891988E-1,1.958875656E0
9.461525312E1,1.729313731E0,2.165010214E0,2.151298046E0
9.466724645E1,1.051253319E0,9.976468086E-1,2.609447002E0
9.471923974E1,1.232680321E0,-3.022457361E0,1.804326773E0
9.477123307E1,2.641946316E0,-4.294889450E0,8.635942340E-1
9.482322659E1,3.001746178E0,1.199232340E0,1.547152519E0
9.487521982E1,1.980379224E0,2.502207994E0,2.371820450E0
9.492721374E1,7.592597008E-1,3.702558041E0,2.552636623E0
9.497920766E1,-2.014068365E0,-4.846500874E0,-1.086287618E0
9.503120089E1,-5.952316761E0,3.172327042E0,-3.819298744E0
9.508319411E1,-6.516756535E0,-9.064201713E-1,-4.888923645E0
9.513518747E1,-5.389099121E0,-3.732893467E0,-5.585309982E0
9.518718073E1,-1.930379987E0,2.234038115E0,-2.350778580E0
9.523917416E1,2.101941347E0,5.927940369E0,4.018102169E0
9.529116755E1,2.119244188E-1,-8.105143309E-1,3.978396177E0
9.534316144E1,1.340803385E0,2.267348468E-1,3.352259159E0
9.539515513E1,1.123946309E0,2.177838326E0,3.698009014E0
9.544714848E1,6.108194590E-1,-2.426252842E0,1.386494875E0
9.549914181E1,1.356075048E0,-3.767102003E0,1.672379851E0
9.555113543E1,1.456256986E0,-1.360293150E0,1.408486128E0
9.560313359E1,1.805671930E0,6.903815866E-1,2.227045298E0
9.565513111E1,5.417916775E-1,1.252988577E0,2.332114220E0
9.570712524E1,5.124701262E-1,-8.663901687E-2,5.538855791E-1
9.575911876E1,-2.376922369E0,-2.197178364E0,-3.457666397E0
9.581111179E1,-6.048833370E0,4.203791618E-1,-5.190080643E0
9.586310512E1,-5.945597172E0,5.382761359E-1,-5.728252411E0
9.591509851E1,-4.144766808E0,-3.995565653E0,-4.904195309E0
9.596709184E1,2.099498034E0,3.336039066E0,1.907562971E0
9.601908539E1,5.283526182E-1,3.717829943E0,4.293602467E0
9.607107935E1,6.529691219E-1,2.658302188E-1,2.690081358E0
9.612307277E1,1.842934608E0,2.307341814E0,3.147619486E0
9.617506620E1,7.177208066E-1,1.198621511E0,2.104872227E0
9.622705966E1,1.681055307E0,-5.177589893E0,1.278982639E0
9.627905291E1,1.445872188E0,-1.754912019E0,2.763385296E0
9.633104611E1,6.743494272E-1,1.167791039E-1,3.727330685E0
9.638303957E1,9.846689701E-1,-2.918897271E-1,4.355910778E0
9.643503336E1,3.011107445E-1,-4.812579751E-1,2.864177942E0
9.648702724E1,-1.007973433E0,-4.919804573E0,1.775925756E-1
9.653902057E1,-4.762351036E0,-1.849883199E-1,-3.568233252E0
9.659101396E1,-6.786148071E0,2.478995085E0,-5.083789349E0
9.664300739E1,-5.682314396E0,3.159498692E0,-6.731293678E0
9.669500344E1,-4.820994377E0,-2.530710936E0,-6.286583424E0
9.674699784E1,3.360323906E0,6.237648964E0,1.621067166E0
9.679899116E1,1.538922340E-1,4.201634884E0,6.449956894E0
9.685098455E1,1.402500749E0,-9.186374545E-1,3.385856867E0
9.690297801E1,1.737865806E0,1.659824729E0,2.704131365E0
9.695497111E1,5.002527833E-1,-6.675718427E-1,1.708420873E0
9.700696447E1,-2.462245077E-1,-2.435415745E0,1.799439788E0
9.705895809E1,8.264548182E-1,-4.470818996E0,1.488509417E0
9.711095221E1,1.205191255E0,-3.898438215E0,1.730412006E0
9.716294560E1,1.394559622E0,8.724194169E-1,2.305236340E0
9.721493893E1,3.538436815E-2,1.027579188E0,3.089286089E-1
9.726693215E1,-9.004611969E-1,-4.659575939E0,-2.045346022E0
9.731892561E1,-5.852134705E0,9.335058928E-1,-2.737456322E0
9.737091894E1,-5.796545982E0,5.681150436E0,-4.607315063E0
9.742291216E1,-6.057385921E0,2.847957611E0,-5.447254181E0
9.747490609E1,-2.746495962E0,2.270689964E0,-1.710591912E0
9.752689994E1,3.510596752E0,6.115799546E-1,2.789041519E0
9.757889326E1,1.584538579E0,2.227929354E0,2.338833809E0
9.763088666E1,3.780599117E0,2.232205629E0,2.553247452E0
9.768287998E1,2.516719103E0,1.560864449E0,1.304028034E0
9.773487195E1,1.627299190E0,-2.346229553E0,4.274364710E-1
9.778687015E1,1.993207574E0,-2.237495661E0,2.185205519E-1
9.783886554E1,7.219969034E-1,5.675976276E-1,1.070066690E0
9.789085886E1,2.265653372E0,2.619493961E0,1.781724691E0
9.794285216E1,2.262599230E0,6.529642582E0,3.880657673E0
9.799484558E1,-5.235573053E-1,-7.016294479E0,1.421623975E-1
9.804683881E1,-4.497846603E0,-5.435375214E0,-2.537703276E0
9.809883217E1,-6.758048058E0,3.559004784E0,-4.843108654E0
9.815082609E1,-7.459932327E0,5.840910077E-1,-6.081943512E0
9.820281978E1,-4.288732409E-1,-1.597919703E0,-3.666582584E0
9.825481324E1,2.359115839E0,-2.335233927E0,2.985129118E0
9.830680660E1,3.502044678E0,1.609733820E0,3.687624216E0
9.835879982E1,1.751915693E0,2.707458496E0,3.188547373E0
9.841079325E1,8.942609429E-1,2.390419483E0,4.136610508E0
9.846278654E1,8.105723858E-1,-2.371886015E0,1.672379851E0
9.851477987E1,1.721983314E0,-3.461058617E0,-5.453621596E-2
9.856677409E1,2.107439280E0,-7.640885711E-1,4.891338646E-1
9.861876754E1,2.062846184E0,5.792040825E-1,2.633270741E0
9.867076084E1,1.524062991E0,-6.944499612E-1,2.610668898E0
9.872275423E1,1.075687885E0,1.386767983E0,4.200139999E0
9.877474762E1,-1.069670916E0,-5.032204151E0,1.629318148E-1
9.882674481E1,-5.770889759E0,1.309798956E0,-2.532205582E0
9.887874296E1,-7.218029976E0,3.960954189E0,-4.623197079E0
9.893073776E1,-6.790423870E0,-5.032491088E-1,-6.245044231E0
9.898273092E1,-6.117250443E0,-4.104300022E0,-3.815022707E0
9.903472414E1,2.068343878E0,1.788106441E0,-1.226175785E0
9.908671757E1,7.360467911E-1,4.563878059E0,5.657053947E0
9.913871089E1,2.245494843E0,1.666544199E0,4.183647156E0
9.919070422E1,2.930274725E0,1.036742210E0,2.680918455E0
9.924269798E1,2.193571329E0,-3.505328000E-1,2.745059013E0
9.929469186E1,1.502682686E0,-4.861161709E0,1.239887238E0
9.934668519E1,1.773906827E0,-1.946112752E0,1.494007230E0
9.939867865E1,8.301200271E-1,4.955155551E-1,2.948477268E0
9.945067191E1,3.133280575E-1,-1.434818625E0,3.395019770E0
9.950266523E1,1.397003055E0,-1.859980822E0,1.924056292E0
9.955465866E1,-1.695196867E0,2.336663246E0,-9.763318300E-1
9.960665192E1,-4.677441120E0,-1.235676527E0,-3.452779531E0
9.965864548E1,-4.472801208E0,4.369623184E0,-4.640912533E0
9.971063960E1,-3.546118736E0,6.909924150E-1,-6.420362949E0
9.976263292E1,-4.086123466E0,1.019027114E0,-4.022716999E0
9.981462628E1,2.428754330E0,3.263345957E0,7.191288471E-2
9.986661964E1,2.289477110E0,3.778916359E0,5.423703194E0
9.991861523E1,1.539945483E0,7.471920252E-1,3.322937727E0
9.997061022E1,2.063457012E0,8.675324917E-1,2.517206430E0
1.000226036E2,1.472139359E0,-8.844290376E-1,1.936884522E0
1.000745970E2,1.061637998E0,-3.035896540E0,1.144592285E0
1.001265903E2,1.307205796E0,-3.370650530E0,1.172081232E0
1.001785837E2,1.484967709E0,-9.357417226E-1,1.781724691E0
1.002305770E2,1.493519664E0,1.297581673E0,1.639393091E0
1.002825708E2,1.459509730E-1,1.695254922E0,7.456972599E-1
1.003345647E2,-1.767278910E0,-6.495225906E0,-1.923172951E0
1.003865581E2,-4.685382366E0,2.266413927E0,-2.221275091E0
1.004385512E2,-5.261428356E0,1.441135049E0,-3.968960762E0
1.004905448E2,-6.365261555E0,5.513773441E0,-3.565178633E0
1.005425379E2,-5.275477886E0,3.323821545E0,-2.847412109E0
1.005945314E2,2.643168211E0,-2.845917225E0,4.714187682E-1
1.006465247E2,2.040244102E0,1.525434375E0,2.391978979E0
1.006985184E2,2.094611168E0,4.210797787E0,3.763371468E0
1.007505123E2,3.530144453E0,2.019013405E0,2.733452797E0
1.008025058E2,1.892414689E0,-2.142200708E0,1.704144716E0
1.008544991E2,2.227169037E0,-4.075589180E0,1.455522656E0
1.009064924E2,1.553384542E0,-2.421365976E0,1.686429739E0
1.009584887E2,1.469085097E0,3.624367476E0,2.597840548E0
1.010104872E2,-8.739954233E-2,2.212370634E-1,2.974744558E0
1.010624823E2,-2.596635520E-1,-3.633322477E0,-9.060823917E-1
1.011144757E2,-1.106124297E-1,-8.428902030E-1,-1.981205225E0
1.011664691E2,-2.902877331E0,-5.079851627E0,-2.286638021E0
1.012184623E2,-5.375659943E0,8.701878548E0,-5.763682842E0
1.012704558E2,-6.930922985E0,-5.552050114E0,-4.114346504E0
1.013224491E2,-1.766057253E0,-1.021234226E1,-2.876733541E0
1.013744424E2,1.462976456E0,1.191901922E0,3.430449963E0
1.014264365E2,-1.613340974E0,6.105091095E0,4.119505882E0
1.014784301E2,2.453799725E0,2.852233648E0,3.095695734E0
1.015304234E2,5.248859897E-2,1.739237189E0,1.955210447E0
1.015824168E2,1.325119436E-1,-2.767115831E0,1.721248984E0
1.016344100E2,1.348133802E0,-7.126860619E0,1.953988791E0
1.016864035E2,5.851630569E-1,-2.785441637E0,2.653429508E0
1.017383967E2,2.866485156E-2,-1.182531238E0,5.647890568E0
1.017903900E2,2.561312199E0,-7.282631874E0,4.594148636E0
1.018423840E2,-1.250486970E0,3.996384382E0,1.390160084E0
1.018943778E2,-6.254084110E0,1.574303627E0,-1.266492963E0
1.019463712E2,-7.106852055E0,2.196775198E0,-2.276864052E0
1.019983646E2,-6.836849689E0,-1.270495892E0,-2.344058990E0
1.020503594E2,-2.021399021E0,-2.393877029E0,-6.464646459E-1
1.021023551E2,1.112950683E0,2.916985273E0,2.105483294E0
1.021543485E2,2.234499216E0,3.315269470E0,3.048048258E0
1.022063417E2,2.339568138E0,1.701363564E0,1.971092939E0
1.022583351E2,2.302305222E0,-1.691058129E-1,1.818987608E0
1.023103285E2,1.738476634E0,-6.376394629E-1,2.914268732E0
1.023623217E2,8.606633544E-1,-2.505054474E0,3.516582012E0
1.024143152E2,3.560886085E-1,-6.388935566E0,2.771326303E0
1.024663091E2,1.606117338E-1,-5.881306648E0,2.210551977E0
1.025183029E2,1.721983314E0,2.229151011E0,2.952142477E0
1.025702961E2,1.158765554E0,4.301206112E0,4.939287186E0
1.026222894E2,8.765458465E-1,-4.440275192E0,1.512333155E0
1.026742828E2,-1.613951802E0,2.006796122E0,-2.408810854E0
1.027262761E2,-4.960882187E0,5.952374935E0,-5.229175568E0
1.027782694E2,-5.224165440E0,2.358978242E-1,-5.615242481E0
1.028302628E2,-5.459959507E0,-4.150114536E0,-3.482712030E0
1.028822569E2,-5.834221244E-1,1.830866933E0,1.288145661E0
1.029342505E2,5.387372971E-1,2.329333067E0,2.812865257E0
1.029862437E2,3.294090554E-2,-3.920716643E-1,1.476902962E0
1.030382372E2,1.173426270E0,-5.612813234E-1,8.971918225E-1
1.030902327E2,1.271164775E0,1.212671399E0,1.062125444E0
1.031422314E2,1.404944181E0,-1.106783986E0,7.799056768E-1
1.031942271E2,2.265042543E0,-1.054249525E0,2.692223489E-1
1.032462205E2,1.983433604E0,7.606310844E-1,1.539211154E0
1.032982139E2,2.092167616E0,5.253544807E0,2.833634853E0
1.033502073E2,3.915188015E-1,-2.315686226E0,4.443875313E0
1.034022006E2,-1.314016938E0,-7.165345669E0,1.766453147E0
1.034541938E2,-4.240672588E0,2.742277861E0,-6.146996617E-1
1.035061873E2,-6.649313927E0,5.101763010E-1,-3.987286568E0
1.035581805E2,-8.071408272E0,-1.165714115E-1,-5.229175568E0
1.036101749E2,-1.417863965E0,-1.593319923E-1,-4.494915485E0
1.036621682E2,-5.070639849E-1,4.626186371E0,2.775602579E0
1.037141614E2,-3.547599912E-2,-1.082960248E0,3.742602110E0
1.037661548E2,1.234512806E0,-2.883180141E0,3.936246395E0
1.038181482E2,1.202136993E0,6.237972379E-1,4.198307514E0
1.038701415E2,-1.283275187E-1,-4.128734589E0,3.041328907E0
1.039221348E2,-1.283275187E-1,-4.096969128E0,1.418870687E0
1.039741285E2,6.706842184E-1,-2.497400343E-1,3.449696600E-1
1.040261225E2,2.091556787E0,-4.117738724E0,1.433841288E-1
1.040781160E2,1.699381351E0,3.049543142E0,-1.922562122E0
1.041301092E2,5.393481851E-1,5.263825879E-2,-1.615296841E0
1.041821037E2,-3.584603071E0,-1.513907313E-1,-1.821769357E0
1.042340998E2,-5.745844364E0,5.221779823E0,-4.809511185E0
1.042860932E2,5.882173777E-1,9.188127518E0,-1.983037829E0
1.043380865E2,-1.226312015E-2,3.967062712E0,1.850141644E0
1.043900798E2,-1.227274060E0,-4.831229687E0,-8.895890117E-1
1.044420733E2,-1.023855925E0,-8.099034429E-1,-1.663245559E-1
1.044940665E2,2.833956480E-1,-6.926173568E-1,9.588892460E-1
1.045460598E2,1.378677011E0,-1.697166860E-1,2.765828609E0
1.045980536E2,1.485578537E0,-9.595654011E-1,3.988169909E0
1.046500475E2,1.338359952E0,-3.198386431E0,2.960694551E0
1.047020410E2,9.388540387E-1,-1.343799710E0,8.489334583E-1
1.047540342E2,5.301852226E-1,-1.100064397E0,2.295161337E-1
1.048060276E2,9.425193071E-1,-4.142173290E0,-1.633622885E0
1.048580209E2,-5.441282317E-2,2.179059982E0,-1.413100481E0
1.049100142E2,-2.943805456E0,6.879380941E-1,-1.612242579E0
1.049620076E2,-5.868628502E0,-2.693200827E0,-1.043527126E0
1.050140017E2,-6.606553078E0,-3.114374280E-1,-4.050205708E0
1.050659923E2,1.731757164E0,6.027511120E0,-8.059004545E-1
1.051179858E2,-1.361664414E0,4.073964119E0,3.452441216E0
1.051699791E2,-1.761170268E0,-4.756092548E0,1.371834159E0
1.052219735E2,-2.046856731E-1,-2.312021017E0,2.871508360E0
1.052739723E2,1.498406649E0,-6.704142094E0,2.500102282E0
1.053259694E2,2.830703497E0,9.328950644E-1,1.085648015E-1
1.053779634E2,4.007230282E0,1.287807703E0,-2.970497012E-1
1.054299568E2,2.489840746E0,-1.318754315E0,-2.256705284E0
1.054819503E2,1.388450980E0,1.302181333E-1,-2.395982742E0
1.055339434E2,-3.242167458E-2,1.991524577E0,-3.034947872E0
1.055859368E2,-1.795378804E0,1.846749544E0,-3.138184071E0
1.056379302E2,-3.175934315E0,5.695811749E0,-4.326927662E0
1.056899245E2,1.401889920E0,3.070312500E0,-2.134532452E0
1.057419178E2,1.849043369E0,2.551077127E0,4.753583908E0
1.057939110E2,7.934681177E-1,-2.343175411E0,2.952142477E0
1.058459044E2,-3.580128551E-1,1.324459672E0,1.293342263E-1
1.058978977E2,9.117163718E-3,8.919671178E-1,-2.252429485E0
1.059498912E2,2.149787396E-1,-3.412800312E0,-2.804040670E0
1.060018845E2,5.643936992E-1,-2.723744392E0,-2.275031567E0
1.060538778E2,2.842309952E0,3.453325272E0,-8.193394542E-1
1.061058721E2,2.588800907E0,3.933465004E0,7.145431638E-1
1.061578654E2,2.349341869E0,1.229775667E0,1.998581886E0
1.062098588E2,-4.400108337E0,-3.536195040E0,-2.535259962E0
1.062618522E2,-4.897352695E0,-6.683983803E0,-2.645826578E0
1.063138465E2,-2.872334242E0,-4.850165844E0,-3.744773149E0
1.063658453E2,-7.416362166E-1,5.867464542E0,4.793901443E0
1.064178421E2,-9.939236045E-1,5.005533695E0,2.101207256E0
1.064698354E2,6.346431971E-1,-1.023095489E0,2.361435890E0
1.065218289E2,8.624958992E-1,8.424869776E-1,3.010785580E0
1.065738223E2,7.055035233E-1,-2.696866274E0,2.826304197E0
1.066258157E2,4.984202385E-1,-1.698101521E0,1.580139160E0
1.066778089E2,5.338504314E-1,4.478680789E-1,6.491805315E-1
1.067298021E2,3.750254512E-1,-3.158069611E0,6.394066811E-1
1.067817959E2,8.521112204E-1,-2.762839556E0,3.403924406E-2
1.068337898E2,-5.192812681E-1,-1.418325186E0,-6.562384367E-1
1.068857834E2,-3.790464640E0,-7.253310204E0,-2.399647951E0
1.069377767E2,-2.485656500E0,-3.370937705E-1,-1.159591436E0
1.069897698E2,-6.867393017E0,-9.113071561E-1,-2.414609790E-1
1.070417632E2,-3.806957960E0,-4.249685764E0,-1.077124596E0
1.070937565E2,-1.358610153E0,5.909003258E0,3.140899897E0
1.071457499E2,7.391011119E-1,1.159799099E1,2.642433882E0
1.071977436E2,-1.063562274E0,-3.288287669E-2,7.328690886E-1
1.072497374E2,8.203461766E-1,-3.664476871E0,2.774380684E0
