"Time (s)","Linear Acceleration x (m/s^2)","Linear Acceleration y (m/s^2)","Linear Acceleration z (m/s^2)"
5.999601600E-2,8.472118378E-1,2.019020557E0,-2.224359512E-1
1.199920400E-1,1.507471323E0,2.470890522E0,-5.034437180E-1
1.799868860E-1,2.145944595E0,2.664974928E0,-6.736288071E-1
2.399821440E-1,3.492483139E0,2.205256462E0,-7.537088394E-1
2.999768770E-1,3.984949112E0,1.561849356E0,-6.215982437E-1
3.599708420E-1,3.563269615E0,7.579019070E-1,-3.727359772E-1
4.199642080E-1,-1.155209827E1,-4.332134247E0,2.619228363E-1
4.799573400E-1,-1.098339081E1,-2.966598988E0,-1.687290192E0
5.399497380E-1,-6.849780083E0,-2.978359699E0,-1.340840816E0
5.999421030E-1,-3.975168943E0,-1.842513800E0,-7.347901344E0
6.599346990E-1,4.767944813E-1,-3.009673357E0,-1.095824814E1
7.199271630E-1,1.516518474E0,-1.419156075E0,-1.504212952E1
7.799197260E-1,-9.251601696E-1,-3.902647495E0,-1.051440048E1
8.399121900E-1,1.541001797E-1,-2.620581627E0,6.521064758E0
8.999046210E-1,2.127046585E0,-1.660026169E1,-5.376350403E0
9.598968850E-1,-7.840471745E0,-3.486135101E1,1.174414349E1
1.019889382E0,-5.853854179E0,-7.901538849E0,4.633962631E0
1.079881880E0,-9.233228683E0,-4.835330963E0,-1.663554668E0
1.139874410E0,-4.335713387E0,-9.100365639E0,-2.515869141E-1
1.199866907E0,-7.330208302E0,-8.084782600E0,-1.436128426E1
1.259859740E0,6.076560020E0,-9.728880882E0,-2.524591446E1
1.319852938E0,2.230812836E1,1.964231491E0,-2.352756500E1
1.379846035E0,-7.120280266E0,-5.783813477E0,-1.723161316E1
1.439839165E0,1.032719231E1,-5.788275242E0,-7.917953014E0
1.499832295E0,-5.513798714E0,-1.669866180E1,1.610874939E1
1.559825126E0,-2.427689552E0,-5.690846443E0,5.573747635E0
1.619817390E0,-5.204140186E0,-4.906979561E0,2.294526577E0
1.679809953E0,-5.685998917E0,-1.097613525E1,5.463186741E0
1.739802483E0,-9.717483521E-1,-6.407876968E0,1.590839386E0
1.799795013E0,3.292669773E0,-7.832275391E0,-8.541431427E0
1.859787511E0,4.331213951E0,-1.391706944E0,-8.053594589E0
1.919780041E0,5.763859272E0,-6.558299541E0,-1.103020859E1
1.979772305E0,4.321795464E0,-3.244486332E0,-1.499721527E1
2.039764703E0,1.806577206E0,2.927989960E0,-1.061056423E1
2.099757167E0,6.185895443E0,-7.279339790E0,6.202990532E0
2.159749764E0,-2.275815201E1,-6.519763184E1,3.074600983E1
2.219742261E0,1.586450577E0,6.238062382E-1,-9.764590263E-1
2.279734925E0,4.303760529E0,3.794397116E0,5.501803398E0
2.339728523E0,1.919038773E0,-3.012314081E0,8.029457092E0
2.399722920E0,-2.480021954E0,-1.039999390E1,6.234407425E0
2.459717185E0,-8.253702164E0,-1.219145584E1,1.050863743E0
2.519711581E0,-4.737557888E0,-9.317122459E0,9.486560822E-1
2.579705779E0,4.266393661E0,-2.609002113E0,-1.401771927E1
2.639699010E0,9.512329102E0,-1.779420090E1,-2.688936424E1
2.699691274E0,1.548886967E1,4.848144531E0,-2.131683350E1
2.759683638E0,-4.744242668E0,-9.706468582E0,2.480985832E1
2.819676135E0,-5.704467773E0,-2.565993118E1,1.001527596E1
2.879668665E0,-4.001191616E0,-3.904332876E0,6.305424213E0
2.939661095E0,-4.905914307E0,-1.144297600E1,6.141526222E0
2.999653625E0,-5.016077995E0,-6.718734741E0,5.725833893E0
3.059646089E0,-2.806579590E0,-5.560338497E0,2.536745071E-1
3.119638420E0,-5.309839249E-1,-3.423206329E0,7.083687782E-1
3.179630884E0,-1.440193653E0,-1.173367310E1,-2.747968197E0
3.239623414E0,2.546188593E0,-4.664548397E0,-5.154582500E0
3.290648028E0,7.765806913E-1,-1.294623375E0,6.316349030E0
3.350640559E0,3.360432386E0,-6.412611485E0,-8.446499825E0
3.410633524E0,4.825819016E0,-1.175713539E1,-1.842350388E1
3.470626689E0,9.597198486E0,-1.331927490E1,-2.371321297E1
3.530619885E0,-6.715480804E0,-1.502727509E1,2.324677277E1
3.590612949E0,-5.025599003E0,-1.395587349E1,1.266297340E1
3.650606080E0,-6.770941734E0,-1.222537279E0,1.139927483E1
3.710598678E0,-5.596940041E0,-5.398359299E0,1.130396461E1
3.770591076E0,-3.223478317E0,-3.514122963E0,6.345512390E0
3.830583540E0,4.466114521E0,1.410654783E-1,5.274733067E0
3.890576070E0,4.814558029E-1,-3.881311417E0,4.469385624E0
3.950568534E0,-5.586408615E0,-1.107673836E1,3.628830194E0
4.010561131E0,-6.634349346E0,-1.318478966E1,-1.952676654E0
4.070553595E0,4.319300652E-1,-5.353354454E0,-9.207785130E-1
4.130545926E0,1.043029976E1,-7.896052837E0,-2.104756737E1
4.190538324E0,5.828133106E0,-1.166467285E1,-2.826720810E1
4.250530888E0,1.096944904E1,-1.288719749E1,-1.686888504E1
4.310523352E0,-5.967073441E-1,-1.172962379E1,2.680591011E1
4.370515883E0,-9.385258675E0,-2.704096413E1,1.100645161E1
4.430508580E0,-5.529989243E0,-5.401546955E0,1.174482727E1
4.490502379E0,-3.718837738E0,-7.161255836E0,5.672677040E0
4.550496675E0,-4.159132004E0,-4.817678452E0,3.640570164E0
4.610490939E0,-5.575561523E-2,-5.791001320E0,1.726679802E0
4.670485269E0,-2.674502373E0,-8.697971344E0,8.454489708E-1
4.730479367E0,-2.418756485E0,-2.018935585E1,-4.682964325E0
4.790472365E0,-4.714245796E0,-9.713274002E0,-1.545817852E-1
4.850464629E0,1.536045456E1,1.464262009E-1,-1.742027473E1
4.910457159E0,5.863537788E-1,-9.918417931E0,-1.873328328E0
4.970449623E0,1.028949261E1,-1.618574142E1,-2.967787170E1
5.030442253E0,3.049036980E0,-8.743752480E0,2.305594444E0
5.090434717E0,6.917655468E-1,-3.224468231E1,-3.433598518E0
5.150427247E0,-6.452963352E0,-5.647660732E0,7.768953323E0
5.210419577E0,-8.988417625E0,-7.645818710E0,5.510454655E0
5.270411975E0,-7.301044941E0,-6.399463177E0,9.027118683E-1
5.330404306E0,-1.970678806E0,-5.815145493E0,1.187252045E0
5.390397003E0,-3.520235062E0,-4.669513702E0,-3.353261948E-2
5.450389633E0,-9.064331055E-1,-1.696583271E0,7.882566452E-1
5.510382197E0,7.535123825E-2,-4.298054695E0,9.619584084E-1
5.570375296E0,1.947429180E-1,-6.181889534E0,-1.859876633E0
5.630368594E0,-6.757820606E0,-1.201865101E1,4.291800022E0
5.690361558E0,6.694403648E0,-9.696252823E0,-2.889717865E1
5.750354588E0,2.379979610E0,-1.679042816E1,-1.473246765E1
5.810347685E0,2.383356094E0,-1.582162189E1,-6.891890049E0
5.870340183E0,8.713054657E-1,-1.499327755E1,5.438636780E0
5.930332481E0,-7.530841827E0,-1.299327755E1,1.691043854E1
5.990325011E0,-8.676917076E0,-1.394112587E1,1.001602650E1
6.050317541E0,-7.308949471E0,-1.064424706E1,9.100192070E0
6.110310071E0,-1.257036209E0,-5.987523079E0,8.050383568E0
6.170302601E0,4.242647171E0,-1.573246121E0,2.027176380E0
6.230295032E0,-9.373311996E-1,-4.215055943E0,2.239700794E0
6.290287363E0,-3.228388786E0,-4.696214199E0,-3.053140402E0
6.350279760E0,1.563337088E0,-1.517653465E0,-3.689095497E0
6.410272290E0,4.583880424E0,-6.493280411E0,-3.926129818E0
6.470264787E0,5.900648594E0,-1.115157318E1,9.829227448E0
6.530257383E0,5.738399029E0,-9.905906677E0,-2.778527069E1
6.590250348E0,-9.453859925E-2,-1.090122414E1,-6.378127098E0
6.650244446E0,-3.984034061E0,-4.572776794E0,4.387909889E0
6.710238912E0,-5.029909611E0,-3.167469025E0,3.829745770E0
6.770233478E0,-1.884341049E1,-7.866061211E0,7.158844471E0
6.830227977E0,-1.397906590E1,-8.869411945E-1,3.653598070E0
6.890222109E0,-6.923198700E-3,8.571549058E-1,3.920744896E0
6.950214940E0,-3.967189789E-1,2.098674536E0,7.786846161E-1
7.010207337E0,-6.497314453E0,-2.673626900E0,3.611984253E-1
7.070199801E0,-1.120762634E1,-7.176175594E0,1.845716476E0
7.130192364E0,-4.212088108E0,-7.036787987E0,-5.629072189E0
7.190184795E0,-1.404517651E0,-4.970736504E-1,-7.031331539E0
7.250177325E0,4.744626045E0,2.048850060E0,2.067617416E0
7.310169789E0,2.330138683E0,-5.997761250E0,-8.875457764E0
7.370162120E0,2.292120934E0,-1.465610027E1,-1.704795456E1
7.430154551E0,-4.763543606E0,-1.323927784E1,-2.793107414E1
7.490147115E0,5.819886208E0,-6.827663422E0,-9.397637367E0
7.550139645E0,-1.642098618E1,-6.586188316E0,3.035466671E0
7.610132175E0,4.240226746E0,-1.491123772E1,1.173620892E1
7.670124906E0,-1.359187508E1,-1.393849182E1,1.067426205E1
7.730118704E0,-7.433476448E0,-9.276609421E-1,1.179233837E1
7.790113001E0,-6.546394348E0,-6.069002151E-1,1.576736069E1
7.850107331E0,-8.640152931E0,-7.762930393E0,5.444674492E0
7.910101661E0,-9.513922691E0,-9.490911484E0,-5.922373295E0
7.970095725E0,1.285369873E0,-1.989895940E0,-1.023070049E1
8.030088623E0,6.330369473E0,1.392259598E-1,-7.653135300E0
8.090080887E0,2.234032631E1,-5.486323357E0,-1.748366737E1
8.150073351E0,8.400488853E0,-6.184891224E0,-1.022477531E1
8.210065815E0,4.095507622E0,-4.015658855E0,-1.905141068E1
8.270058411E0,-2.618833303E0,-6.457702160E0,1.792358780E1
8.330050875E0,2.183553457E0,-3.504619598E0,-1.491118622E1
8.390043505E0,-2.668743896E1,-1.526934338E1,-1.670139551E0
8.450035836E0,-6.675873756E0,-1.255137920E1,-1.440165520E0
8.510028200E0,-9.138026237E-1,-3.723210096E0,4.267745018E-1
8.570020631E0,3.050370216E-1,-9.076023102E0,-1.680943966E0
8.630013227E0,-2.778515339E0,-1.184024525E1,3.584699631E-1
8.690005657E0,-6.594303131E0,-1.934223366E1,1.104728699E0
8.749998221E0,-7.262511253E-1,-5.902891159E0,-6.249268055E0
8.809991453E0,5.057281017E0,-2.330099106E0,-1.398706818E1
8.869984616E0,8.737559319E0,3.028575897E0,-5.774135590E0
8.929977680E0,6.788814068E0,-3.663924694E0,-8.938049316E0
8.989970810E0,1.646162033E1,5.202755928E0,-6.669806957E0
9.049963907E0,-9.480482101E0,-1.001169586E1,2.719096184E1
9.109956306E0,-1.172151184E1,-2.702765083E1,1.435162067E0
9.169948737E0,-1.076004410E1,-1.727926254E1,1.803505659E0
9.229941201E0,-4.258810997E0,-1.342778397E1,3.976297379E-1
9.289933731E0,-1.302908421E0,-8.656641960E0,-1.863538265E0
9.349926261E0,-2.409197807E0,-7.547891617E0,-8.742012978E-1
9.409918791E0,-2.718827724E0,-4.758628368E0,-2.381598949E0
9.469911155E0,-9.022655487E0,-1.189380074E1,-3.100285053E0
9.529903553E0,-2.397631168E0,-5.475746632E0,-2.413754463E-1
9.589895950E0,3.530655146E0,-5.109083176E0,-2.849369287E0
9.649888480E0,4.520603180E0,-6.718493462E0,-8.255866051E0
9.709880944E0,-1.066096783E0,-8.808954239E0,8.806982040E0
9.769873540E0,5.976384163E0,-9.944358826E0,-3.241026306E1
9.829866605E0,2.488914967E0,-7.551070213E0,2.883329391E0
9.889860803E0,-1.525715446E1,-3.916714859E1,4.217809677E0
9.949855067E0,-2.261053276E1,-1.286704636E1,6.539082527E-1
1.000984943E1,-2.621767044E0,-9.409730911E0,3.916206837E0
1.006984373E1,1.513053417E0,-8.375046253E-1,2.203306198E0
1.012983752E1,7.016644478E-1,-6.464524269E0,3.183789253E0
1.018983009E1,-6.989359379E0,-1.309542274E1,1.684484482E-1
1.024982242E1,-7.311167717E0,-1.659794998E1,-6.243595600E0
1.030981485E1,2.183377743E0,-3.479910374E0,-3.508620024E0
1.036980735E1,8.002031326E0,-3.648766518E0,-1.340565205E1
1.042979984E1,1.122890186E1,-6.970165730E0,-1.888365936E1
1.048979234E1,1.639653778E1,-4.951647758E0,-1.906997681E1
1.054978487E1,6.332602501E-1,-7.287580967E0,7.819087505E0
1.060977730E1,-9.935400963E0,-2.101861954E1,8.713558197E0
1.065979252E1,-1.715739059E1,-1.881583977E1,9.454198837E0
1.071978499E1,-5.792945862E0,-9.949039459E0,2.170167685E0
1.077977758E1,8.701410294E-1,-4.050466061E0,1.209469557E0
1.083977005E1,1.470438480E0,-4.057730675E0,2.121652126E0
1.089976265E1,-4.326705456E0,-1.177414513E1,3.670697212E0
1.095975591E1,-4.919784546E0,-9.125897408E0,3.926667690E0
1.101974908E1,-1.236923218E0,-9.314968109E0,5.677785873E0
1.107974214E1,-2.543042660E0,-9.942565918E0,-3.405132294E-1
1.113973534E1,8.382853508E0,-4.651751518E-1,-7.143623352E0
1.119972830E1,4.334849358E0,-9.167704582E0,-1.527453423E1
1.125972070E1,1.238316727E1,-9.234379768E0,-2.160581970E1
1.131971303E1,8.839462280E0,8.433079720E-1,-4.189325809E0
1.137970563E1,-2.307715225E1,-4.574031830E1,1.715780449E1
1.143969809E1,-1.721293259E1,-1.672338295E1,7.993174076E0
1.149969069E1,-8.819522858E-1,-6.011334896E0,6.515928268E0
1.155968315E1,1.621834755E0,1.382941365E0,6.600135803E0
1.161967561E1,1.487464905E0,-5.441922665E0,7.029261589E0
1.167966788E1,-8.045282364E-1,-1.469647217E1,4.745954514E0
1.173966037E1,-4.356559277E0,4.650454521E-1,-2.456906557E0
1.179965284E1,-1.992559910E0,-1.035857391E1,-8.082042694E0
1.185964537E1,4.990830421E0,-3.285464048E0,-2.460164309E0
1.191963790E1,1.105540466E1,-7.764555454E0,-1.227161312E1
1.197963120E1,1.498259640E1,-1.105782127E1,-1.804579926E1
1.203962553E1,7.390397072E0,-7.466990471E0,-6.545495987E0
1.209962006E1,-2.062757492E0,-8.987903595E0,2.135595512E1
1.215961460E1,-5.335426331E-1,-2.307355881E1,6.667009354E0
1.221960913E1,-1.227557373E1,-1.062966633E1,5.476601601E0
1.227960293E1,3.476463795E0,-6.413836956E0,7.208874702E0
1.233959542E1,5.678580761E0,1.526529312E0,4.646528244E0
1.239958792E1,1.182881355E0,-1.348346138E1,6.045283794E0
1.245958045E1,-1.989642143E0,-1.032406330E1,3.116727352E0
1.251957298E1,-5.630536079E0,-4.693082809E0,2.556651235E-1
1.257956541E1,4.232980728E0,-4.643927574E0,-1.327033162E0
1.263955801E1,1.227403259E1,3.085927486E0,-4.143387794E0
1.269955031E1,6.633770466E0,-8.710004807E0,-6.504259586E0
1.275954260E1,1.446788025E1,-2.659852505E0,-1.607550240E1
1.281953507E1,1.247047710E1,-4.744330883E0,-2.402783585E1
1.287952767E1,1.302125168E1,-2.174030781E0,3.642974854E0
1.293952016E1,-2.541757202E1,-6.479066467E1,7.674820900E0
1.299951276E1,-4.866574287E0,-1.835120964E1,4.765873909E0
1.305950593E1,2.599729061E0,-1.526443005E0,1.247595549E0
1.311949992E1,3.913364410E0,-2.248200893E0,4.413033485E0
1.317949419E1,2.382488251E-1,-1.119625092E1,8.130633354E0
1.323948855E1,-8.522249222E0,-9.896976471E0,4.874263763E0
1.329948281E1,-5.453617573E0,-9.091970444E0,-2.907174110E0
1.335947658E1,2.367583275E0,-5.775837898E-1,-3.189833879E0
1.341946924E1,1.099853897E1,-5.974951744E0,-2.571574211E0
1.347946161E1,1.918397069E0,-1.484450245E1,-6.790630341E0
1.353945404E1,7.251227379E0,-1.123390675E1,-4.292416573E0
1.359944657E1,7.388709545E0,1.210196495E0,2.787002087E0
1.365943900E1,1.958423853E0,-7.766883850E0,6.085577011E0
1.371943156E1,1.213041306E0,-1.194464874E1,8.927705765E0
1.377942406E1,-1.191158676E1,-3.599756622E1,7.879265308E0
1.383941636E1,-2.558558464E0,-3.672203064E0,-9.474580288E-1
1.389940875E1,-1.274187088E0,-6.028445244E0,5.062306404E0
1.395940128E1,-4.996659279E0,-1.235551453E1,4.468996525E0
1.401939378E1,-9.346749306E0,-1.302804756E1,5.096715927E0
1.407938631E1,-1.112590790E0,-6.186400890E0,-2.081315041E0
1.413937904E1,4.368030071E0,-1.204958153E1,-3.716647387E0
1.419937224E1,5.608831882E0,-7.692684174E0,1.150000572E0
1.425936537E1,6.133804798E0,-4.247415543E0,-5.620997429E0
1.431935847E1,5.901551247E0,-5.061912537E0,-5.213714600E0
1.437935163E1,7.333076477E0,5.545883179E-1,-5.469525337E0
1.443934456E1,6.826745033E0,-6.830177307E0,-5.118826866E0
1.449933696E1,8.946957588E-1,-1.364066315E1,-3.932684898E0
1.455932936E1,5.244961262E0,-1.417807961E1,-4.677618027E0
1.461932186E1,-3.344176769E0,-2.268293953E1,8.323766708E0
1.467931429E1,-7.420969009E-1,-8.277886391E0,2.212471008E0
1.473930688E1,-5.633752823E0,-1.301530075E1,1.875427485E0
1.479929935E1,-4.054344177E0,-1.011631870E1,9.946112633E0
1.485929174E1,1.410272598E0,-3.186173439E-1,-2.213443756E0
1.491928408E1,2.532323837E0,-8.334977150E0,-6.261009693E0
1.497927661E1,1.328379631E1,-4.539434910E0,-6.090412140E0
1.503926907E1,1.046957397E1,-4.548074722E0,-3.989493847E0
1.509926160E1,-3.427668095E0,8.026963234E0,-7.719683647E-2
1.515925413E1,1.009049606E1,2.318178654E0,-7.670240402E0
1.521924760E1,1.135366631E1,-3.541829348E0,-1.836941719E1
1.527924179E1,5.487908363E0,-4.355885506E0,2.970215321E0
1.533923606E1,-2.996430397E-1,-2.187948418E1,-3.930050850E0
1.539923039E1,1.602725983E-1,-1.870588684E1,2.553560257E0
1.545922472E1,2.524874687E0,-1.720942307E1,1.202355385E0
1.551921812E1,-3.114307404E0,-1.496524525E1,2.524203777E0
1.557921055E1,-2.255291939E0,-6.112396240E0,2.631443501E0
1.563920298E1,7.421832085E-1,1.856786013E0,1.089245319E0
1.569919544E1,5.986908913E0,-1.235054016E0,-4.895177364E0
1.575918797E1,2.476954222E0,-1.084837246E1,-3.039425850E0
1.581918044E1,-1.403839588E0,-7.863589287E0,-5.426414490E0
1.587917300E1,-3.535387516E-1,-2.828635693E0,-2.234618664E0
1.593916546E1,5.459810257E0,-1.627613544E0,-1.076626778E0
1.599915789E1,1.407331753E1,-1.900557041E0,-1.467370605E1
1.605915019E1,7.469014168E0,-6.913496971E0,-1.411925125E1
1.611914279E1,-2.980822802E0,-1.337874222E1,1.700781441E1
1.617913525E1,-7.681771755E0,-2.368401527E1,6.439229965E0
1.623912781E1,-8.361861229E0,-9.305214882E0,4.093715668E0
1.629912065E1,-1.063831425E1,-1.071095848E1,7.679915428E-1
1.635911401E1,-5.861462593E0,3.017297983E-1,8.008270264E-1
1.641910711E1,-7.978534698E-1,7.200605869E-1,-3.226264000E0
1.647910027E1,2.220182419E0,-1.888819695E0,-4.186946869E0
1.653909334E1,-1.346987963E0,-1.128208733E1,-3.122181654E0
1.659908613E1,-1.039779091E1,-6.255338669E0,-9.833477020E0
1.665907840E1,-2.905382156E0,-4.936727524E0,2.235516071E0
1.671907086E1,4.223586559E0,2.016544342E0,-1.348994160E1
1.677906336E1,7.681517601E0,-4.905718803E0,-1.900473595E0
1.683905589E1,8.583919525E0,-1.063484383E1,-2.100265503E1
1.689904842E1,1.340435791E1,-5.409633636E0,5.631113052E-1
1.695904095E1,-8.161001205E-1,-1.662972069E1,1.615324402E1
1.701903332E1,-2.188158417E1,-4.227893829E1,2.737756252E0
1.707902565E1,-5.746243477E0,-2.694359779E0,-2.411068201E0
1.713901818E1,-6.556525230E0,-1.166494727E0,2.357611656E-1
1.719901057E1,-5.272168159E0,3.476861715E0,-1.282751083E0
1.725900310E1,-1.958562851E0,-6.244546890E0,-2.872348547E0
1.731899570E1,-2.289915085E0,-5.018692970E0,-5.515280247E0
1.737898950E1,-9.993471146E0,-1.133894825E1,1.858210945E1
1.743898390E1,-2.493599415E0,2.863893509E-1,-1.747569847E1
1.749897850E1,1.584584832E0,-4.105476856E0,-5.899250984E0
1.755897296E1,3.715253830E0,-6.545768738E0,-9.155305862E0
1.761896743E1,-1.781447172E0,-1.022402191E1,-9.253779411E0
1.767896063E1,1.199098206E1,-8.091540337E0,-1.052101707E1
1.773895309E1,5.731718063E0,-1.091662216E1,5.307456493E0
1.779894556E1,-6.161563396E0,-1.794892693E1,-1.922425866E0
1.785893815E1,-3.253186798E1,-2.515511894E1,1.067080975E0
1.791893062E1,-1.083724880E1,-8.191699982E0,4.497246742E0
1.796893763E1,-7.463623047E0,-2.446268082E0,-2.234426141E-1
1.802893016E1,6.509332657E-1,1.516952515E-1,2.308944941E0
1.808892252E1,7.018380642E0,-2.942954063E0,-2.282034397E0
1.814891482E1,6.641238213E0,-5.130268097E0,9.271988869E0
1.820890735E1,-5.668242455E0,-9.556215286E0,-5.230405807E0
1.826889988E1,-1.090244102E1,-3.036345005E0,5.377737522E0
1.832889241E1,1.140110588E1,-5.814237118E0,-2.419343758E1
1.838888494E1,-5.530681610E0,-1.667924690E1,-9.916168213E0
1.844887821E1,8.498724937E0,-5.745158195E0,-5.804777145E0
1.850887240E1,9.580172539E0,-6.329209328E0,2.672977448E0
1.856886677E1,-7.866918564E0,-3.501025391E1,1.559790039E1
1.862886110E1,-9.617344856E0,-1.959292412E1,1.134065914E1
1.868885536E1,-7.797050476E0,-4.328753471E0,7.812652588E0
1.874884892E1,-2.068005562E0,1.914846182E0,1.027863860E0
1.880884132E1,3.557295799E0,2.343605995E0,7.434641123E-1
1.886883369E1,6.350918770E0,-6.753594875E-1,3.110916615E-1
1.892882615E1,-2.411002159E0,-2.982855558E0,2.719946384E0
1.898881875E1,-9.463392258E0,-2.306664848E1,-2.178653479E0
1.904881131E1,-1.619595909E1,-1.908265877E1,1.645313644E1
1.910880391E1,1.355217171E1,-2.157955170E-1,-1.735383987E1
1.916879631E1,1.294591522E1,-3.248447180E0,-1.552191830E1
1.922878864E1,9.653329849E0,7.126910686E-1,4.723832130E0
1.928878097E1,2.658296585E0,-4.061588287E1,-1.048196602E1
1.934877346E1,-3.279180527E-1,-2.911776543E1,-3.311772108E0
1.940876596E1,4.173014641E0,-2.503959084E1,-1.095173836E0
1.946875853E1,7.683176994E-1,-9.728146553E0,3.294409275E0
1.952875136E1,-1.769486427E0,4.960917950E0,-2.795915127E0
1.958874462E1,4.875104904E0,3.024244308E0,1.405123234E0
1.964873769E1,-2.908098698E0,-6.763315201E0,-6.627225876E0
1.970873078E1,-2.554063082E0,-9.574963570E0,-3.144234896E0
1.976872388E1,-1.806394339E0,6.048408508E0,-8.745868683E0
1.982871671E1,1.012654591E1,-9.970474243E-1,-3.198638153E1
1.988870911E1,4.096362114E0,-6.725930214E0,-2.165862846E1
1.994870164E1,-3.163511038E0,-1.927454758E1,6.075642586E0
2.000869417E1,-5.033907890E0,-3.298284531E1,1.517219162E1
2.006868670E1,-6.608633995E0,-2.050630379E1,-4.804803371E0
2.012867923E1,-7.691309929E0,-1.168429661E1,-3.795945644E0
2.018867163E1,-4.072108746E0,-4.673460007E0,-4.192180634E0
2.024866396E1,-5.380158424E-1,2.628072023E0,-3.489355564E0
2.030865629E1,7.698556900E0,2.811707020E0,-3.171015739E0
2.036864882E1,3.241600513E0,-4.884810925E0,2.044429779E-1
2.042864135E1,-9.779818535E0,-8.141453743E0,-8.277368546E0
2.048863398E1,-3.879039526E0,2.663582802E0,-7.357443810E0
2.054862651E1,4.438062191E0,3.344339371E0,-1.811855316E0
2.060862024E1,3.366626799E-2,-2.362612486E0,2.298235893E0
2.066861451E1,1.362788486E1,6.132392883E-1,-2.423278618E1
2.072860881E1,2.008700371E-1,-4.257469177E0,-3.315786362E0
2.078860304E1,-1.726575661E1,-5.433876419E1,1.001938629E1
2.084859737E1,-1.009180546E0,-1.644396400E1,3.746000290E0
2.090859043E1,-3.003466606E0,-1.178568935E1,1.415157318E-2
2.096858276E1,7.333917618E-1,9.550950527E-1,-2.599521637E0
2.102857509E1,3.096374512E0,5.214482784E0,-6.235484123E0
2.108856762E1,3.170919418E-1,-1.557086945E0,-5.579081535E0
2.114856009E1,-5.755963326E0,-1.055325890E1,-5.449581623E0
2.120855262E1,-5.797950268E0,-4.999729156E0,-5.889635086E-1
2.126854515E1,3.632886887E0,1.247252941E0,-4.069132328E0
2.132853764E1,3.822297573E0,-6.498665810E-1,-1.575475693E1
2.138852998E1,6.597134590E0,-8.147550583E0,-2.366135406E1
2.144852237E1,5.827806950E0,-1.661790252E0,-4.683067322E0
2.150851494E1,7.137581110E-1,-3.474365616E1,-4.018907070E0
2.156850747E1,-5.462874889E0,-3.152547646E1,2.711220741E0
2.162850000E1,-3.950983047E0,-7.264103889E0,-7.014083862E-1
2.168849310E1,-3.026884556E0,-1.335828662E0,-3.150382996E0
2.174848636E1,3.576729298E0,3.849791288E0,-3.302245140E0
2.180847952E1,2.653480768E0,-4.112101078E0,1.533575058E-1
2.186847265E1,3.981317759E0,-1.053198433E1,-2.839595795E0
2.192846578E1,-5.741743088E0,-9.264750481E-1,-9.195399284E0
2.198845835E1,9.197963715E0,4.510262012E0,-2.499537849E1
2.204845061E1,5.963104725E0,-3.579164505E0,-1.507253933E1
2.210844308E1,-8.283490181E0,-1.341173840E1,4.092235565E0
2.216843571E1,2.420653343E0,-2.029543877E1,9.006949425E0
2.222842824E1,4.085323811E0,-6.966712952E0,3.180130959E0
2.228842070E1,-2.231197834E0,-1.016668892E1,4.280661106E0
2.234841330E1,-8.823659897E0,-5.479436874E0,5.405012608E0
2.240840556E1,-2.284910202E0,7.736603022E-1,-9.656569958E-1
2.246839782E1,6.540935516E0,8.147468567E-1,-4.236488342E-1
2.252839042E1,4.429728508E0,1.932746649E0,2.487683296E-1
2.258838295E1,-6.409741879E0,-3.674529076E0,-6.633804798E0
2.264837542E1,-2.066127300E0,-6.545623302E0,-2.488338947E0
2.270836832E1,1.987436056E0,-8.812366486E0,-6.823445797E0
2.276836228E1,-2.923563004E0,-1.691210175E1,-9.736750603E0
2.282835668E1,7.443346024E0,-5.991044044E0,-1.702899551E1
2.288835121E1,5.248549938E0,-7.470782280E0,-1.652436256E0
2.294834574E1,2.115204811E0,-2.067675018E1,5.857922077E0
2.300833988E1,-2.468517303E0,-1.284968853E1,8.620569229E0
2.306833294E1,-4.988544464E0,-8.332893372E0,6.519887924E0
2.312832537E1,-5.535170078E0,-1.670136929E0,8.809526443E0
2.318831807E1,-2.322613716E0,5.468559265E0,-2.945520639E0
2.324831060E1,9.003316879E0,3.594299316E0,1.380958080E0
2.330830313E1,6.202012062E0,1.899965286E0,6.071087837E0
2.336829559E1,3.440937996E-1,-4.820849419E0,-2.769015789E0
2.342828802E1,-3.309386730E0,-5.181307793E-1,-1.533186054E1
2.348828019E1,6.884576321E0,2.542781353E0,-1.590439796E1
2.354827255E1,1.594277763E1,-4.213865280E0,-2.134652519E1
2.360826512E1,8.511351585E0,-2.802156687E0,-2.701510906E0
2.366825758E1,9.140046120E0,-2.480008125E1,-3.378171682E0
2.372825011E1,1.091461182E0,-1.770571899E1,7.304319382E0
2.378824284E1,-3.837080956E0,-6.587806702E0,6.549075127E0
2.384823664E1,-4.543726921E0,-3.432740450E0,7.021231174E0
2.390823090E1,6.844730377E-1,-3.796589375E-2,6.955714226E-1
2.396822530E1,5.721366882E0,2.743464947E0,2.599478722E0
2.402821960E1,5.771476746E0,-3.479809761E-1,1.905505180E0
2.408821366E1,8.364834785E-1,-4.115958214E0,7.704234123E-1
2.414820663E1,-6.822322845E0,-6.983596802E0,-5.018296242E-1
2.420819902E1,5.687665939E-1,-1.096365452E0,-5.982309818E0
2.426819135E1,8.488950729E0,-5.680931091E0,-1.213166237E1
2.432818385E1,1.123685265E1,-6.938631535E0,-1.664293671E1
2.438817638E1,1.113463211E1,-3.499872446E0,-4.579593658E0
2.444816898E1,2.328239918E0,-1.402493191E1,1.049361897E1
2.450816144E1,-4.403847218E0,-2.976611328E1,8.468721390E0
2.456815391E1,-2.073122978E0,-1.097831535E1,7.678559303E0
2.462814624E1,-3.078631401E0,-5.621929169E0,7.148694038E0
2.468813873E1,-6.445512772E-1,3.083790302E0,2.692928314E-1
2.474813120E1,8.006042480E0,2.561445475E0,7.195100784E-1
2.480812366E1,7.682330132E0,-8.846879601E-1,4.016104221E0
2.486811622E1,-1.035948753E0,-5.700897694E0,2.937626839E-1
2.492810942E1,-1.674969864E1,-2.383070707E0,-5.062853813E0
2.498810259E1,6.101896763E0,1.293444633E-1,-1.212192631E1
2.504809565E1,7.294077873E0,-7.190236568E0,-1.129042912E1
2.510808885E1,9.788888931E0,-1.172901726E1,-1.230067348E1
2.516808188E1,1.689760208E0,-1.366159248E1,1.207301331E1
2.522806333E1,-6.480455399E-1,-2.499963570E1,1.147539425E1
2.528805566E1,-5.504181862E0,-4.127544403E0,5.846539974E0
2.534804826E1,-1.563625813E1,-8.594184875E0,5.105460167E0
2.540804075E1,-6.274813652E0,-1.985771179E0,5.510382652E0
2.546803335E1,1.478355885E0,1.333161592E0,-7.568003535E-1
2.552802591E1,8.556587219E0,-3.627874851E-1,-2.732624054E0
2.558801838E1,7.251931190E0,-3.647444963E0,3.546645164E0
2.564801064E1,-7.353915215E0,-1.991662025E1,9.350228310E-1
2.570800317E1,-7.480687618E0,1.229685593E1,-1.144399405E0
2.576799564E1,1.955925369E1,4.623222828E0,-1.782182312E1
2.582798807E1,1.017801952E1,-1.321249008E0,-7.394512653E0
2.588798060E1,3.961870670E0,-1.159892368E1,1.180620193E1
2.594797353E1,5.112730503E0,-3.146087265E1,3.372303963E0
2.600796746E1,6.775503159E0,-1.193814564E1,2.366551399E0
2.606796179E1,-1.145759583E0,-1.064063931E1,9.027770996E0
2.612795612E1,-6.019388199E0,-9.603549957E0,6.122100830E0
2.618795052E1,-4.908843994E0,-3.982484102E0,1.800240755E0
2.624794445E1,4.034238815E0,9.938354492E-1,1.260403872E0
2.630793705E1,4.045825958E0,-1.456608772E-1,-3.583358765E0
2.636792938E1,-4.122761250E0,-8.762681961E0,-5.240816116E0
2.642792204E1,-2.905750275E-1,-8.856907845E0,6.484906673E-1
2.648791454E1,1.653210402E0,-3.605115891E0,-3.200455666E0
2.654790710E1,1.069795418E1,1.051659584E0,-8.599618912E0
2.660789973E1,9.433169365E0,-1.074809074E1,-1.989906311E1
2.666789226E1,3.953210115E0,-3.083216858E1,-4.744785786E0
2.672788443E1,5.004701138E0,-1.653272629E1,3.636274815E0
2.678787672E1,-1.431330681E0,-1.870201683E1,9.920195580E0
2.684786922E1,-4.303156853E0,-7.410271168E0,4.386007309E0
2.690786168E1,-7.820150375E0,-1.139738941E1,6.630816460E0
2.696785422E1,-1.110038757E0,8.231127262E-2,6.541886330E-1
2.702784698E1,5.311882019E0,-3.715498447E-1,3.367953300E-1
2.708784025E1,5.531889915E0,-5.776314735E0,-2.436231136E0
2.714783331E1,-5.506250858E0,-1.137726116E1,-6.949204445E0
2.720782651E1,-6.906040192E0,-3.897773504E0,-2.883577108E0
2.726781957E1,6.406502724E0,-4.536595345E-1,-2.185403252E1
2.732781250E1,1.508862019E1,-2.455268860E0,-2.160363388E1
2.738780483E1,-3.982493877E0,-9.950016022E0,-9.367766380E0
2.744779729E1,4.478201866E-1,-2.775003624E1,-9.844422340E-1
2.750778976E1,-3.945348740E0,-1.067169666E1,6.274869442E0
2.756778235E1,-5.750613213E0,-1.618498230E1,9.745208740E0
2.762777482E1,-5.961381912E0,-1.321501064E1,8.722874641E0
2.768776735E1,-6.915889740E0,-4.661334991E0,-1.696560144E0
2.774775975E1,1.792783737E-1,-3.998494148E0,1.842944145E0
2.780775208E1,5.138666630E0,-9.532337189E-1,1.092567444E0
2.786774451E1,-1.176832676E0,-1.625240707E1,-2.241572571E1
2.792773707E1,-3.950023651E-2,-1.287078285E1,-1.762782097E1
2.798772964E1,9.532341003E0,-8.604260445E0,-1.212646294E1
2.804772217E1,1.036914444E1,1.317632294E1,-7.201068878E0
2.810771553E1,-6.221068382E0,-6.797408104E0,5.491499901E-1
2.816770976E1,-2.644134045E0,-1.244598103E1,-6.924653530E0
2.822770426E1,-1.205447102E1,-2.858512115E1,3.620690823E0
2.828769876E1,-4.258378029E0,-5.341685295E0,3.852706909E0
2.834769333E1,-2.966489315E0,-3.401861668E0,2.062059879E0
2.840768699E1,-8.345572472E0,-9.745073318E0,5.187215805E-1
2.846767966E1,-7.421725273E0,-1.217569923E1,2.531043530E0
2.852767205E1,-5.490543842E0,2.460497379E0,-1.323484898E0
2.858766458E1,-4.902227402E0,-3.273506880E0,-3.174499989E0
2.864765702E1,-4.341117382E0,-5.796924591E0,7.123937607E-1
2.870764958E1,-1.414393902E0,-9.014145851E0,-1.526793671E1
2.876764204E1,2.689821720E0,-1.173125553E1,-1.353645134E1
2.882763451E1,3.739693642E0,-1.228334618E1,3.042609692E0
2.888762680E1,1.081464887E0,-2.049054146E0,-1.173651123E1
2.894761937E1,-1.161886215E0,-1.143478394E1,3.352003098E0
2.900761183E1,-5.796376228E0,-2.137911034E1,-4.381193161E0
2.906760443E1,-1.530158329E1,-2.344082642E1,9.615840912E0
2.912759689E1,-4.014600277E0,-9.864937782E0,6.736072540E0
2.918759009E1,-6.078691483E0,-1.636766434E1,4.204240799E0
2.924758412E1,-7.320806026E0,-1.975767899E1,2.708044529E0
2.930757845E1,-4.498817444E0,-1.029083633E1,-3.805269480E0
2.936757271E1,4.011887074E0,-9.583367348E0,-6.819570541E0
2.942756701E1,7.942688942E0,8.297944069E-1,-1.087939262E1
2.948756064E1,-1.233803272E0,6.099972248E0,-5.944205284E0
2.954755327E1,7.926910400E0,-5.482751846E0,-1.418546104E1
2.960754560E1,7.707741261E0,-3.033693314E0,-8.478776932E0
2.966753807E1,-3.446591854E0,-3.330318451E0,-1.352382421E0
2.972753063E1,-1.625120401E0,-8.715360641E0,7.541532993E0
2.978752316E1,4.200489521E0,-7.383806229E0,-4.757367134E0
2.984751566E1,8.864431381E-1,-2.713265228E1,-2.530776978E0
2.990750812E1,-2.488394737E0,-7.570294857E0,-4.617691040E-1
2.996750055E1,-8.639574051E-1,-1.306455803E1,-1.345680237E0
3.002749285E1,-1.098761082E0,-1.285214329E1,-7.213811874E-1
3.008748538E1,-2.363804340E0,-1.431782150E1,4.086405277E0
3.014747784E1,2.092861652E0,1.494628191E0,-4.472355366E0
3.020747044E1,3.935959578E0,-3.022096157E-1,-5.830488205E0
3.026746304E1,5.157933235E0,-5.637107372E0,-1.009123611E1
3.032745640E1,3.637763977E0,-9.083412170E0,-6.047010422E0
3.038744947E1,4.062695503E0,1.722817421E0,2.551668167E0
3.044744260E1,3.390593767E0,3.061432362E0,-1.463484573E1
3.050743566E1,5.170982361E0,-6.521290779E0,-8.192052841E0
3.056742869E1,2.969264984E0,-1.270243168E1,5.202640533E0
3.062742096E1,4.231031895E0,-3.135162735E1,2.282081604E0
3.068741345E1,-3.361994267E0,-1.064239502E1,-6.376255989E0
3.074740598E1,-3.539516449E0,-1.375173092E1,6.316680908E-1
3.080739851E1,-5.507354736E-1,-1.830467224E1,4.377809525E0
3.086739098E1,-1.129847050E0,-8.304162025E0,-4.036637783E0
3.092738351E1,2.734556675E0,-2.448217869E0,-8.157891273E0
3.098737587E1,1.260166550E1,-4.811078072E0,-8.514156342E0
3.104736820E1,7.558758259E0,-4.151004314E0,1.464734554E0
3.110736073E1,-2.198418140E0,5.062417030E0,-5.047355652E0
3.116735320E1,1.472023106E1,-1.783534527E0,-1.496932602E1
3.122734573E1,4.986533165E0,-4.970556736E0,-3.034205198E0
3.128733826E1,-7.209378719E0,-1.360303307E1,7.156188488E0
3.134733176E1,4.369550228E0,-1.988766861E1,-9.910278320E-1
3.140732595E1,-6.291785240E-1,-5.330467701E0,6.718039513E-1
3.146732035E1,6.080260277E-1,-5.336621284E0,1.258744717E0
3.152731461E1,-2.180671692E-2,-1.744032669E1,1.099339485E0
3.158730894E1,-3.853151321E0,-1.363787556E1,6.894807816E-1
3.164730224E1,-7.461576462E-1,8.491253853E-1,8.348464966E-1
3.170729471E1,1.372712135E0,-1.040535450E0,-7.516146660E0
3.176728704E1,8.926816940E0,-2.135721445E0,-7.051651001E0
3.182727963E1,4.474399090E0,-7.299723625E0,-5.172540665E0
3.188727210E1,1.966855049E0,-6.984496117E0,-1.096273422E1
3.194726469E1,9.479331017E0,-4.959621429E0,-1.229996967E1
3.200725716E1,-5.697778702E0,-8.620182037E0,-2.787881374E0
3.206724969E1,-3.996877670E-1,-1.237522125E1,-5.850817680E0
3.212724198E1,-2.427634716E0,-2.692615509E1,4.839675426E0
3.218723442E1,-2.626915932E0,8.498415947E-1,-2.091976643E0
3.224722688E1,1.216091633E0,-6.335579872E0,8.083759308E0
3.230721941E1,-1.330826283E0,-1.157986069E1,4.367440701E0
3.236721187E1,-5.360081196E0,-9.694249153E0,-4.726419449E-1
3.242720484E1,2.967401505E0,-1.469953299E0,-2.732118845E0
3.248719817E1,6.724805832E-1,-3.888228416E0,4.543397903E0
3.254713588E1,6.636318684E0,-7.373985767E0,-1.013434410E1
3.260712902E1,8.733586311E0,-1.018994617E1,-2.350760841E1
3.266712214E1,9.565805435E0,-2.052587032E0,-1.015049171E1
3.272711481E1,5.227575302E0,-1.210971260E1,1.407591152E1
3.278710704E1,-1.460820580E1,-2.437613106E1,-6.270830631E-1
3.284709954E1,-1.235323811E1,-1.444090462E1,5.611288548E0
3.290709207E1,3.135035992E0,2.823207855E0,4.779623985E0
3.296708463E1,5.737421513E0,1.041151047E0,7.606638908E0
3.302707713E1,1.216361523E0,-1.604058838E1,6.217947006E0
3.308706966E1,-2.920330048E0,-1.740472794E1,6.778240204E0
3.314706202E1,-4.642840385E0,-3.265552282E0,5.277003765E0
3.320705442E1,-1.552982330E-1,1.770855904E0,9.990757108E-1
3.326704695E1,8.761319160E0,-4.298837185E0,-1.384740734E1
3.332703951E1,1.666074753E1,-8.858646393E0,-1.349565792E1
3.338703198E1,2.101914787E1,-2.101214409E0,-2.000627518E1
3.344702468E1,6.498961449E0,-3.600910187E0,3.004844904E0
3.350701847E1,1.491003990E0,-1.714312935E1,8.587505341E0
3.356701291E1,-4.354743958E0,-1.783231354E1,1.229910851E1
3.362700737E1,-4.241209984E0,-8.751728058E0,8.797342300E0
3.368700197E1,3.459135056E0,4.110854626E0,1.340240860E1
3.374699627E1,2.702841759E0,-4.692633152E0,1.448053551E1
3.380698940E1,-6.760963440E0,-1.204998493E1,6.125742435E0
3.386698177E1,-4.032431602E0,-1.330879211E1,1.262897491E1
3.392697436E1,3.936998844E0,-2.327210426E0,8.443664551E0
3.398696683E1,6.709012032E0,-6.034158707E0,2.099273205E0
3.404695936E1,6.386528015E-1,-1.305187798E1,-1.111529350E1
3.410695189E1,6.571057320E0,-3.843221664E0,-5.283388138E0
3.416694438E1,1.155720615E1,-3.142663956E0,-6.698675632E0
3.422693665E1,1.735755920E1,4.958834648E-1,-1.090399837E1
3.428692904E1,1.420638275E1,-9.239197731E0,5.780161858E0
3.434692158E1,-9.177843094E0,-3.946371460E1,7.855048656E0
3.440691411E1,-8.848495483E-1,-9.998236656E0,9.938840866E0
3.446690664E1,-2.168703079E0,4.382930756E0,1.254327488E1
3.452689913E1,-3.844903946E0,-9.452067375E0,1.313432312E1
3.458689266E1,-7.751935959E0,-1.629598999E1,6.593588829E0
3.464688700E1,-5.021225929E0,-1.023772240E1,1.124547577E1
3.470688133E1,-5.046672821E-1,2.297877789E0,3.861634016E0
3.476687559E1,7.061088085E0,-1.362045288E0,-1.942790508E0
3.482686995E1,6.430240631E0,-5.598879337E0,-4.831144810E0
3.488686325E1,7.901103020E0,-9.714262009E0,6.697554588E0
3.494685558E1,6.180470943E0,-2.970683575E0,2.117223144E-1
3.500684798E1,1.105611801E1,-3.832808018E0,-4.971108913E0
3.506684061E1,1.214408493E1,-1.683634758E0,-5.234420896E-1
3.512683311E1,3.406563520E0,-1.604379845E1,3.383136511E0
3.518682560E1,8.591831207E0,-2.214313316E1,-1.020762348E1
3.524681807E1,-1.661616325E0,-2.081517601E1,5.944310188E0
3.530681047E1,2.365031719E0,-6.044334888E0,6.628431797E0
3.536680270E1,-8.690098763E0,-1.881805420E1,5.552911758E0
3.542679519E1,-3.010268211E0,-1.297457504E1,6.346852303E0
3.548678769E1,5.203722954E0,-2.635335445E0,2.685088634E0
3.554678022E1,8.174566269E0,-2.523993254E0,2.639274597E-1
3.560677275E1,3.998985291E-1,-8.934683800E0,6.727356911E0
3.566676575E1,7.252713680E0,-2.371408701E0,1.426894426E0
3.572675888E1,1.135073471E1,-5.661020756E0,-1.146339607E1
3.578675198E1,3.463541746E0,-5.598464966E0,-1.080965805E1
3.584674511E1,7.667905331E0,-1.185178566E1,2.178242683E0
3.590673824E1,-5.562369347E0,-1.790233421E1,1.284540653E0
3.596673090E1,5.292303085E0,-1.802077484E1,1.405643559E1
3.602672324E1,3.502749920E0,-3.606593609E0,9.854656219E0
3.608671576E1,1.295770168E0,-1.109998226E1,1.152169991E1
3.614670830E1,-6.455024719E0,-1.575629139E1,1.078165722E1
3.620670083E1,-3.186346054E0,-7.823445320E0,4.766077995E0
3.626669329E1,-3.361568451E-1,-2.741807461E0,-2.464273214E0
3.632668582E1,9.187185287E0,-3.802305937E0,-7.132571697E0
3.638667808E1,1.354612827E1,-1.675660372E0,-1.360277891E0
3.644667048E1,7.424964428E0,-7.540915489E0,8.288747787E0
3.650666294E1,1.144973660E1,-1.498259068E0,-1.866984749E1
3.656665551E1,1.374555206E1,-1.633324623E-1,-5.033897877E0
3.662664797E1,7.965573311E0,-1.003669071E1,5.109329224E-1
3.668664077E1,-8.626103401E-1,-2.632260323E1,-1.879583836E0
3.674663467E1,-5.904128075E0,-2.164788055E1,7.487548828E0
3.680662900E1,-1.145343781E-1,-6.400446892E0,4.976156235E0
3.686662330E1,-1.798673630E0,-1.198850918E1,7.606616974E0
3.692661769E1,-7.740372658E0,-1.370962715E1,6.740687847E0
3.698661176E1,-1.157354355E0,-4.926798820E0,7.042464018E-1
3.704660465E1,5.009657383E0,3.539118767E-1,-3.382266283E0
3.710659698E1,1.183321476E1,-1.519036770E0,-4.980802536E0
3.716658938E1,7.009242535E0,-5.091340065E0,2.515336514E0
3.722658185E1,-1.493827343E0,-1.409694672E0,3.527513266E0
3.728657444E1,7.824296951E-1,-8.076685905E0,7.262382507E-1
3.734656690E1,1.355063057E1,-2.884640455E0,-2.109630585E1
3.740655944E1,6.803844452E0,-1.372416973E1,-6.597658157E0
3.746655190E1,-2.272081375E0,-2.168077850E1,6.883597374E-1
3.752654423E1,3.740251064E0,-1.769087791E1,1.670952415E1
3.758653663E1,4.663625717E0,-5.394553661E0,9.870735168E0
3.764652916E1,-8.307468414E0,-1.361273003E1,9.762744904E0
3.770652169E1,-1.005264187E1,-1.084483910E1,1.027863216E1
3.776651425E1,-2.657764435E0,-4.850001335E0,4.515648842E0
3.782650745E1,6.302716255E0,1.974761963E0,1.644057989E0
3.788650058E1,7.621417046E0,-5.401137829E0,4.669895172E-1
3.794649371E1,3.229800224E0,-4.399207115E0,-7.175463438E-1
3.800648684E1,-2.141493797E0,-3.595723152E0,-3.753688335E0
3.806647997E1,-1.809719563E0,-4.151301384E0,1.021173859E1
3.812647240E1,2.495494127E0,-7.736044884E0,-1.570488739E1
3.818646484E1,1.680265427E1,-1.563639832E1,1.156278133E1
3.824645727E1,5.051541328E0,-5.379381180E0,-7.604702473E0
3.830644980E1,-5.679638863E0,-1.738814354E1,1.754697227E1
3.836644223E1,2.623028278E0,-2.115498161E1,6.208251953E0
3.842643479E1,-4.191780090E-2,-2.207870674E1,2.153824997E1
3.848642726E1,-5.376214981E0,-9.491781235E0,7.983017445E0
3.854641969E1,-1.485013676E1,-3.139305115E0,1.528193474E0
3.860641205E1,-2.059069633E0,-3.415436745E-1,1.314548135E0
3.866640458E1,2.577874660E0,-2.210574627E0,-6.142193079E-1
3.872639704E1,3.334186554E0,-1.791478157E0,-7.211628437E0
3.878638961E1,-1.427639484E0,-1.755885124E0,-9.817583561E-1
3.884638271E1,-9.686220169E0,-1.395699310E1,-1.908692479E0
3.890637687E1,4.039018154E-1,-1.166892338E1,7.060426712E0
3.896637140E1,-4.126994133E0,-2.398798943E0,-7.451732635E0
3.902636594E1,9.242928505E0,-4.323326111E0,-2.127305222E1
3.908636040E1,1.074011040E1,-1.395788670E1,-1.248104572E0
3.914635430E1,4.731291771E0,-4.701569080E0,1.760155201E0
3.920634710E1,-4.329463959E0,-3.715916443E1,7.184950829E0
3.926633953E1,-1.286774826E1,-2.579093552E1,9.062219620E0
3.932633206E1,-1.450908184E1,-4.091561794E0,4.549476147E0
3.938632452E1,-4.427669525E0,-2.277414799E0,6.350108147E0
3.944631705E1,-3.140640259E-1,3.043971062E-1,1.144516468E-1
3.950630962E1,2.222198963E0,-9.287803650E0,3.534235954E-1
3.956630205E1,-4.588400364E0,-8.878668785E0,-7.470881462E0
3.962629431E1,-7.924234390E0,1.298943520E0,-3.110350132E0
3.968628684E1,-1.840299368E0,3.740037918E0,-9.112401009E0
3.974627930E1,8.431798935E0,-1.575173378E0,-1.457782936E1
3.979630884E1,-1.771409512E0,-7.956985474E0,-2.968741417E0
3.985630134E1,6.820519447E0,-1.542008972E1,-2.265692329E1
3.991629404E1,6.768748283E0,-9.581291199E0,9.669971466E-2
3.997628780E1,2.251156569E0,-7.883034706E0,1.393890381E-2
4.003628223E1,-2.012270355E1,-5.183082581E1,1.917148590E1
4.009627650E1,-8.952925682E0,-2.156120872E1,4.292969704E0
4.015627080E1,-3.753430843E0,-2.712556362E0,-5.975189209E-1
4.021626496E1,4.116301537E-1,-2.390826941E0,2.761967659E0
4.027625789E1,4.319016457E0,-6.394879818E-1,4.674597263E0
4.033625012E1,-3.410020351E0,-6.977270126E0,-3.479750633E0
4.039624262E1,-6.808825970E0,-9.767478943E0,1.146253586E0
4.045623515E1,-4.976816177E0,-6.869501591E0,-4.404277802E0
4.051622768E1,4.767370224E0,-9.451112747E-1,-6.188319683E0
4.057622024E1,5.940502644E0,-5.963361740E0,3.302467465E-1
4.063621271E1,5.576505661E0,-9.484512329E0,-9.414616585E0
4.069620507E1,6.348578453E0,-1.421665192E1,-8.136240005E0
4.075619740E1,1.818954945E0,-9.237150192E0,2.043419361E0
4.081618990E1,3.906799316E0,-2.306707573E1,-3.852545023E0
4.087618233E1,-8.908126831E0,-4.160345078E1,2.081033707E1
4.093617492E1,5.588132381E0,-3.324988842E0,8.309885025E0
4.099616742E1,-6.072779655E0,8.133449554E-1,2.117308140E0
4.105616059E1,1.933689594E0,2.652563810E0,8.604242325E0
4.111615369E1,-9.820790291E-1,-1.768660069E0,7.231731892E0
4.117614688E1,-1.015964127E1,-1.977066994E0,-3.272521973E0
4.123613995E1,-1.505356312E1,-7.840691566E0,1.600681305E0
4.129613311E1,-7.256368637E0,-8.652906418E0,1.195764065E0
4.135612554E1,1.036075711E0,-1.160813141E1,1.694516659E0
4.141611800E1,5.807213783E0,-1.338003349E1,-2.058237076E1
4.147611047E1,9.294798970E-1,-1.821913910E1,-2.045266724E1
4.153610310E1,6.016827106E0,-1.364081383E1,-2.528159142E0
4.159609556E1,-1.175136375E1,-3.065623474E1,1.235592079E1
4.165608809E1,-2.369878006E1,-3.079930687E1,1.619020462E1
4.171608049E1,-9.097808838E0,-8.476345539E-1,2.171952248E0
4.177607282E1,-3.283397675E0,1.694802523E0,1.778959274E0
4.183606522E1,-1.395864010E0,2.478636265E0,6.056705475E0
4.189605775E1,-2.277825356E0,-2.063358784E0,3.054878235E0
4.195605028E1,-7.196505547E0,-6.373408794E0,7.854809761E0
4.201604281E1,-1.348772240E1,-8.222771645E0,-2.756334066E0
4.207603584E1,-6.175450802E0,-8.414309502E0,-2.598821878E0
4.213602987E1,-3.698198318E0,-1.067939091E1,-3.807500362E0
4.219602420E1,6.683525562E0,-1.339560318E1,-1.126087570E1
4.225601853E1,7.627355576E0,-2.231180954E1,-1.808567286E0
4.231601286E1,2.812581062E0,-6.976154327E0,1.427010632E1
4.237600669E1,5.081360340E0,6.154994965E-1,2.253704071E0
4.243599936E1,-1.797924805E1,-1.276315689E1,1.459550142E0
4.249599162E1,-2.686895370E0,-8.758952141E0,9.076858521E0
4.255598412E1,-3.472203255E0,-2.244696140E0,3.852244139E0
4.261597668E1,-1.603732109E0,2.160125375E-1,5.865406036E0
4.267596924E1,-1.605050087E0,-4.249670982E0,6.678288937E0
4.273596171E1,-1.050373363E1,-1.117713928E1,5.770937920E0
4.279595430E1,-1.016820335E1,-5.692996979E0,2.083441973E0
4.285594660E1,-3.362549782E0,-7.427790642E0,-4.725163937E0
4.291593893E1,2.257458925E0,-1.227838039E1,1.302909851E-2
4.297593136E1,1.819742584E1,-2.929784298E0,-3.183752441E1
4.303592396E1,1.249689007E1,-8.823926926E0,-1.755421638E1
4.309591646E1,1.131414056E0,-6.760503292E0,9.426164627E0
4.315590919E1,-2.090797043E1,-3.892505264E1,4.966171741E0
4.321590242E1,-5.827015877E0,-1.194549274E1,8.830720901E0
4.327589555E1,1.937265396E-1,1.209015131E0,1.244904518E0
4.333588861E1,1.815817356E0,6.769473553E-1,1.051217079E0
4.339588188E1,-3.918719292E-1,-2.922497034E0,2.769393444E0
4.345587481E1,-8.253499985E0,-9.373325348E0,4.923547268E0
4.351586714E1,-8.493297577E0,-1.305721283E1,1.955223083E-2
4.357585957E1,-2.277361298E1,-9.791965485E0,-4.769578934E0
4.363585210E1,1.008296585E1,-3.099871159E0,-1.464859009E1
4.369584446E1,1.141624928E1,-3.471671343E0,-2.328941345E1
4.375583699E1,7.883992195E-1,-7.750226974E0,4.793044090E0
4.381582952E1,2.804412603E0,-1.970191765E1,-4.039760113E0
4.387582196E1,-7.708162785E0,-2.509238434E1,1.665377426E1
4.393581429E1,-6.746909618E0,-8.087766647E0,7.588987350E-1
4.399580668E1,-1.098441124E0,-5.880570412E-2,-8.985209465E-1
4.405579925E1,5.454409122E0,4.782349586E0,-2.381892681E0
4.411579178E1,4.422366619E0,-6.864016056E-1,1.331277370E0
4.417578431E1,-1.744901657E0,1.214879513E0,3.895475388E0
4.423577771E1,-1.513908577E1,-8.992364883E0,2.357098103E0
4.429577211E1,-1.396734428E1,-7.397513866E0,2.601529121E0
4.435576654E1,-1.145808935E0,-6.606113911E0,-3.250420094E0
4.441576110E1,-2.005208254E0,-9.375635147E0,1.159963131E0
4.447575557E1,5.720178127E0,-1.204970360E1,-3.340562057E1
4.453574923E1,7.283580780E0,-6.532382011E0,-6.313586235E0
4.459574176E1,-1.260465336E1,-4.314836502E1,6.082238197E0
4.465573426E1,-1.211850739E1,-2.929854393E1,1.002441120E1
4.471572669E1,-4.855702877E0,-2.396013737E0,2.487236977E0
4.477571922E1,-6.982156277E0,-1.107421160E0,3.640203476E-1
4.483571169E1,-8.410978317E-2,2.013581514E0,-1.900539398E-1
4.489570428E1,2.405741453E0,-2.906455994E-1,1.265346050E0
4.495569665E1,-1.261710882E0,-5.689854622E0,-9.875798225E-1
4.501568901E1,-9.235284805E0,-5.991366386E0,-2.602132320E0
4.507568147E1,-8.870545387E0,-4.162616730E0,-3.690630436E0
4.513567400E1,-9.761242867E-1,-2.507644653E0,-4.810201168E0
4.519566644E1,6.711234570E0,-4.897183418E0,-2.021887970E1
4.525565896E1,9.951436996E0,-1.554281807E1,-2.477150345E1
4.531565206E1,1.064804459E1,-5.584599972E0,-4.593085289E0
4.537564626E1,-8.183901787E0,-2.916534042E1,9.209243774E0
4.543564059E1,-1.824229431E1,-3.489470291E1,1.175541592E1
4.549563489E1,-4.974833488E0,-3.323759317E0,-8.809814453E-1
4.555562925E1,-2.530284882E0,-5.885636210E-1,2.317238331E0
4.561562302E1,1.378599167E0,3.284282207E0,-3.476156712E0
4.567561555E1,2.007655144E0,2.737487555E0,1.715894699E0
4.573560781E1,-1.308659554E0,-2.138370752E0,1.339064121E0
4.579560041E1,-1.239005470E1,-2.848928928E0,-2.305655956E0
4.585559284E1,-9.628358841E0,-7.188744545E-1,-1.997739553E0
4.591558533E1,-1.014972806E0,-1.126655006E1,-5.636749744E0
4.597557777E1,6.241176128E0,-1.288845062E1,-1.593142509E1
4.603557036E1,1.940967083E0,-1.701821518E1,-6.906273842E0
4.609556262E1,-2.102768660E0,-1.339075661E1,6.929663181E0
4.615555509E1,-6.534779072E-1,-1.328713322E1,1.100885391E1
4.621554755E1,-2.406858063E1,-1.127823114E0,5.993747711E-2
4.627554012E1,-1.013815403E1,-3.364471197E0,1.762161255E0
4.633553258E1,1.105156422E0,1.373899460E0,1.664230347E0
4.639552534E1,5.338492870E0,3.730046034E0,-2.775521278E-1
4.645551854E1,3.763490915E0,4.767908096E0,2.026113987E0
4.651551171E1,-9.969907761E0,2.329974174E-1,7.562489510E-1
4.657550480E1,-1.516559029E1,-6.973187923E0,-4.137511253E0
4.663549793E1,-1.138434219E1,-7.457495213E0,-2.859105587E0
4.669549083E1,-2.276757002E0,-8.221802711E0,-6.715400696E0
4.675548316E1,5.626452446E0,-1.224727821E1,-1.111322021E1
4.681547563E1,3.754815578E0,-3.947223425E0,-1.117563248E0
4.687546819E1,3.564034462E0,-8.992897034E0,-2.205539322E1
4.693546072E1,6.996277809E0,9.686226845E-1,4.450633049E0
4.699545318E1,-1.591149330E1,-6.877106476E1,-1.322063541E1
4.705541973E1,-1.073327351E1,-2.217013931E1,1.540718079E0
4.711541209E1,1.445306778E0,7.815649986E0,2.360343933E-1
4.717540442E1,-4.762998104E0,6.744819641E0,-1.730894566E0
4.723539689E1,-2.560684681E0,2.749150276E0,6.037435532E-1
4.729538948E1,-1.349833298E1,-5.860829353E0,4.372215271E-1
4.735538195E1,-1.354344845E1,-9.496577263E0,5.271989822E0
4.741537451E1,-4.302894115E0,-3.707623005E0,-1.455718803E1
4.747536804E1,3.635656738E1,-7.922184944E0,-9.256694794E0
4.753536237E1,6.579918861E0,-6.235939503E0,-2.923491478E1
4.759535664E1,-5.181160450E0,-1.404275131E1,5.231159210E0
4.765535103E1,-6.232270241E0,-2.642439842E1,2.343965530E0
4.771534526E1,-1.293913841E1,-1.567666054E1,4.941220284E0
4.777533859E1,-1.030407524E1,-5.018526554E0,2.194434166E0
4.783533106E1,-9.404268265E0,8.467960358E-1,-1.875376701E0
4.789532346E1,-5.791783810E0,7.993198872E0,-4.395721436E0
4.795531592E1,-3.279716492E0,8.498509407E0,-4.853833199E0
4.801530852E1,-5.433411121E0,4.355044842E0,-3.502244949E-1
4.807530102E1,-1.198731136E1,-4.847369194E0,-3.944483280E0
4.813529344E1,-5.938098907E0,-7.134720802E0,-1.012469292E0
4.819528594E1,7.688348293E-1,-3.830702782E0,-5.951607227E0
4.825527834E1,3.773526251E-1,-1.446417427E1,-1.524001312E1
4.831527070E1,6.113801003E0,-5.510407448E0,-2.558825874E1
4.837526320E1,-1.275514412E1,-1.121988487E1,7.236611366E0
4.843525570E1,3.381887913E0,-2.426429272E0,3.855223656E-1
4.849524820E1,-1.780602455E1,-2.225656319E1,2.456929684E0
4.855524109E1,-4.214148998E0,-2.551950932E0,1.312571907E1
4.861523432E1,-6.579225540E0,3.149092674E0,1.387656975E1
4.867522746E1,-1.334158707E1,7.400782585E0,6.212644577E0
4.873522058E1,-1.042682934E1,1.156779099E1,3.626743317E0
4.879521372E1,-8.933826447E0,9.400868416E0,3.738732338E-1
4.885520635E1,-1.074830532E1,8.801522255E-1,-6.605592728E0
4.891519868E1,-8.227523804E0,6.365278959E-1,-5.900144577E0
4.897519131E1,-5.349111557E-2,2.842428684E-1,-7.566937923E0
4.903518384E1,3.689049244E0,-5.098615646E0,-8.989387512E0
4.909517634E1,2.793954372E0,-8.316366196E0,-3.865231037E0
4.915516893E1,7.417777061E0,-7.525389194E-1,-2.494016647E1
4.921516140E1,1.117982483E1,9.148914337E0,-6.777035236E0
4.927515363E1,-1.559577560E1,-1.248604584E1,1.311330795E1
4.933514593E1,-1.490995312E1,-1.896144485E1,2.230054665E1
4.939513849E1,-1.030764294E1,6.236008644E0,1.903304482E1
4.945513095E1,-1.496910381E1,1.217316437E1,8.442672729E0
4.951512358E1,-1.102608490E1,1.287133980E1,6.391639709E0
4.957511625E1,-6.702327728E0,1.025461864E1,3.820304871E-1
4.963511018E1,-5.160714149E0,1.930214643E0,-5.624085903E0
4.969510458E1,7.769422531E-1,1.242091417E0,2.360038996E0
4.975509918E1,7.098176956E0,6.497413635E0,5.219359398E0
4.981509361E1,6.021975517E0,3.584227562E-1,1.503717613E1
4.987508804E1,9.209281921E0,-7.636900425E0,-1.207493877E1
4.993508131E1,1.160993958E1,-1.034581852E1,-4.240684032E0
4.999507374E1,7.280465126E0,-5.862901211E0,-1.740683937E1
5.005506624E1,1.034499645E1,-8.231894493E0,-3.381998539E-1
5.011505876E1,-1.428257084E1,-2.482680893E1,2.584564590E1
5.017505120E1,-2.573746872E1,-3.280235672E1,1.134609127E1
5.023504356E1,-1.159593391E1,5.635666847E0,8.897455215E0
5.029503606E1,-6.915505409E0,1.604814291E0,1.266579342E1
5.035502829E1,-8.458571434E-1,4.085569859E0,1.377138424E1
5.041502068E1,-1.200009346E0,-3.649966717E0,3.265433311E-1
5.047501322E1,-3.378878593E0,-1.055323315E1,9.918368340E0
5.053500575E1,2.977363586E0,-8.858825684E0,1.365790606E0
5.059499821E1,-2.461117554E1,-1.552709579E0,2.863303757E1
5.065499084E1,9.798849106E0,-3.484448195E0,-1.502669907E1
5.071498444E1,9.026063919E0,-7.976828098E0,-8.665866852E0
5.077497870E1,3.135569096E0,8.093690872E-1,4.343227863E0
5.083497297E1,1.211113548E1,6.990125179E-1,9.241782188E0
5.089496736E1,3.447155952E0,-1.505558300E1,1.423289013E1
5.095496159E1,-2.088807869E1,-2.134025955E1,1.069509888E1
5.101495479E1,-2.353353500E0,-6.872785568E0,1.003413391E1
5.107494712E1,5.032568932E0,8.624031544E-1,6.520951271E0
5.113493949E1,7.370508671E0,-1.231732488E0,2.889328957E0
5.119493195E1,7.913484573E0,-7.140710831E0,2.686921358E0
5.125492451E1,-3.056735992E-1,-5.396706581E0,7.044284821E0
5.131491698E1,-1.023422813E1,-4.163475037E0,4.131285667E0
5.137490951E1,-2.658580303E0,-7.674946785E-1,1.723145485E0
5.143490200E1,5.641441822E0,-1.089413166E0,-1.320330238E1
5.149489433E1,1.103975582E1,2.093937111E1,-7.280544281E0
5.155488677E1,1.336983299E1,-1.349478722E0,-2.360853004E1
5.161487930E1,-1.707701683E-1,-1.294055176E1,1.060595798E1
5.167487183E1,-8.464669228E0,-4.476386642E1,1.033611107E1
5.173486439E1,-2.320569515E0,-2.038201332E1,2.741410732E0
5.179485746E1,4.933028221E-1,-1.464634538E0,-7.864711285E-1
5.185485059E1,8.406524658E-1,-1.844518304E0,3.244831562E-1
5.191484372E1,3.821381569E0,2.108638048E0,1.956683397E0
5.197483685E1,2.490582466E-1,-4.203131199E0,1.663012028E0
5.203482994E1,-4.825719833E0,-1.078443718E1,1.797604561E0
5.209482248E1,-5.380237103E0,-5.072813034E0,-3.965952873E0
5.215481491E1,-4.134430885E0,1.988212585E0,-8.196673393E-1
5.221480737E1,1.229319191E1,-4.299830914E0,-1.208226204E1
5.227479990E1,1.484671783E1,2.097072601E0,-2.339563370E1
5.233479236E1,3.115020037E0,-1.143148041E1,4.467778683E0
5.239478496E1,-2.343648911E0,-3.084323502E1,-2.662086964E0
5.245477739E1,-2.010817051E0,-2.489588165E1,9.764413834E0
5.251476979E1,-6.012153625E-2,-1.079447651E1,4.923752308E0
5.257476215E1,-7.835826874E-1,2.065928459E0,-1.745102167E0
5.263475468E1,4.990927696E0,1.092548370E0,3.212861061E0
5.269474715E1,5.091276169E0,2.099036932E0,3.908296108E0
5.275473974E1,-2.434656620E0,-5.200138092E0,1.643056870E0
5.281473251E1,-9.405297279E0,-1.053145790E1,-8.187773228E-1
5.287472651E1,-8.743931770E0,-2.972554207E0,1.023260593E0
5.293472084E1,2.497887611E-2,-1.829696178E0,1.870973587E0
5.299471517E1,1.711792564E1,-9.188600540E0,-1.923510551E1
5.305470943E1,1.117200851E1,-8.212870598E0,-1.930805206E1
5.311470353E1,3.120209217E0,-9.924234390E0,6.506666660E0
5.317469636E1,-1.175117111E1,-4.452392197E1,5.930043221E0
5.323468869E1,-1.116402817E1,-1.433843613E1,4.321447849E0
5.329468115E1,-2.765923500E0,-5.958522320E0,2.018620491E0
5.335467368E1,3.098852158E0,1.584243298E0,3.176398277E-1
5.341466621E1,2.196064472E0,3.063323498E0,1.206124783E0
5.347465868E1,1.995342731E0,1.583353996E0,4.056953430E0
5.353465121E1,-1.043744755E1,-6.235998631E0,2.899394035E0
5.359464360E1,-7.979709148E0,-1.299302483E1,-3.463176250E0
5.365463594E1,-2.615736485E0,-4.783994198E0,2.145984411E0
5.371462830E1,9.375615120E0,-6.233582497E0,-1.843892670E1
5.377462083E1,1.083233929E1,-1.060153866E1,-1.802883911E1
5.383461336E1,9.740816116E0,-7.240534782E0,-7.802845955E0
5.389460599E1,-6.263829231E0,-2.609921265E1,6.418920994E0
5.395459919E1,-1.281620026E1,-3.656745529E1,1.840731239E1
5.401459242E1,-6.727476120E0,-8.225862503E0,1.149092674E0
5.407458552E1,-3.834594727E0,-4.327389240E0,2.309640884E0
5.413457865E1,-1.274058819E0,-9.406735897E-1,1.787364006E0
5.419457161E1,3.370356083E0,-2.677203894E0,1.888779163E0
5.425456414E1,1.331643581E0,-4.032269478E0,3.845722198E0
5.431466899E1,-8.938900948E0,-6.344448566E0,2.328761578E0
5.437466155E1,-4.264076233E0,-1.522067070E0,2.528625011E0
5.443465402E1,1.685473919E-1,-5.150945663E0,-8.554290771E0
5.449464655E1,-1.013493538E-1,-4.628990173E0,-1.369680405E1
5.455463894E1,1.086253929E1,-1.630220985E1,-1.228880882E1
5.461463148E1,1.067815685E1,-4.454955578E0,-5.404282093E0
5.467462377E1,3.824650526E0,-9.204071045E0,1.216185665E1
5.473461620E1,-4.862060070E0,-4.556523514E1,1.299395084E1
5.479460873E1,1.139307976E0,-1.592561245E1,1.006044674E1
5.485460126E1,5.441061020E0,1.905853987E0,3.765787601E0
5.491459373E1,-1.413372993E0,3.253588915E0,3.867098093E0
5.497458696E1,5.807662487E0,-4.198450089E0,3.299915791E0
5.503458116E1,5.751647949E-1,-1.991882324E0,1.653139114E0
5.509457549E1,-8.912576675E0,-1.069670296E1,-6.002354622E0
5.515456985E1,-3.772479534E0,-2.355525494E0,-2.910710573E0
5.521456415E1,3.394754648E0,-1.699105740E0,3.451934814E0
5.527455775E1,1.747208405E1,-7.423346519E0,-2.507530403E1
5.533455031E1,1.430371284E1,-4.636789322E0,-1.946784210E1
5.539454268E1,2.997800112E0,-1.202872849E1,1.325734329E1
5.545453501E1,-1.656704330E1,-3.665470505E1,8.917527199E-1
5.551452757E1,-8.602823257E0,-1.061107349E1,6.712189674E0
5.557452003E1,-4.220244408E0,-7.225967884E0,4.025489807E0
5.563451256E1,-2.383028030E0,2.793619394E0,-1.996359825E-1
5.569450499E1,2.863159180E0,3.601157188E0,2.252794981E0
5.575449749E1,3.151305676E0,-2.922154903E0,6.537202358E0
5.581448989E1,-5.226283550E0,-7.138371468E-1,1.719118595E0
5.587448242E1,-1.153373337E1,-2.053280830E0,-4.924113750E0
5.593447488E1,-6.378446579E0,-5.346859932E0,-1.983810663E-1
5.599446741E1,-7.282176971E0,-7.468277454E0,7.598325253E0
5.605446014E1,6.940719604E0,-1.059828186E1,-9.484009743E0
5.611445337E1,1.456577396E1,-1.898288727E1,-1.515182590E1
5.617444647E1,9.939918518E0,-1.272735214E1,-5.289873123E0
5.623443964E1,-1.608121300E1,-3.056325340E1,1.478273392E1
5.629443277E1,-2.435251617E1,-2.617883492E1,1.278928947E1
5.635442570E1,-1.207097721E1,-8.825423717E-1,4.185226440E0
5.641441800E1,-2.062281609E0,8.387141228E-1,5.959894657E0
5.647441043E1,-1.657645226E0,2.006098509E0,2.101381302E0
5.653440292E1,5.658898354E-1,-3.246788502E0,9.814901352E-1
5.659439562E1,-5.054779053E0,-6.608184338E0,4.272856712E0
5.665438809E1,-9.706446648E0,-9.963983536E0,-4.605181217E0
5.671438055E1,-3.133430004E0,-4.260105133E0,-9.988018990E0
5.677437301E1,-1.081550121E0,-8.671617508E-1,8.731422424E0
5.683436534E1,1.418036175E1,-6.117677689E0,-1.787792587E1
5.689435768E1,1.457417488E1,-9.813230515E0,-1.470423889E1
5.695435014E1,2.779860020E0,-1.066388607E1,3.758241177E0
5.701434274E1,-1.123880768E1,-2.997843742E1,3.582299232E0
5.707433523E1,-2.277589798E1,-8.562417984E0,-6.244850159E-2
5.713432883E1,-4.328232765E0,-2.947265625E0,4.488358498E-1
5.719432316E1,4.142437935E0,3.427031517E0,2.328912735E0
5.725431776E1,4.362176895E0,6.136012077E0,-1.515336514E0
5.731431223E1,-2.712315083E0,2.693863392E0,1.069841385E-1
5.737430680E1,-1.620595932E1,-3.087054253E0,2.850128174E0
5.743430019E1,-1.061343193E1,-6.757813454E0,-1.031459808E0
5.749429269E1,-6.127543449E0,-9.088902473E0,-3.071736336E0
5.755428509E1,-1.351098061E0,-7.938160896E0,-3.637304068E0
5.761427769E1,-1.893040895E0,-1.320069695E1,-7.989292145E0
5.767427018E1,6.436425686E0,-5.376596928E0,-1.010968018E1
5.773426271E1,-8.335372210E-1,-8.569640160E0,-1.384270287E1
5.779425524E1,4.995186329E0,-7.279152870E0,-3.202608585E0
5.785424764E1,-5.773684502E0,-2.283277702E1,4.459526062E0
5.791423990E1,-2.023997879E1,-2.481220245E1,5.109907150E0
5.797423237E1,-4.525899410E0,6.089512825E0,2.072160244E0
5.803422490E1,1.949475765E0,5.535731792E0,3.409613609E0
5.809421746E1,4.885334969E-1,3.729818344E0,2.983014107E0
5.815420999E1,-1.019573975E1,-6.584278107E0,-2.559366226E-1
5.821420329E1,-1.170135403E1,-5.166893482E0,-4.413420200E0
5.827419749E1,-7.087206841E-1,-1.874619007E0,-7.707360744E0
5.833419182E1,-3.594422340E0,-9.808643341E0,-8.344791412E0
5.839418612E1,2.052454948E1,4.479460716E-1,-2.443693161E1
5.845418045E1,6.401402950E0,-1.201116943E1,-8.544372559E0
5.851417401E1,6.173858643E-1,-9.016956329E0,1.502300072E1
5.857416644E1,-2.213079834E1,-2.887109947E1,8.582993507E0
5.863415881E1,-1.053483868E1,-4.509427071E0,3.958659887E0
5.869415134E1,-4.508428574E-1,5.387198925E-1,3.446587086E0
5.875414390E1,5.180587769E-1,7.005008698E0,1.065041184E0
5.881413636E1,1.590323448E0,8.664041519E0,9.140658379E-2
5.887412896E1,-3.939770699E0,1.901885986E0,-2.209402800E0
5.893412139E1,-1.366315079E1,-8.466419220E0,3.449912071E-1
5.899411372E1,-7.829162121E0,-9.821420670E0,-3.388261318E0
5.905410599E1,1.377458572E0,-7.894334793E0,-6.534593105E0
5.911409858E1,6.809257507E0,-7.841192245E0,-5.083188534E0
5.917409102E1,6.947631836E0,-6.995506287E0,-1.193925858E1
5.923408361E1,4.910745621E0,-8.464230537E0,1.232521820E1
5.929407638E1,4.282083988E0,-6.837754726E0,-4.884758472E0
5.935406968E1,-1.434273529E1,-3.206148529E1,-3.524726391E0
5.941406274E1,-7.208275795E-1,-5.703289509E0,6.042084694E0
5.947405597E1,-2.755589008E0,-1.540375471E0,9.211616516E0
5.953404903E1,-2.579669952E0,5.111532211E0,4.173077583E0
5.959404186E1,1.020580292E0,5.524367332E0,-9.099712372E-1
5.965403420E1,-7.834911346E-1,9.533081055E-1,3.531179428E-1
5.971402666E1,-6.459820271E0,2.898341417E-1,2.214765549E-1
5.977401912E1,-1.063480377E1,-3.326454163E0,-5.794677258E0
5.983401165E1,1.413593769E0,-4.066152573E0,-1.014324570E1
5.989400418E1,-1.295156479E0,-1.104751587E1,-1.039070702E1
5.995399671E1,8.459689140E0,-3.037441492E0,-1.402016068E1
6.001398924E1,1.061116123E1,-5.816043854E0,-1.017509556E1
6.007398151E1,3.341419220E0,-7.488877773E0,1.115819740E1
6.013397400E1,-3.037860870E1,-3.947924423E1,1.056261730E1
6.019396657E1,3.947345257E0,-8.038402557E0,1.132639694E1
6.025395910E1,4.259094238E0,2.406956434E0,7.839124680E0
6.031395150E1,2.599528790E0,3.407390118E0,6.280394554E0
6.037394529E1,3.072906971E0,4.959801197E0,2.940305233E0
6.043393966E1,-6.746812344E0,3.387668848E0,4.036846161E-1
6.049393416E1,-1.585255909E1,-6.895449638E0,-9.503651619E0
6.055392863E1,-5.047099113E0,-1.911088467E0,-3.188280344E0
6.061392339E1,3.984479904E-1,-2.835618973E0,-4.779739380E0
6.067391666E1,3.576041698E0,-9.345808029E0,-1.796099472E1
6.073390919E1,1.180952835E1,-3.989742994E0,-2.395064926E1
6.079390165E1,8.388101578E0,-9.976163864E0,-4.425899982E0
6.085389418E1,-1.675768661E1,-2.516221619E1,7.204329491E0
6.091388641E1,-1.852613068E1,-2.581739426E1,9.904933929E0
6.097387901E1,-3.577793598E0,-1.095317268E1,1.056555176E1
6.103387157E1,-9.827675819E0,-3.093144894E0,-9.818608761E-1
6.109386390E1,-2.325190544E0,5.351331234E-1,-1.051237583E-1
6.115385627E1,6.265479565E0,1.775348902E0,-2.875517845E0
6.121384880E1,7.198604584E0,-3.297158241E0,4.270482063E0
6.127384126E1,-1.125752258E1,-7.362820625E0,-2.812687159E0
6.133383369E1,-1.249307823E1,-1.115384102E1,1.089533043E1
6.139382625E1,-4.864315033E0,-1.282114983E0,-8.334816933E0
6.145381969E1,5.907112122E0,3.813843727E0,-1.263528156E1
6.151381388E1,7.628612041E0,-9.573287964E0,-1.582271290E1
6.157380815E1,7.744004250E0,-1.273442841E1,-9.349396706E0
6.163374949E1,-1.026260614E0,-8.768613815E0,5.169168472E0
6.169374379E1,-7.635255337E0,-2.968816185E1,-1.921409607E0
6.175373719E1,-1.220930672E1,-2.763477516E1,7.428122044E0
6.181372958E1,-4.523412704E0,-8.967067719E0,1.185281754E0
6.187372202E1,-4.686839581E0,-5.323377132E0,-6.491558552E-1
6.193371448E1,1.339974403E-1,3.015813828E-1,-1.971066236E0
6.199370701E1,-2.290808678E0,5.943646431E-1,-3.232288599E0
6.205369947E1,-1.277326107E0,-1.065772057E0,-1.575696707E0
6.211369210E1,-8.243988991E0,-2.004402161E0,7.439245701E0
6.217368453E1,-1.598475552E1,-7.443459988E0,-5.422348022E0
6.223367696E1,-5.886805534E0,-1.014441204E1,-2.470587730E0
6.229366933E1,-4.958879948E-1,-7.289050102E0,-4.762839794E0
6.235366186E1,6.536094666E0,-1.080426979E1,-1.226266670E1
6.241365429E1,4.933641434E0,-1.285945797E1,-1.005359364E1
6.247364688E1,-1.668838263E0,-1.277354145E1,1.464319611E1
6.253363988E1,-1.641364098E1,-3.264974594E1,5.447931767E0
6.259363315E1,-2.189891815E1,-1.809594727E1,1.873544693E0
6.265362628E1,-7.352123260E0,3.078200340E0,8.037507534E-1
6.271361944E1,-1.999554634E-1,3.240621090E0,-1.413515568E0
6.277361250E1,-1.114619255E0,1.106944561E0,2.482796192E0
6.283360507E1,-4.470118046E0,-4.928916454E0,1.048331738E0
6.289359737E1,-1.583720875E1,-9.371184349E0,-1.518327475E0
6.295358990E1,-1.450670719E1,-8.530917168E0,-4.967126846E-1
6.301358239E1,-3.012953758E0,-3.905014038E0,4.442170620E0
6.307357489E1,1.061476040E1,-6.450230598E0,-2.995082855E1
6.313356745E1,5.246534348E0,-1.102067184E1,-1.441247749E1
6.319355998E1,-8.277873993E0,-1.554824829E1,-3.698846817E0
6.325355232E1,-5.119865417E0,-1.982305908E1,7.722542286E0
6.331354468E1,-1.899533844E1,-3.411865234E1,1.809970665E1
6.337353724E1,-1.030681992E1,-1.803750992E-1,-3.603265524E0
6.343352967E1,-4.748237133E0,-5.406384945E0,2.466058731E-2
6.349352220E1,3.334118366E0,-2.751846790E0,-6.133565903E-1
6.355351480E1,2.440063000E0,-4.433527946E0,-2.491512299E0
6.361350863E1,-3.122519255E0,-6.647679329E0,-4.611644745E-1
6.367350290E1,-8.996275902E0,-4.119456291E0,-3.064928055E-1
6.373349729E1,-8.294864655E0,-5.899710655E-1,7.217445374E-1
6.379349156E1,-9.360358238E0,-1.070447445E0,2.029209614E0
6.385348589E1,1.101590729E1,-2.472654343E0,-1.622540283E1
6.391347888E1,3.759186745E0,-8.133325577E0,-1.789261818E1
6.397347128E1,-5.366818905E-1,-1.103744125E1,9.806680679E-1
6.403346364E1,-2.550890207E0,-2.580870819E1,5.136941910E0
6.409345624E1,-1.255931854E1,-2.300917625E1,3.538276196E0
6.415344867E1,-1.279837418E1,-9.070415497E0,3.307838440E-1
6.421344114E1,-3.147258282E0,-4.222276688E0,2.775106907E0
6.427343360E1,6.290054321E-2,-1.899466515E-1,-9.770386219E-1
6.433342610E1,4.586472511E0,-7.734851837E-1,-7.700142860E-1
6.439341836E1,1.115416527E0,1.773354053E0,9.568805695E-1
6.445341076E1,-9.221523285E0,-4.434149265E0,-4.491306305E0
6.451340329E1,-1.491122055E1,-8.249108315E0,-8.935091496E-1
6.457339582E1,-5.936372757E0,-6.401992321E0,4.378304958E0
6.463338832E1,-5.382788181E-1,-3.875054836E0,1.277003288E0
6.469338155E1,1.112343121E1,-9.178215027E0,-2.227781868E1
6.475337478E1,9.106057167E0,-1.167202473E1,-1.811928749E1
6.481336791E1,9.470925927E-1,-7.885209084E0,1.294572353E0
6.487336104E1,-8.380321503E0,-4.123838806E1,-1.081398964E0
6.493335407E1,-9.831336021E0,-3.047627068E1,7.944483757E0
6.499334647E1,-6.168571472E0,-3.112460852E0,-2.341488838E0
6.505333880E1,1.792178154E-1,1.010251522E0,-3.777789354E0
6.511333133E1,4.628186703E0,-4.668998718E-2,-3.125014305E-1
6.517332379E1,4.439870358E0,-1.939604521E0,2.554813385E0
6.523331642E1,-1.198033619E1,-7.513428211E0,-5.320682526E-1
6.529330892E1,-1.471698380E1,-3.399505615E0,-4.521493912E0
6.535330145E1,-9.420669079E-2,5.315401077E0,-9.205203056E-1
6.541329372E1,1.140119648E1,-4.954459667E0,-2.401569176E1
6.547328621E1,6.453750730E-1,-1.073293972E1,-8.384657860E0
6.553327864E1,2.660735250E-1,-7.723669052E0,2.028292656E0
6.559327124E1,-1.644389534E1,-3.758699036E1,-1.737656593E-1
6.565326377E1,-1.423170471E1,-1.185762501E1,1.179263592E0
6.571325670E1,-5.851032734E0,-1.210680294E1,1.237910748E0
6.577325070E1,-5.393033028E-1,-2.915307522E0,-2.138745546E0
6.583324530E1,3.007155895E0,3.017909527E-1,-3.529607773E0
6.589323977E1,3.665935040E0,-4.716000557E-1,-9.182004929E-1
6.595323423E1,-9.923602104E0,-1.539497852E0,-1.095330000E0
6.601322836E1,-1.265820980E1,-9.213127136E0,-2.253701925E0
6.607322126E1,-6.765005112E0,-6.522451401E0,-5.670886040E-1
6.613321366E1,1.915377617E0,-1.224244404E1,-7.888221264E0
6.619320619E1,1.110137177E1,-4.969143867E-1,-8.831852913E0
6.625319872E1,9.035427094E0,-6.621331692E0,-1.832906723E1
6.631319125E1,-2.451911688E0,-8.849414825E0,3.432744980E0
6.637318378E1,-3.045498371E0,-4.341237640E1,4.558534622E0
6.643317611E1,-6.974410057E0,-2.027331924E1,5.065363884E0
6.649316841E1,-4.525717258E0,-5.946092606E0,-1.128089905E0
6.655316087E1,-1.326522827E-1,-3.648853302E-1,8.066773415E-1
6.661315340E1,1.972856522E0,1.575524092E0,-4.258208275E0
6.667314587E1,1.276116371E-1,-4.866738319E0,-4.706886292E0
6.673313846E1,-3.771427155E0,-8.906322479E0,-4.129041195E0
6.679313116E1,-4.207739353E0,-7.756365776E0,-4.930551529E0
6.685312499E1,-4.067263603E0,1.087365913E1,4.045295715E-2
6.691311926E1,1.666773033E1,7.973021984E0,-1.916575623E1
6.697311365E1,9.163894653E0,-1.224556446E0,-9.613100052E0
6.703310788E1,-5.610407352E0,-2.768836021E1,-6.355667114E-1
6.709310208E1,-6.751255989E-1,-2.137977982E1,1.531417847E0
6.715309491E1,7.998948097E-1,-1.027470684E1,3.437010765E0
6.721308731E1,-3.483222485E0,-7.674453735E0,5.740406036E0
6.727307981E1,-4.882257938E0,-2.028357506E0,-2.696995735E-1
6.733307267E1,8.077864647E-1,-1.280822515E0,-4.245819569E0
6.739306513E1,5.027609348E0,6.272718906E-1,-1.361813068E0
6.745305766E1,3.045829296E0,-2.232105732E0,-7.708616257E-1
6.751305013E1,2.335591793E0,-4.634333611E0,-1.555556774E0
6.757304239E1,-6.742345333E0,-1.090886497E1,-4.883510113E0
6.763303442E1,6.676681519E0,1.136188507E1,-1.260782146E1
6.769302692E1,9.865139008E0,-5.789558411E0,-6.431483746E0
6.775301945E1,3.550738573E0,-2.054831314E1,1.495809555E0
6.781301198E1,2.968326330E0,-8.829433441E0,1.108561039E0
6.787300464E1,1.409224987E0,-1.325618362E1,6.699150085E0
6.793299778E1,-5.023612976E0,-1.044828129E1,6.627023697E0
6.799299094E1,-4.379405022E0,-2.888220310E0,3.187509060E0
6.805298407E1,9.907994270E-1,4.906865597E0,-2.290845156E0
6.811297723E1,7.273343086E0,3.742633343E0,1.914118767E0
6.817297020E1,3.846700668E0,-6.155782700E0,1.828132153E0
6.823296273E1,-4.784426689E-1,-9.662084579E0,-3.916466475E0
6.829295513E1,-9.610139847E0,-8.004217148E0,-4.515212059E0
6.835294766E1,3.622503996E0,6.058027744E0,-6.025720119E0
6.841294009E1,7.197805405E0,1.133871078E-1,-1.266759586E1
6.847293268E1,8.906944275E0,-3.792303085E0,-1.227529716E1
6.853292515E1,4.526716232E0,-4.942627907E0,-7.236385345E-1
6.859291761E1,-7.599401474E-2,-2.855504227E1,7.110787868E0
6.865290984E1,-1.222630501E0,-1.951690865E1,-8.880476952E-1
6.871290241E1,-6.822332382E0,-1.303158379E1,-1.440888166E0
6.877289487E1,-6.011832237E0,-1.013324547E1,3.416495323E0
6.883288746E1,3.587595940E0,4.377940893E-1,-5.651556015E0
6.889289248E1,7.486695290E0,2.992685318E0,-7.933454037E0
6.895288561E1,4.729878426E0,-8.633876801E0,-8.495461464E0
6.901287964E1,-8.721541405E0,-5.945884705E0,1.814179420E-1
6.907287397E1,6.284917355E0,-2.997841120E0,-2.178961372E1
6.913286824E1,5.808242798E0,5.370112419E0,-1.774330521E1
6.919286263E1,1.003600240E0,-6.600596428E0,-1.994193459E1
6.925285640E1,1.377191842E-1,-1.516510201E1,-4.758126259E0
6.931284903E1,1.511713028E0,-4.146172333E1,1.561183071E1
6.937284136E1,-2.214780331E0,-6.812181473E0,-6.830881119E0
6.943283389E1,-7.395594120E0,-2.088857269E1,-9.181137085E0
6.949282635E1,-8.875024796E0,-1.673175049E1,-1.151704788E-1
6.955281895E1,-4.360045910E0,-1.836834908E0,-3.064896584E0
6.961281145E1,1.580547810E0,7.517030239E0,-7.801685333E-1
6.967280401E1,1.168935871E1,-7.246413231E-1,-9.730343819E0
6.973279634E1,-1.653894901E0,-7.043101311E0,-8.012840271E0
6.979278861E1,-5.804429054E0,-3.187186718E0,-1.432028484E1
6.985278104E1,-4.933006763E0,4.033594131E-1,4.654090881E0
6.991277357E1,2.402415037E0,-1.496493340E0,-5.707406044E0
6.997276606E1,5.102515697E0,1.071779728E-1,-1.157771015E1
7.003275869E1,4.470732689E0,-1.006707001E1,-8.762763023E0
7.009275209E1,-1.386690044E1,-3.583072662E1,1.023249912E1
7.015274519E1,-1.467284203E0,-5.387997627E-1,-7.763680935E0
7.021273832E1,-7.321094513E0,-1.110391426E1,4.232983112E0
7.027273138E1,-1.417873383E1,-9.445353508E0,-1.007660389E0
7.033272442E1,-7.016957760E0,-3.053774357E0,-5.443578720E0
7.039271668E1,-4.762325287E-1,5.726076365E-1,-7.094644547E0
7.045270918E1,5.987573624E0,1.862972021E0,-1.162164021E1
7.051270164E1,5.478780270E0,-3.399985075E0,-6.767140388E0
7.057269417E1,-7.331337929E-1,-4.648055077E0,-3.302151203E0
7.063268667E1,-6.113747120E0,-1.211050510E1,9.787951469E0
7.069267927E1,6.432823181E0,3.325789690E0,-2.893556213E1
7.075267163E1,8.519129753E-1,-2.996729374E0,-5.631279945E0
7.081266396E1,-1.112752914E1,-2.385298157E1,-8.312765121E0
7.087265642E1,3.033983946E0,-7.952410698E0,1.574791908E0
7.093264892E1,2.821912050E0,-6.547875404E-1,8.267929077E0
7.099264138E1,-4.914566040E0,-1.220158005E1,-1.751384735E-1
7.105263392E1,-1.594119835E1,-6.063020229E0,-1.461392403E0
7.111262741E1,-1.266123390E1,-5.389404297E0,-1.694014549E0
7.117262178E1,2.427587748E0,2.007453203E0,-1.845485687E0
7.123261631E1,1.088691998E1,2.680162430E0,-1.051908970E1
7.129261078E1,2.254914761E0,-4.036477089E0,-6.618403435E0
7.135260531E1,-8.672616959E0,-2.461850643E0,-1.437707615E1
7.141259888E1,5.799646378E-1,-5.002775669E0,8.060839653E0
7.147259144E1,3.581812382E0,1.016503334E1,-2.444387054E1
7.153258391E1,2.727563858E0,-3.796207190E0,-8.733586311E0
7.159257650E1,6.627782345E0,-1.906270504E0,-7.002447128E0
7.165256897E1,3.529101372E0,-1.271908855E1,4.360527039E0
7.171256150E1,-3.672183990E0,-2.431518555E1,8.061491013E0
7.177255396E1,-4.797510147E0,-9.969518661E0,-9.692239761E-2
7.183254646E1,-3.547282696E0,-1.163858509E1,1.753785610E0
7.189253879E1,-8.658466339E0,-6.431016445E0,3.991402149E0
7.195253138E1,-4.893062592E0,-4.959450662E-1,6.738805771E-2
7.201252385E1,1.408214092E0,7.897605896E-1,-6.366829872E-1
7.207251641E1,3.220284700E0,-2.749557018E0,-3.401419640E0
7.213250881E1,-4.501070023E0,-6.553792953E0,-5.884752750E0
7.219250194E1,-2.283902884E0,-4.527764320E0,-5.201303482E0
7.225249597E1,-1.782310724E0,-1.303064346E0,-9.062469482E0
7.231249030E1,1.437619305E1,5.212903023E-1,-1.288855743E1
7.237248460E1,8.905125618E0,-3.782872677E0,-1.607522583E1
7.243247890E1,5.217213631E-1,-5.753371716E0,-3.540405273E0
7.249247256E1,-2.866972923E0,-1.814686966E1,-4.427117348E0
7.255246513E1,-7.175525665E0,-2.732569504E1,1.333659744E1
7.261245746E1,-8.433612823E0,-1.752760124E1,5.427988052E0
7.267244999E1,-8.908754349E0,-8.541693687E0,3.904239178E0
7.273244252E1,-4.605583191E0,3.011475801E-1,-3.971179008E0
7.279243498E1,4.775608063E0,3.060542583E0,-1.304516554E0
7.285242751E1,8.143067360E0,-5.426103592E0,-8.248863220E0
7.291242004E1,1.239828467E0,-9.027361870E0,-2.470426083E0
7.297241237E1,-3.767359972E0,6.998518467E0,-2.489618301E0
7.303240470E1,-7.211728096E0,-7.666697502E-1,2.874295712E0
7.309239730E1,5.702285767E-1,-3.456614017E0,-8.230974197E0
7.315238980E1,1.312031746E1,-3.265031338E0,-2.045018578E1
7.321238233E1,6.044868469E0,-1.484767151E1,-1.333532715E1
7.327237506E1,5.776597977E0,-1.371397114E1,4.712482452E0
7.333236839E1,-3.294626236E0,-2.837621880E1,-1.696118832E0
7.339236146E1,-3.187150574E1,-3.001156998E1,3.086255550E0
7.345235462E1,-1.214012051E1,-5.661436558E0,2.200427294E0
7.351234768E1,-8.545703888E-1,-3.636801243E-1,2.927597761E0
7.357234055E1,2.403204441E0,2.486577272E0,-1.413527369E0
7.363233294E1,3.270647049E0,4.568352222E0,-1.125769258E0
7.369232558E1,-8.855257034E-1,4.303555489E-1,2.005683661E0
7.375231804E1,-1.171912956E1,-5.777770042E0,6.234654427E0
7.381231064E1,-1.346648598E1,-9.013233185E0,2.511442661E0
7.387230316E1,-1.903285146E0,-1.314238548E0,-3.222701550E-1
7.393229556E1,2.907485962E-1,-1.098132133E1,9.150537491E0
7.399228779E1,1.301860237E1,-1.660742760E1,-1.949706459E1
7.405228019E1,1.202392864E1,-1.474911499E1,-1.753561211E1
7.411227266E1,4.838881493E-1,-1.673587418E1,1.299138260E1
7.417226518E1,-2.188206863E1,-4.855674362E1,1.017916584E1
7.423225772E1,-5.796075821E0,-6.000862122E0,6.462324619E0
7.429225031E1,-7.881827354E0,-3.614431381E0,3.479258060E0
7.435224388E1,-2.512651443E0,3.278891087E0,1.575843573E0
7.441223814E1,1.332234383E0,3.146343708E0,3.846511841E0
7.447223247E1,-1.587011814E0,-4.201673031E0,1.670501709E0
7.453222680E1,-4.122015476E0,-6.087580681E0,2.907872200E-1
7.459222106E1,-2.866142273E0,-1.665386677E0,1.753252983E0
7.465221423E1,-7.695173264E0,-2.003693581E0,-9.145891190E0
7.471220663E1,1.168035603E1,-5.885395050E0,-2.691631699E1
7.477219896E1,6.350727081E0,-1.597557163E1,-2.700131989E1
7.483219149E1,1.181526756E1,-8.426864624E0,-2.830487251E0
7.489218395E1,-7.253012180E0,-4.307186508E1,4.160353661E0
7.495217655E1,-9.176746368E0,-2.993807220E1,1.297732925E1
7.501216901E1,-4.107104301E0,-4.247539520E0,3.990006447E-1
7.507216154E1,-1.831149101E0,4.972912788E0,1.786994934E-1
7.513215381E1,4.853935242E0,4.814818859E0,3.247743607E0
7.519214631E1,6.543491840E0,1.260617375E0,6.134485722E0
7.525213877E1,-7.163009644E-1,-2.064490080E0,4.825927734E0
7.531213140E1,-1.034081936E1,-6.362637997E0,-2.353526831E0
7.537212386E1,-9.450511932E0,-2.247577667E0,-5.615888596E0
7.543211686E1,-1.723254919E0,-6.437871933E0,1.741733551E0
7.549211003E1,7.145108223E0,-9.256875992E0,-2.017456436E1
7.555210322E1,1.344335270E1,-1.447158813E1,-1.263761330E1
7.561209625E1,3.129960537E0,-1.157562828E1,-4.246362686E0
7.567208948E1,-2.627260685E0,-2.119937134E1,1.393858528E1
7.573208215E1,-1.895735359E1,-2.688123512E1,9.465719223E0
7.579207454E1,-7.014235497E0,2.099171162E0,2.022404194E0
7.585206704E1,-1.951864243E0,2.419370174E0,1.102671623E0
7.591205957E1,-2.495806694E0,6.180430889E0,1.709443092E0
7.597205200E1,1.433439732E0,-8.960243464E-1,2.346992493E-1
7.603204453E1,-6.112642288E0,-3.906520605E0,6.013476849E0
7.609203706E1,-8.661289215E0,-8.741011620E0,-2.201795578E-2
7.615200603E1,-1.679130745E1,-5.701158524E0,-9.336216450E-1
7.621199840E1,6.635917664E0,-5.129333496E0,-2.494859886E1
7.627199093E1,1.447975445E1,-1.113226700E1,-1.712574005E1
7.633198346E1,4.853506088E0,-5.673602104E0,-3.881923914E0
7.639197586E1,6.052121162E0,-1.801443291E1,4.340538025E0
7.645196862E1,-8.117324829E0,-2.956914902E1,1.477709961E1
7.651196255E1,-2.453487873E0,-1.168188190E1,5.739097595E0
7.657195688E1,-3.444165230E0,-2.625894547E0,2.139238358E0
7.663195115E1,-9.828176498E-1,4.022852898E0,3.123283386E-3
7.669194554E1,5.242226601E0,1.057896852E0,4.581197739E0
7.675193961E1,-3.063979149E0,-8.193788528E-1,1.668409824E0
7.681193250E1,-1.087137890E1,-6.748307228E0,-2.025199413E0
7.687192480E1,-4.566635609E0,-5.628781796E0,-2.650022507E-2
7.693191717E1,4.155549526E0,-7.885363579E0,-1.216577911E1
7.699190963E1,-5.317921638E0,-7.308400631E0,-1.357972622E0
7.705190223E1,5.598884106E0,-1.438929939E1,-1.420115662E1
7.711189469E1,5.344024658E0,-1.181288433E1,-9.246711731E0
7.717188719E1,-1.280257225E1,-3.278284073E1,-4.791989326E-1
7.723187968E1,-2.358000183E1,-5.492950439E0,-4.776766300E0
7.729187201E1,-8.175712585E0,-2.957494736E0,1.355572939E0
7.735186435E1,-3.363187790E0,3.968153477E0,1.504911184E0
7.741185688E1,1.064078808E0,4.698698997E0,-2.193151236E0
7.747184947E1,3.470478058E0,9.698652029E-1,2.374963760E0
7.753184204E1,-5.568633556E0,-3.799253702E0,-2.065896988E-2
7.759183524E1,-1.536776447E1,-5.602861404E0,-7.266737938E0
7.765182843E1,-8.045677185E0,-5.943968773E0,3.604622364E0
7.771182156E1,9.841667175E0,-5.655434608E0,-2.313670158E1
7.777181463E1,1.483221149E1,-1.349849224E1,-1.888545990E1
7.783180772E1,9.627206802E0,-7.272816181E0,-1.203008461E1
7.789180012E1,-1.391444111E1,-3.081325340E1,2.030978203E0
7.795179252E1,-1.579381180E1,-2.144651413E1,1.459500599E1
7.801178495E1,-8.140324593E0,-5.330378532E0,5.660868168E0
7.807177748E1,-7.153274536E0,6.317297220E-1,2.537639141E0
7.813176994E1,-2.555757999E0,4.640951633E0,-6.120586395E-2
7.819176254E1,3.128469944E0,1.981544256E0,7.977986336E-1
7.825175500E1,6.065488338E0,1.025254488E0,3.025846004E0
7.831174744E1,1.267175674E-1,-1.558691025E0,3.440635681E0
7.837173980E1,-1.714147186E1,-6.569248676E0,-1.017672634E1
7.843173233E1,-2.890960693E0,-4.879425526E0,-1.033289719E1
7.849172479E1,2.772080898E0,-6.109377384E0,-1.370736885E1
7.855171739E1,1.477644539E1,-7.977515221E0,-2.534998894E1
7.861171045E1,1.293796158E1,-8.694476128E0,-5.663107872E0
7.867170469E1,3.648788214E0,-2.489487648E1,-4.011812210E-1
7.873169922E1,-1.607253075E1,-2.820799446E1,3.885516644E0
7.879169375E1,-2.665420532E0,-3.680393696E0,8.662179947E0
7.885168822E1,-6.078040600E0,2.649817705E0,1.776748180E0
7.891168215E1,-3.869566917E0,7.619305134E0,6.385960579E-1
7.897167488E1,3.638648510E0,5.136970997E0,9.308547974E-1
7.903166731E1,-3.478792667E0,5.648748875E-1,-2.651623487E0
7.909165984E1,-8.993060112E0,-9.457111359E0,-8.377819061E0
7.915165240E1,-1.348712444E0,-1.881932259E0,-1.120422935E1
7.921164497E1,7.237166405E0,3.344584942E0,3.674595833E0
7.927163750E1,1.583441353E1,-5.711794853E0,-1.988710785E1
7.933162993E1,1.212848759E1,-2.031357050E0,-1.982503319E1
7.939162226E1,2.422455311E0,-3.651308060E0,-5.233142853E0
7.945161469E1,-1.671839523E1,-4.218667984E1,-1.808356762E0
7.951160712E1,-1.442397404E1,-2.821157646E1,5.965648651E0
7.957159968E1,4.252624512E-2,-4.348909855E0,3.061697960E0
7.963159225E1,-4.001556873E0,5.598043442E0,-1.667992592E0
7.969158508E1,-1.101758480E0,2.785019398E0,-2.631129742E0
7.975157901E1,6.206412315E0,-2.074099064E0,2.223556519E0
7.981157341E1,6.868159294E0,2.829956055E0,6.838615417E0
7.987156764E1,-9.086489677E0,-1.091165924E1,-4.080504417E0
7.993156213E1,-2.173064804E1,-9.702362061E0,1.109837246E1
7.999155610E1,5.728888512E-2,-5.458051682E0,-1.570937157E1
8.005154890E1,1.181670380E1,-5.839054108E0,-1.226532745E1
8.011154133E1,7.228569984E0,-1.274167347E1,-1.415400028E1
8.017153386E1,1.885626316E0,-1.228840065E1,9.428303719E0
8.023152612E1,-1.406948853E1,-2.279083824E1,-5.818856239E0
8.029151865E1,-1.818726730E1,-1.724811745E1,1.157549286E1
8.035151112E1,-2.095441818E0,-2.923300266E0,7.582456589E0
8.041150355E1,-3.131361008E0,2.120574474E0,1.770103455E0
8.047149588E1,3.292536736E0,7.119809628E0,1.797021627E0
8.053148831E1,-1.431541443E0,5.126518250E0,6.154303551E-1
8.059148084E1,-1.800744438E1,-1.294668198E0,-4.670090199E0
8.065147337E1,-1.285689354E1,-7.780739307E0,-4.900988102E0
8.071146590E1,-7.365703583E0,-5.969620705E0,-5.982391357E0
8.077145850E1,-1.219563723E0,-7.072668076E0,-9.539123535E0
8.083145166E1,-2.368931770E0,-1.635154343E1,-6.029510498E0
8.089144479E1,4.101853848E0,-5.350012779E0,-2.246566772E1
8.095143792E1,5.563339710E0,-1.270040894E1,-7.213291168E0
8.101143092E1,-8.347774744E-1,-8.877208710E0,1.083906651E0
8.107142398E1,-1.364147186E1,-1.944821358E1,5.270429611E0
8.113141638E1,-1.674537659E1,-1.544052219E1,1.355954552E1
8.119140881E1,-5.977535248E0,8.731926680E-1,6.575751305E0
8.125140128E1,-1.414917946E0,5.989692211E0,5.081796646E0
8.131139394E1,-5.070226669E0,5.913047791E0,6.101335049E0
8.137138640E1,-1.383202171E1,7.201678753E-1,-3.062995911E0
8.143137893E1,-1.599656487E1,-7.297214508E0,-8.204593658E-1
8.149137130E1,-1.219008255E1,-1.124436855E1,-1.060355949E1
8.155136370E1,-3.621800423E0,-6.855688095E0,9.438692093E0
8.161135616E1,9.322025299E0,-4.358792782E0,-2.528102684E1
8.167134876E1,1.063648224E1,-2.564849854E0,-9.291172028E0
8.173134122E1,-6.951940060E0,-7.581779003E0,-4.657532215E0
8.179133385E1,-8.489576340E0,-1.077524185E1,1.494013786E0
8.185132705E1,-2.714553261E1,-1.560282230E1,9.300880432E0
8.191132118E1,-6.697031021E0,1.040996552E0,-3.362554073E0
8.197131565E1,2.659919739E0,5.570746899E0,-4.706950188E0
8.203131018E1,2.216384888E0,4.316054821E0,-7.310218811E-1
8.209130461E1,-8.444511414E0,2.365742922E0,-5.404582977E0
8.215129844E1,-1.722757912E1,-2.390725851E0,-2.547347069E0
8.221129107E1,-1.459266281E1,-6.519480705E0,-1.396313190E0
8.227128354E1,-6.637561321E0,2.926983833E-1,-4.652750969E0
8.233127604E1,2.239691496E0,2.468625546E0,-1.994025230E1
8.239126856E1,1.002430916E1,-2.469200134E0,-2.479167366E1
8.245126106E1,1.553703308E0,2.153163433E0,-1.815318298E1
8.251125356E1,-1.051063061E1,-8.791909218E0,1.379426956E1
8.257124596E1,-1.409194565E1,-2.535846138E1,-4.155456543E0
8.263123832E1,-2.177577400E1,-9.103553772E0,-2.019874096E0
8.269123082E1,-3.572611809E0,2.047660112E0,-1.657821178E0
8.275122328E1,2.096929550E0,4.305933952E0,-6.686352730E0
8.281121588E1,1.830606461E-1,4.664044380E0,-4.367209911E0
8.287120834E1,-1.236088848E1,-5.331850052E-2,2.493038177E-1
8.293120127E1,-1.624604607E1,-7.324892998E0,6.199647903E0
8.299119521E1,-1.207800484E1,-5.876436710E0,-8.807508469E0
8.305118960E1,-4.009377956E0,-3.854394913E0,-1.189883327E1
8.311118386E1,-1.113879085E0,-1.192990303E1,-7.645175457E0
8.317117826E1,7.829847813E0,-2.151221991E0,-2.019386673E1
8.323117212E1,9.549704552E0,-3.249359131E-1,-1.833921814E1
8.329116482E1,-6.925341606E0,-7.125770092E0,9.989323616E0
8.335115712E1,-1.722756386E1,-4.170605469E1,6.102266312E-1
8.341112123E1,-6.659482002E0,-2.088578606E1,3.085727692E-1
8.347111370E1,4.348731995E0,5.240625858E0,-3.481568336E0
8.353110623E1,-3.077903271E0,4.856053829E0,-3.695670128E0
8.359109886E1,2.500758648E0,2.037618160E-1,6.867303848E-1
8.365109136E1,-4.477910995E0,-6.145012856E0,7.660891533E0
8.371108362E1,-1.490526772E1,-7.412570953E0,-8.169484138E0
8.377107595E1,-6.635721207E0,-8.327992439E0,-3.673985720E0
8.383106848E1,6.163435936E0,-4.690032482E0,-1.479910088E1
8.389106091E1,1.557772064E1,-4.806430817E0,-1.823212814E1
8.395105344E1,7.993898869E0,-6.040719509E0,-1.214584637E1
8.401104604E1,-5.164421558E0,-1.296109867E1,1.256565857E1
8.407103930E1,-1.792517090E1,-4.561116409E1,7.203586578E0
8.413103243E1,-9.510292053E0,-1.409815025E1,3.970894814E-1
8.419102560E1,-4.871962547E0,-6.649818897E0,-4.674728394E0
8.425101866E1,1.464206696E0,-5.050179958E-1,-2.023156643E0
8.431101173E1,2.822518349E0,-9.583282471E-2,-7.025170326E-1
8.437100419E1,-2.140552998E-1,-1.803010464E0,4.457336426E0
8.443099669E1,-1.249501419E1,-7.707240105E0,4.894271851E0
8.449098918E1,-1.439734650E1,-7.393963814E0,4.176683426E-1
8.455098178E1,-1.580425739E1,-5.135468483E0,-3.606449127E0
8.461097424E1,-6.048542261E-1,-1.899184227E0,-1.460172462E1
8.467096671E1,8.591362000E0,-1.417513084E1,-2.044063377E1
8.473095904E1,1.045509815E1,-7.741861343E-1,-1.062860298E1
8.479095137E1,-8.146728516E0,-1.283281898E1,1.737490463E1
8.485094380E1,-2.766489029E1,-4.985062790E1,8.919934273E0
8.491093640E1,1.223311424E-1,-1.146976471E1,2.803437233E0
8.497092886E1,-2.044570923E0,4.725456238E-3,-1.397554398E0
8.503092142E1,1.405458927E0,7.529430389E-1,-4.650478363E-1
8.509091472E1,2.077219486E0,-2.741583109E0,-5.547027588E-1
8.515090895E1,-9.002359390E0,-2.476009846E0,-6.747755527E0
8.521090322E1,-9.721415520E0,-1.138882637E1,-9.082250595E0
8.527089761E1,-7.258677483E0,-8.391516685E0,-5.454983711E0
8.533089188E1,5.368068218E-1,1.587767601E0,-4.726932049E0
8.539088537E1,1.464764595E1,-7.043763161E0,-1.069855309E1
8.545087784E1,1.478657532E1,-7.083611488E0,-8.090342522E0
8.551087017E1,-2.786041737E0,-1.276432323E1,1.417219543E1
8.557086260E1,-1.277502632E1,-3.188032150E1,2.536985874E0
8.563085513E1,-1.748783684E1,-1.303209496E1,-6.040367126E0
8.569084766E1,-5.578186512E0,-7.289766788E0,-2.562620401E0
8.575084019E1,5.092639923E-1,-8.893840313E-1,9.756278992E-1
8.581083275E1,2.466113567E0,5.993481636E0,-7.230138779E-2
8.587082505E1,2.013776541E0,7.189726830E-1,2.705938339E0
8.593081745E1,-8.111831665E0,-5.305915833E0,1.033762455E0
8.599080998E1,-1.309298992E1,-1.084149742E1,-1.671404839E0
8.605080251E1,-1.090052605E1,-9.994045258E0,-2.064029455E0
8.611079494E1,2.072593451E0,-7.530502796E0,-1.186931038E1
8.617078784E1,1.492112160E0,-6.149915695E0,-9.605051041E0
8.623078107E1,1.749146843E1,-8.308501244E-1,-2.458999825E1
8.629077420E1,7.814659119E0,-6.797639847E0,-1.830568790E0
8.635076726E1,-1.946582413E1,-6.143219757E1,-4.455614090E0
8.641076046E1,-8.173375130E0,-2.103385925E1,9.206514359E-1
8.647075323E1,1.799955010E0,-2.763710022E0,1.744820595E0
8.653074559E1,-2.170189381E0,-8.606765270E-1,-3.015378475E0
8.659073799E1,2.806174517E0,2.855302095E0,-3.895799875E0
8.665073052E1,-6.739792824E-1,1.114811897E0,-5.165152550E-1
8.671072305E1,-7.942827225E0,-7.912534714E0,-3.825018406E0
8.677071568E1,-8.959258080E0,-3.363985062E0,6.334985256E0
8.683070814E1,8.794445038E0,-3.529498100E0,-2.555651474E1
8.689070054E1,1.547380066E1,1.259532452E0,-1.603773117E1
8.695069287E1,5.535357475E0,-9.531181335E0,-1.075828075E0
8.701068534E1,-9.347492218E0,-3.299480057E1,2.058203220E0
8.707067777E1,1.031198025E0,-2.079372025E1,4.371612549E0
8.713067036E1,-5.747921944E0,-1.678823280E1,1.653026581E0
8.719066296E1,-8.099103928E0,-6.668728352E0,-1.832145214E0
8.725065679E1,-1.735960960E0,2.325354099E0,-3.186047316E0
8.731065112E1,3.771259308E0,3.897163391E0,-3.113096952E0
8.737064542E1,3.424999714E0,-4.853057861E-2,-4.831625462E0
8.743063968E1,-8.014042854E0,-9.812952995E0,6.104335785E-1
8.749063395E1,-6.994596481E0,-8.801289558E0,-3.485863447E0
8.755062698E1,1.289555311E0,-3.027658463E0,-1.767015934E0
8.761061931E1,9.238321304E0,2.894955635E0,-1.172258759E1
8.767061171E1,-1.582562208E0,-7.851855278E0,-7.943745136E0
8.773060417E1,4.439722061E0,-9.552434921E0,-6.901342869E0
8.779059674E1,-1.898376226E0,-2.892875290E1,1.119792652E1
8.785058920E1,-7.091782093E0,-1.770256042E1,3.486004829E0
8.791058173E1,-5.294701576E0,-8.461672783E0,2.716948986E0
8.797057416E1,-5.696310997E-1,2.230295420E0,-3.223064184E0
8.803056656E1,3.350800514E0,3.903800249E0,-1.892838478E0
8.809055882E1,4.821394920E0,-1.263586044E0,-2.996095896E0
8.815055135E1,4.032568932E-1,-8.547661781E0,-5.431743622E0
8.821054382E1,-1.583138943E0,-9.204316139E-1,-7.929870605E0
8.827053641E1,1.542204857E0,3.742728233E0,-8.117542267E0
8.833052948E1,7.265316010E0,-2.089199781E0,8.533406258E-1
8.839052278E1,1.169537735E1,9.094264507E-1,-1.237110710E1
8.845051591E1,1.003769302E1,-5.579990149E-2,-1.563458729E1
8.851050904E1,7.782325268E0,-4.348290443E0,-1.003144264E0
8.857050210E1,-6.175835609E0,-5.041176224E1,4.307881832E0
8.863049463E1,-3.330975056E0,-1.902297211E1,-2.645598888E0
8.869048696E1,-7.721567154E-1,-5.553762436E0,-5.640573502E-1
8.875047946E1,3.977107286E0,1.025423408E0,-2.816719532E0
8.881047199E1,4.502952576E0,7.080246449E0,-5.208586693E0
8.887046455E1,5.666919231E0,1.751365423E0,-3.009894609E0
8.893045708E1,-4.350485802E-1,-6.735754013E0,-1.822906971E0
8.899044961E1,-2.474819946E1,-1.690363693E1,8.222487450E0
8.905044198E1,1.489484501E1,4.656695843E0,-1.196568298E1
8.911043424E1,1.366162682E1,7.674177647E0,-1.835472488E1
8.917042674E1,-4.368634224E-1,-4.631854534E0,-1.376169682E0
8.923041924E1,-3.005386829E0,-3.822984314E1,2.555647373E0
8.929041180E1,1.636562347E0,-1.402568626E1,-4.680738449E-1
8.935040466E1,6.276623249E0,-2.163353348E1,-5.479335785E0
8.941039879E1,2.879974604E0,-1.431516171E1,2.296070099E0
8.947039333E1,7.886056900E-1,-5.960254669E0,1.523137093E-1
8.953038789E1,-4.412151814E0,1.247237778E1,-4.398682117E0
8.959038232E1,2.759120941E0,2.471376419E0,-5.819688797E0
8.965037652E1,1.662299871E0,-4.992522717E0,-5.102155685E0
8.971036945E1,-1.100740910E0,-6.209191799E0,-4.024291039E0
8.977036185E1,-4.172164440E0,-9.146757126E0,-7.102192879E0
8.983035432E1,6.370088577E0,-4.817343235E0,-9.652784348E0
8.989034691E1,-2.300851345E0,4.174842834E0,-8.294863701E-1
8.995033938E1,-4.340194702E0,-6.681128502E0,-1.343585587E1
9.001033191E1,7.556341290E-1,-1.648171806E1,-3.843698502E-1
9.007032430E1,-3.050230503E0,-1.939413071E1,1.117887974E0
9.013031670E1,-5.845179558E0,-1.825569916E1,-7.212185860E-1
9.019030903E1,-6.669005871E0,-9.444384575E0,-1.929222584E0
9.025030156E1,-3.804572582E0,3.258329868E0,-9.205331802E-1
9.031029409E1,3.526182175E0,9.706450462E0,-2.117922783E0
9.037028662E1,4.652669430E0,4.257572174E0,-3.856357098E0
9.043027942E1,-1.240218830E1,-9.494995117E0,-1.052685547E1
9.049027322E1,-1.005298996E1,-1.753310394E1,1.619050407E1
9.055026755E1,1.148750544E0,-1.799054146E-1,-1.178686714E1
9.061026188E1,1.705181694E1,4.659979343E0,-9.966502190E0
9.067025621E1,-4.254190445E0,-6.403811455E0,-1.053285885E1
9.072028649E1,-5.315694332E0,-7.962335110E0,-1.192914200E1
9.078027952E1,-5.477193356E0,-2.055813789E1,6.522774696E0
9.084027188E1,-6.403553009E0,-2.245178223E1,7.659195423E0
9.090026428E1,-1.088834190E1,-9.555653572E0,2.220824718E0
9.096025688E1,-1.051419067E1,1.062366247E0,4.190153122E0
9.102024948E1,-9.192686081E-1,2.804053068E0,-5.579051018E0
9.108024194E1,5.201901913E0,3.894330978E0,-3.774067879E0
9.114023450E1,4.709480286E0,-1.970087588E-1,-5.075976849E0
9.120022690E1,-3.543303967E0,2.200109482E0,-2.857125282E0
9.126021910E1,-8.687287331E0,-3.829365015E0,-1.188656425E1
9.132021143E1,-4.457628727E-1,7.571029663E-2,-1.049532318E1
9.138020403E1,9.696382523E0,1.310258389E0,-1.005992031E1
9.144019649E1,1.581565857E1,6.875367165E0,-1.846472549E1
9.150018902E1,4.797800064E0,4.540891171E0,-1.211593533E1
9.156018209E1,-1.753874397E1,-4.452405548E1,7.538782597E0
9.162017535E1,-3.495296478E0,-2.673713684E1,-2.988775730E0
9.168016841E1,-1.404560328E0,-1.350918388E1,-1.697331429E0
9.174016154E1,-3.340569019E0,3.061920404E0,-5.028356552E0
9.180015467E1,-5.514446259E0,2.427703381E0,-4.731937885E0
9.186014727E1,4.080798149E0,5.495961189E0,-3.635720730E0
9.192013960E1,4.639465809E0,1.704743624E0,-9.017196655E0
9.198013207E1,6.967411041E-1,4.125225544E0,-4.780781746E0
9.204012460E1,-1.711146736E1,-3.933671713E0,-6.829506397E0
9.210011713E1,-2.498419762E0,2.255440235E0,-3.250577927E0
9.216010966E1,9.565119743E0,4.498097420E0,-1.541040707E1
9.222010212E1,5.908008575E0,3.081749201E0,-1.432253551E1
9.228009452E1,4.297530174E0,-1.523409724E0,-4.603641033E0
9.234008682E1,-2.391103268E0,-1.074278831E1,1.065011024E0
9.240007938E1,-1.069486523E1,-2.991707230E1,1.016306782E1
9.246007184E1,-6.572241783E0,-9.802778244E0,3.915218830E0
9.252006454E1,-1.125221157E1,-6.514890194E0,1.847899914E0
9.258005731E1,-4.004365444E0,-4.098807573E-1,-1.415114880E0
9.264005134E1,1.339701176E0,5.800625801E0,-7.669424534E0
9.270004580E1,6.478369713E0,3.779718876E-1,-5.527104855E0
9.276004034E1,3.839759588E0,-2.515880108E0,-5.774784088E0
9.282003470E1,-3.320297003E0,-3.477699757E0,-3.246670723E0
9.288002900E1,-9.036821365E0,6.464905739E-1,1.230242729E0
9.294002200E1,1.223684692E1,2.099919128E1,-1.505064964E1
9.300001433E1,2.183189869E0,-1.858666539E0,-8.742242813E0
9.306000686E1,-6.611518860E0,-1.419837379E1,4.623035908E0
9.311999939E1,-1.497650146E-2,-2.128739548E1,5.861630440E0
9.317999185E1,6.052751064E0,-4.497009754E0,2.228916168E0
9.323998438E1,-3.282927036E0,-6.394488335E0,1.554035664E0
9.329997688E1,-1.326620674E1,-1.168094254E1,-4.692749977E-1
9.335996921E1,-8.690397263E0,-2.742133856E0,-8.886535168E-1
9.341996164E1,2.899972439E0,8.417359352E0,-4.098312378E0
9.347995410E1,1.173247147E1,6.901873589E0,-1.229386330E0
9.353994664E1,1.355656385E0,-1.711761713E0,-2.973564863E0
9.359993920E1,-9.083368301E0,-8.969682693E0,-4.107130527E0
9.365993180E1,-3.385877132E0,-9.337122917E0,-7.936369419E0
9.371992546E1,2.799167871E0,-5.231860161E0,-1.554656792E1
9.377991986E1,8.610416412E0,1.586724377E1,-4.270138264E0
9.383991415E1,6.026418686E0,-1.604747772E1,-6.869361877E0
9.389990845E1,-6.133228302E0,-2.599827957E1,3.187073946E0
9.395990265E1,4.382025242E0,-8.872287750E0,7.241796017E0
9.401989575E1,-2.993890762E0,-1.484051514E1,9.463499069E0
9.407988801E1,-1.143310833E1,-9.597924232E0,5.486443043E0
9.413988047E1,-2.888993263E0,-2.793709755E0,-2.018069506E0
9.419987294E1,1.181377792E1,1.256712317E0,-1.858922005E0
9.425986550E1,1.670021820E1,2.709550142E0,1.149997234E0
9.431985797E1,5.301112652E0,-1.146331787E0,-3.551827908E0
9.437985056E1,-1.102840805E1,-4.286307335E0,-2.468553543E0
9.443984293E1,-5.904945374E0,-7.233056545E0,3.112596035E0
9.449983526E1,1.233659172E1,-9.424766541E0,-1.870661354E1
9.455982769E1,1.218687820E1,-3.045435905E0,-2.934850693E0
9.461982022E1,1.434261322E0,-1.727634048E1,-8.716453910E-1
9.467981268E1,5.013461113E0,-2.776200867E1,1.769459152E1
9.473980521E1,8.814812660E0,-9.534860611E0,1.078382874E1
9.479979831E1,1.772301674E0,-1.181928158E1,1.091490936E1
9.485979151E1,-9.793062210E-1,-1.453806973E1,1.114586163E1
9.491978471E1,6.597023010E-1,-2.302280664E0,2.654068470E-1
9.497977784E1,6.407954216E0,1.195402145E0,2.429689407E0
9.503977096E1,1.239924908E1,-2.032696247E0,1.378052235E0
9.509976353E1,6.989882469E0,-3.864398241E0,-1.226461768E0
9.515975603E1,-3.365217209E0,-2.603483915E0,3.986221075E0
9.521974853E1,9.034207344E0,9.143686295E0,-1.766692519E0
9.527974122E1,1.129579353E1,-6.332808495E0,-5.203692913E0
9.533973369E1,3.973187447E0,-1.095778275E1,8.976068497E-1
9.539972622E1,1.142786026E1,-1.852022743E1,7.111785889E0
9.545971858E1,3.684023619E0,-1.629241371E1,6.844052792E0
9.551971088E1,-1.637487411E-1,-1.837252808E1,-6.805714369E-1
9.557970308E1,8.645963669E-1,-2.104947281E1,8.020077705E0
9.563969567E1,1.384676933E0,-7.142335892E0,1.182190776E0
9.569968820E1,6.728724480E0,1.928523779E0,-4.542994499E-1
9.575968077E1,1.083203602E1,-7.601008415E-1,-2.449099064E0
9.581967363E1,9.586676598E0,-2.677473545E0,-1.717072010E0
9.587966773E1,2.025718212E0,-5.491557121E0,-2.069634914E0
9.593966200E1,-7.287318230E0,-8.446489334E0,6.925735474E-1
9.599965632E1,3.439136505E0,5.805217743E0,-2.723379850E0
9.605965056E1,1.356626225E1,-3.855033159E0,-5.888322830E0
9.611964449E1,1.864134312E0,-1.985931015E1,-3.956069469E0
9.617963715E1,3.961520672E0,-1.980666351E1,7.155594826E0
9.623962955E1,5.762341022E0,-6.734516144E0,3.177566051E0
9.629962191E1,1.779170036E0,-1.684045601E1,4.323654175E0
9.635961444E1,-1.325942039E0,-1.483900928E1,5.006310463E0
9.641960697E1,1.244030952E0,-5.313893557E-1,1.353541493E0
9.647959950E1,5.161326408E0,-2.472603321E-1,1.533868313E-1
9.653959197E1,5.589101791E0,-5.295345306E0,-4.535554886E0
9.659958440E1,6.059232712E0,6.476960182E-1,-1.625830412E0
9.665957673E1,1.567099094E0,-8.915357590E-1,-2.796943188E-1
9.671956922E1,-5.218903542E0,-3.356997967E0,3.855575562E0
9.677956179E1,2.058664513E1,-3.166584969E-1,-1.610333633E1
9.683955425E1,1.053761768E1,-4.175663948E0,-8.731141090E0
9.689954688E1,7.147132874E0,-2.457643700E1,-6.859078407E0
9.695954015E1,-5.548686981E-1,-2.692595863E1,5.180444241E0
9.701953331E1,4.929775715E0,-1.282713509E1,-1.236230850E0
9.707952634E1,-3.553620338E0,-1.895080376E1,4.688172340E-1
9.713951954E1,-3.361280441E0,-1.147661304E1,2.449306965E0
9.719951250E1,2.246804714E0,3.496569157E0,-2.733298779E0
9.725950490E1,3.432824135E0,-3.415823698E0,-5.991825581E0
9.731949727E1,8.717669487E0,-4.502693176E0,-4.857933998E0
9.737948993E1,9.260084152E0,-1.488299370E0,-2.356500626E-1
9.743948236E1,-7.548017502E-1,-9.424066544E-1,2.406413078E0
9.749947496E1,2.114226580E0,-6.101625919E0,-3.787556648E0
9.755946742E1,1.428273296E1,-5.032267570E-1,-1.370073700E1
9.761945985E1,2.298326969E0,-1.080344296E1,-6.983397484E0
9.767945208E1,1.703904867E0,-2.694862175E1,-6.854479313E0
9.773944461E1,-4.030912399E0,-2.314241028E1,-1.508077621E0
9.779943708E1,3.264256239E0,-9.556512833E0,8.352223396E0
9.785942961E1,-4.652903557E0,-1.764451790E1,8.295616150E0
9.791942214E1,-9.778661728E-1,-5.517126560E0,-7.101826668E-1
9.797940900E1,4.460973740E0,-6.864697933E-1,-5.406553745E0
9.803940320E1,6.493154526E0,4.625513077E0,-8.993803024E0
9.809939773E1,7.154526234E0,-2.888349056E0,-5.118398666E0
9.815939227E1,4.153232574E-1,-8.550226212E0,-1.913281441E0
9.821938680E1,-1.234697819E1,1.029297829E0,-6.953525543E0
9.827938056E1,1.967708588E1,7.279910564E0,-8.905697823E0
9.833937316E1,1.023406696E1,-2.940134764E0,9.424648285E-1
9.839936563E1,2.358936787E0,-2.240114784E1,-5.714817047E0
9.845935816E1,5.535321236E-1,-1.209339523E1,-6.502815247E0
9.851935069E1,6.587217808E0,-1.366224289E0,3.022058964E0
9.857934315E1,4.212510109E0,-2.014403534E1,2.459470749E0
9.863933578E1,-8.384287834E0,-1.751868820E1,4.258918285E0
9.869932811E1,-1.584377289E-1,-1.080883741E-1,-1.337994576E0
9.875932044E1,7.160320282E0,3.369418859E0,-7.923855782E-1
9.881931287E1,7.008963108E0,-1.967976093E-1,-1.905045509E0
9.887930547E1,5.132338524E0,-1.976115227E0,-4.741761208E0
9.893929793E1,1.275352955E0,-9.889352798E0,-1.772713661E0
9.899929053E1,-7.584562302E-1,8.296093941E-1,-4.868187428E0
9.905928346E1,1.593925381E1,3.259891510E0,-7.620329380E0
9.911927749E1,3.461347580E0,-5.378316402E0,-6.711964130E0
9.917927176E1,2.561981916E0,-1.817283249E1,-1.087534523E1
9.923926615E1,1.300118208E0,-2.259653854E1,6.382726669E0
9.929926042E1,-3.423507214E-1,-7.986001968E0,-4.050207615E0
9.935925428E1,-1.013998032E0,-2.205327225E1,-2.893466711E0
9.941924695E1,-2.914659977E0,-1.547530651E1,2.824629307E0
9.947923931E1,4.198055267E-1,-6.067221165E0,-4.225961208E0
9.953923177E1,7.519276142E0,8.836455345E-1,-6.751680374E0
9.959922430E1,9.341430664E0,-2.131831646E0,-4.942514420E0
9.965921683E1,4.908617973E0,4.960350037E0,-5.851265430E0
9.971920936E1,-3.902081251E0,-6.252052307E0,1.230971241E1
9.977920186E1,-4.015989304E0,2.213630199E0,-5.229284286E0
9.983919412E1,1.282927418E1,8.586683273E-1,-1.604973221E1
9.989918649E1,3.730340004E0,1.266666412E0,-3.231577873E0
9.995917902E1,6.443644524E0,-1.187640762E1,-1.092236233E1
1.000191715E2,-1.598040104E0,-2.901955795E1,2.369988918E0
1.000791641E2,8.686909676E-1,-1.626960182E1,-2.344631195E0
1.001391568E2,-3.024988651E0,-1.628964233E1,-1.737580776E0
1.001991500E2,-5.722111225E0,-1.265618038E1,-1.012157917E0
1.002591432E2,6.197571754E-1,-1.122328401E0,-4.183519363E0
1.003191363E2,6.969072342E0,1.051161766E0,-4.211627007E0
1.003791294E2,9.141325951E0,-2.712476254E0,-5.940462589E0
1.004391224E2,8.096423149E0,8.033099174E-1,-1.752002716E0
1.004991148E2,-1.084302425E0,-3.069953918E-1,2.696352005E0
1.005591072E2,-6.738302231E0,-1.546561241E0,-4.718299866E0
1.006190998E2,-6.937296391E-1,2.011742592E-1,-1.218864918E0
1.006790923E2,6.701882839E0,-6.967285156E0,-7.477693558E0
1.007390849E2,5.666678429E0,-8.451355934E0,-7.128966331E0
1.007990774E2,4.283022881E-1,-1.817765808E1,-1.669049263E-1
1.008590698E2,1.114782333E0,-1.042600250E1,-3.007842541E0
1.009190621E2,-3.905425072E-1,-1.441783142E1,8.571925163E0
1.009790545E2,-5.926673889E0,-1.086219883E1,1.497261286E0
1.010390469E2,-9.953660965E-1,2.836935043E0,-2.730404854E0
1.010990396E2,7.512156963E0,4.102508068E0,-2.697839260E0
1.011590321E2,9.074624062E0,5.371695518E0,-3.294953108E0
1.012190256E2,2.479810715E-1,9.175453186E-1,-1.416104555E0
1.012790198E2,-7.085991383E0,-4.831758499E0,2.353904247E-1
1.013390141E2,2.440807581E0,-1.630662918E1,-8.172156334E0
1.013990083E2,9.386253357E0,-1.594679928E1,-1.351381874E1
1.014590026E2,1.310937691E1,7.396024466E-1,-9.644182205E0
1.015189960E2,-1.711914444E1,-2.937170982E1,-1.031484032E1
1.015789884E2,1.896935654E1,-5.055205822E0,2.239392281E0
1.016389808E2,9.119176865E0,-2.204883957E1,8.791738510E0
1.016989733E2,-2.468730450E0,-1.605230331E1,2.672405243E0
1.017589658E2,-1.853434563E0,-1.269674301E0,7.300794601E0
1.018189583E2,5.871629715E-1,2.325546741E0,-6.696554422E-1
1.018789509E2,1.053413105E1,4.272853374E0,-1.476564407E0
1.019389434E2,6.799089909E0,-2.470300674E0,-8.747505188E0
1.019989358E2,7.220096588E-1,6.279959202E0,-1.186810684E1
1.020589281E2,-1.843984127E0,1.591090870E1,2.250919819E0
1.021189206E2,3.705760479E0,-2.016317368E0,-1.776734734E1
1.021789130E2,-5.905700684E0,-1.196589756E1,-2.060890198E-3
1.022389056E2,-8.326751709E0,-1.393572140E1,-8.255891800E0
1.022988984E2,1.003228903E0,-1.572975349E1,8.829482079E0
1.023588918E2,1.570209265E0,-1.156445026E0,1.046374321E0
1.024188849E2,-1.561199188E0,-4.662762642E0,-1.666049957E-1
1.024788780E2,-1.190098953E1,-8.338268280E0,4.451526165E0
1.025388711E2,-1.227583122E1,-1.053424168E1,-2.811645746E0
1.025988640E2,-4.849100590E0,-4.483617783E0,-7.105567932E0
1.026588563E2,5.575520992E0,-1.910048723E0,-1.093432903E1
1.027188488E2,1.088617420E1,-1.409565926E0,-7.584785938E0
1.027788413E2,1.226130486E0,-6.925816536E-1,-4.469801426E0
1.028388338E2,-8.241500854E0,3.814031601E0,-7.836912155E0
1.028988262E2,5.220869541E0,1.124186516E-1,-1.534008121E1
1.029588187E2,2.088433027E0,8.931269646E-1,-2.003731918E1
1.030188110E2,-1.138385773E1,-1.267848778E1,1.075674057E0
1.030788033E2,4.026622772E0,-1.534148312E1,-7.311813831E0
1.031387959E2,-7.447247505E-1,-8.386743546E0,6.353117943E0
1.031987883E2,1.161528587E0,9.261337519E-1,8.438634872E-1
1.032587809E2,-6.664280891E0,-1.121813297E1,4.301052570E0
1.033187735E2,-5.967272282E0,-7.367102146E0,1.425710678E0
1.033787675E2,-2.537742138E0,2.290293574E-2,1.483688831E0
1.034387617E2,2.501578331E-1,-7.873374820E-1,4.701514721E0
1.034987561E2,2.429380894E0,-1.344004512E0,-8.078587532E0
1.035587504E2,-1.579349995E0,-1.000530720E1,-1.342420578E1
1.036187447E2,4.963138580E0,7.683372498E-1,-1.783959961E1
1.036787375E2,1.601295662E1,-3.831416368E0,1.182773590E0
1.037387300E2,1.723527431E0,-5.495702267E0,-7.582618713E0
1.037987222E2,-1.866441727E0,-2.454756355E1,-1.888909340E-1
1.038587148E2,5.203824043E-1,-1.936899757E1,3.315634727E0
1.039187073E2,3.376727104E-1,-1.285423994E0,2.265798569E0
1.039786998E2,-3.229472160E0,-9.185610771E0,4.554156303E0
1.040386922E2,-1.115823746E0,-7.496479511E0,6.976415634E0
1.040986848E2,-8.392412186E0,-7.592330933E0,-3.611528397E0
1.041586771E2,3.986449003E0,-2.793536186E0,-5.251154900E-1
1.042186694E2,5.647869587E0,9.853448868E-1,-1.973381996E0
1.042786620E2,1.682903051E0,-1.387729454E1,1.581254482E1
1.043386546E2,9.310528755E0,-1.101258945E1,-1.988636780E1
1.043986471E2,6.197378635E-1,1.401755333E1,-2.918825150E1
1.044586402E2,5.614729881E0,2.825629711E0,-4.337684631E0
1.045186335E2,-2.020310593E1,-7.488339233E1,1.065855122E1
1.045786266E2,-2.353521347E0,-1.781492615E1,-4.849386692E0
1.046386197E2,3.386811733E0,-6.542510033E0,-3.608264446E0
1.046986127E2,-4.432010651E-2,-2.411363602E0,1.552647591E0
1.047586052E2,1.312561035E-1,-1.554363370E-1,-1.231974602E0
1.048185975E2,-4.462859631E0,1.752550721E0,-1.303836823E0
1.048785901E2,-3.085642338E0,-4.204727173E0,4.302697182E-1
1.049385827E2,3.533427954E0,1.054858923E0,8.151082993E-1
1.049985753E2,5.335001469E0,-6.371262074E-1,-2.407926083E0
1.050585677E2,2.288211584E0,-4.881174088E0,-1.605806351E-1
1.051185603E2,7.663426399E0,3.593268871E0,-1.745181656E1
1.051785526E2,-3.518748283E-1,-1.246885490E1,-2.181457138E1
1.052385449E2,6.697084904E0,-7.640406132E0,-4.100100040E0
1.052985331E2,-7.122863293E0,-3.457485962E1,1.285687447E1
1.053585257E2,-5.292133808E0,-9.027295113E0,-1.567394495E0
1.054185182E2,3.273034096E-1,-7.058875561E0,4.406703949E0
1.054785112E2,3.528208494E0,-1.819518089E0,5.240202904E0
1.055385052E2,1.250409698E1,1.013919473E0,1.190410137E0
1.055984998E2,3.653698683E0,-4.239928246E0,6.524409294E0
1.056584943E2,-2.737418175E0,-2.420556068E0,-2.102951527E0
1.057184891E2,6.032862186E0,1.167928410E1,-1.777831554E0
1.057784831E2,1.552228546E1,1.487667656E1,-2.677917671E1
1.058384760E2,1.373099709E1,1.783485031E1,-1.189362526E1
1.058984684E2,-5.478712082E0,-2.139606667E1,1.462035179E1
1.059584610E2,-1.625782013E1,-3.227667618E1,7.353766918E0
1.060184532E2,-1.317081451E0,-1.791847420E1,2.190877438E0
1.060784458E2,2.834416389E0,-6.804118633E0,1.546233654E0
1.061384383E2,3.324872494E0,6.504751205E0,-1.836613894E0
1.061984307E2,6.969551563E0,7.308813572E0,-4.455349922E0
1.062584231E2,7.592437267E0,8.635337830E0,-2.939545393E0
1.063184155E2,2.162284851E0,-1.614379287E0,-2.619630098E0
1.063784081E2,-1.057464600E1,-1.624213600E1,1.869890022E1
1.064384006E2,1.709511566E1,-1.865969181E0,-1.784362221E1
1.064983931E2,-3.156066895E0,-1.494408321E1,1.292242622E1
1.065583857E2,7.512609482E0,-2.218054962E1,7.147613525E0
1.066183795E2,6.104034901E0,-3.093523979E-1,2.975225449E-1
1.066783739E2,-1.065359116E-1,1.233795738E1,2.226930618E0
1.067383682E2,-5.888175011E0,-3.071808577E0,1.048746681E1
1.067983625E2,-9.714426041E0,-8.280755043E0,-2.417294502E0
1.068583567E2,8.495192528E-1,-9.684511185E0,-2.032466412E0
1.069183496E2,4.293489456E0,6.548229694E0,7.583708763E-1
1.069783419E2,2.968582630E0,8.746144295E0,-4.276221275E0
1.070383343E2,5.914445877E0,-1.700318336E0,-8.374796867E0
1.070983269E2,3.688287020E0,-1.160084534E1,-1.981470108E1
1.071583193E2,4.954187393E0,-4.559736252E1,-1.872100830E0
1.072183119E2,6.176508904E0,-9.786807060E0,-1.245701408E1
1.072783044E2,5.569517136E0,-2.029532433E1,-3.237706184E0
1.073382968E2,-6.660284996E-1,-1.437605667E1,1.241110802E1
1.073982891E2,3.353602409E0,6.248601913E0,4.443027496E0
1.074582816E2,-1.062868023E1,2.992705107E0,2.692232847E0
1.075182741E2,5.883958817E0,4.843315125E0,5.258213520E0
1.075782666E2,-7.086108208E0,-5.140466690E0,5.176016331E0
1.076382591E2,-4.301596642E0,-8.925858498E0,-3.960945129E0
1.076982523E2,2.659392357E-1,-2.822112799E0,-6.524044991E0
1.077582454E2,-4.554038525E0,-2.224511623E0,-1.184177399E-1
1.078182387E2,2.331099319E1,1.372436905E1,-2.405598068E1
1.078782318E2,3.362547874E0,1.325849771E0,-9.019088745E-2
1.079382249E2,-9.764839172E0,-3.696993637E1,-1.061464024E1
1.079982174E2,-1.125166893E0,-2.220914841E1,3.442344666E0
1.080582097E2,1.559034824E0,-8.391156197E0,-1.945925236E0
1.081182021E2,2.731957436E0,2.048819304E0,-1.181545734E0
1.081781946E2,1.248749733E0,4.874595642E0,-1.189378262E0
1.082381872E2,3.322256565E0,3.627434254E0,-5.297231674E-1
1.082981796E2,1.440110683E0,-2.836533785E0,-1.915119648E0
1.083581722E2,-4.101861954E0,-3.993684292E0,4.027638435E-1
1.084181644E2,-6.004193783E0,-4.589924812E0,-6.347493649E0
1.084781569E2,-4.809722900E-1,-8.046365738E0,-1.627689362E1
1.085381494E2,1.650742340E1,-6.452021599E0,-1.287928772E1
1.085981420E2,1.348601532E1,3.491380692E0,-1.293556499E1
1.086581344E2,8.643889427E-1,-1.650218010E1,1.042504787E0
1.087181275E2,-5.935158730E-1,-2.414388657E1,6.940960884E0
1.087781216E2,6.291623116E0,-2.137335777E1,3.837470531E0
1.088381161E2,-2.993984222E-1,-1.230105305E1,2.321753025E0
1.088981106E2,4.759168625E-1,-2.650842190E0,-8.663892746E-1
1.089581052E2,4.699944019E0,7.795912266E0,-1.428425312E-1
1.090180992E2,1.013045406E1,8.223327637E0,3.128304482E-1
1.090780920E2,1.215579033E0,-4.309034824E0,-2.782042503E0
1.091380845E2,-1.271236420E1,-6.201178551E0,9.523826599E0
1.091980771E2,-6.034994125E-2,-1.155404568E0,-4.091738701E0
1.092580696E2,8.745901108E0,9.940700531E-1,-9.880698204E0
1.093180621E2,1.137202740E1,-1.551298141E0,-4.432203770E0
1.093780547E2,1.119760513E0,-1.321089649E1,-3.697898388E0
1.094380470E2,3.257030010E0,-1.459669018E1,-6.781293392E0
1.094980393E2,-1.249795914E0,-1.753259087E1,4.241573334E0
1.095580317E2,-3.739161491E0,-1.085630226E1,4.229697227E0
1.096180241E2,-6.312814713E0,-1.252766991E1,3.817125082E0
1.096780167E2,-7.151603699E-3,-1.658723593E0,-2.296720743E-1
1.097380092E2,6.798834801E0,2.181875706E0,-2.917857170E0
1.097980020E2,7.278225899E0,4.679754257E0,3.979291916E-1
1.098579960E2,1.580157280E-1,-3.898148537E-1,-2.342438698E-1
1.099179902E2,-1.301855564E0,-5.158343792E0,-2.864217758E-1
1.099779846E2,-1.777658463E0,-7.990792751E0,-3.909687519E0
1.100379789E2,9.613976479E-1,-7.383923531E0,-1.028508854E1
1.100979729E2,1.249382782E1,-1.620749235E0,1.075027084E1
1.101579658E2,6.695219040E0,-6.486461163E0,-3.741968632E0
1.102179582E2,7.754763603E0,-2.404417992E1,5.967979431E0
1.102779505E2,-6.150050163E-1,-1.427696419E1,2.914472580E0
1.103379431E2,-2.807836533E0,-1.706413841E1,6.830873489E0
1.103979355E2,-6.302988052E0,-6.263791084E0,7.571742535E0
1.104579280E2,-2.535335541E0,-1.465820312E0,3.226549149E0
1.105179205E2,4.160022736E-1,9.283870697E0,1.753577352E0
1.105779130E2,6.222612381E0,1.705090046E0,-1.101611614E0
1.106379053E2,-2.003316879E-1,-3.635502577E0,-7.541025162E0
1.106978978E2,8.938312531E-3,-4.852227211E0,-9.406423569E-1
1.107578903E2,7.791102886E0,-1.356162071E0,-4.893924713E0
1.108178829E2,4.919962883E0,-3.263519526E0,-4.601897240E0
1.108778754E2,1.636824417E1,-1.218456984E0,-1.974612617E1
1.109378687E2,3.106437206E0,-5.505363941E0,-7.995937824E0
1.109978618E2,-8.464097977E-1,-2.463311005E1,6.894917488E0
1.110578549E2,-4.176821709E-1,-2.122738647E1,-2.757370234E0
1.111178480E2,-2.815695763E0,-1.510514832E1,1.539787292E0
1.111778411E2,-2.283613205E0,-8.558197975E0,1.358609915E0
1.112378335E2,1.403224468E0,-9.259696603E-1,-2.526957989E-1
1.112978260E2,6.025229931E0,4.661374569E0,-1.894397020E0
1.113578185E2,7.385178566E0,7.228896618E-1,-1.850938082E0
1.114178110E2,-5.097217560E-1,9.048390388E-1,-1.016318321E0
1.114778035E2,-4.236132622E0,2.286879539E0,2.806494713E0
1.115377960E2,-3.541554451E0,2.793822289E0,-5.295734406E-1
1.115977884E2,2.714990139E0,-6.471434593E0,-1.268341827E1
1.116577807E2,3.801292896E0,-8.293152809E0,-5.298590660E0
1.117177732E2,8.862228394E0,-5.927182674E0,-1.393137455E1
1.117777657E2,2.490051508E0,-1.796952438E1,4.580157280E0
1.118377582E2,-6.726611137E0,-3.125489044E1,8.551451683E0
1.118977506E2,-6.374058723E0,-1.462345791E1,1.007515907E0
1.119577438E2,-2.367276669E0,-8.166170120E0,4.420664310E0
1.120177379E2,-7.709560394E-1,1.826911569E0,2.667671204E0
1.120777323E2,-4.389845848E0,3.748268127E0,8.003659248E-1
1.121377266E2,5.130310059E-1,1.624176502E0,7.906198502E-1
1.121977209E2,-4.641687870E0,-2.564316750E0,-2.018705368E0
1.122577147E2,-1.364068413E1,-5.733705521E0,3.994556427E0
1.123177073E2,-1.014122009E1,-3.530247927E0,-1.797920990E1
1.123776996E2,2.280149460E0,-7.315133095E0,-1.586261368E1
1.124376922E2,1.487859821E1,-7.520560741E0,-8.949093819E0
1.124976847E2,1.704689264E-1,-8.863090515E0,-1.615509415E1
1.125576771E2,3.466797352E0,-2.069643974E0,-8.184330940E0
1.126076797E2,1.126317382E-1,-1.548379517E1,7.928984642E0
1.126676721E2,-2.730502510E1,-5.004126740E1,3.743850708E0
1.127276645E2,-3.897816658E0,1.358732462E0,-8.303442001E0
1.127876568E2,-3.018484592E0,-1.420129061E0,1.130810261E0
1.128476494E2,-1.158233166E0,1.686106205E0,3.040685177E0
1.129076417E2,7.737131119E-1,2.284460545E0,-1.903729439E0
1.129676343E2,-6.717185020E0,4.210023403E0,-3.708893299E0
1.130276269E2,-1.863855362E1,-1.649935722E0,-1.323604107E0
1.130876202E2,-1.221236134E1,-4.539621353E0,2.678038120E0
1.131476133E2,-6.810269833E0,-7.138367653E0,-7.286332607E0
1.132076065E2,-3.670387030E0,-1.030197144E1,-1.861511803E1
1.132675995E2,2.216381788E0,-5.444895267E0,-8.631702423E0
1.133275926E2,-2.218161345E0,-8.433900833E0,-1.608633995E1
1.133875849E2,-8.756860733E0,-7.996180534E0,9.597030640E0
1.134475773E2,-2.381716156E1,-3.789447403E1,1.312251091E1
1.135075698E2,-1.741943741E1,3.988183975E0,-6.964099407E0
1.135675624E2,-6.251550674E0,-2.649196625E0,1.193367958E0
1.136275548E2,-1.551775932E0,2.123626232E0,-3.730872631E0
1.136875474E2,-1.652203560E0,6.504463196E0,1.262273788E-1
1.137475398E2,-4.363604069E0,4.859200478E0,-1.865746498E0
1.138075322E2,-7.074808121E0,1.219718456E0,2.830592632E0
1.138675246E2,-1.226889610E1,-9.963287354E0,-5.817797661E0
1.139275172E2,-8.075611115E0,-1.117554569E1,-3.426131248E0
1.139875097E2,-8.034061432E0,-3.187993050E0,-1.500046349E1
1.140475022E2,4.979109287E0,-5.113873482E0,-1.010604000E1
1.141074955E2,1.138698387E1,-4.626572609E0,-1.526924896E1
1.141674898E2,6.075340271E0,-1.286607361E1,-3.457378626E0
1.142274843E2,-1.034322453E1,-7.213565350E0,1.247799301E1
1.142874788E2,-1.840125275E1,-3.580761719E1,-4.865100861E0
1.143474734E2,-7.173044205E0,1.404459476E0,-5.639923573E0
1.144074670E2,9.535646439E-1,-1.311722040E0,-1.595506668E-1
1.144674597E2,5.355169773E0,1.295223236E0,-3.385992050E-1
1.145274521E2,-4.605865479E-1,8.051091194E0,-1.346699238E0
1.145874448E2,-1.631885910E1,1.502820015E0,7.239408493E-1
1.146474372E2,-2.032364273E1,-1.164232254E0,-1.345875263E0
1.147074298E2,-1.623221207E1,-2.870870113E0,-1.244479084E1
1.147674223E2,-7.772413731E0,-6.973451138E0,-1.045976257E1
1.148274147E2,2.140094757E0,-1.511101341E1,-6.987150669E0
1.148874069E2,3.187243462E0,-5.433760166E0,-2.089110374E1
1.149473994E2,-1.369508505E0,-9.186960220E0,-1.776229858E1
1.150073919E2,-4.186187744E0,-9.253181458E0,3.460661888E0
1.150673846E2,-1.458100796E1,-2.290883255E1,4.213861465E0
1.151273770E2,-2.119682884E1,-1.890194416E0,2.639332771E0
1.151873701E2,-2.468125343E0,-7.898497581E-2,-2.790617943E0
1.152473642E2,1.784095764E0,5.844934940E0,-1.848910332E0
1.153073585E2,1.041566610E0,5.823303223E0,5.625772476E-1
1.153673527E2,-1.826132202E1,1.572649717E0,-3.181066036E0
1.154273470E2,-1.884733582E1,-4.423254967E0,-4.959787369E0
1.154873408E2,-5.239945412E0,-5.782836914E0,-5.329939842E0
1.155473334E2,-1.840678453E-1,-1.198311901E1,-6.840094566E0
1.156073257E2,4.478645325E-2,-8.456185341E0,-1.319195175E1
1.156673182E2,-9.681429863E-1,-8.887797356E0,-4.907416821E0
1.157273107E2,-2.906298637E-2,-2.061475039E0,-2.515504837E0
1.157873032E2,2.684579611E0,-2.340440035E0,-1.475247860E0
1.158472957E2,-3.124380112E-2,-9.052864313E-1,7.657706261E0
1.159072882E2,-2.778377914E1,-3.477213669E1,-1.628859043E0
1.159672806E2,-1.751005173E0,7.525123596E0,-5.921926975E0
1.160272730E2,6.406307220E-2,1.077759743E1,-5.612030506E0
1.160872655E2,6.981918335E0,4.908886433E0,1.128468513E-1
1.161472580E2,-1.254279137E1,-3.197579622E0,1.727245331E0
1.162072506E2,-1.521014404E1,-1.243667126E1,5.217828751E-1
1.162672432E2,-3.270710468E0,5.000133514E-1,-3.445151091E0
1.163272366E2,-1.563642502E0,-5.843065739E0,-5.682640076E0
1.163872296E2,8.742108345E-1,-7.239789009E0,-5.827635765E0
1.164472228E2,1.965014219E0,-1.253753662E1,-5.172946930E0
1.165072158E2,6.276549339E0,-6.893867016E0,-8.240056992E0
1.165672088E2,1.379576302E1,1.041702747E0,-5.259651661E0
1.166272011E2,1.620956230E1,7.011218071E-1,-9.346762657E0
1.166871936E2,-1.392587757E1,-1.866081429E1,-1.079520416E1
1.167471861E2,-6.225052834E0,-1.017027569E1,8.008382797E0
1.168071787E2,2.313280106E-1,9.818788528E0,2.442247868E0
1.168671712E2,-3.856904507E0,2.419711590E0,4.471837997E0
1.169271638E2,-1.189562416E1,-6.639225483E0,2.091841698E0
1.169871561E2,-8.214351654E0,-4.837634087E0,-3.145542145E-1
1.170471485E2,-5.370578766E-1,5.638768673E-1,-1.422912598E0
1.171071410E2,4.224895954E0,1.475467205E0,-4.897623062E0
1.171671334E2,6.353276253E0,-4.140071869E0,-4.697151184E-1
1.172271259E2,6.296806335E-1,-3.508893013E0,-2.093315125E-4
1.172871184E2,1.964966774E0,4.051971436E-1,-3.035979033E0
1.173471119E2,2.512811184E0,6.073465347E-1,-4.418258667E0
1.174071062E2,1.551212311E0,-7.347890377E0,-1.022639179E1
1.174671005E2,1.265576172E1,-2.769739866E0,-1.571108437E1
1.175270948E2,1.997792006E0,-6.827205181E0,-9.928718567E0
1.175870892E2,-4.607748508E0,-6.986618042E0,3.564363003E0
1.176470826E2,-9.334326744E0,-2.079714584E1,1.123813725E1
1.177070750E2,-1.092984486E1,-9.135976791E0,2.737524271E0
1.177670672E2,-5.529982567E0,-3.297066212E0,3.829815865E0
1.178270598E2,-4.632062435E0,3.801429510E0,2.831335545E0
1.178870522E2,4.394882202E0,7.222407818E0,9.414029121E-2
1.179470447E2,-9.072074890E-1,-1.010470486E1,-3.331052065E0
1.180070373E2,-1.374443436E1,1.960923672E-1,-7.016396523E0
1.180670299E2,8.377632141E0,4.447442055E0,-9.161580086E0
1.181270221E2,1.568369579E1,1.590231133E1,-1.692497635E1
1.181870146E2,8.851397514E0,2.261083412E1,-6.507280350E0
1.182470071E2,6.712890625E0,6.179019928E0,4.075534821E0
1.183069995E2,-1.705427933E1,-1.121178722E1,-1.233910656E1
1.183669920E2,-4.224982738E0,-2.337759781E1,-5.355291367E-1
1.184269850E2,5.064845562E0,-2.558210754E1,3.234262943E0
1.184869782E2,-9.344110489E-1,-1.154906464E1,-3.834009647E0
1.185469715E2,7.286377907E0,-7.624819279E-1,-8.079058647E0
1.186069646E2,1.114442825E1,6.464004517E-3,-5.311151028E0
1.186669577E2,6.037767410E0,3.923032999E0,-6.583987713E0
1.187269503E2,2.630956841E1,7.051040649E0,-8.778581619E-1
1.187869426E2,-1.839426994E1,-1.553793716E1,5.826817703E1
1.188469350E2,-3.982645035E0,-1.467764854E1,2.485599518E-1
1.189069276E2,2.855895281E0,-1.684567451E1,-9.017010689E0
1.189669201E2,-2.947108269E0,-2.526851273E1,-3.562273979E-1
1.190269126E2,3.928609371E0,2.002326012E1,-1.039067745E0
1.190869051E2,-4.555355549E0,8.550063133E0,1.847688198E0
1.191468975E2,-7.591289520E0,-7.883330584E-1,2.967690945E0
1.192068898E2,-1.272445202E1,-1.549655819E1,-7.412500381E0
1.192668823E2,-1.778779030E0,-6.540611744E0,-4.556439877E0
1.193268749E2,7.830682755E0,-6.121123314E0,-1.032003593E1
1.193868673E2,1.215193748E1,-3.202099323E0,-1.190904236E1
1.194468600E2,7.676766396E0,7.848022461E0,-1.603418541E1
1.195068539E2,8.067973137E0,-1.060547829E0,-7.643162251E0
1.195668484E2,-1.005287361E1,-2.303863525E1,1.677456665E1
1.196268429E2,-6.024355888E-1,-2.057281113E1,-1.100587463E1
1.196868374E2,-1.850984573E0,-1.073447609E1,-1.013983727E0
1.197468318E2,-9.542808533E-1,1.025151539E1,7.342700958E0
1.198068250E2,-3.233004570E0,5.142725945E0,-1.512995243E0
1.198668287E2,-4.963449955E0,2.343027592E-1,-1.807847023E0
1.199268213E2,-2.638685703E0,-6.676650047E0,-5.980231285E0
1.199868138E2,-5.125225544E0,-1.658353043E1,-7.851482868E0
1.200468063E2,2.124217749E0,-7.441991806E0,-5.843352318E0
1.201067988E2,6.718711853E0,2.141600132E0,-8.877985001E0
1.201667913E2,1.015444183E1,7.836709976E0,-5.605258942E0
1.202267835E2,1.919553566E1,4.466184616E0,-7.709482670E0
1.202867759E2,-2.790957451E0,-9.507281303E0,7.624645233E-1
1.203467685E2,-2.257499313E1,-4.307794952E1,3.549777508E0
1.204067610E2,-1.052814484E0,-1.006307125E1,-4.499168396E-1
1.204667535E2,2.735136032E0,1.036926031E0,1.381144524E-1
1.205267460E2,-1.456455231E0,9.942981720E0,-4.532477856E-1
1.205867396E2,5.456116676E0,8.731043816E0,2.530931950E0
1.206467338E2,5.538735390E-1,4.214453697E0,7.338285446E-1
1.207067282E2,-9.265150070E0,8.839859962E-1,4.295435429E0
1.207667224E2,-7.594816208E0,-4.707211971E0,-1.876944542E0
1.208267168E2,-7.530565262E-1,-7.829438210E0,-1.530753517E1
1.208867100E2,-3.387671947E0,-1.538902187E1,-4.885950565E0
1.209467024E2,1.118819809E1,-1.218750763E1,-1.290273190E1
1.210066947E2,1.169951630E1,-4.371982813E-1,-1.677845955E0
1.210666873E2,2.557904243E0,-6.743455887E0,5.762628078E0
1.211266798E2,-1.281758499E1,-4.542965317E1,6.313128471E0
1.211866723E2,4.044479370E0,-8.020545959E0,5.186699867E0
1.212466648E2,6.577196121E-1,7.071255684E0,9.451986551E-1
1.213066573E2,1.108392715E0,5.491374016E0,1.085965872E0
1.213666496E2,9.981977463E0,6.169460297E0,2.305524349E0
1.214266421E2,1.234158993E0,-1.625800133E0,2.874350548E0
1.214866346E2,-1.063613319E1,1.267104149E-1,-2.990821362E0
1.215466272E2,-1.172459412E1,-1.061970329E1,1.086177444E1
1.216066197E2,4.554371357E0,4.274344444E0,-1.371094322E1
1.216666126E2,1.680062866E1,-4.066997528E0,-2.356761551E1
1.217266058E2,1.075238323E1,2.941273928E0,-1.220101261E1
1.217865990E2,1.366045475E-1,-9.673995972E0,4.457380295E0
1.218465921E2,1.783279181E0,-4.587698746E1,9.808801651E0
1.219065852E2,-2.791324615E0,-2.277790260E1,-8.783364296E-1
1.219665779E2,-7.602047920E-1,-9.215301514E0,-1.653960943E0
1.220265702E2,1.942497253E0,3.766687632E0,9.407086372E-1
1.220865627E2,-4.611729622E0,6.213644981E0,2.479517937E0
1.221465552E2,-6.491663456E0,2.005623102E0,-1.131615400E0
1.222065478E2,-9.037244797E0,-1.199958801E0,-3.827009439E0
1.222665404E2,-1.330772114E1,-8.813665390E0,-1.953735828E0
1.223265329E2,-3.705873489E0,-7.521497726E0,-1.074234962E0
1.223865251E2,3.856225491E0,-1.293047142E1,-1.224931335E1
1.224465175E2,-3.241982222E0,-1.434943295E1,-2.398600388E1
1.225065100E2,-1.494974852E0,-4.155713081E0,-8.483304024E0
1.225665025E2,6.607682705E-1,-8.558271408E0,-1.052828598E1
1.226264949E2,-1.189970112E1,-3.641358566E1,-6.459551811E0
1.226864877E2,-1.781976318E1,-2.068770981E1,2.515946388E0
1.227464816E2,-1.249934292E1,-5.882194996E0,3.664957047E0
1.228064760E2,-1.112908554E1,-4.481707811E-1,2.436988354E0
1.228664702E2,-7.180751324E0,5.924914837E0,1.793579102E0
1.229264647E2,-3.602845192E0,7.759835720E0,6.867494583E-1
1.229864588E2,-1.375596333E1,2.944685698E0,-4.905029297E0
1.230464517E2,-2.159281158E1,-8.829528809E0,-1.244780350E1
1.231064439E2,-1.415864182E1,-5.922777176E0,-6.335197926E0
1.231664363E2,-4.535506248E0,-4.694691181E0,-7.898262024E0
1.232264287E2,-4.731388092E0,-9.725604057E0,9.108449936E0
1.232864213E2,-1.332834959E0,-8.359219551E0,-2.646479988E1
1.233464138E2,-4.865863800E0,-7.114876747E0,-1.427824974E1
1.234064063E2,-7.332017422E0,1.821982384E0,-3.206457138E0
1.234663988E2,-8.138374329E0,-4.379275799E0,1.240700722E1
