,Time (s),Gyroscope x (rad/s),Gyroscope y (rad/s),Gyroscope z (rad/s)
0,1.55965351605e+18,3.422021151,-1.45314455,0.4023909867
1,1.5596535161e+18,3.604058981,-1.392058134,0.8434356451
2,1.55965351616e+18,3.613832951,-1.540498257,0.8519877791
3,1.55965351621e+18,2.961428881,-1.067077756,0.5606051087
4,1.55965351626e+18,1.547886729,-0.8202881217,0.03465010971
5,1.55965351631e+18,1.102565885,-0.260124743,0.1910316199
6,1.55965351636e+18,-0.6640563607,-0.2570704222,-0.4656485319
7,1.55965351642e+18,-3.434941053,0.5217827559,-1.180971622
8,1.55965351647e+18,-5.421474934,-0.1080192998,-1.985481143
9,1.55965351652e+18,-5.205228329,-0.06770219654,-1.604301333
10,1.55965351657e+18,-3.070865393,2.544357777,-0.7087728977
11,1.55965351662e+18,-1.405035853,2.95119381,-0.5811020732
12,1.55965351668e+18,0.5613393784,-0.09458027035,0.3046525717
13,1.55965351673e+18,1.833771586,0.3525730968,0.536781311
14,1.55965351678e+18,2.72624588,0.852871716,0.7279821634
15,1.55965351683e+18,3.135525465,-0.6865086555,0.6168046594
16,1.55965351688e+18,3.125140905,-0.9693393111,0.7120996714
17,1.55965351694e+18,2.527103662,-1.259500265,0.7224843502
18,1.55965351699e+18,1.369513988,-0.1526124626,0.8532095551
19,1.55965351704e+18,1.221684694,-0.221029371,1.560591459
20,1.55965351709e+18,-0.5785351992,-1.202689767,0.3577978313
21,1.55965351714e+18,-3.25717926,0.7239791751,-0.4131141007
22,1.5596535172e+18,-4.888800144,0.5920323133,-1.636677265
23,1.55965351725e+18,-5.407424927,-0.0958019942,-2.003807306
24,1.5596535173e+18,-2.869279861,2.727006435,-0.7399269938
25,1.55965351735e+18,-0.6781062484,3.091692924,-0.6195865273
26,1.5596535174e+18,1.000551462,2.044669867,1.296086788
27,1.55965351746e+18,1.894858122,0.1613722742,1.419481516
28,1.55965351751e+18,2.619344234,0.1564853489,1.017532229
29,1.55965351756e+18,2.751291275,-0.9791131616,0.6516240239
30,1.55965351761e+18,2.874075174,-1.337691069,0.3040416837
31,1.55965351766e+18,2.525270939,-0.9607871771,0.1568231732
32,1.55965351772e+18,2.265653372,-0.6553545594,-0.2836107016
33,1.55965351777e+18,1.643181682,0.4002205729,-0.1510529369
34,1.55965351782e+18,0.08242098987,-0.4348322153,-1.04902482
35,1.55965351787e+18,-2.072100878,0.1711461246,-1.384389877
36,1.55965351792e+18,-4.026258469,-0.2191967815,-2.056341648
37,1.55965351798e+18,-5.233328819,-0.221029371,-2.378267527
38,1.55965351803e+18,-3.737319231,0.8791388869,-1.543825626
39,1.55965351808e+18,-1.771555066,4.51378727,-1.094839692
40,1.55965351813e+18,-0.06052147225,1.367220163,-0.1754875332
41,1.55965351818e+18,1.100733399,0.4118270278,0.8428248167
42,1.55965351824e+18,2.018863678,-1.35051918,0.4005583823
43,1.55965351829e+18,2.337124586,-0.5154664516,0.4494276047
44,1.55965351834e+18,2.39210248,-0.5087468624,0.5691572428
45,1.55965351839e+18,2.095832825,-1.08906889,0.5056272149
46,1.55965351844e+18,1.916849375,-0.6168700457,0.3742912114
47,1.5596535185e+18,1.448926568,-0.5710551739,-0.0001692096703
48,1.55965351855e+18,1.235734582,-0.6938390732,-0.4094489217
49,1.5596535186e+18,0.2589610517,0.08257065713,-0.642799437
50,1.55965351865e+18,-1.125259638,0.8174415231,-0.8908107281
51,1.5596535187e+18,-3.177155972,1.691589713,-1.498621702
52,1.55965351876e+18,-4.312754631,1.074005008,-1.55237782
53,1.55965351881e+18,-4.194857597,1.448465347,-1.122328639
54,1.55965351886e+18,-2.125246048,2.860785961,-0.6067584157
55,1.55965351891e+18,-0.1704772115,0.8730302453,0.06274991482
56,1.55965351896e+18,1.207634807,0.1198334321,1.112216473
57,1.55965351902e+18,1.938229561,-1.08906889,0.8678702712
58,1.55965351907e+18,2.406152248,-0.1471146643,0.9503371119
59,1.55965351912e+18,2.668824434,-1.016986847,0.5526638031
60,1.55965351917e+18,2.431197643,-0.8092926145,0.3596304357
61,1.55965351922e+18,1.484356642,0.7368072867,0.870924592
62,1.55965351928e+18,1.1935848,-0.566168189,0.8409922719
63,1.55965351933e+18,-0.4722446501,-2.126318216,0.1097865403
64,1.55965351938e+18,-2.895547152,-0.9504024386,-0.7900179625
65,1.55965351943e+18,-4.455696583,0.7887309194,-2.063672066
66,1.55965351948e+18,-4.440425396,1.967700839,-1.852923512
67,1.55965351954e+18,-0.9450542927,4.533946037,-1.386222363
68,1.55965351959e+18,0.3072193861,2.783816576,-0.8901998997
69,1.55965351964e+18,1.264445186,3.174159765,0.1727056652
70,1.55965351969e+18,1.904632092,1.476565242,0.5746549964
71,1.55965351974e+18,2.354228735,0.4161030948,0.6235242486
72,1.5596535198e+18,2.849029779,-0.9461264014,0.2563942075
73,1.55965351985e+18,2.918057442,-0.7311018705,0.1391080618
74,1.5596535199e+18,2.90828371,-0.495918721,-0.3123213649
75,1.55965351995e+18,2.550927401,-0.2320249528,-0.9341821671
76,1.55965352e+18,1.711598635,0.05019479617,-1.10522449
77,1.55965352006e+18,-0.03119994141,0.5156741142,-1.354457378
78,1.55965352011e+18,-3.858881474,0.3330253959,-1.758850217
79,1.55965352016e+18,-6.467276573,-0.8172338009,-2.775940895
80,1.55965352021e+18,-5.03540802,-0.8044056892,-0.8462175727
81,1.55965352026e+18,-1.652436256,2.473497391,-1.421652555
82,1.55965352032e+18,-0.1607033759,3.059316874,1.50744617
83,1.55965352037e+18,1.209467411,-1.37067771,1.756068349
84,1.55965352042e+18,2.038411617,-0.2839484811,1.793941975
85,1.55965352047e+18,2.50450182,-0.6180918217,1.727357626
86,1.55965352052e+18,2.993193865,-2.349894762,1.151311755
87,1.55965352058e+18,3.088488817,-1.196581125,0.8660377264
88,1.55965352063e+18,3.006021976,-0.9168048501,1.374277592
89,1.55965352068e+18,2.993193865,-1.237509131,0.3070960045
90,1.55965352073e+18,1.486800194,0.6531187892,0.4133865535
91,1.55965352078e+18,-1.244378328,1.300025105,-0.4613724649
92,1.55965352084e+18,-4.023815155,0.6274624467,-1.198686719
93,1.55965352089e+18,-5.693310261,-0.05853921548,-1.68493557
94,1.55965352094e+18,-5.689033508,1.09660697,-1.067961693
95,1.55965352099e+18,-4.228455067,1.166856408,-0.8804260492
96,1.55965352104e+18,-0.6390108466,-1.99620378,0.8623725176
97,1.5596535211e+18,1.113561511,-1.002326012,1.048686385
98,1.55965352115e+18,2.218616724,1.48756063,2.124420166
99,1.5596535212e+18,3.103760481,-1.918623924,1.509278774
100,1.55965352125e+18,3.334667444,-2.031023026,1.697425246
101,1.5596535213e+18,2.710974216,-1.22468102,2.351051092
102,1.55965352135e+18,1.652955532,-1.801948667,2.475056887
103,1.55965352141e+18,1.972438097,-1.962606192,2.577682018
104,1.55965352146e+18,1.351188064,-0.417727977,1.84830904
105,1.55965352151e+18,-0.2450027764,-0.2845593691,0.864205122
106,1.55965352156e+18,-2.185721636,-0.0200547073,-0.5310111046
107,1.55965352161e+18,-3.927909374,0.7313095927,-1.729528666
108,1.55965352167e+18,-5.011584282,0.4839091301,-2.579242229
109,1.55965352172e+18,-5.483172417,0.8583695292,-2.513268709
110,1.55965352177e+18,-3.951733112,4.800282478,-1.00931859
111,1.55965352182e+18,-2.191219568,5.817373753,-1.901181936
112,1.55965352187e+18,0.5845522285,-0.6498567462,1.092668653
113,1.55965352193e+18,1.402500749,-1.42015779,1.217896104
114,1.55965352198e+18,2.199679852,-0.09458027035,1.679099321
115,1.55965352203e+18,2.73663044,-0.9699501395,1.520274401
116,1.55965352208e+18,3.475777388,-1.326695442,1.129931569
117,1.55965352213e+18,4.032886505,-1.903352261,0.3975040615
118,1.55965352219e+18,4.09397316,-1.605250001,-0.09424245358
119,1.55965352224e+18,3.615665436,-1.666336536,-0.5413957834
120,1.55965352229e+18,3.370708466,-2.43358326,-1.720976591
121,1.55965352234e+18,2.261377335,-2.757341862,-2.653767824
122,1.55965352239e+18,1.172204614,-1.871587276,-3.563956976
123,1.55965352245e+18,-0.2957046032,1.085000515,-3.410019159
124,1.5596535225e+18,-1.885175943,3.36780405,-2.627500772
125,1.55965352255e+18,-4.248003006,0.7685723305,-2.55602932
126,1.5596535226e+18,-5.013416767,-2.070118427,-0.5383414626
127,1.55965352265e+18,-3.857048988,-5.925289154,-0.532843709
128,1.55965352271e+18,-3.844220638,1.516882181,1.459798694
129,1.55965352276e+18,-2.312170744,2.912709236,1.309525847
130,1.55965352281e+18,-0.3690084219,1.26215148,1.197126746
131,1.55965352286e+18,0.9321345091,1.029411793,1.585026145
132,1.55965352291e+18,2.175856113,-0.8893159628,1.479957223
133,1.55965352297e+18,2.765951872,-1.414659977,1.052962542
134,1.55965352302e+18,2.987695932,-1.725590467,0.1287233531
135,1.55965352307e+18,2.409817696,0.5944756866,-0.4045620263
136,1.55965352312e+18,1.854541063,1.695254922,-0.926851809
137,1.55965352317e+18,1.345079422,-0.5777746439,-0.3752404749
138,1.55965352323e+18,0.16183348,0.4197682738,-1.004431725
139,1.55965352328e+18,-2.30361867,1.507719278,-0.909747541
140,1.55965352333e+18,-3.97555685,-0.3994020224,-1.934168577
141,1.55965352338e+18,-4.050082207,-0.2185859084,-1.89018631
142,1.55965352343e+18,-3.728156567,0.1632048637,-0.1907591671
143,1.55965352349e+18,-3.155164719,1.664711714,0.0816867277
144,1.55965352354e+18,-0.7648491263,3.178435802,0.4518710673
145,1.55965352359e+18,1.242454052,-1.010267258,0.6943845749
146,1.55965352364e+18,2.266875029,0.6690012813,0.7951773405
147,1.55965352369e+18,2.715861082,-0.6278656125,0.7304255962
148,1.55965352375e+18,2.902785778,-1.349908352,0.7982316613
149,1.5596535238e+18,2.921111822,-1.097010136,1.214841843
150,1.55965352385e+18,3.417134285,-3.022457361,1.372444987
151,1.5596535239e+18,2.847807884,-1.797672629,0.2832722664
152,1.55965352395e+18,0.7415446043,0.6903815866,0.2496746778
153,1.55965352401e+18,-2.372035742,0.6665577888,-0.5035221577
154,1.55965352406e+18,-4.718979836,-0.2485183179,-1.334298968
155,1.55965352411e+18,-5.557086945,-0.0157786496,-1.84376049
156,1.55965352416e+18,-4.455085754,0.2108523548,-1.390498519
157,1.55965352421e+18,-2.132576466,3.19920516,-0.9549515843
158,1.55965352427e+18,0.09830348939,2.31467247,0.7518059015
159,1.55965352432e+18,0.4458858073,0.9872620702,1.844033003
160,1.55965352437e+18,0.9535148144,-2.635168791,1.727968574
161,1.55965352442e+18,1.778182864,-2.997411966,1.592356443
162,1.55965352447e+18,2.440971613,-1.94672358,1.151922584
163,1.55965352453e+18,2.436695576,-1.541719913,0.4653101265
164,1.55965352458e+18,1.619357944,0.6525079608,0.8770332932
165,1.55965352463e+18,1.113561511,-0.2375227362,1.749959707
166,1.55965352468e+18,0.1935984641,-1.114114404,0.324200213
167,1.55965352473e+18,-1.849134922,0.3647904098,-0.5065764785
168,1.55965352479e+18,-3.397067308,0.2139066756,-1.7710675
169,1.55965352484e+18,-4.652395725,0.4790221751,-2.297022343
170,1.55965352489e+18,-3.219916582,0.5120089054,-1.897516608
171,1.55965352494e+18,-1.199785113,3.065425634,-0.8865346909
172,1.55965352499e+18,0.2809522152,2.338496208,1.193461418
173,1.55965352505e+18,0.8484460115,0.2481151372,1.840978622
174,1.5596535251e+18,2.053683043,-1.395112395,1.319299698
175,1.55965352515e+18,2.566199064,-0.9675067067,1.216674328
176,1.5596535252e+18,2.909505367,-1.097010136,1.137872815
177,1.55965352525e+18,3.112312555,-2.091498852,0.6540674567
178,1.55965352531e+18,2.901564121,-0.944293797,-0.08569034934
179,1.55965352536e+18,2.936383247,-2.470846176,-0.2530674338
180,1.55965352541e+18,1.492298007,1.028800845,-0.7674159408
181,1.55965352546e+18,-1.603567123,1.620118499,-1.319638133
182,1.55965352551e+18,-4.427597046,0.4796330631,-2.004418135
183,1.55965352557e+18,-5.880845547,-1.462307453,-2.932933331
184,1.55965352562e+18,-4.413547516,-0.3309850991,-1.457082748
185,1.55965352567e+18,-2.087983131,2.102701902,-0.9378473759
186,1.55965352572e+18,-0.06174320728,2.992121935,0.6522348523
187,1.55965352577e+18,0.5252982974,1.328735709,1.311969399
188,1.55965352583e+18,1.468474269,-0.3951259851,1.381608009
189,1.55965352588e+18,2.101941347,-1.99620378,1.219728589
190,1.55965352593e+18,2.261377335,-1.444592357,1.45430088
191,1.55965352598e+18,2.16058445,-1.461696625,1.497672319
192,1.55965352603e+18,2.152032375,-0.9876652956,1.509278774
193,1.55965352609e+18,1.988320589,-0.8532748818,0.8605399132
194,1.55965352614e+18,1.456256986,-0.6749022007,0.7878469825
195,1.55965352619e+18,-0.2505005598,0.3525730968,0.5013511777
196,1.55965352624e+18,-2.514367104,0.6323493719,-0.8394980431
197,1.55965352629e+18,-4.320695877,0.176643908,-1.797945738
198,1.55965352635e+18,-4.739138126,-0.1611645818,-2.196840525
199,1.5596535264e+18,-3.016498327,0.6164668798,-0.780244112
200,1.55965352645e+18,-1.573634624,3.398957968,-1.152871966
201,1.5596535265e+18,0.0482125394,2.657978535,0.9100199938
202,1.55965352655e+18,0.6841232181,-0.1862100512,1.495839715
203,1.55965352661e+18,1.765354753,-1.754912019,1.683986306
204,1.55965352666e+18,2.426921844,-2.353559971,1.347399592
205,1.55965352671e+18,2.607126951,-1.051806211,1.388327479
206,1.55965352676e+18,2.22961235,-1.013321638,1.154976964
207,1.55965352681e+18,2.398211241,-2.073783636,1.036469102
208,1.55965352687e+18,2.845975399,-2.845917225,-1.439367652
209,1.55965352692e+18,1.002384067,2.871170521,-0.2145829201
210,1.55965352697e+18,-2.069657326,1.01047492,-1.424706936
211,1.55965352702e+18,-4.452031612,-0.449492991,-2.319624424
212,1.55965352707e+18,-5.544869423,-0.2625682056,-2.728904247
213,1.55965352713e+18,-2.846678019,2.140575647,-1.24450171
214,1.55965352718e+18,-1.155802846,2.571846485,-1.289094806
215,1.55965352723e+18,-0.1509295404,2.631711483,0.8990244269
216,1.55965352728e+18,0.7342142463,0.2004676461,1.226448298
217,1.55965352733e+18,1.247341037,-0.6932281852,0.6943845749
218,1.55965352739e+18,1.036592484,0.04897306859,0.8837528229
219,1.55965352744e+18,1.082407355,-1.297984719,0.4084996283
220,1.55965352749e+18,1.192973971,-1.432375073,0.3822324276
221,1.55965352754e+18,1.236956358,-0.8202881217,0.4256038368
222,1.55965352759e+18,1.254671335,-0.5185207725,0.4139974415
223,1.55965352765e+18,1.744585276,-0.9980499744,0.03770443797
224,1.5596535277e+18,1.776961207,-0.3994020224,-0.477865845
225,1.55965352775e+18,0.1789377034,0.5401086807,0.1293342263
226,1.5596535278e+18,-2.114250422,0.6097473502,-0.8895890117
227,1.55965352785e+18,-2.994507313,-0.05609575659,-1.746632934
228,1.55965352791e+18,-2.89615798,0.1002857462,-1.634233713
229,1.55965352796e+18,-2.737943888,1.650661707,-0.9421234131
230,1.55965352801e+18,-0.8008901477,3.285948038,-0.143111676
231,1.55965352806e+18,0.3591429591,0.9347276688,0.8086163998
232,1.55965352811e+18,1.354242444,-0.7634777427,0.9136852026
233,1.55965352817e+18,1.676168442,-0.9161940217,1.269819617
234,1.55965352822e+18,2.287033796,-1.596697927,1.201402664
235,1.55965352827e+18,2.499614716,-2.600349665,0.6998823881
236,1.55965352832e+18,2.281535864,-1.206965804,1.492785454
237,1.55965352837e+18,2.20029068,-0.8031839728,2.339444637
238,1.55965352843e+18,1.883251667,-1.817220211,1.431087971
239,1.55965352848e+18,0.3640298843,-0.2442422509,0.9833238721
240,1.55965352853e+18,-1.719631433,0.3977771401,-0.8199504018
241,1.55965352858e+18,-3.458153963,0.4698592126,-1.800389051
242,1.55965352863e+18,-4.437982082,0.219404459,-2.216999292
243,1.55965352869e+18,-3.85949254,0.793617785,-1.670274734
244,1.55965352874e+18,-2.18083477,2.924315691,-0.7063294053
245,1.55965352879e+18,-0.7654599547,2.902324677,-0.3886795044
246,1.55965352884e+18,0.4110665023,1.57674706,0.5685463548
247,1.55965352889e+18,0.7702552676,-0.5264619589,0.8397704959
248,1.55965352895e+18,1.224128127,-1.3474648,1.084116578
249,1.559653529e+18,1.757413507,-1.233844042,0.7212626338
250,1.55965352905e+18,2.028637648,0.0563034527,0.43110165
251,1.5596535291e+18,2.197236538,0.8608129621,0.1623209417
252,1.55965352915e+18,2.531379938,-0.7592016459,0.1818686426
253,1.55965352921e+18,2.514275551,-0.4250583351,-0.5352871418
254,1.55965352926e+18,1.120280981,1.361722589,0.294267863
255,1.55965352931e+18,-0.8161618114,0.7551332712,-0.4809201658
256,1.55965352936e+18,-2.657920361,0.6677795649,-1.116219997
257,1.55965352941e+18,-3.562611818,-1.114725232,-2.224940538
258,1.55965352947e+18,-3.304215908,-1.301650047,-1.218845367
259,1.55965352952e+18,-1.930990815,2.169897318,-0.9909926057
260,1.55965352957e+18,0.1068556085,2.268246651,0.4152191579
261,1.55965352962e+18,0.5698914528,0.1063944027,1.127488017
262,1.55965352967e+18,0.9675647616,-0.01822211035,1.707810044
263,1.55965352973e+18,1.283992887,-1.190472484,1.310747504
264,1.55965352978e+18,1.523452163,-1.737196922,1.051740766
265,1.55965352983e+18,1.450148344,-2.065842628,0.5850396752
266,1.55965352988e+18,1.276662588,-0.6089287996,1.370612383
267,1.55965352993e+18,0.5711131692,-0.3560305834,2.440237522
268,1.55965352999e+18,0.1667204052,-2.068285942,1.762176991
269,1.55965353004e+18,-1.324401617,-1.034091115,0.2356247753
270,1.55965353009e+18,-3.153943062,0.1589288116,-1.127826452
271,1.55965353014e+18,-4.34268713,0.3330253959,-2.06916976
272,1.55965353019e+18,-3.0354352,0.4796330631,-1.532830119
273,1.55965353025e+18,-1.333564639,3.47714901,-0.9311278462
274,1.5596535303e+18,-0.1716989428,1.528488636,0.5642702579
275,1.55965353035e+18,0.4086230397,-0.6058744788,1.12626636
276,1.5596535304e+18,1.544832349,0.07951632887,1.098166466
277,1.55965353045e+18,2.192349672,-1.031036735,0.9271242023
278,1.55965353051e+18,2.429365158,-1.315699935,0.7682992816
279,1.55965353056e+18,2.586357594,-1.467194438,0.6949954033
280,1.55965353061e+18,2.407373905,-0.6926173568,0.7322582603
281,1.55965353066e+18,1.947392583,-1.155653238,0.718208313
282,1.55965353071e+18,1.45503521,-0.7365996242,0.5697680712
283,1.55965353077e+18,0.7592597008,-0.3865738511,0.5758767128
284,1.55965353082e+18,-1.266369462,-0.61198318,-0.2249676138
285,1.55965353087e+18,-3.645078659,0.1442680508,-1.019703269
286,1.55965353092e+18,-5.398872852,-0.6846761107,-1.735026479
287,1.55965353097e+18,-4.735473156,-0.6797891855,-1.209071517
288,1.55965353103e+18,-2.019566298,1.64944005,-0.1284509152
289,1.55965353108e+18,-0.4123798609,2.479605913,0.4298799038
290,1.55965353113e+18,0.5937151909,0.08440325409,1.286923885
291,1.55965353118e+18,1.406776905,-0.1782688051,1.281426072
292,1.55965353123e+18,2.472736835,-1.187418222,1.246606827
293,1.55965353129e+18,3.01151967,-1.297984719,0.9448392987
294,1.55965353134e+18,3.250978947,-0.9479590058,0.725538671
295,1.55965353139e+18,3.158127546,-0.5961006284,0.1702621877
296,1.55965353144e+18,3.141633987,0.1577070802,1.071899295
297,1.55965353149e+18,2.125765085,-0.3468676209,0.1336102784
298,1.55965353155e+18,0.2925586104,0.5498825908,-0.2396283895
299,1.5596535316e+18,-1.790491819,0.3263058662,-1.223732352
300,1.55965353165e+18,-4.213794231,0.1699243933,-2.374602556
301,1.5596535317e+18,-6.226595402,0.1790873557,-2.589016199
302,1.55965353175e+18,-4.993258476,0.7343639135,-1.357511878
303,1.55965353181e+18,-2.161897898,1.006809711,-1.248777747
304,1.55965353186e+18,0.3640298843,2.663476229,0.7536385059
305,1.55965353191e+18,1.522230387,-0.3578631878,1.322964907
306,1.55965353196e+18,2.420813322,-1.561267734,1.48728776
307,1.55965353201e+18,2.943103075,-0.8227316141,1.019975781
308,1.55965353207e+18,2.880794764,-0.2149207145,0.9118525982
309,1.55965353212e+18,2.505723476,-0.4305561483,0.7322582603
310,1.55965353217e+18,1.746417999,-0.4733166993,0.7762405276
311,1.55965353222e+18,1.151435137,-0.6339743137,0.9625544548
312,1.55965353227e+18,1.005438328,-0.3517545462,1.016310573
313,1.55965353233e+18,0.6334214211,-0.003561344463,1.017532229
314,1.55965353238e+18,-0.04586071149,-0.205146879,0.5636594296
315,1.55965353243e+18,-1.525987148,-0.1348973662,-0.245737046
316,1.55965353248e+18,-3.092856407,-0.071367383,-1.071015954
317,1.55965353253e+18,-2.836904049,1.191901922,-0.5872107148
318,1.55965353259e+18,-4.577869892,0.8986866474,-0.5224589705
319,1.55965353264e+18,-3.766030073,2.745943069,0.9430066943
320,1.55965353269e+18,-0.4759098589,-0.6009875536,-0.1571615785
321,1.55965353274e+18,1.332862139,-0.1006889194,0.9955411553
322,1.55965353279e+18,2.288255453,-0.4433843195,1.181244135
323,1.55965353285e+18,2.932718277,-1.042032242,1.248439312
324,1.5596535329e+18,3.322450161,-1.612580419,0.6711716652
325,1.55965353295e+18,3.266250849,-0.9229134917,0.6473479867
326,1.559653533e+18,2.69692421,-1.132440329,0.4451515377
327,1.55965353305e+18,2.268096924,-1.404275417,0.1861446798
328,1.55965353311e+18,1.731757164,-1.514841914,0.08718451858
329,1.55965353316e+18,0.704892695,-0.559448719,-0.5291785002
330,1.55965353321e+18,-1.069059968,0.459474504,-1.502897739
331,1.55965353326e+18,-2.832628012,1.317740202,-2.033739567
332,1.55965353331e+18,-4.970045567,0.1063944027,-2.31718111
333,1.55965353337e+18,-5.594349384,-1.51606369,-1.672718287
334,1.55965353342e+18,-4.896741867,-1.326084614,0.2380682379
335,1.55965353347e+18,-2.898601294,0.223680526,0.2008054554
336,1.55965353352e+18,-1.048901439,1.642109632,0.5703788996
337,1.55965353357e+18,0.5045288801,1.843695164,0.7670775056
338,1.55965353363e+18,1.71343112,0.3336362541,1.13298583
339,1.55965353368e+18,2.59429884,-0.688952148,1.349843025
340,1.55965353373e+18,3.410414696,-1.705431938,1.074953556
341,1.55965353378e+18,3.624828577,-1.79095304,0.6589543819
342,1.55965353383e+18,2.864301205,0.2798801363,0.870924592
343,1.55965353389e+18,1.960220695,-1.587534904,0.9643869996
344,1.55965353394e+18,0.850278616,-0.02738508955,0.4921881855
345,1.55965353399e+18,-1.647549391,0.6396797299,-0.4222770929
346,1.55965353404e+18,-3.552838087,0.7923960686,-1.548712611
347,1.55965353409e+18,-5.036018848,-0.1544450521,-2.270755291
348,1.55965353415e+18,-5.43552494,-0.122680068,-2.720351934
349,1.5596535342e+18,-3.899198771,0.5584346652,-1.54565835
350,1.55965353425e+18,-1.422140121,3.631086826,-1.016649008
351,1.5596535343e+18,0.6505256891,2.00740695,1.99064064
352,1.55965353435e+18,1.535058618,-0.7750841379,2.547749758
353,1.55965353441e+18,2.690815687,-2.38715744,1.504391789
354,1.55965353446e+18,2.971813679,-0.602820158,1.587469578
355,1.55965353451e+18,2.907672882,-1.245450497,0.9277350903
356,1.55965353456e+18,2.59429884,-0.2698985934,0.7328690886
357,1.55965353461e+18,2.041465759,-0.1770470738,0.8348836303
358,1.55965353467e+18,1.880808234,-0.8551074862,-0.1987004131
359,1.55965353472e+18,0.2607936263,0.6018061042,0.02854145691
360,1.55965353477e+18,-1.900447607,0.03309056908,-1.256108165
361,1.55965353482e+18,-3.916302919,-0.2088120729,-2.267090082
362,1.55965353487e+18,-5.14841795,0.2548346519,-2.409421682
363,1.55965353493e+18,-3.617589951,0.9664926529,-1.790615201
364,1.55965353498e+18,-2.022620678,2.350102425,-1.587197185
365,1.55965353503e+18,-0.3445738256,3.50708127,0.3077068925
366,1.55965353508e+18,0.6560234427,0.5938648582,1.78233552
367,1.55965353513e+18,1.616914392,-1.729866624,1.420092583
368,1.55965353519e+18,1.929066658,-1.957719207,1.366947293
369,1.55965353524e+18,1.979768395,-1.384727716,1.145813942
370,1.55965353529e+18,1.929066658,-1.872808933,1.101220846
371,1.55965353534e+18,1.663340211,-1.191083431,1.009591103
372,1.55965353539e+18,1.61386013,-0.7396540046,1.077397108
373,1.55965353545e+18,1.813613057,-1.819663644,0.4573688805
374,1.5596535355e+18,1.794065475,-1.112892628,0.2044706494
375,1.55965353555e+18,1.36890316,0.3342471421,0.09756922722
376,1.5596535356e+18,-0.1582599133,0.04225354642,-0.8468284011
377,1.55965353565e+18,-2.420294046,1.515049696,-1.717311382
378,1.55965353571e+18,-4.241894245,-0.2191967815,-1.658057451
379,1.55965353576e+18,-4.49540329,-0.1116844937,-0.8517153263
380,1.55965353581e+18,-4.977375984,2.376980543,-0.2762803137
381,1.55965353586e+18,-0.8363203406,-1.637625813,-0.3538601995
382,1.55965353591e+18,0.1404531896,-0.1318430454,0.7518059015
383,1.55965353597e+18,0.9822255373,4.334803581,1.51722014
384,1.55965353602e+18,1.94189477,-0.5789964199,1.252715468
385,1.55965353607e+18,2.461741209,-1.808057308,1.431087971
386,1.55965353612e+18,2.916224957,-1.453755498,1.736520648
387,1.55965353617e+18,3.398808241,-2.172132969,1.835480809
388,1.55965353623e+18,3.255255222,-1.133051157,1.836702585
389,1.55965353628e+18,2.219227552,-0.2961657941,1.658940792
390,1.55965353633e+18,0.6883993149,0.4020531774,1.228280783
391,1.55965353638e+18,-0.6738302112,0.7471920252,0.667506516
392,1.55965353643e+18,-2.06171608,0.353183955,-0.1095140949
393,1.55965353649e+18,-3.685395718,0.1845851392,-0.8407197595
394,1.55965353654e+18,-4.956606388,0.04714047164,-1.259773374
395,1.55965353659e+18,-5.143531322,-0.5734986067,-1.156537056
396,1.55965353664e+18,-5.444687843,-0.1336756498,0.01449155621
397,1.55965353669e+18,-2.010403395,-0.9571220279,0.1665969938
398,1.55965353675e+18,-0.2578309774,-0.7530930042,1.063958049
399,1.5596535368e+18,0.7995767593,0.3715099096,1.526993871
400,1.55965353685e+18,1.704879045,-0.2894462943,1.606406331
401,1.5596535369e+18,2.599796534,-1.320586801,1.284480333
402,1.55965353695e+18,3.42874074,-1.398166776,0.8947483301
403,1.55965353701e+18,3.646819592,-0.8618270159,0.8416031003
404,1.55965353706e+18,2.612013817,-0.7469843626,2.025460005
405,1.55965353711e+18,1.930899143,-0.60220927,1.657108188
406,1.55965353716e+18,0.7006166577,-0.07747603953,1.123822927
407,1.55965353721e+18,-1.198563457,-0.4690406621,-0.02582555078
408,1.55965353727e+18,-3.170436621,-0.2552378178,-1.095450521
409,1.55965353732e+18,-4.697599411,-0.04693277925,-2.197451353
410,1.55965353737e+18,-4.873528957,-0.04876537248,-2.397815228
411,1.55965353742e+18,-4.145988464,0.2365086973,-1.435091734
412,1.55965353747e+18,-2.459389448,2.94141984,-0.9580059052
413,1.55965353753e+18,-0.3848909438,2.288404942,0.5312835574
414,1.55965353758e+18,0.4245055318,-1.12877512,1.403599143
415,1.55965353763e+18,1.748861313,-0.9785022736,1.412151217
416,1.55965353768e+18,2.214951754,-0.4232257605,1.483011603
417,1.55965353773e+18,2.74945879,-1.384116769,1.349232197
418,1.55965353778e+18,2.899731398,-0.645580709,1.476292133
419,1.55965353784e+18,3.12086463,-1.554548264,1.151311755
420,1.55965353789e+18,3.25342226,-1.682829976,0.8574855924
421,1.55965353794e+18,2.743350029,-0.6559654474,0.711488843
422,1.55965353799e+18,1.010325313,0.3507405221,-0.04109717906
423,1.55965353804e+18,-1.592571497,0.4680266082,-1.189523816
424,1.5596535381e+18,-3.805125475,0.6225755811,-2.062450171
425,1.55965353815e+18,-5.183848381,0.5407196283,-2.424693346
426,1.5596535382e+18,-4.81732893,0.04225354642,-2.384987116
427,1.55965353825e+18,-3.100797892,1.587742686,-0.5194046497
428,1.5596535383e+18,-0.7404145002,3.673236609,0.34496966
429,1.55965353836e+18,0.7971333265,-0.7604234219,1.167805195
430,1.55965353841e+18,1.489243627,-1.005380392,1.469572544
431,1.55965353846e+18,1.94189477,0.1351050735,1.828150511
432,1.55965353851e+18,2.349341869,-1.198413849,1.188574553
433,1.55965353856e+18,2.434863091,-1.131218672,1.037690759
434,1.55965353862e+18,2.144091368,-1.450700998,0.4427081048
435,1.55965353867e+18,2.103163242,-0.05548489094,1.030971289
436,1.55965353872e+18,0.5851630569,-1.378008127,-0.131505236
437,1.55965353877e+18,-1.637164712,0.6537296772,-0.8584348559
438,1.55965353882e+18,-3.277948618,-0.07625430822,-2.423471689
439,1.55965353888e+18,-4.318863392,-0.2173641771,-2.325122356
440,1.55965353893e+18,-3.666459084,-0.1556667984,-1.000155687
441,1.55965353898e+18,-1.272478104,3.297554493,-0.07225131243
442,1.55965353903e+18,0.3774689138,0.6347928643,1.421925068
443,1.55965353908e+18,1.122724533,-0.8416684866,1.537378669
444,1.55965353914e+18,2.00481391,0.2511694729,1.61007154
445,1.55965353919e+18,2.218005896,-0.1293995827,1.627175808
446,1.55965353924e+18,2.153865099,-0.9058093429,1.405431747
447,1.55965353929e+18,1.985266209,-1.715816617,1.109162092
448,1.55965353934e+18,1.494130611,-1.225291848,0.8092272282
449,1.5596535394e+18,0.8777675033,-1.159929156,0.5105141401
450,1.55965353945e+18,0.208870098,-1.533167958,-0.8004027009
451,1.5596535395e+18,-1.797211409,1.221834302,-0.8944759369
452,1.55965353955e+18,-3.371411085,0.8803606629,-1.389887691
453,1.5596535396e+18,-3.201590538,-0.4342213571,-1.33735323
454,1.55965353966e+18,-3.690282822,1.427085042,-0.6818948388
455,1.55965353971e+18,-0.9016829133,3.369636536,0.3150372505
456,1.55965353976e+18,0.6114302874,-1.808057308,0.206914112
457,1.55965353981e+18,1.629742622,-0.08724988252,0.8532095551
458,1.55965353986e+18,1.821554303,-0.4513255656,1.238665581
459,1.55965353992e+18,1.896690845,-1.080516696,1.224615574
460,1.55965353997e+18,1.909518957,-0.8722117543,1.092057824
461,1.55965354002e+18,1.778793812,-0.359084934,1.217285275
462,1.55965354007e+18,2.136149883,-1.279047966,0.8244988918
463,1.55965354012e+18,2.067121983,-0.9155831337,1.141537905
464,1.55965354018e+18,1.458089471,-1.193526864,0.7817382812
465,1.55965354023e+18,0.7592597008,-0.3822977841,0.4958533645
466,1.55965354028e+18,0.3994600475,0.09112276882,0.1531579792
467,1.55965354033e+18,-0.2602744102,0.413048774,0.4133865535
468,1.55965354038e+18,-1.704970717,-0.02738508955,-0.2066416591
469,1.55965354044e+18,-4.640178204,0.3586817384,-1.530386567
470,1.55965354049e+18,-6.809971809,-1.440927267,-2.052065611
471,1.55965354054e+18,-3.80695796,0.7044314742,-0.2432935834
472,1.55965354059e+18,-1.770944238,3.723938465,-0.7594747543
473,1.55965354064e+18,-0.01776090637,0.3397449255,0.7328690886
474,1.5596535407e+18,1.039646864,0.4325964451,0.7389777303
475,1.55965354075e+18,1.557049632,1.455795765,0.5722115636
476,1.5596535408e+18,1.92845583,0.5914213657,0.2008054554
477,1.55965354085e+18,2.141647816,-0.0218873024,0.1042887494
478,1.5596535409e+18,2.384772301,-0.6523002386,-0.00139094016
479,1.55965354096e+18,2.713417768,-0.5392901897,-0.6458537579
480,1.55965354101e+18,2.615068436,-0.9711718559,-2.607952833
481,1.55965354106e+18,-0.1814727932,1.131426215,-0.8724848032
482,1.55965354111e+18,-3.574218273,-1.282102346,-2.551142693
483,1.55965354116e+18,-3.239464045,-0.1862100512,-2.216999292
484,1.55965354121e+18,-4.474022865,0.6341819167,-2.82725358
485,1.55965354127e+18,-2.912040472,2.766101599,-1.232284427
486,1.55965354132e+18,0.8728806376,2.27557683,0.5306726694
487,1.55965354137e+18,1.823997855,0.207798034,1.065179825
488,1.55965354142e+18,2.029248476,1.046515942,1.534324288
489,1.55965354147e+18,2.364613533,0.1888612062,1.032193065
490,1.55965354153e+18,2.433641434,-0.3364829123,1.001038909
491,1.55965354158e+18,2.49778223,-0.688952148,1.190407157
492,1.55965354163e+18,2.369500399,-1.37067771,1.294254303
493,1.55965354168e+18,2.063457012,-1.272939324,1.411540389
494,1.55965354173e+18,2.321242094,-2.236884832,0.7120996714
495,1.55965354179e+18,0.5448459983,-0.3670261502,-0.2347414643
496,1.55965354184e+18,-2.4123528,1.262762308,-0.6635688543
497,1.55965354189e+18,-4.20035553,-0.6901738644,-1.717922211
498,1.55965354194e+18,-4.183861732,-1.207576752,-0.788185358
499,1.55965354199e+18,-3.780079842,1.424641609,-0.3379776776
500,1.55965354205e+18,-1.431303144,3.961565018,0.9332329035
501,1.5596535421e+18,-0.002489275998,-0.9607871771,0.5337269902
502,1.55965354215e+18,1.297432065,-0.9772804976,0.2001945972
503,1.5596535422e+18,1.941283941,0.4887960553,0.7542493939
504,1.55965354225e+18,2.185630083,-0.9430720806,0.5777093172
505,1.55965354231e+18,2.167915106,0.3892250061,1.018143177
506,1.55965354236e+18,2.305359602,-1.043254018,0.6436827183
507,1.55965354241e+18,2.197236538,-1.16176188,0.6094743013
508,1.55965354246e+18,2.560090303,-2.757341862,-0.4106706679
509,1.55965354251e+18,0.8887631297,1.071561575,-0.3062126935
510,1.55965354257e+18,-1.926714897,0.8760845661,-0.6183648705
511,1.55965354262e+18,-3.826505661,-0.6437481046,-1.439367652
512,1.55965354267e+18,-4.556489944,0.2285674512,-1.326357722
513,1.55965354272e+18,-4.745246887,2.036117792,-0.1614376307
514,1.55965354277e+18,-2.193662882,3.29877615,-0.2634521127
515,1.55965354283e+18,0.3389844,-0.3694696426,0.0004416555748
516,1.55965354288e+18,1.349355459,0.9860403538,0.3089286089
517,1.55965354293e+18,2.102552176,0.2737714946,0.8507660627
518,1.55965354298e+18,2.301694393,-1.186196446,0.8984135985
519,1.55965354303e+18,2.125154257,-0.3242655993,1.379164577
520,1.55965354309e+18,1.762911201,-0.4256692231,1.916725993
521,1.55965354314e+18,1.830717325,-1.239952683,2.147022247
522,1.55965354319e+18,1.765965581,-1.339523673,2.184284925
523,1.55965354324e+18,1.364627242,-1.156874895,2.242928028
524,1.55965354329e+18,1.08423996,-2.877682447,1.607628226
525,1.55965354335e+18,-0.5027878881,-0.07625430822,0.02793059126
526,1.5596535434e+18,-3.031159163,1.529099584,-0.4479334354
527,1.55965354345e+18,-4.998756409,-0.02677422389,-1.383168101
528,1.5596535435e+18,-5.775776863,-0.2534052134,-1.215790987
529,1.55965354355e+18,-5.066562176,1.585299253,-0.7136597633
530,1.55965354361e+18,-2.036670446,4.371455669,-0.8492718935
531,1.55965354366e+18,0.1190729067,-0.2668442726,0.8532095551
532,1.55965354371e+18,1.371957541,-1.55576992,1.233778596
533,1.55965354376e+18,2.362781048,0.5639324784,1.673601508
534,1.55965354381e+18,2.54420805,-0.8166229725,1.394436121
535,1.55965354387e+18,2.467238903,-1.286989212,1.32540834
536,1.55965354392e+18,2.243051291,-1.701766729,1.014477968
537,1.55965354397e+18,1.50146091,-0.9137505293,1.095112205
538,1.55965354402e+18,0.2943912446,-0.4238366485,1.191628933
539,1.55965354407e+18,0.004841106944,-2.358446836,0.7909013033
540,1.55965354413e+18,-1.703749061,0.692214191,-0.3483623862
541,1.55965354418e+18,-3.84360981,0.2291783094,-1.945775032
542,1.55965354423e+18,-5.412312031,0.9872620702,-2.04595685
543,1.55965354428e+18,-4.952941418,1.508330107,-1.724030852
544,1.55965354433e+18,-2.042168379,2.45456028,-1.034974933
545,1.55965354439e+18,0.06898195297,2.707458496,0.9252915978
546,1.55965354444e+18,0.9962753654,0.4924612343,1.272873878
547,1.55965354449e+18,2.211286306,-0.9583437443,1.042577744
548,1.55965354454e+18,2.484343052,0.5052893758,0.950948
549,1.55965354459e+18,2.435473919,-0.216753304,0.7573037148
550,1.55965354465e+18,2.280314207,-1.155653238,0.3303088844
551,1.5596535447e+18,2.169747591,-0.221029371,0.4042235613
552,1.55965354475e+18,2.061624289,-1.362125635,0.1965294033
553,1.5596535448e+18,1.743974447,-1.058525681,0.2319595814
554,1.55965354485e+18,0.1496161669,-0.1483364105,0.3632956147
555,1.55965354491e+18,-2.392804861,0.1699243933,-0.832778573
556,1.55965354496e+18,-3.862546921,0.1674809307,-1.683102846
557,1.55965354501e+18,-3.659739494,-0.3096048236,-1.798556566
558,1.55965354506e+18,-3.081249952,2.220599174,-1.233506083
559,1.55965354511e+18,-0.4270406067,3.531515837,0.1348320097
560,1.55965354517e+18,0.9290801883,-0.9925521612,0.4152191579
561,1.55965354522e+18,1.51123476,1.241382122,1.01386714
562,1.55965354527e+18,1.965107679,1.281699061,1.039523482
563,1.55965354532e+18,2.347509384,-0.6229786873,0.6546783447
564,1.55965354537e+18,2.581470728,-0.9632306695,0.6149721146
565,1.55965354543e+18,2.503890753,-0.6211461425,0.6852216125
566,1.55965354548e+18,2.13737154,0.1680918038,0.9301785827
567,1.55965354553e+18,1.761689544,-1.26133287,-0.1461659968
568,1.55965354558e+18,0.4177860022,-0.1587211192,-0.2451261729
569,1.55965354563e+18,-1.951149464,0.08806844056,-0.8694304824
570,1.55965354569e+18,-3.886981487,-0.3236547112,-1.585364461
571,1.55965354574e+18,-4.063521385,-0.3560305834,-1.747243762
572,1.55965354579e+18,-3.458764791,1.4704566,-0.532843709
573,1.55965354584e+18,-1.511326432,4.183309078,0.030374052
574,1.55965354589e+18,-0.2077400088,-0.2741746604,0.5166227818
575,1.55965354595e+18,0.9828363657,-1.018208504,0.4359885752
576,1.559653546e+18,1.739087582,0.8950214386,1.207511306
577,1.55965354605e+18,2.006035566,-1.693214655,0.7487515807
578,1.5596535461e+18,2.187462568,-1.133661985,1.082284093
579,1.55965354615e+18,2.189295053,-1.316310763,1.014477968
580,1.55965354621e+18,1.996261835,-0.9357417226,1.127488017
581,1.55965354626e+18,2.451967239,-2.405483484,1.332127929
582,1.55965354631e+18,1.674335837,-0.0005070181214,0.564881146
583,1.55965354636e+18,-1.000032187,0.4289312363,-0.5267350674
584,1.55965354641e+18,-3.34636569,0.452144146,-1.260384202
585,1.55965354647e+18,-4.624295712,-0.4837014079,-1.995865941
586,1.55965354652e+18,-4.502733231,-0.4134519398,-1.641564131
587,1.55965354657e+18,-3.298717976,2.018402576,0.3296980262
588,1.55965354662e+18,-0.7721794844,2.430125713,0.3993366659
589,1.55965354667e+18,0.7195534706,-0.5472313762,0.8086163998
590,1.55965354673e+18,1.364016294,-0.3487001956,0.958889246
591,1.55965354678e+18,1.558882356,0.03186883777,1.214841843
592,1.55965354683e+18,1.695105195,-0.6248112917,1.187963724
593,1.55965354688e+18,1.769630909,-1.291876078,0.9833238721
594,1.55965354693e+18,1.544832349,-1.166037917,0.7548602223
595,1.55965354699e+18,1.279716969,-1.187418222,0.5899266601
596,1.55965354704e+18,1.893025637,-3.104923964,0.2093575746
597,1.55965354709e+18,0.2388024926,0.08745758235,-1.163256645
598,1.55965354714e+18,-1.930990815,2.221820831,-1.056966066
599,1.55965354719e+18,-2.662196636,0.1674809307,-1.512060642
600,1.55965354725e+18,-2.645092249,0.6763316393,-0.7918505669
601,1.5596535473e+18,-2.470384836,5.574248791,-0.8810368776
602,1.55965354735e+18,-0.4184885025,3.293889046,0.4463732839
603,1.5596535474e+18,0.8869305253,-2.966257811,-0.143111676
604,1.55965354745e+18,1.40188992,0.5578237772,0.32847628
605,1.55965354751e+18,1.67677927,1.071561575,0.8348836303
606,1.55965354756e+18,1.819721818,-1.22468102,0.6693391204
607,1.55965354761e+18,1.82583046,-1.737196922,0.710877955
608,1.55965354766e+18,1.475804567,-1.136716485,0.6748369336
609,1.55965354771e+18,0.6328105927,-0.299831003,0.6552891731
610,1.55965354777e+18,0.7391011119,-2.682816505,-0.2231350243
611,1.55965354782e+18,-0.2523331642,-0.5142446756,-0.7582529783
612,1.55965354787e+18,-2.141739368,1.093552589,-0.8914216161
613,1.55965354792e+18,-2.826519251,0.2096306235,-1.345294476
614,1.55965354797e+18,-2.455113173,-0.6211461425,-0.6134778857
615,1.55965354803e+18,-2.253527641,0.8241610527,-0.213972047
616,1.55965354808e+18,-0.974375844,2.96463275,0.8306075335
617,1.55965354813e+18,0.3970166147,0.8785280585,0.4463732839
618,1.55965354818e+18,1.072022676,0.3476861715,0.6149721146
619,1.55965354823e+18,1.857595325,-0.9650632143,1.004093289
620,1.55965354829e+18,2.013976812,-2.327903509,0.6571217775
621,1.55965354834e+18,2.304137945,-0.4800362289,1.241719842
622,1.55965354839e+18,2.114769697,-1.607693434,0.8306075335
623,1.55965354844e+18,1.55094099,-1.057303786,1.132375002
624,1.55965354849e+18,0.8350069523,-0.5997658372,1.219117761
625,1.55965354855e+18,0.6584669352,-0.4684298038,1.030971289
626,1.5596535486e+18,-1.003086567,0.0227058623,-0.01849516667
627,1.55965354865e+18,-3.518018723,0.3299710751,-0.7307640314
628,1.5596535487e+18,-4.828935623,-0.7946318388,-1.490680456
629,1.55965354875e+18,-3.278559685,0.1491549611,-0.5865998268
630,1.55965354881e+18,-1.345782042,2.823523045,-0.4796984196
631,1.55965354886e+18,-0.1087798327,3.077643156,0.6253567934
632,1.55965354891e+18,0.1086882055,1.306133747,1.289978147
633,1.55965354896e+18,0.5656154156,-0.6694045067,1.121379375
634,1.55965354901e+18,1.200915337,-1.513620257,1.351064682
635,1.55965354907e+18,1.256504059,-2.469013453,0.8257206082
636,1.55965354912e+18,1.372568369,-0.8080708385,1.078007936
637,1.55965354917e+18,1.36890316,-1.166648746,0.6803346276
638,1.55965354922e+18,1.042701125,-0.6565762758,0.482414335
639,1.55965354927e+18,1.665783644,-1.751857638,0.1818686426
640,1.55965354933e+18,0.7690334916,-0.1324539185,-0.3080452979
641,1.55965354938e+18,-1.456959486,0.8290479779,-0.9964904189
642,1.55965354943e+18,-3.167382002,-0.221029371,-1.483349919
643,1.55965354948e+18,-3.314600468,0.9597731233,-1.424706936
644,1.55965354953e+18,-3.040322065,2.559018373,-1.014205456
645,1.55965354959e+18,-0.7544643879,1.819260478,-0.1351704299
646,1.55965354964e+18,0.480705142,-0.645580709,0.3657390773
647,1.55965354969e+18,1.565601826,0.08806844056,0.3987258077
648,1.55965354974e+18,2.082393885,0.03981008753,0.5978678465
649,1.55965354979e+18,2.196625471,-0.5337923765,0.7395886183
650,1.55965354985e+18,2.197236538,-0.697504282,1.019364834
651,1.5596535499e+18,2.050018072,-1.241785169,0.9167395234
652,1.55965354995e+18,1.689607382,-1.070742965,0.8348836303
653,1.55965355e+18,1.19663918,-0.7317126989,0.6711716652
654,1.55965355005e+18,0.9131977558,-2.393266201,-0.3361450732
655,1.55965355011e+18,-0.4869054258,0.459474504,-0.6849491596
656,1.55965355016e+18,-2.601721048,1.535819054,-0.9274626374
657,1.55965355021e+18,-4.026258469,-0.05426315963,-1.430815697
658,1.55965355026e+18,-3.894311666,-0.7830253839,-1.091174603
659,1.55965355031e+18,-3.295663834,2.807640553,-0.4876396656
660,1.55965355037e+18,-1.233993649,2.747775555,0.660176158
661,1.55965355042e+18,0.3402061164,0.2224587947,0.4708078802
662,1.55965355047e+18,1.270553946,0.6182994843,0.5783202052
663,1.55965355052e+18,2.155697823,-0.0402132608,0.6986606717
664,1.55965355057e+18,2.337124586,-2.053014278,0.4249930084
665,1.55965355063e+18,2.540542841,-0.8111251593,0.8825310469
666,1.55965355068e+18,2.10743928,-1.045086503,0.9631652832
667,1.55965355073e+18,1.410441995,-0.362750113,1.560591459
668,1.55965355078e+18,0.712833941,-0.5295162797,2.271638632
669,1.55965355083e+18,0.6242584586,-1.515452862,1.899010897
670,1.55965355089e+18,0.2278069109,-0.2625682056,0.6956063509
671,1.55965355094e+18,-2.097757101,0.9200668931,-0.5682738423
672,1.55965355099e+18,-4.123997211,0.07279681414,-1.628736019
673,1.55965355104e+18,-4.393388748,-1.04264307,-1.884077668
674,1.55965355109e+18,-3.619422436,0.5767606497,-0.1693788767
675,1.55965355115e+18,-1.903501987,4.433152676,-0.1638810933
676,1.5596535512e+18,-0.3958865106,2.846124887,1.034636497
677,1.55965355125e+18,0.7091687918,-1.503846407,0.5825962424
678,1.5596535513e+18,1.480691552,0.09539882839,0.6339089274
679,1.55965355135e+18,2.159362793,-0.4287235439,0.5337269902
680,1.55965355141e+18,2.36888957,-0.9583437443,0.5239531994
681,1.55965355146e+18,2.516719103,-1.429320812,0.4329342246
682,1.55965355151e+18,2.539320946,-1.221626639,0.1268907636
683,1.55965355156e+18,2.429365158,-2.315075397,0.1806468964
684,1.55965355161e+18,1.768409014,-1.220404863,-0.5297893882
685,1.55965355167e+18,0.1044121385,1.080113649,-0.7930723429
686,1.55965355172e+18,-2.157011032,0.2255131155,-1.387444258
687,1.55965355177e+18,-4.054969311,-0.1843774617,-1.533440948
688,1.55965355182e+18,-4.294428825,-1.088458061,-0.6024823785
689,1.55965355187e+18,-3.285279036,0.06057950482,0.3596304357
690,1.55965355193e+18,-0.8644201756,1.637833595,0.7817382812
691,1.55965355198e+18,0.07203628868,1.515049696,0.8336618543
692,1.55965355203e+18,1.336527348,2.399582624,1.081673145
693,1.55965355208e+18,1.875921369,0.8595912457,0.8617616296
694,1.55965355213e+18,2.099498034,-0.593657136,1.125044584
695,1.55965355219e+18,2.190516949,-1.269274116,1.042577744
696,1.55965355224e+18,2.13370657,-1.421990514,1.005314946
697,1.55965355229e+18,1.919903636,-1.465972781,1.09022522
698,1.55965355234e+18,1.371346712,-1.133661985,1.036469102
699,1.55965355239e+18,0.6224258542,-0.9687284827,0.9307894111
700,1.55965355245e+18,-0.4074929059,-0.9235244393,0.4677535594
701,1.5596535525e+18,-1.737957358,-0.03899152577,-0.02032776177
702,1.55965355255e+18,-3.623698473,-0.1636080295,-1.113165617
703,1.5596535526e+18,-4.822827339,-0.3425915539,-1.424706936
704,1.55965355265e+18,-4.103838444,0.6378471851,-0.4998570085
705,1.55965355271e+18,-2.174115181,3.442329645,-0.6757861972
706,1.55965355276e+18,-0.4154341817,1.314685941,0.7725753188
707,1.55965355281e+18,0.6780145764,-1.011489034,0.3712368608
708,1.55965355286e+18,1.094624758,2.051389456,0.8886396885
709,1.55965355291e+18,1.72320509,0.3391340673,0.9112417698
710,1.55965355297e+18,1.840491176,-1.139770746,0.6400175691
711,1.55965355302e+18,1.852097631,-1.24117434,0.5862613916
712,1.55965355307e+18,1.718318105,-1.440927267,0.09451489896
713,1.55965355312e+18,0.8478351235,-0.3102157116,0.0932931751
714,1.55965355317e+18,1.054918408,-4.148892879,-1.580477595
715,1.55965355323e+18,-1.331732035,0.7490246296,-1.342851043
716,1.55965355328e+18,-3.034824371,1.393487453,-1.803443313
717,1.55965355333e+18,-4.042140961,1.509551883,-2.163243055
718,1.55965355338e+18,-3.069643497,2.835740328,-1.64828372
719,1.55965355343e+18,-1.100824952,-0.5056925416,-1.204184532
720,1.55965355349e+18,0.5509546399,1.517493129,1.034636497
721,1.55965355354e+18,1.358518481,1.064231038,1.283258677
722,1.55965355359e+18,1.715874672,0.2609432936,1.1397053
723,1.55965355364e+18,1.737865806,-1.037756205,1.064568996
724,1.55965355369e+18,1.564380169,-1.037145376,0.6015330553
725,1.55965355375e+18,1.866147518,-0.2350792736,0.8037294149
726,1.5596535538e+18,1.984044552,-0.4672080576,0.3608521521
727,1.55965355385e+18,1.969994664,-0.449492991,0.4958533645
728,1.5596535539e+18,1.235123634,-0.2613464594,0.2368465066
729,1.55965355395e+18,-0.006765332539,-0.3419806957,-0.3605796993
730,1.55965355401e+18,-1.840582728,0.4191574156,-1.045359612
731,1.55965355406e+18,-3.364080906,0.5804258585,-1.498010755
732,1.55965355411e+18,-3.305437803,-0.4562124908,-1.719143987
733,1.55965355416e+18,-1.868682623,2.08010006,-0.4143358469
734,1.55965355421e+18,-0.6970430017,3.522352695,0.2747201622
735,1.55965355427e+18,0.1600008905,0.9970359206,1.26554358
736,1.55965355432e+18,0.8563872576,0.02637105249,1.331516981
737,1.55965355437e+18,1.294988513,-0.9430720806,1.129931569
738,1.55965355442e+18,1.664561987,-1.260111213,0.9912650585
739,1.55965355447e+18,1.899134278,-1.185585618,1.126877189
740,1.55965355453e+18,1.937007904,-1.630906343,1.406042576
741,1.55965355458e+18,1.550330162,-2.061566353,1.618623614
742,1.55965355463e+18,0.8350069523,-1.743916392,1.801272392
743,1.55965355468e+18,-0.1362687647,-1.456809759,1.680931926
744,1.55965355473e+18,-0.8778591752,-0.3847412765,1.220339656
745,1.55965355478e+18,-2.348212004,-0.7097215652,0.00227425131
746,1.55965355484e+18,-3.973724127,-0.3890173137,-0.9586167336
747,1.55965355489e+18,-4.574815273,1.201675773,-1.358122706
748,1.55965355494e+18,-3.599263906,0.7459703088,-1.037418365
749,1.55965355499e+18,-1.596847534,3.458822727,-0.3630231619
750,1.55965355504e+18,0.2113135457,1.494280219,1.313191056
751,1.5596535551e+18,1.174037218,-1.336469412,0.8574855924
752,1.55965355515e+18,1.518565178,0.3843380809,1.349843025
753,1.5596535552e+18,2.001148701,-0.1801013947,1.299141169
754,1.55965355525e+18,2.312079191,-0.9540677071,1.05051899
755,1.5596535553e+18,2.511831999,-1.078684211,0.4329342246
756,1.55965355536e+18,2.358504772,-0.2906680107,-0.1553289741
757,1.55965355541e+18,1.820332646,0.5584346652,-0.6073692441
758,1.55965355546e+18,1.238788962,-0.005393940024,-1.4864043
759,1.55965355551e+18,1.089737773,-2.345618725,-1.675161719
760,1.55965355556e+18,1.139217854,0.1008966118,-1.421652555
761,1.55965355562e+18,0.5515654683,0.6818294525,-2.198673248
762,1.55965355567e+18,-2.053774595,1.438691497,-2.438132286
763,1.55965355572e+18,-4.370786667,0.4900177717,-2.273809671
764,1.55965355577e+18,-4.302980423,-1.224070072,-1.087509394
765,1.55965355582e+18,-3.175323248,0.5492717028,0.1220038384
766,1.55965355588e+18,-0.8607549667,-1.10189712,0.5007402897
767,1.55965355593e+18,0.02377793007,1.165023923,0.9210155606
768,1.55965355598e+18,1.100122452,2.224264145,0.8758115172
769,1.55965355603e+18,2.145923853,-0.9204701185,1.026084304
770,1.55965355608e+18,2.910116196,-1.371899486,0.7298147678
771,1.55965355614e+18,2.983419895,-0.8709899783,0.7371451259
772,1.55965355619e+18,2.64744401,-0.2955549359,0.8269423246
773,1.55965355624e+18,2.337735653,-0.6248112917,0.8232771754
774,1.55965355629e+18,1.560714841,-0.04082412273,0.8849745393
775,1.55965355634e+18,0.4819268584,0.6341819167,1.404209971
776,1.5596535564e+18,-0.4001625478,-1.245450497,0.7786839604
777,1.55965355645e+18,-2.241921186,-0.6113722324,0.388341099
778,1.5596535565e+18,-3.749536514,-0.02555249445,-0.4454899728
779,1.55965355655e+18,-3.825894833,-0.4116193354,-0.8022353053
780,1.5596535566e+18,-3.839334011,-0.552118361,0.1818686426
781,1.55965355666e+18,-2.555295229,3.299997807,0.3712368608
782,1.55965355671e+18,-0.5107291341,0.8473739624,0.7420320511
783,1.55965355676e+18,0.5576741099,-1.229567885,1.105496883
784,1.55965355681e+18,1.402500749,0.1870286167,1.219728589
785,1.55965355686e+18,1.841102004,-0.5362358689,1.323575854
786,1.55965355692e+18,2.12698698,-0.9559002519,1.154366136
787,1.55965355697e+18,2.277870655,-1.113503575,0.8678702712
788,1.55965355702e+18,2.349341869,-1.301650047,0.3516891897
789,1.55965355707e+18,2.025583267,0.4918503761,0.4750839472
790,1.55965355712e+18,1.384785652,0.01659720764,1.67971015
791,1.55965355718e+18,-0.2107943296,-1.08906889,0.02609799616
792,1.55965355723e+18,-2.441063166,0.5559912324,-1.064907312
793,1.55965355728e+18,-4.248003006,-0.1538341939,-2.250596762
794,1.55965355733e+18,-4.800225258,-0.02860681899,-2.612229109
795,1.55965355738e+18,-3.47220397,2.229762077,-1.419209242
796,1.55965355744e+18,-1.193065643,3.766088247,-0.7900179625
797,1.55965355749e+18,-0.3213609457,0.4301529825,0.7328690886
798,1.55965355754e+18,0.5790544152,-0.09702372551,0.6259676218
799,1.55965355759e+18,1.485578537,0.5834801793,0.4158300161
800,1.55965355764e+18,2.073230743,-0.5460097194,0.3565760851
801,1.5596535577e+18,2.501447201,-2.216115236,-0.131505236
802,1.55965355775e+18,2.422645807,0.2206262052,0.4256038368
803,1.5596535578e+18,2.10071969,0.1858068854,0.9668304324
804,1.55965355785e+18,2.005424738,-0.7756950259,0.9118525982
805,1.5596535579e+18,1.917460203,-0.5673899651,0.915517807
806,1.55965355796e+18,1.121502757,-0.550896585,0.4769165218
807,1.55965355801e+18,-0.4875162542,0.0746294111,-0.7515334487
808,1.55965355806e+18,-2.761767626,0.3843380809,-1.314751267
809,1.55965355811e+18,-4.067186356,-0.1703275591,-1.925616503
810,1.55965355816e+18,-4.078793049,0.759409368,-1.556653857
811,1.55965355822e+18,-2.12830019,3.764866352,-0.6568493843
812,1.55965355827e+18,-0.9279501438,3.330541372,-0.1779309958
813,1.55965355832e+18,-0.4032168984,-0.240577057,0.4958533645
814,1.55965355837e+18,0.6199824214,-1.357849598,0.426825583
815,1.55965355842e+18,1.295599341,0.6885489225,1.142148852
816,1.55965355848e+18,1.722594142,-1.056692958,1.492174506
817,1.55965355853e+18,2.221671104,-1.640069366,1.458577037
818,1.55965355858e+18,2.382939339,-1.981542945,0.8916940093
819,1.55965355863e+18,2.349341869,-1.434818625,0.528840065
820,1.55965355868e+18,2.002981424,-1.338912725,-0.1394464821
821,1.55965355874e+18,0.9376323223,-0.1513907313,-0.4913048744
822,1.55965355879e+18,0.0592081137,0.08073806018,-0.05392535031
823,1.55965355884e+18,-2.248029947,0.04775133356,-0.9928252697
824,1.55965355889e+18,-4.365289211,-0.1257343888,-1.24450171
825,1.55965355894e+18,-4.904071808,-0.1623863131,-1.845593095
826,1.559653559e+18,-3.759921312,-0.5124121308,-0.6537950635
827,1.55965355905e+18,-1.973140478,2.31222868,-0.2933845222
828,1.5596535591e+18,-0.4264297485,1.180906415,1.059071183
829,1.55965355915e+18,0.4025143683,-0.5698334575,0.9100199938
830,1.5596535592e+18,1.097679019,-0.1947621554,1.152533412
831,1.55965355926e+18,1.481302381,-1.263776422,1.2624892
832,1.55965355931e+18,1.844767213,-1.698101521,1.176357269
833,1.55965355936e+18,2.054904699,-1.236898303,1.021197557
834,1.55965355941e+18,1.714652896,-1.375564694,0.6235242486
835,1.55965355946e+18,1.408609509,-1.729866624,-0.0771382302
836,1.55965355952e+18,0.6321997046,-0.3389263749,0.5459443331
837,1.55965355957e+18,-0.1991878748,-0.1581102461,0.2130227685
838,1.55965355962e+18,-1.930990815,0.267051965,0.6296328902
839,1.55965355967e+18,-3.199758053,1.355613828,0.4243821502
840,1.55965355972e+18,-2.632874966,1.190680146,-0.5927084684
841,1.55965355978e+18,-1.632888675,-2.109213829,-1.658057451
842,1.55965355983e+18,-3.59193325,-4.198372841,0.092682302
843,1.55965355988e+18,-2.128911018,-0.05548489094,0.2527289987
844,1.55965355993e+18,0.1117425263,1.123484969,1.104885936
845,1.55965355998e+18,0.9669538736,-0.8056274652,1.650388718
846,1.55965356004e+18,1.838047743,-0.495918721,1.889236927
847,1.55965356009e+18,2.530158043,0.3812837601,2.125641823
848,1.55965356014e+18,2.625453234,0.1467114985,2.155574322
849,1.55965356019e+18,2.406763077,-0.7946318388,2.025460005
850,1.55965356024e+18,2.037189722,-1.607693434,1.531270027
851,1.5596535603e+18,1.190530539,-0.9723936319,1.027306199
852,1.55965356035e+18,-0.09045387059,-0.842279315,0.1946968138
853,1.5596535604e+18,-2.04827714,-0.2821159065,-1.003209949
854,1.55965356045e+18,-4.313976288,-0.448882103,-2.353222132
855,1.5596535605e+18,-4.827103138,-0.3951259851,-2.958589554
856,1.55965356056e+18,-5.008529663,-0.5961006284,-1.711202741
857,1.55965356061e+18,-1.971307993,1.705639601,-0.8517153263
858,1.55965356066e+18,-0.3977190852,6.274300575,0.6571217775
859,1.55965356071e+18,0.5008636713,2.4276824,0.9937085509
860,1.55965356076e+18,1.824608684,0.2835453153,0.6577326655
861,1.55965356082e+18,2.232666731,1.551701546,1.094501376
862,1.55965356087e+18,3.425075769,0.6152451634,1.208122134
863,1.55965356092e+18,3.812975168,-0.4165062606,1.173913836
864,1.55965356097e+18,3.626050234,-1.623575926,1.28203702
865,1.55965356102e+18,3.027402401,-2.024914503,0.9875999093
866,1.55965356108e+18,2.206399441,-1.538054824,0.5117358565
867,1.55965356113e+18,1.064692259,-1.255224228,0.06641510129
868,1.55965356118e+18,-0.9450542927,-0.652911067,-0.669677496
869,1.55965356123e+18,-3.436162949,0.3293601871,-1.484571815
870,1.55965356128e+18,-4.274270058,0.9664926529,-1.843149662
871,1.55965356134e+18,-4.605359077,-0.4659863412,-2.339172125
872,1.55965356139e+18,-3.863157749,-0.7054454684,-0.9598385096
873,1.55965356144e+18,-1.50216341,3.588326454,-0.4766440988
874,1.55965356149e+18,-0.1985770315,2.691576242,0.8574855924
875,1.55965356154e+18,0.2388024926,1.088665724,0.8006750941
876,1.5596535616e+18,1.246119261,0.2505585849,0.8794767261
877,1.55965356165e+18,1.939451337,-0.2497400343,0.9827129245
878,1.5596535617e+18,2.530768871,-0.3957368433,1.332738757
879,1.55965356175e+18,3.245481253,-2.291862488,0.9033004642
880,1.5596535618e+18,3.426908255,-1.819052815,0.6461262107
881,1.55965356186e+18,3.153851509,-2.10554862,0.1122299954
882,1.55965356191e+18,2.758010626,-1.477579236,-0.9891600609
883,1.55965356196e+18,1.346301198,0.1106704548,-1.124161243
884,1.55965356201e+18,-0.7336949706,0.6280732751,-1.262827635
885,1.55965356206e+18,-2.978013992,0.4606962204,-2.212112188
886,1.55965356212e+18,-4.119110584,0.4545875788,-1.832154036
887,1.55965356217e+18,-4.61452198,-1.31081295,-1.243280053
888,1.55965356222e+18,-3.379352331,-0.02249816619,0.4304907918
889,1.55965356227e+18,-1.334175587,2.171729803,0.6192481518
890,1.55965356232e+18,-0.5150051713,2.039171934,0.6546783447
891,1.55965356238e+18,0.8234004974,1.358668208,0.7133213878
892,1.55965356243e+18,1.548497558,0.8198850155,0.9717174172
893,1.55965356248e+18,2.351174593,-0.6480241418,1.128098845
894,1.55965356253e+18,3.099484444,-1.460474968,0.9833238721
895,1.55965356258e+18,3.467836142,-1.407329679,1.061514497
896,1.55965356264e+18,3.357269526,-1.496515989,0.8324401379
897,1.55965356269e+18,2.80626893,-1.448868513,0.4628666341
898,1.55965356274e+18,1.67677927,-0.1611645818,0.1549905688
899,1.55965356279e+18,-0.02631301992,-0.1336756498,-0.5194046497
900,1.55965356284e+18,-1.233993649,1.185793281,-0.2286328077
901,1.55965356289e+18,-2.955411911,-0.6443589926,-1.503508568
902,1.55965356295e+18,-5.073892593,-0.3676370382,-1.295203447
903,1.559653563e+18,-5.67437315,-1.470859647,-1.228619218
904,1.55965356305e+18,-5.237604618,-0.9986608028,0.2154662162
905,1.5596535631e+18,-2.759935141,0.2701062858,0.536781311
906,1.55965356315e+18,-0.9627694488,2.301843882,1.695592642
907,1.55965356321e+18,0.416564256,0.2420064807,1.914282441
908,1.55965356326e+18,1.861260653,-0.7646994591,2.024849176
909,1.55965356331e+18,3.17706418,-2.693200827,1.590523958
910,1.55965356336e+18,4.203317642,-1.062190771,1.109772921
911,1.55965356341e+18,4.294336796,-1.741473079,0.4665318429
912,1.55965356347e+18,3.430573463,-0.7439299822,0.06946942955
913,1.55965356352e+18,1.976714134,0.3440209627,0.1000126898
914,1.55965356357e+18,0.7372685671,1.345839977,0.1574340165
915,1.55965356362e+18,0.134344548,0.07646200806,0.2417334318
916,1.55965356367e+18,-2.201604366,-0.9223026633,-1.004431725
917,1.55965356373e+18,-4.411103725,-0.645580709,-1.567649364
918,1.55965356378e+18,-6.196051598,-1.564321995,-2.483336449
919,1.55965356383e+18,-5.968810081,0.897464931,-1.605523109
920,1.55965356388e+18,-2.034837961,0.2652193606,-0.6153104901
921,1.55965356393e+18,-0.2682156563,2.615828753,0.6937736869
922,1.55965356399e+18,0.4238946438,2.391641378,1.591134787
923,1.55965356404e+18,1.442206979,-0.6681827307,1.241719842
924,1.55965356409e+18,2.230223179,-0.1764362007,1.343734384
925,1.55965356414e+18,2.795884609,-1.037756205,1.511111498
926,1.55965356419e+18,3.001135349,-1.938782454,1.105496883
927,1.55965356425e+18,2.81298852,-0.9675067067,1.052962542
928,1.5596535643e+18,2.197847366,0.5358326435,1.117103219
929,1.55965356435e+18,2.250992775,-1.161151052,0.3535217643
930,1.5596535644e+18,0.9559583068,-0.3725239635,-0.08935553581
931,1.55965356445e+18,-1.715966344,0.5340000391,-1.099115849
932,1.55965356451e+18,-4.01159811,-0.6749022007,-1.855977774
933,1.55965356456e+18,-5.390320778,-0.9620088935,-2.490055799
934,1.55965356461e+18,-4.709206104,2.240757465,-1.421041727
935,1.55965356466e+18,-2.4123528,0.2389521599,-1.614075184
936,1.55965356471e+18,-0.345795542,1.801545382,0.8428248167
937,1.55965356477e+18,0.6267018914,-0.2851702273,0.8947483301
938,1.55965356482e+18,1.410441995,0.3745642304,1.137261868
939,1.55965356487e+18,2.129430532,0.07951632887,0.7218735218
940,1.55965356492e+18,2.596131563,-0.6413046718,0.7658558488
941,1.55965356497e+18,2.870409966,-0.8661031127,0.7212626338
942,1.55965356503e+18,2.708530664,-0.4146736562,0.8471009135
943,1.55965356508e+18,2.541764498,-0.7646994591,0.7646340728
944,1.55965356513e+18,2.538710117,-1.462307453,0.1549905688
945,1.55965356518e+18,1.507569551,-0.2760072351,0.1525471061
946,1.55965356523e+18,-0.6054132581,-0.1807122678,-0.4192227721
947,1.55965356529e+18,-2.824075937,0.2603324354,-0.9635037184
948,1.55965356534e+18,-4.117888451,-0.4195605814,-1.397828817
949,1.55965356539e+18,-4.0616889,-1.079905868,-1.073459506
950,1.55965356544e+18,-3.831392527,-0.2650116682,0.5740441084
951,1.55965356549e+18,-1.888230324,1.240771174,0.2014163136
952,1.55965356555e+18,-0.6103001833,0.8999083042,0.9179612398
953,1.5596535656e+18,0.583330512,-0.6132048368,0.9283459187
954,1.55965356565e+18,1.80933702,-0.2912788689,1.012034535
955,1.5596535657e+18,2.634615898,-0.6058744788,1.06334722
956,1.55965356575e+18,2.975478649,-1.067688584,0.9967628717
957,1.55965356581e+18,3.00480032,-0.8453336954,0.9656087756
958,1.55965356586e+18,2.702422142,-0.9852218032,0.7890686393
959,1.55965356591e+18,2.440971613,-1.365179896,0.6467370391
960,1.55965356596e+18,2.034746408,-0.704223752,0.8012859821
961,1.55965356601e+18,0.8796001673,-0.04387845099,0.4592014551
962,1.55965356607e+18,-1.264536858,0.6005843878,-0.634858191
963,1.55965356612e+18,-3.094689131,-0.05304142833,-1.483349919
964,1.55965356617e+18,-4.522891998,0.9561079741,-1.300090432
965,1.55965356622e+18,-4.372008324,0.4380942285,-1.068572521
966,1.55965356627e+18,-3.459986687,1.668376803,0.2808288038
967,1.55965356633e+18,-1.660377622,0.11555738,0.4023909867
968,1.55965356638e+18,-0.1863597035,-0.8606052995,0.4359885752
969,1.55965356643e+18,1.284603715,1.812541008,0.8525986671
970,1.55965356648e+18,2.452578068,0.1149465069,0.9265133739
971,1.55965356653e+18,3.017017603,-0.4580450654,0.666895628
972,1.55965356659e+18,3.18989253,-0.4775927663,0.5752658844
973,1.55965356664e+18,3.155683994,-0.8251751065,0.3101503253
974,1.55965356669e+18,2.696313381,-0.8661031127,0.08535192162
975,1.55965356674e+18,2.166693211,-0.4855340123,-0.01482997555
976,1.55965356679e+18,1.834993362,0.3153102994,0.9283459187
977,1.55965356685e+18,0.6993948817,-0.3206003904,-0.1034054309
978,1.5596535669e+18,-2.171671867,0.1125030518,-0.9665580392
979,1.55965356695e+18,-4.621851921,0.7985047102,-1.449141622
980,1.559653567e+18,-5.908334255,-0.6999477744,-2.312905073
981,1.55965356705e+18,-5.317017078,0.8162198067,-1.917675138
982,1.55965356711e+18,-2.679300785,1.464347959,-0.2866650224
983,1.55965356716e+18,-0.8931307793,1.276201248,0.4146082997
984,1.55965356721e+18,0.3554777503,0.1858068854,0.9014679193
985,1.55965356726e+18,1.324920893,0.2542237937,0.8947483301
986,1.55965356731e+18,1.951668739,0.5651541948,1.189796209
987,1.55965356737e+18,2.546651363,-1.855093837,0.9766042829
988,1.55965356742e+18,2.734797955,-1.264998078,0.7957882285
989,1.55965356747e+18,2.344455004,-0.3322068453,0.8489334583
990,1.55965356752e+18,2.365224361,-0.5460097194,0.7206518054
991,1.55965356757e+18,2.331015825,-1.384727716,0.289380908
992,1.55965356763e+18,1.708544254,-0.5618921518,0.5593833327
993,1.55965356768e+18,0.5515654683,0.84493047,1.277760863
994,1.55965356773e+18,-1.066005588,-1.293097854,0.01082636416
995,1.55965356778e+18,-3.461819172,-0.124512665,-0.5224589705
996,1.55965356783e+18,-4.774568558,0.06485556066,-1.147374153
997,1.55965356789e+18,-4.798392296,-0.4556016326,-1.694098473
998,1.55965356794e+18,-3.687228441,-0.5637248158,-0.6611254215
999,1.55965356799e+18,-1.945040822,3.42766881,-0.304380089
1000,1.55965356804e+18,-0.1289383918,1.038574696,0.4927990437
1001,1.55965356809e+18,0.7867485881,-0.902755022,0.4830251932
1002,1.55965356815e+18,1.765965581,0.3751751184,0.6589543819
1003,1.5596535682e+18,2.194792986,0.05019479617,0.9906542301
1004,1.55965356825e+18,2.324296474,-0.70483464,0.9631652832
1005,1.5596535683e+18,2.323074818,-1.086625338,0.8574855924
1006,1.55965356835e+18,2.098276377,-0.496529609,0.8910831809
1007,1.55965356841e+18,2.023750782,-1.233844042,0.4915772974
1008,1.55965356846e+18,1.871034384,-1.025538921,0.0444239527
1009,1.55965356851e+18,1.576597452,-1.619910717,-0.6959447265
1010,1.55965356856e+18,0.2210873961,0.125331223,-1.005042553
1011,1.55965356861e+18,-1.263315201,-0.0005070181214,-1.606133938
1012,1.55965356867e+18,-2.987176657,0.7129836082,-2.061228514
1013,1.55965356872e+18,-3.610870361,0.9377819896,-0.9445669055
1014,1.55965356877e+18,-5.169187546,0.7056531906,-0.6470754743
1015,1.55965356882e+18,-5.167355061,2.209603548,0.155601427
1016,1.55965356887e+18,-1.84669137,-2.294305801,-0.5890433192
1017,1.55965356893e+18,-0.3085327744,0.8492065668,0.8727571964
1018,1.55965356898e+18,1.164263248,2.437456131,0.6290220022
1019,1.55965356903e+18,2.431197643,2.210214376,1.170248628
1020,1.55965356908e+18,3.422631979,-0.8679356575,1.291810751
1021,1.55965356913e+18,3.843518257,-2.172743797,1.215452671
1022,1.55965356919e+18,3.97851944,-1.704820991,0.820833683
1023,1.55965356924e+18,3.757997036,-1.693214655,0.6449044943
1024,1.55965356929e+18,3.062221766,-1.961384416,-0.1528855264
1025,1.55965356934e+18,1.106842041,-0.2631790638,-0.4784766734
1026,1.55965356939e+18,-0.05319108814,-0.3810760677,-1.094839692
1027,1.55965356945e+18,-1.317071319,-0.5234076381,-1.720976591
1028,1.5596535695e+18,-2.693350554,1.976252913,-0.8437740803
1029,1.55965356955e+18,-3.876596689,0.01537547819,-0.6647905707
1030,1.5596535696e+18,-5.122150898,-1.081738472,-0.1486094594
1031,1.55965356965e+18,-6.20032835,1.863242745,0.4634775221
1032,1.55965356971e+18,-3.274894238,0.8400436044,0.1055104733
1033,1.55965356976e+18,-1.299967051,-0.9675067067,0.5942026973
1034,1.55965356981e+18,0.4269489944,1.932881474,0.8080055118
1035,1.55965356986e+18,1.785513282,3.004950047,1.360227704
1036,1.55965356991e+18,2.91866827,-0.4232257605,1.481178999
1037,1.55965356997e+18,3.914989471,-1.861813426,1.474459529
1038,1.55965357002e+18,4.450718403,-2.589354038,0.8910831809
1039,1.55965357007e+18,4.237526417,-1.71154058,0.7066018581
1040,1.55965357012e+18,3.343830585,-1.551493883,0.5282292366
1041,1.55965357017e+18,2.25282526,-0.9094744921,0.3938388526
1042,1.55965357023e+18,1.108063698,-0.1953730285,0.06458250433
1043,1.55965357028e+18,-0.779509902,1.003144622,-0.5236807466
1044,1.55965357033e+18,-1.584630251,0.6195212007,-0.7997918129
1045,1.55965357038e+18,-3.991439104,0.1424354613,-1.657446623
1046,1.55965357043e+18,-5.720798969,-0.5227968097,-1.592083931
1047,1.55965357049e+18,-5.963312626,-0.6205351949,-1.235949636
1048,1.55965357054e+18,-6.026231289,1.421587229,-0.213972047
1049,1.55965357059e+18,-3.791075468,1.336676955,-0.3544710279
1050,1.55965357064e+18,-0.7856185436,-0.1165714115,0.6345197558
1051,1.55965357069e+18,0.7091687918,-0.071367383,1.127488017
1052,1.55965357075e+18,2.218005896,-0.401845485,1.531880856
1053,1.5596535708e+18,3.28640914,-1.194137692,1.795774698
1054,1.55965357085e+18,4.465990067,-2.182517529,1.865413189
1055,1.5596535709e+18,5.28943634,-3.031009436,1.324186683
1056,1.55965357095e+18,4.836785316,-1.686495066,1.249661088
1057,1.559653571e+18,3.619330883,-1.021262765,1.09022522
1058,1.55965357106e+18,1.87225616,1.827812672,1.780502915
1059,1.55965357111e+18,-0.4661359787,-0.5050817132,0.8293858171
1060,1.55965357116e+18,-2.930366516,-0.6956716776,-0.7582529783
1061,1.55965357121e+18,-5.323125362,1.515049696,-1.338575006
1062,1.55965357126e+18,-6.340826988,0.1656483263,-2.110097647
1063,1.55965357132e+18,-5.913221359,0.06057950482,-1.805886865
1064,1.55965357137e+18,-3.566277027,2.186390638,-0.394788146
1065,1.55965357142e+18,-1.254152179,3.209589958,-0.1889265776
1066,1.55965357147e+18,0.03110831231,0.2609432936,0.97416085
1067,1.55965357152e+18,1.240010619,-1.268663168,1.052351594
1068,1.55965357158e+18,2.303527117,-1.043254018,1.242941499
1069,1.55965357163e+18,2.904618502,-1.595476151,0.9362872243
1070,1.55965357168e+18,2.96814847,-0.9119179845,1.058460236
1071,1.55965357173e+18,2.69692421,-1.301650047,0.8324401379
1072,1.55965357178e+18,2.164860487,-1.204522491,0.778073132
1073,1.55965357184e+18,2.129430532,-1.19169426,0.6870542169
1074,1.55965357189e+18,1.539945483,-0.3169352114,0.4921881855
1075,1.55965357194e+18,-0.7599621415,0.4148813486,-0.5236807466
1076,1.55965357199e+18,-2.916316509,1.004977226,-1.130880713
1077,1.55965357204e+18,-4.129494667,0.2829344571,-2.108265162
1078,1.5596535721e+18,-4.241283417,0.1992459148,-1.694098473
1079,1.55965357215e+18,-3.789242983,0.7056531906,-0.6415777206
1080,1.5596535722e+18,-2.235812426,3.17293787,-0.6030932069
1081,1.55965357225e+18,-0.5015661716,1.678150654,0.5489986539
1082,1.5596535723e+18,0.5686697364,-0.001117883483,0.6681173444
1083,1.55965357236e+18,1.358518481,0.7759026885,1.011423588
1084,1.55965357241e+18,1.986487865,-0.4165062606,1.070677638
1085,1.55965357246e+18,2.409206867,-1.255835056,0.9527806044
1086,1.55965357251e+18,2.500225544,-0.9552893639,0.9216264486
1087,1.55965357256e+18,2.343233109,-1.092123151,0.8440465927
1088,1.55965357262e+18,1.952279568,-0.885650754,0.615582943
1089,1.55965357267e+18,1.778182864,-0.4745384455,0.6064199805
1090,1.55965357272e+18,0.8429482579,-0.3865738511,0.4335451126
1091,1.55965357277e+18,-1.188789606,0.1546527594,-0.687392652
1092,1.55965357282e+18,-3.525959969,0.1980241835,-1.631179452
1093,1.55965357288e+18,-4.497235775,0.07646200806,-2.391095638
1094,1.55965357293e+18,-3.971891642,1.176630259,-0.9641145468
1095,1.55965357298e+18,-1.818591714,2.2358706,-0.7063294053
1096,1.55965357303e+18,-0.298148036,1.372717977,0.8574855924
1097,1.55965357308e+18,0.677403748,0.7380290627,0.5575507879
1098,1.55965357314e+18,0.9150303602,0.6940467358,0.7792948484
1099,1.55965357319e+18,1.398224711,-1.251559138,0.709656179
1100,1.55965357324e+18,1.756802559,-1.293708682,0.6980497241
1101,1.55965357329e+18,2.157530308,-1.584480643,0.5563290119
1102,1.55965357334e+18,2.394545794,-1.5857023,0.3852867782
1103,1.5596535734e+18,2.847807884,-2.561254263,-0.5059656501
1104,1.55965357345e+18,1.881419182,0.6256299019,-0.2884976268
1105,1.5596535735e+18,-0.5033987761,0.7930069566,-0.4430465102
1106,1.55965357355e+18,-3.186929703,0.2731606066,-1.320859909
1107,1.5596535736e+18,-4.387891293,0.247504279,-1.895073295
1108,1.55965357366e+18,-3.907750845,0.361736089,-1.595138311
1109,1.55965357371e+18,-2.274297237,-1.035312772,-0.09240985662
1110,1.55965357376e+18,-0.5864764452,0.8687542081,1.054184198
1111,1.55965357381e+18,0.09036224335,0.808889389,0.9766042829
1112,1.55965357386e+18,0.7940790057,0.3373014629,1.048075557
1113,1.55965357392e+18,1.521619558,-1.06585598,0.4818034768
1114,1.55965357397e+18,1.933342695,-0.5808289647,0.8238880038
1115,1.55965357402e+18,2.108661175,-0.8086817861,0.9045222402
1116,1.55965357407e+18,2.144702196,-1.251559138,1.021808386
1117,1.55965357412e+18,1.434876561,-1.78789866,1.13298583
1118,1.55965357418e+18,1.50451529,-1.009656429,1.418870687
1119,1.55965357423e+18,0.7873594761,-0.8966463804,1.073120952
1120,1.55965357428e+18,-0.4032168984,-0.1385625601,0.6913302541
1121,1.55965357433e+18,-1.881510735,0.1302181333,-0.4888614118
1122,1.55965357438e+18,-2.362261772,0.6396797299,-0.3294255733
1123,1.55965357444e+18,-3.998158932,0.8864693046,-0.642799437
1124,1.55965357449e+18,-4.156983852,2.605444193,0.5722115636
1125,1.55965357454e+18,-1.364718795,-0.3963477015,-0.3330907524
1126,1.55965357459e+18,0.7476532459,0.1461006403,0.6271893978
1127,1.55965357464e+18,1.703657389,0.3153102994,0.9228482246
1128,1.5596535747e+18,2.513053656,0.6085256338,1.046242952
1129,1.55965357475e+18,2.857581854,-0.7329344749,0.8690920472
1130,1.5596535748e+18,3.045117378,-0.9088636637,0.6076416969
1131,1.55965357485e+18,2.470293283,-1.01271081,0.5825962424
1132,1.5596535749e+18,1.794065475,-0.4873666167,0.5942026973
1133,1.55965357496e+18,0.4416097701,-0.6382502913,0.3834541738
1134,1.55965357501e+18,-0.3916104436,-0.7463734746,0.4201060832
1135,1.55965357506e+18,-1.097770572,-2.210617542,-0.4711463153
1136,1.55965357511e+18,-3.350030661,0.7239791751,-0.9818296432
1137,1.55965357516e+18,-5.286473751,0.6928250194,-1.289094806
1138,1.55965357522e+18,-5.262650013,-1.276604533,-0.4845853448
1139,1.55965357527e+18,-3.629807234,1.513217092,0.5141793489
1140,1.55965357532e+18,-1.183291793,3.023886681,0.828164041
1141,1.55965357537e+18,-0.09534078836,0.05263825879,1.078618765
1142,1.55965357542e+18,1.168539405,-0.7439299822,0.8806985021
1143,1.55965357548e+18,2.274816513,-0.1574993879,0.9320111871
1144,1.55965357553e+18,3.098873615,-0.892981112,0.5691572428
1145,1.55965357558e+18,3.326726437,-1.550272107,0.4109431207
1146,1.55965357563e+18,3.208218575,-0.6339743137,0.7151539922
1147,1.55965357568e+18,2.690204859,-0.5997658372,1.214841843
1148,1.55965357574e+18,1.846599817,-1.139770746,0.7689101696
1149,1.55965357579e+18,0.1147968546,1.261540532,1.28875649
1150,1.55965357584e+18,-2.06538105,-1.497126818,-0.6562384367
1151,1.55965357589e+18,-4.173477173,-0.4507146776,-1.653781414
1152,1.55965357594e+18,-5.028077602,0.896243155,-2.164464951
1153,1.559653576e+18,-4.043973446,-0.2234728336,-1.097894073
1154,1.55965357605e+18,-2.748939514,2.799088478,-0.4210553467
1155,1.5596535761e+18,-0.3592346013,2.081932545,0.7524167299
1156,1.55965357615e+18,0.6444169879,-0.228970632,0.7646340728
1157,1.5596535762e+18,1.561325788,0.4136596024,0.9130743146
1158,1.55965357626e+18,2.407373905,0.1577070802,1.097555637
1159,1.55965357631e+18,3.080547571,-0.9461264014,0.9778260589
1160,1.55965357636e+18,3.547859669,-0.9876652956,0.6332980394
1161,1.55965357641e+18,3.153851509,-0.2876136899,0.7628014684
1162,1.55965357646e+18,3.261974573,-1.229567885,0.812892437
1163,1.55965357652e+18,2.643779039,-0.892981112,0.5337269902
1164,1.55965357657e+18,0.7140556574,0.3489078879,0.2441768944
1165,1.55965357662e+18,-2.213210583,1.351948619,-0.6134778857
1166,1.55965357667e+18,-3.93279624,1.554755807,-1.810163021
1167,1.55965357672e+18,-4.761129379,-0.9161940217,-3.162618637
1168,1.55965357678e+18,-4.039697647,0.01415374782,-1.965933561
1169,1.55965357683e+18,-2.918760061,1.627448797,-0.9280735254
1170,1.55965357688e+18,-0.9426109195,0.4374833703,0.2796070874
1171,1.55965357693e+18,0.09891435504,-0.7518712878,0.5111250281
1172,1.55965357698e+18,0.8124049902,0.3831163645,0.9704956412
1173,1.55965357704e+18,1.291934252,-0.4904209673,1.363281965
1174,1.55965357709e+18,1.644403458,-1.026760578,1.686429739
1175,1.55965357714e+18,2.092778683,-1.286989212,1.764009595
1176,1.55965357719e+18,2.209453821,-0.9589545727,1.812878728
1177,1.55965357724e+18,1.426935434,-1.181309581,1.411540389
1178,1.5596535773e+18,1.811780572,-0.018832976,0.6760585904
1179,1.55965357735e+18,-0.2999806404,1.282920957,0.3474131227
1180,1.5596535774e+18,-2.350044489,0.1509875655,-0.7594747543
1181,1.55965357745e+18,-3.535733938,-1.558213353,-1.979983568
1182,1.5596535775e+18,-3.934628963,-1.021262765,-1.563984275
1183,1.55965357756e+18,-3.493584156,-0.944904685,-0.7839093208
1184,1.55965357761e+18,-2.166174173,1.760617375,-0.4888614118
1185,1.55965357766e+18,-0.2340072095,2.420962811,0.4518710673
1186,1.55965357771e+18,0.5937151909,0.03064711019,0.1898098737
1187,1.55965357776e+18,1.221684694,0.6738882065,0.5343378782
1188,1.55965357782e+18,1.710376859,0.2059654444,0.907576561
1189,1.55965357787e+18,2.395156622,-0.1434494853,1.244163275
1190,1.55965357792e+18,2.680430889,-1.074408054,1.153755307
1191,1.55965357797e+18,2.632783413,-0.4885883629,1.529437423
1192,1.55965357802e+18,2.206399441,-0.08053036779,1.281426072
1193,1.55965357808e+18,1.522230387,0.6005843878,1.208122134
1194,1.55965357813e+18,0.5283526182,-0.06648045778,0.7982316613
1195,1.55965357818e+18,-1.001864791,-1.481244326,-0.2915519476
1196,1.55965357823e+18,-2.910207748,-1.093955755,-1.162645698
1197,1.55965357828e+18,-4.604137421,-0.03166114539,-1.702650666
1198,1.55965357834e+18,-5.312129974,-0.4556016326,-2.375824213
1199,1.55965357839e+18,-4.111168861,1.025746584,-0.9525080919
1200,1.55965357844e+18,-0.9933126569,2.65981102,-0.8639326692
1201,1.55965357849e+18,0.2333047092,2.234038115,1.50744617
1202,1.55965357854e+18,1.181978345,-0.8025730848,1.689484
1203,1.5596535786e+18,1.922958016,-1.423822999,1.404209971
1204,1.55965357865e+18,2.022529125,-0.755536437,1.364503741
1205,1.5596535787e+18,2.061624289,-1.090290666,1.250882864
1206,1.55965357875e+18,2.008479118,-1.571652412,0.8580964208
1207,1.5596535788e+18,1.734811544,-1.195359468,0.8147250414
1208,1.55965357886e+18,1.125778794,-0.8459445238,0.7737970352
1209,1.55965357891e+18,0.7733095884,-0.8044056892,0.8361052871
1210,1.55965357896e+18,0.07264714688,-0.8960354328,0.1482710391
1211,1.55965357901e+18,-1.875402093,0.9579405785,-0.7570312619
1212,1.55965357906e+18,-2.998172283,1.142421842,-1.458915353
1213,1.55965357912e+18,-2.937085867,0.03553403169,-1.849869132
1214,1.55965357917e+18,-3.783134222,-0.5124121308,-0.831556797
1215,1.55965357922e+18,-1.759948611,-1.832491994,0.1238364354
1216,1.55965357927e+18,1.079964042,0.4997916222,0.5740441084
1217,1.55965357932e+18,1.676168442,1.47717607,0.5923700333
1218,1.55965357938e+18,1.87531054,-0.01028086152,0.7261496186
1219,1.55965357943e+18,2.04757452,-0.2228619754,0.6058091521
1220,1.55965357948e+18,2.192349672,-0.3297633827,0.5557181239
1221,1.55965357953e+18,1.962053299,-0.457434237,0.6772803068
1222,1.55965357958e+18,2.025583267,-1.250948071,0.7982316613
1223,1.55965357964e+18,1.876532197,-0.8361706734,0.3645173311
1224,1.55965357969e+18,1.260779977,-0.09396939725,0.6216915846
1225,1.55965357974e+18,0.3854101598,-0.500194788,0.007772038691
1226,1.55965357979e+18,-1.76055944,0.2505585849,-0.8517153263
1227,1.55965357984e+18,-3.44593668,0.3403557837,-1.159591436
1228,1.5596535799e+18,-3.607815981,-0.2747855186,-0.9390690923
1229,1.55965357995e+18,-4.233952522,0.2975952029,-0.1388356239
1230,1.55965358e+18,-1.871736884,1.636611819,0.2001945972
1231,1.55965358005e+18,-0.4160450399,0.4704701006,0.332752347
1232,1.5596535801e+18,0.5094158053,1.537651658,0.5129575729
1233,1.55965358016e+18,1.06408143,1.028800845,0.4048344493
1234,1.55965358021e+18,1.856984496,-0.02249816619,0.7316473126
1235,1.55965358026e+18,2.461741209,-0.4067323804,0.6760585904
1236,1.55965358031e+18,2.915003061,-0.6767348647,0.7023258209
1237,1.55965358036e+18,2.866133928,-0.8074600101,0.43110165
1238,1.55965358042e+18,2.483121395,-1.213074565,0.1006235555
1239,1.55965358047e+18,1.926012278,-1.137327313,-0.1198987961
1240,1.55965358052e+18,0.2076483667,0.2560563982,-0.5737716556
1241,1.55965358057e+18,-2.080041885,1.056289792,-0.8895890117
1242,1.55965358062e+18,-3.969448328,-0.1788796633,-1.524277925
1243,1.55965358068e+18,-4.66827774,-1.540498257,-1.717311382
1244,1.55965358073e+18,-4.71714735,-0.5771638155,-0.5090199709
1245,1.55965358078e+18,-3.23030138,1.49061501,-0.221913293
1246,1.55965358083e+18,-1.349447131,0.5804258585,0.4378211796
1247,1.55965358088e+18,-0.3952756226,0.5975300074,0.7719644904
1248,1.55965358094e+18,0.7690334916,1.405093908,1.057238579
1249,1.55965358099e+18,1.760467768,-0.566168189,1.012034535
1250,1.55965358104e+18,2.789164782,-0.5313489437,1.001649737
1251,1.55965358109e+18,3.775712252,-1.031036735,0.709656179
1252,1.55965358114e+18,4.167276859,-0.8777095079,0.2020271868
1253,1.5596535812e+18,3.690191269,0.2059654444,0.324200213
1254,1.55965358125e+18,2.546651363,-0.3499219418,0.09451489896
1255,1.5596535813e+18,1.222295523,-0.04387845099,-0.06858611852
1256,1.55965358135e+18,-0.1472643465,0.1192225739,-0.3410319984
1257,1.5596535814e+18,-2.331718445,0.1461006403,-0.9836622477
1258,1.55965358146e+18,-4.149653435,0.1015074775,-1.405159354
1259,1.55965358151e+18,-4.348184586,-1.450700998,-1.781452298
1260,1.55965358156e+18,-3.681730747,-3.944864035,-0.4882505536
1261,1.55965358161e+18,-2.685409307,1.54681468,1.072510123
1262,1.55965358166e+18,-0.5950285792,0.5230045319,0.1604883373
1263,1.55965358172e+18,0.2601827681,1.079502702,-0.03559939563
1264,1.55965358177e+18,1.054918408,1.528488636,0.6125286222
1265,1.55965358182e+18,1.798952341,0.4185465276,0.8336618543
1266,1.55965358187e+18,2.404319763,-0.3334285915,1.128098845
1267,1.55965358192e+18,3.028013229,-0.5026382208,1.197737575
1268,1.55965358198e+18,3.132471085,-0.6223678589,0.7682992816
1269,1.55965358203e+18,2.439139128,0.1473223716,0.6265785694
1270,1.55965358208e+18,1.618747115,-0.0823629573,0.3632956147
1271,1.55965358213e+18,0.9052564502,-1.156264067,0.03892616555
1272,1.55965358218e+18,-0.9035155177,-0.04632190987,-0.3239277899
1273,1.55965358224e+18,-3.114236832,0.4588636458,-0.7955157757
1274,1.55965358229e+18,-3.931574345,-0.748816967,-1.538327932
1275,1.55965358234e+18,-3.481977701,-0.4244475067,-0.8926433325
1276,1.55965358239e+18,-3.045208931,0.94755584,-0.3978424966
1277,1.55965358244e+18,-1.21383512,1.36783123,0.3767346442
1278,1.5596535825e+18,0.2131461501,0.2413956076,0.3657390773
1279,1.55965358255e+18,1.164874315,1.01047492,0.5007402897
1280,1.5596535826e+18,1.545443296,0.6738882065,0.9265133739
1281,1.55965358265e+18,1.942505598,-0.3596957624,1.341901779
1282,1.5596535827e+18,2.299861908,-0.9247461557,1.373666763
1283,1.55965358276e+18,2.721969843,-1.770794511,1.228280783
1284,1.55965358281e+18,2.548483849,-1.001104355,1.100610018
1285,1.55965358286e+18,1.714652896,-0.2033142895,1.412151217
1286,1.55965358291e+18,1.134941816,-0.8099034429,0.470197022
1287,1.55965358296e+18,-0.8570897579,0.1210551709,0.2221857458
1288,1.55965358302e+18,-2.882108212,0.12960729,-1.14187634
1289,1.55965358307e+18,-4.580924511,0.009266825393,-2.166908264
1290,1.55965358312e+18,-4.891243458,-0.4439951777,-2.022133112
1291,1.55965358317e+18,-2.883329868,0.2646085024,-0.3196517229
1292,1.55965358322e+18,-1.50888288,1.840640903,-0.7032750845
1293,1.55965358328e+18,-0.2456136495,2.554742098,1.080451369
1294,1.55965358333e+18,0.8295091987,-0.8215098977,0.6302437186
1295,1.55965358338e+18,1.692661762,-0.2656225264,0.5392248034
1296,1.55965358343e+18,2.11049366,-0.0005070181214,0.9698848128
1297,1.55965358348e+18,2.392713308,-0.8893159628,1.113438129
1298,1.55965358354e+18,2.525882006,-0.9907196164,1.16291821
1299,1.55965358359e+18,2.382939339,-0.461099416,1.279593468
1300,1.55965358364e+18,2.28947711,-1.25766778,1.74568367
1301,1.55965358369e+18,2.143480301,-2.366388083,-0.1712114662
1302,1.55965358374e+18,0.2656805813,0.7361964583,-1.240225673
1303,1.5596535838e+18,-1.896782398,1.625616193,-2.063672066
1304,1.55965358385e+18,-4.120332241,-0.7982970476,-2.052676439
1305,1.5596535839e+18,-5.383601189,0.2267348468,-1.306199074
1306,1.55965358395e+18,-3.794740677,1.00070107,0.02854145691
1307,1.559653584e+18,-1.300577879,-1.553937435,-0.4125032425
1308,1.55965358406e+18,-0.04402811453,2.066660881,0.5489986539
1309,1.55965358411e+18,0.7855269313,1.989691854,0.6015330553
1310,1.55965358416e+18,1.429989696,0.8614238501,0.4036127329
1311,1.55965358421e+18,1.847210646,0.4179356694,0.5887048841
1312,1.55965358426e+18,2.16058445,0.00865595974,0.565492034
1313,1.55965358432e+18,2.340178967,-0.4592668116,0.4439298213
1314,1.55965358437e+18,2.259544611,-1.096399307,0.1659861356
1315,1.55965358442e+18,1.823386908,-1.36029315,-0.182817921
1316,1.55965358447e+18,0.484981209,0.1363268048,-0.1449442804
1317,1.55965358452e+18,-0.7446905375,0.006212499458,-0.7997918129
1318,1.55965358458e+18,-1.86318481,-0.2698985934,-1.067350864
1319,1.55965358463e+18,-2.369591951,-0.1080192998,-0.7356509566
1320,1.55965358468e+18,-3.149056196,-0.2399661988,0.2362356484
1321,1.55965358473e+18,-2.189386845,1.882179737,-0.1706006229
1322,1.55965358478e+18,-0.6506173015,0.6378471851,-0.2982714474
1323,1.55965358483e+18,0.3414278626,0.7190922499,-0.2255784869
1324,1.55965358489e+18,1.213743448,1.69586575,0.2014163136
1325,1.55965358494e+18,1.79284358,0.08623585105,0.5447226167
1326,1.55965358499e+18,2.123321772,-0.1220691949,0.8800876141
1327,1.55965358504e+18,2.195403814,-0.4885883629,1.077397108
1328,1.55965358509e+18,1.965718508,-0.4342213571,1.071288466
1329,1.55965358515e+18,1.272386432,-0.2668442726,1.173913836
1330,1.5596535852e+18,0.5949369669,-0.6920064688,0.9289568663
1331,1.55965358525e+18,-0.07640396804,-0.78424716,0.5147902369
1332,1.5596535853e+18,-1.72085309,0.0135428831,-0.6183648705
1333,1.55965358535e+18,-3.442271471,-0.3248764575,-0.9152453542
1334,1.55965358541e+18,-3.969448328,-1.353573442,-1.15836978
1335,1.55965358546e+18,-2.738554716,-1.302260876,-0.2310762852
1336,1.55965358551e+18,-2.002462149,2.295735359,-0.1449442804
1337,1.55965358556e+18,-0.4807967544,2.720286846,0.8086163998
1338,1.55965358561e+18,0.4672660828,-0.8410575986,0.4995185435
1339,1.55965358567e+18,1.279716969,-0.2222511023,0.6858324409
1340,1.55965358572e+18,1.6700598,0.1436571777,1.212398291
1341,1.55965358577e+18,1.799563289,-0.6724588275,1.225226402
1342,1.55965358582e+18,1.990153193,-1.260111213,0.9314002395
1343,1.55965358587e+18,1.800174117,-0.7891340256,0.4402646124
1344,1.55965358593e+18,1.191141367,0.2169610113,0.4732513428
1345,1.55965358598e+18,0.85883075,-1.04264307,0.1782034487
1346,1.55965358603e+18,-0.5076748133,0.03309056908,-1.275044918
1347,1.55965358608e+18,-2.441674232,0.5865345001,-1.484571815
1348,1.55965358613e+18,-3.626752615,0.4258769155,-1.665998816
1349,1.55965358619e+18,-2.494208574,-0.7372105122,-1.16508925
1350,1.55965358624e+18,-2.449615479,-1.707264543,0.04747828096
1351,1.55965358629e+18,-1.219943762,3.139951229,0.2637245655
1352,1.55965358634e+18,0.01094975974,1.383713603,0.4665318429
1353,1.55965358639e+18,0.9559583068,-0.6168700457,0.3205350339
1354,1.55965358645e+18,1.54422152,0.9316733479,0.632687211
1355,1.5596535865e+18,1.844767213,-1.12877512,0.6180264354
1356,1.55965358655e+18,2.043909311,-1.348686695,0.5178445578
1357,1.5596535866e+18,1.665783644,-0.6070961952,0.6956063509
1358,1.55965358665e+18,1.261390924,-0.6046527624,0.8110598326
1359,1.55965358671e+18,0.7598705292,-0.4183388352,0.9778260589
1360,1.55965358676e+18,0.7024492025,-1.23140049,0.470197022
1361,1.55965358681e+18,-0.538828969,-0.9571220279,0.2539507151
1362,1.55965358686e+18,-2.481380463,0.1760330349,0.1653752774
1363,1.55965358691e+18,-3.266342402,-0.1092410386,-0.4992461205
1364,1.55965358697e+18,-2.113028765,-1.124499083,-0.6751753092
1365,1.55965358702e+18,-2.020788193,0.1638157368,-0.5505588055
1366,1.55965358707e+18,-0.5944177508,4.558380604,0.6192481518
1367,1.55965358712e+18,-0.003100140952,0.8211067319,0.6174155474
1368,1.55965358717e+18,0.6315888762,-1.249115586,0.4072779119
1369,1.55965358723e+18,1.01765573,0.8632563949,0.8452683091
1370,1.55965358728e+18,1.376233697,-0.2918897271,0.6809455752
1371,1.55965358733e+18,1.783680677,-0.7280475497,0.9717174172
1372,1.55965358738e+18,2.166082382,-1.172757387,0.8770332932
1373,1.55965358743e+18,2.294974804,-1.259500265,0.864205122
1374,1.55965358749e+18,2.137982368,-0.9461264014,1.06701231
1375,1.55965358754e+18,1.685331464,-0.6584088802,0.9014679193
1376,1.55965358759e+18,0.4489401579,-0.5020273924,0.3150372505
1377,1.55965358764e+18,-1.602345347,0.1057835296,-0.8394980431
1378,1.55965358769e+18,-3.499082088,-0.1074084416,-1.286040545
1379,1.55965358774e+18,-3.697002172,0.2206262052,-1.386222363
1380,1.5596535878e+18,-3.244351149,0.3489078879,-0.7949048877
1381,1.55965358785e+18,-1.948705912,2.619493961,-0.5499479175
1382,1.5596535879e+18,-0.7935597301,0.9316733479,0.4659209549
1383,1.55965358795e+18,0.09891435504,-1.196581125,0.4549253881
1384,1.559653588e+18,1.03781426,0.7050423622,0.7127104998
1385,1.55965358806e+18,1.627910018,-0.03960239515,0.6998823881
1386,1.55965358811e+18,2.098276377,-0.3401480913,0.7194300294
1387,1.55965358816e+18,2.134928226,-0.4226149023,0.6308546066
1388,1.55965358821e+18,2.138593435,-0.7732515335,0.4408755004
1389,1.55965358826e+18,1.991985679,-0.6938390732,0.09756922722
1390,1.55965358832e+18,1.889971256,-0.9662849903,-0.2829998136
1391,1.55965358837e+18,1.204580426,0.2994278371,-0.1174553409
1392,1.55965358842e+18,-0.1857488602,0.9243429303,-1.317805529
1393,1.55965358847e+18,-1.957258105,0.4252660573,-2.268311739
1394,1.55965358852e+18,-2.928533792,-1.07562983,-2.320235252
1395,1.55965358858e+18,-3.205255747,0.4832982421,-1.205406427
1396,1.55965358863e+18,-4.390945435,1.716635108,-0.685559988
1397,1.55965358868e+18,-1.622503877,-0.2784507275,0.04625654966
1398,1.55965358873e+18,0.271178335,-1.488574743,0.2429551482
1399,1.55965358878e+18,1.414718151,1.38127017,0.6461262107
1400,1.55965358884e+18,2.693869829,-0.3780217171,0.4530928135
1401,1.55965358889e+18,3.461116791,-1.152598858,0.4524819255
1402,1.55965358894e+18,3.310232878,0.0007147123106,0.4885229766
1403,1.55965358899e+18,2.272983551,0.1045618057,0.6436827183
1404,1.55965358904e+18,1.24978447,0.2988169491,0.4005583823
1405,1.5596535891e+18,1.376844525,-0.9021440744,-0.1461659968
1406,1.55965358915e+18,0.2143678963,0.6677795649,-0.4515986443
1407,1.5596535892e+18,-2.390361547,-0.04632190987,-1.215180159
1408,1.55965358925e+18,-4.08856678,0.05996863917,-1.489458561
1409,1.5596535893e+18,-3.816121101,-0.1312321723,-1.573758006
1410,1.55965358936e+18,-1.802098274,1.386157155,-0.1651028246
1411,1.55965358941e+18,-0.9536064267,2.520534039,-0.4351052642
1412,1.55965358946e+18,-0.7318623662,0.9835968614,0.7487515807
1413,1.55965358951e+18,0.02744312026,-0.6187026501,0.5172336698
1414,1.55965358956e+18,0.9730625153,-0.7726407051,0.761579752
1415,1.55965358962e+18,1.629131794,-1.089679837,0.8733680844
1416,1.55965358967e+18,2.448302031,-0.1526124626,1.709642529
1417,1.55965358972e+18,2.841699123,-0.06831305474,1.896567345
1418,1.55965358977e+18,2.49778223,-0.4983621836,1.704144716
1419,1.55965358982e+18,1.687163949,-1.000493407,1.609460711
1420,1.55965358988e+18,0.8380612731,-1.021873713,1.260656595
1421,1.55965358993e+18,0.3078302741,-1.2277354,0.9485045075
1422,1.55965358998e+18,-0.9682672024,0.04775133356,0.1617100835
1423,1.55965359003e+18,-2.602331877,0.2096306235,-1.075291991
1424,1.55965359008e+18,-3.510688543,-0.6950607896,-1.453417659
1425,1.55965359014e+18,-3.981054783,0.4136596024,-1.072848678
1426,1.55965359019e+18,-4.26693964,2.859564066,-0.6635688543
1427,1.55965359024e+18,-1.716577172,2.039171934,0.6051982641
1428,1.55965359029e+18,0.01889100857,-2.114100933,-0.01910603233
1429,1.55965359034e+18,1.112950683,1.438691497,0.4359885752
1430,1.5596535904e+18,1.513678193,0.9481666684,0.7603580356
1431,1.55965359045e+18,1.712820292,-0.8642704487,0.8617616296
1432,1.5596535905e+18,2.219227552,-1.442759871,0.7041584253
1433,1.55965359055e+18,2.512442827,-1.622965097,0.4427081048
1434,1.5596535906e+18,2.426311016,-1.077462435,0.1140625924
1435,1.55965359066e+18,1.995040059,0.04164268449,-0.02521468513
1436,1.55965359071e+18,1.422659278,-0.1367299706,0.1586557478
1437,1.55965359076e+18,0.3389844,-0.5570052266,-0.3245386779
1438,1.55965359081e+18,-1.65426898,-0.1526124626,-1.169976234
1439,1.55965359086e+18,-3.255957603,0.1021183431,-2.144917011
1440,1.55965359092e+18,-3.915081024,-0.2576812804,-2.047789574
1441,1.55965359097e+18,-4.220513821,-1.500792146,-1.730139494
1442,1.55965359102e+18,-3.014055014,-0.4501038492,0.08718451858
1443,1.55965359107e+18,-0.2101834565,0.9835968614,0.5954243541
1444,1.55965359112e+18,0.3933514059,1.398985267,0.7475298643
1445,1.55965359118e+18,1.207023978,1.668987632,1.07006669
1446,1.55965359123e+18,2.003592253,-1.318143368,0.7438646555
1447,1.55965359128e+18,2.827038527,-0.3841303885,1.048075557
1448,1.55965359133e+18,3.184394836,-0.8850399256,1.087781787
1449,1.55965359138e+18,3.014574289,-1.644345284,0.6595652699
1450,1.55965359144e+18,2.101330519,-1.107394934,0.4653101265
1451,1.55965359149e+18,1.688996553,-1.429320812,0.2563942075
1452,1.55965359154e+18,0.417175144,0.1742004454,-0.5071873665
1453,1.55965359159e+18,-1.821035147,0.04714047164,-1.027033687
1454,1.55965359164e+18,-3.670735121,0.5559912324,-1.323303342
1455,1.5596535917e+18,-3.937683105,0.01904067025,-1.967766166
1456,1.55965359175e+18,-3.058037281,-0.2698985934,-0.7869636416
1457,1.5596535918e+18,-1.870515108,2.271300793,-0.3379776776
1458,1.55965359185e+18,-0.1405448169,1.511384487,0.8018968701
1459,1.5596535919e+18,0.7134447694,-0.6852869987,0.5557181239
1460,1.55965359196e+18,1.512456536,0.1344942003,0.9417849779
1461,1.55965359201e+18,1.878364921,-1.015154123,0.7298147678
1462,1.55965359206e+18,2.22350359,-0.756147325,0.7597471476
1463,1.55965359211e+18,2.41531539,-0.3841303885,0.8299966455
1464,1.55965359216e+18,2.263820887,-0.7732515335,0.6546783447
1465,1.55965359221e+18,1.999927044,-0.5857159495,0.5160118937
1466,1.55965359227e+18,1.571099639,-0.3761891425,0.3443588018
1467,1.55965359232e+18,0.8832653165,-0.2870028019,0.02915232256
1468,1.55965359237e+18,0.2204765379,-0.3303742409,-0.3385885656
1469,1.55965359242e+18,-1.306075692,0.05263825879,-0.97633183
1470,1.55965359247e+18,-2.692739725,-0.1874317825,-1.516336799
1471,1.55965359253e+18,-3.696391344,1.177241206,-1.248166919
1472,1.55965359258e+18,-4.213183403,0.3550165296,-1.117441773
1473,1.55965359263e+18,-5.342062473,1.304911971,-0.1516637951
1474,1.55965359268e+18,-1.507050395,-0.4079541266,-0.4790875614
1475,1.55965359273e+18,-0.06663012505,0.3763968647,0.6901085377
1476,1.55965359279e+18,1.101344228,1.261540532,0.6106960177
1477,1.55965359284e+18,2.27603817,0.6610600352,0.8672594428
1478,1.55965359289e+18,3.166068792,-0.2198076546,0.9265133739
1479,1.55965359294e+18,3.427519083,-0.9247461557,0.9344545603
1480,1.55965359299e+18,3.540529013,-1.018208504,0.9649978876
1481,1.55965359305e+18,3.0811584,-0.3322068453,0.9992063642
1482,1.5596535931e+18,2.506334305,-0.8526640534,0.5031837225
1483,1.55965359315e+18,1.657231569,-1.043254018,-0.05209275335
1484,1.5596535932e+18,0.4122882485,-0.6901738644,-0.7258771658
1485,1.55965359325e+18,-1.985357881,1.571249247,-0.6776188016
1486,1.55965359331e+18,-4.358569145,0.6091364622,-1.399661541
1487,1.55965359336e+18,-5.547924042,-1.260722041,-2.119260788
1488,1.55965359341e+18,-4.799614429,-0.6687935591,-0.8798151612
1489,1.55965359346e+18,-3.3200984,0.6580057144,0.7230952382
1490,1.55965359351e+18,-1.378768682,1.750843644,1.225837231
1491,1.55965359357e+18,-0.3616780341,-0.2332466692,0.9967628717
1492,1.55965359362e+18,0.7397119999,0.361736089,0.950948
1493,1.55965359367e+18,1.22962594,1.242603779,1.176968098
1494,1.55965359372e+18,1.608973265,-1.043864846,1.349843025
1495,1.55965359377e+18,2.085448265,-2.491615534,1.032804012
1496,1.55965359383e+18,2.271761894,-1.779957533,0.9882107377
1497,1.55965359388e+18,1.178924084,-0.7805818915,1.114659905
1498,1.55965359393e+18,1.348744631,-1.442759871,-0.01544084027
1499,1.55965359398e+18,0.0592081137,-0.303496182,0.4201060832
1500,1.55965359403e+18,-1.932212472,-0.03776979819,-1.019703269
1501,1.55965359409e+18,-3.784355879,-0.06648045778,-1.753963351
1502,1.55965359414e+18,-4.258387089,-0.4378865361,-2.168740749
1503,1.55965359419e+18,-3.736097574,-1.194137692,-1.061853051
1504,1.55965359424e+18,-1.64144063,3.321989059,-0.8688195944
1505,1.55965359429e+18,1.095846415,1.854690671,1.099388242
1506,1.55965359435e+18,1.571710467,-0.3761891425,1.059682012
1507,1.5596535944e+18,1.769630909,1.091109157,1.400544763
1508,1.55965359445e+18,2.063457012,0.2884322405,1.032193065
1509,1.5596535945e+18,2.334070206,-0.2149207145,0.9204047322
1510,1.55965359455e+18,2.317576885,-1.084182024,0.710877955
1511,1.55965359461e+18,2.045742035,-0.8544966578,0.5923700333
1512,1.55965359466e+18,1.328586102,-0.2882245481,0.4133865535
1513,1.55965359471e+18,1.142272234,-1.051806211,0.1458275914
1514,1.55965359476e+18,-0.2059074044,-2.032244921,-0.1211205274
1515,1.55965359481e+18,-2.783758879,-0.09763459116,-0.5212372541
1516,1.55965359487e+18,-4.130105972,0.8620347381,-1.134546041
1517,1.55965359492e+18,-3.607205153,-0.516688168,-1.832154036
1518,1.55965359497e+18,-2.331718445,0.4222117364,-0.620197475
1519,1.55965359502e+18,-0.9902583361,2.249920607,0.1024561524
1520,1.55965359507e+18,0.3029433489,0.9017409682,0.9857672453
1521,1.55965359513e+18,1.136163592,0.1070052609,0.4897447228
1522,1.55965359518e+18,1.747639656,1.514438868,0.7548602223
1523,1.55965359523e+18,2.089113235,0.1998567879,0.8605399132
1524,1.55965359528e+18,2.353617907,-0.4696515203,0.7591363192
1525,1.55965359533e+18,2.561923027,-0.6156483293,0.8489334583
1526,1.55965359539e+18,2.555203676,-1.008434653,0.5789310336
1527,1.55965359544e+18,2.403708935,-1.253391623,0.3266437054
1528,1.55965359549e+18,1.751304865,-1.030425787,-0.2982714474
1529,1.55965359554e+18,0.7861377597,-0.9760588408,-1.15836978
1530,1.55965359559e+18,-1.102657557,0.5358326435,-1.829710603
1531,1.55965359565e+18,-3.021385193,1.16624558,-1.69165504
1532,1.5596535957e+18,-4.050082207,-0.7683646083,-1.975096583
1533,1.55965359575e+18,-4.014652252,-2.493448019,-0.4558746815
1534,1.5596535958e+18,-3.079417467,-0.5973224044,0.9546131492
1535,1.55965359585e+18,-1.675038338,0.1790873557,0.8477117419
1536,1.55965359591e+18,-1.328677773,1.327514052,1.029749632
1537,1.55965359596e+18,-0.1790293306,1.982972383,0.8220553994
1538,1.55965359601e+18,0.8472242951,1.706861377,0.7224843502
1539,1.55965359606e+18,1.685942292,0.8644781709,0.9320111871
1540,1.55965359611e+18,2.893012047,0.07890546322,1.24233067
1541,1.55965359617e+18,4.469044209,-1.58264792,0.8202228546
1542,1.55965359622e+18,4.756761551,-2.34745121,0.1928642094
1543,1.55965359627e+18,3.389645576,-0.9204701185,0.6290220022
1544,1.55965359632e+18,1.756802559,-0.5893810987,0.8391596079
1545,1.55965359637e+18,0.437944591,-0.3725239635,0.2191314101
1546,1.55965359643e+18,-2.125246048,-0.2112555206,-0.3404211402
1547,1.55965359648e+18,-4.376284599,0.4533658326,-1.235338688
1548,1.55965359653e+18,-5.980416298,-0.4171171188,-2.299466133
1549,1.55965359658e+18,-5.8038764,-2.244215012,-1.855977774
1550,1.55965359663e+18,-4.690268993,-2.444578886,-0.09851851314
1551,1.55965359669e+18,-1.475896239,0.5285022855,0.4158300161
1552,1.55965359674e+18,-0.3604562879,2.542524815,1.798828959
1553,1.55965359679e+18,0.1215163693,1.300025105,1.465907335
1554,1.55965359684e+18,1.573543072,0.353794843,1.16597259
1555,1.55965359689e+18,2.537488461,-0.3535871208,0.8623725176
1556,1.55965359695e+18,3.911935329,-0.2008708119,0.9821020961
1557,1.559653597e+18,4.974229813,-1.150766253,0.4323233962
1558,1.55965359705e+18,4.756150723,-1.414659977,0.1995837241
1559,1.5596535971e+18,3.725010395,-2.492837191,0.6449044943
1560,1.55965359715e+18,2.256490469,-0.0958019942,-0.1131792814
1561,1.55965359721e+18,-0.9517738819,1.200454116,-0.3104887307
1562,1.55965359726e+18,-3.184486389,1.113711238,-1.226175785
1563,1.55965359731e+18,-4.686604023,-0.3322068453,-2.21455574
1564,1.55965359736e+18,-5.174685478,-1.661449552,-1.770456672
1565,1.55965359741e+18,-3.845442533,-0.8966463804,-0.1999221444
1566,1.55965359747e+18,-1.54186976,1.659824729,0.2331813276
1567,1.55965359752e+18,0.05493205786,0.6989337206,0.9271242023
1568,1.55965359757e+18,0.8453916907,0.471691817,0.7750188112
1569,1.55965359762e+18,1.73297894,1.510162711,0.9277350903
1570,1.55965359767e+18,2.342011452,0.5370543599,1.153755307
1571,1.55965359773e+18,2.900342226,-0.461099416,0.9503371119
1572,1.55965359778e+18,3.27907896,-1.236287355,0.6473479867
1573,1.55965359783e+18,2.864301205,-0.7622559667,0.6168046594
1574,1.55965359788e+18,1.746417999,0.2768258154,1.163529038
1575,1.55965359793e+18,0.480094254,0.6109691262,1.584415317
1576,1.55965359799e+18,-0.1655903012,-0.01944383979,1.15314436
1577,1.55965359804e+18,-1.525987148,-1.044475675,-0.1657136828
1578,1.55965359809e+18,-3.48869729,0.4142704904,-0.6489080787
1579,1.55965359814e+18,-4.520448685,-0.7750841379,-1.76129365
1580,1.55965359819e+18,-4.893076897,-1.577150226,-1.822380304
1581,1.55965359825e+18,-4.120332241,-0.7231605649,-0.1754875332
1582,1.5596535983e+18,-1.260871649,1.774667382,0.2887700498
1583,1.55965359835e+18,0.6114302874,-0.645580709,1.023030043
1584,1.5596535984e+18,1.434265733,-0.6046527624,1.190407157
1585,1.55965359845e+18,1.876532197,0.5089545846,1.167194247
1586,1.55965359851e+18,1.864314914,-0.3132700324,0.8464899659
1587,1.55965359856e+18,2.065900326,-0.8697682619,0.7511950731
1588,1.55965359861e+18,2.0310812,-0.3487001956,0.674225986
1589,1.55965359866e+18,1.909518957,-0.560670495,0.7493624091
1590,1.55965359871e+18,2.059180975,-1.023095489,0.5471660495
1591,1.55965359877e+18,1.670670629,-0.543566227,0.4427081048
1592,1.55965359882e+18,0.6352540255,0.4576418996,0.1696513146
1593,1.55965359887e+18,-1.447796345,0.614023447,-1.33735323
1594,1.55965359892e+18,-3.21747303,0.707485795,-1.820547581
1595,1.55965359897e+18,-3.800849438,1.697698355,-2.294579029
1596,1.55965359903e+18,-3.670124292,1.042240024,-1.931114316
1597,1.55965359908e+18,-2.070878983,2.131412506,-0.9244083166
1598,1.55965359913e+18,-0.2914285362,-0.1709384173,0.4592014551
1599,1.55965359918e+18,0.5014745593,-0.0823629573,0.2331813276
1600,1.55965359923e+18,1.268110514,2.279242277,0.4561471343
1601,1.55965359929e+18,1.827052116,0.8259936571,0.3339740932
1602,1.55965359934e+18,2.359115839,-0.1043541133,0.3913954198
1603,1.55965359939e+18,2.467238903,-0.2979983687,0.565492034
1604,1.55965359944e+18,2.368278742,-0.4812579751,0.6626195908
1605,1.55965359949e+18,2.272372723,0.4527550042,0.8538203835
1606,1.55965359955e+18,1.781848192,0.04897306859,0.6436827183
1607,1.5596535996e+18,0.9822255373,-0.09763459116,0.718819201
1608,1.55965359965e+18,-0.2278985381,0.2065762877,1.007147551
1609,1.5596535997e+18,-1.694586039,-0.6040418744,0.3217567801
1610,1.55965359975e+18,-3.109349966,-0.7188845277,-1.364231348
1611,1.55965359981e+18,-3.74037385,-0.8606052995,-1.744800329
1612,1.55965359986e+18,-3.930963516,-0.1391734332,-1.309864283
1613,1.55965359991e+18,-2.42579174,1.400207043,-0.5652195215
1614,1.55965359996e+18,-0.6103001833,1.706250429,0.5178445578
1615,1.55965360001e+18,0.1135751158,-1.183142066,1.017532229
1616,1.55965360007e+18,0.96817559,0.412437886,1.584415317
1617,1.55965360012e+18,1.724426746,-0.3419806957,1.949712634
1618,1.55965360017e+18,2.291920662,-1.632739067,1.871521831
1619,1.55965360022e+18,2.585135937,-1.633349895,1.688873172
1620,1.55965360027e+18,2.58757925,-2.159915686,1.244163275
1621,1.55965360033e+18,2.067733049,-2.061566353,0.6027547717
1622,1.55965360038e+18,1.403111696,-2.8996737,0.3571869433
1623,1.55965360043e+18,0.4587139785,0.2933191657,-0.5358980298
1624,1.55965360048e+18,-1.795378804,1.791160822,-1.58902967
1625,1.55965360053e+18,-3.873542309,0.3409666419,-2.065504551
1626,1.55965360059e+18,-5.20095253,-0.3505328,-2.059396029
1627,1.55965360064e+18,-3.603539705,2.01046133,-0.7252662182
1628,1.55965360069e+18,-2.224205971,2.227929354,-1.453417659
1629,1.55965360074e+18,-0.4013842642,0.1283855438,0.6259676218
1630,1.55965360079e+18,0.7861377597,0.3959445059,0.3681825399
1631,1.55965360085e+18,1.312092781,2.282907248,0.7835709453
1632,1.5596536009e+18,1.941283941,0.117389977,0.6094743013
1633,1.55965360095e+18,2.523438454,-1.159929156,0.2692223489
1634,1.559653601e+18,2.872242689,-1.153209686,0.3339740932
1635,1.55965360105e+18,3.05794549,-1.564932823,0.4078887701
1636,1.55965360111e+18,2.717693567,-1.106783986,0.4940207899
1637,1.55965360116e+18,1.91868186,0.4148813486,1.090836048
1638,1.55965360121e+18,0.7568162084,-0.1941513121,0.8544312716
1639,1.55965360126e+18,-1.119150996,-0.07930862904,-0.1455551386
1640,1.55965360131e+18,-3.45937562,0.4356507659,-0.7521443367
1641,1.55965360137e+18,-4.57237196,-0.3028853238,-1.733193994
1642,1.55965360142e+18,-3.247405529,-0.3218221366,-0.9580059052
1643,1.55965360147e+18,-2.613327503,0.361736089,-0.1504420638
1644,1.55965360152e+18,-0.9652128816,2.418519258,0.5361704826
1645,1.55965360157e+18,-0.3097544909,1.211449623,0.5929809809
1646,1.55965360163e+18,0.77269876,0.4301529825,0.5887048841
1647,1.55965360168e+18,1.87531054,-0.4250583351,0.5770984292
1648,1.55965360173e+18,2.441582441,-0.07991950214,0.9802695513
1649,1.55965360178e+18,2.632172585,-0.9143614769,1.019975781
1650,1.55965360183e+18,2.574751139,-0.4672080576,1.200181007
1651,1.55965360189e+18,2.152032375,-0.8917593956,1.15619874
1652,1.55965360194e+18,1.984044552,-0.900922358,1.044410348
1653,1.55965360199e+18,1.714652896,-1.247282982,0.2582267821
1654,1.55965360204e+18,0.4153425694,-0.1587211192,0.1110082641
1655,1.55965360209e+18,-1.901058435,0.7600201964,-0.9311278462
1656,1.55965360215e+18,-3.871098995,0.4338181615,-1.593305826
1657,1.5596536022e+18,-4.800225258,-0.7927992344,-2.038626671
1658,1.55965360225e+18,-3.381185055,-0.6590197682,-0.5071873665
1659,1.5596536023e+18,-2.427624226,1.165023923,-0.1962569654
1660,1.55965360235e+18,-1.330510378,2.324445963,0.9045222402
1661,1.55965360241e+18,-0.2511114478,0.2016893774,0.5825962424
1662,1.55965360246e+18,0.6523582935,1.569416642,0.8067837358
1663,1.55965360251e+18,1.064692259,0.5309457183,0.9045222402
1664,1.55965360256e+18,1.500850081,-1.062190771,0.828164041
1665,1.55965360261e+18,1.910129786,-1.212463617,0.9704956412
1666,1.55965360267e+18,2.153865099,-1.203300714,1.012034535
1667,1.55965360272e+18,2.167915106,-1.208798409,1.047464728
1668,1.55965360277e+18,1.932120919,-0.5618921518,1.194683194
1669,1.55965360282e+18,2.153865099,-1.29431963,0.4097213745
1670,1.55965360287e+18,1.552773714,-0.4525473118,-0.8401089311
1671,1.55965360293e+18,-0.7520209551,0.3739533722,-1.906068683
1672,1.55965360298e+18,-2.883940697,-0.2265271544,-1.910344839
1673,1.55965360303e+18,-4.328636646,0.07035334408,-2.410643578
1674,1.55965360308e+18,-4.504565716,-0.1361191124,-1.388055086
1675,1.55965360313e+18,-2.731835127,1.816206217,-0.686170876
1676,1.55965360319e+18,-0.2217898965,1.424641609,0.4115539491
1677,1.55965360324e+18,0.5686697364,1.376994133,0.6962171793
1678,1.55965360329e+18,1.097679019,0.9255647063,0.7310364842
1679,1.55965360334e+18,1.628520846,-0.03960239515,0.7750188112
1680,1.55965360339e+18,1.915627599,-0.9919412732,0.8263314962
1681,1.55965360345e+18,2.09400034,-0.9772804976,0.8269423246
1682,1.5596536035e+18,2.250992775,-1.001104355,0.6992715001
1683,1.55965360355e+18,1.963886023,-0.6920064688,0.4133865535
1684,1.5596536036e+18,2.090334892,-1.547217727,-0.008721322753
1685,1.55965360365e+18,1.177091599,0.4808548093,-0.4595398903
1686,1.55965360371e+18,-1.08494246,1.450297952,-0.8407197595
1687,1.55965360376e+18,-3.152721405,-0.5350140929,-1.497399926
1688,1.55965360381e+18,-3.923022509,-1.405497074,-1.666609645
1689,1.55965360386e+18,-4.221124649,-1.961384416,-0.5291785002
1690,1.55965360391e+18,-3.85338378,-0.4739275873,0.2557833195
1691,1.55965360396e+18,-1.361664414,-0.0157786496,0.5453334451
1692,1.55965360402e+18,-0.2718808651,1.038574696,0.6174155474
1693,1.55965360407e+18,0.417175144,1.827812672,0.725538671
1694,1.55965360412e+18,1.714042068,-0.2705094516,0.8587073088
1695,1.55965360417e+18,2.274205685,-1.768351078,0.667506516
1696,1.55965360422e+18,2.947989702,-0.8160121441,1.014477968
1697,1.55965360428e+18,3.412247658,-1.115946889,0.8898614645
1698,1.55965360433e+18,3.084823847,-0.9815565944,1.071899295
1699,1.55965360438e+18,2.169747591,-0.8813747168,1.092668653
1700,1.55965360443e+18,0.9614560604,-0.4910317957,0.9900433421
1701,1.55965360448e+18,-0.5681505203,-0.2039251477,0.2991547585
1702,1.55965360454e+18,-2.208323717,0.6347928643,-0.1974786818
1703,1.55965360459e+18,-3.591322422,-0.5203533173,-1.351403117
1704,1.55965360464e+18,-4.397053719,-0.5893810987,-1.560319066
1705,1.55965360469e+18,-4.050082207,-1.108005762,-1.248166919
1706,1.55965360474e+18,-4.267550468,-1.517896295,-0.1302835047
1707,1.5596536048e+18,-1.094716311,1.719689488,0.03953703493
1708,1.55965360485e+18,0.09952522069,1.743513346,1.034636497
1709,1.5596536049e+18,0.9498496652,1.561475515,0.9368980527
1710,1.55965360495e+18,2.062235355,-0.034104608,1.324186683
1711,1.559653605e+18,3.020071983,-0.2002599537,1.594189048
1712,1.55965360506e+18,3.626050234,-0.3535871208,1.795163751
1713,1.55965360511e+18,3.578402758,-1.321808577,1.539211154
1714,1.55965360516e+18,2.961428881,-1.137938142,1.293643475
1715,1.55965360521e+18,2.919890165,-1.451922894,1.027917027
1716,1.55965360526e+18,0.9944428205,0.01048855577,0.04320222139
1717,1.55965360532e+18,-1.580354214,0.1790873557,-0.7173250318
1718,1.55965360537e+18,-3.762364864,0.353183955,-1.063685536
1719,1.55965360542e+18,-4.830768108,-0.5032491088,-2.105821848
1720,1.55965360547e+18,-4.893076897,-0.3994020224,-1.827877998
1721,1.55965360552e+18,-3.290776968,0.4203791618,-0.4589290023
1722,1.55965360558e+18,-1.206504583,2.835740328,-0.01605170593
1723,1.55965360563e+18,-0.06479752809,2.405691147,0.9790477753
1724,1.55965360568e+18,0.815459311,1.555977702,1.096944809
1725,1.55965360573e+18,1.746417999,-0.07747603953,1.17941165
1726,1.55965360578e+18,2.631561756,-0.2149207145,1.390160084
1727,1.55965360584e+18,3.001135349,-0.3902390301,1.696203589
1728,1.55965360589e+18,3.320617676,-1.26805234,1.796996355
1729,1.55965360594e+18,3.206996918,-1.817831159,1.576473951
1730,1.55965360599e+18,2.543597221,-1.037756205,1.227059126
1731,1.55965360604e+18,1.33897078,-0.5063034296,0.7548602223
1732,1.5596536061e+18,-0.5070639849,-0.06525873393,-0.005056131631
1733,1.55965360615e+18,-2.047666073,0.3513513505,-1.055133581
1734,1.5596536062e+18,-4.332912922,-0.3713022172,-1.526110649
1735,1.55965360625e+18,-4.98653841,-1.24789381,-1.892629743
1736,1.5596536063e+18,-3.875985861,-1.434818625,-0.3593579829
1737,1.55965360636e+18,-2.285292625,1.094163418,-0.1003511101
1738,1.55965360641e+18,-1.064783931,2.604222298,0.6546783447
1739,1.55965360646e+18,-0.5486027598,1.060565948,0.1843120903
1740,1.55965360651e+18,0.5063614845,2.020846128,0.6546783447
1741,1.55965360656e+18,1.360351086,-0.6095396876,0.5416682959
1742,1.55965360661e+18,2.21006465,-0.01822211035,1.306471586
1743,1.55965360667e+18,3.228987694,-0.7695863843,1.672379851
1744,1.55965360672e+18,3.764716864,-1.360903978,1.541043878
1745,1.55965360677e+18,3.776934147,-1.921067357,1.355951667
1746,1.55965360682e+18,3.265028715,-1.407329679,1.098777294
1747,1.55965360687e+18,2.320631266,-0.8392249942,0.9100199938
1748,1.55965360693e+18,1.280327797,-0.4311670363,0.1946968138
1749,1.55965360698e+18,-0.9890366197,0.3825055063,-0.9103583694
1750,1.55965360703e+18,-3.420280218,0.8650890589,-1.133935094
1751,1.55965360708e+18,-4.67499733,-0.757369101,-1.490680456
1752,1.55965360713e+18,-5.353669167,-0.370691359,-0.8859238029
1753,1.55965360719e+18,-5.365886211,0.7453594208,0.05541953072
1754,1.55965360724e+18,-2.674413919,0.9310625196,-0.1657136828
1755,1.55965360729e+18,-0.8448724151,0.02881451324,0.04259135947
1756,1.55965360734e+18,0.3994600475,3.074588537,0.5606051087
1757,1.55965360739e+18,1.714652896,1.115543842,1.091446996
1758,1.55965360745e+18,2.698756933,-1.153209686,1.255158782
1759,1.5596536075e+18,3.433016777,-1.421990514,1.214231014
1760,1.55965360755e+18,3.676141024,-1.623575926,0.8880288601
1761,1.5596536076e+18,3.336500168,-1.732309937,0.5123467445
1762,1.55965360765e+18,2.233888388,0.1613722742,0.9521696568
1763,1.55965360771e+18,1.0738554,2.460058212,2.002857924
1764,1.55965360776e+18,0.5210222006,-0.4824796915,0.9191829562
1765,1.55965360781e+18,-1.052566648,-1.60891521,0.202638045
1766,1.55965360786e+18,-3.363470078,0.2389521599,-0.4234988093
1767,1.55965360791e+18,-4.832600594,0.7197031379,-1.393552899
1768,1.55965360797e+18,-4.588865757,-0.8551074862,-1.619572997
1769,1.55965360802e+18,-2.854008198,0.8687542081,-0.7387052774
1770,1.55965360807e+18,-1.72390759,2.009850502,0.7029367089
1771,1.55965360812e+18,-0.8033336401,0.7875091434,1.003482342
1772,1.55965360817e+18,0.1441183835,-0.3419806957,0.6216915846
1773,1.55965360823e+18,0.9718407989,-0.5527291894,0.5508312583
1774,1.55965360828e+18,1.560104012,-0.8471662402,0.7078236341
1775,1.55965360833e+18,2.037189722,-0.5973224044,1.150700927
1776,1.55965360838e+18,2.112936974,-1.043864846,1.006536722
1777,1.55965360843e+18,1.948003411,-1.371288538,1.114048958
1778,1.55965360849e+18,1.378066182,-1.122666478,0.7799056768
1779,1.55965360854e+18,0.9974971414,0.6518970132,1.99430573
1780,1.55965360859e+18,-0.1814727932,-2.416479111,-0.09851851314
1781,1.55965360864e+18,-2.645703077,-0.1086301655,-0.7936831713
1782,1.55965360869e+18,-4.075128078,1.103326559,-1.525499701
1783,1.55965360875e+18,-3.385460854,-0.2961657941,-1.870027661
1784,1.5596536088e+18,-2.612716436,0.5486608148,-0.8010135293
1785,1.55965360885e+18,-1.271256328,3.407510281,-0.09668592364
1786,1.5596536089e+18,-0.538218081,0.8437087536,0.7084344625
1787,1.55965360895e+18,0.484370321,-1.043864846,0.7041584253
1788,1.55965360901e+18,1.068357587,0.6182994843,0.8697028756
1789,1.55965360906e+18,1.400668263,0.2200153321,1.129320621
1790,1.55965360911e+18,2.013365984,-1.722536087,1.035247445
1791,1.55965360916e+18,2.336513758,-1.001104355,1.048686385
1792,1.55965360921e+18,2.276648998,0.07096421719,1.17269206
1793,1.55965360927e+18,1.847210646,-0.4867557585,1.032804012
1794,1.55965360932e+18,1.411052823,-1.583869696,0.5502203703
1795,1.55965360937e+18,0.3658624589,-0.5325706005,-0.1748766601
1796,1.55965360942e+18,-1.689699054,-0.08419555426,-1.282986164
1797,1.55965360947e+18,-3.672567606,0.2322326303,-1.921340466
1798,1.55965360953e+18,-4.251057148,0.008045095019,-2.295189857
1799,1.55965360958e+18,-2.609051228,0.4179356694,-1.01603806
1800,1.55965360963e+18,-1.174128771,2.386754513,-0.4558746815
1801,1.55965360968e+18,-0.09167559445,1.163191319,1.034636497
1802,1.55965360973e+18,0.6932862401,-0.1477255374,0.9289568663
1803,1.55965360979e+18,1.00788188,0.2927083075,0.9961519837
1804,1.55965360984e+18,1.239399791,0.6195212007,1.15619874
1805,1.55965360989e+18,1.539945483,-0.7097215652,1.117103219
1806,1.55965360994e+18,1.886306047,-1.470859647,0.9564457536
1807,1.55965360999e+18,1.861871481,-1.109838247,0.8697028756
1808,1.55965361005e+18,1.686553121,-1.518507242,0.7799056768
1809,1.5596536101e+18,1.317590594,-2.435415745,-0.5071873665
1810,1.55965361015e+18,-0.6212957501,0.4668048918,-0.7649724483
1811,1.5596536102e+18,-2.585227489,0.5804258585,-1.914620876
1812,1.55965361025e+18,-3.349419832,0.7374182343,-1.970820427
1813,1.55965361031e+18,-2.738554716,0.7245900035,-1.437535167
1814,1.55965361036e+18,-2.953579426,1.697698355,-0.9488429427
1815,1.55965361041e+18,-1.126481295,0.5358326435,0.1604883373
1816,1.55965361046e+18,-0.4374253154,-0.2540161014,0.3865084946
1817,1.55965361051e+18,0.4043469727,1.771613002,0.3254219592
1818,1.55965361057e+18,1.370735884,1.116154671,0.4952425063
1819,1.55965361062e+18,1.979768395,-0.3071613908,0.7261496186
1820,1.55965361067e+18,3.409193039,-1.046919227,0.6192481518
1821,1.55965361072e+18,4.046325684,-1.116557837,0.4604232013
1822,1.55965361077e+18,3.673086882,-0.4617102742,0.1788143069
1823,1.55965361083e+18,2.790386677,-1.207576752,-0.3385885656
1824,1.55965361088e+18,1.88874948,-0.1074084416,-1.453417659
1825,1.55965361093e+18,-0.9609368443,1.849192977,-1.243280053
1826,1.55965361098e+18,-3.315822363,0.2132958174,-1.339185834
1827,1.55965361103e+18,-4.712871075,-2.385935783,-2.256094456
1828,1.55965361109e+18,-4.310310841,-0.3871847093,-1.483960986
1829,1.55965361114e+18,-2.858895302,0.8699759245,-0.3941773176
1830,1.55965361119e+18,-1.404425025,-0.696893394,0.2692223489
1831,1.55965361124e+18,-0.4233754277,0.5242262483,0.5972570181
1832,1.55965361129e+18,0.6486930251,1.824147463,0.8837528229
1833,1.55965361135e+18,1.309649348,-0.07625430822,1.134207487
1834,1.5596536114e+18,1.990153193,-0.7958535552,1.424368501
1835,1.55965361145e+18,2.583914042,-0.8325054646,1.346788645
1836,1.5596536115e+18,2.751902103,-0.97972399,1.253326297
1837,1.55965361155e+18,2.27603817,-0.9351308346,1.305249929
1838,1.55965361161e+18,1.177091599,-0.5399010181,1.272873878
1839,1.55965361166e+18,0.3328757286,0.01842980459,1.564256668
1840,1.55965361171e+18,-1.552254438,-0.9381851554,0.2728875279
1841,1.55965361176e+18,-3.612092018,-0.8764877915,-0.8278915882
1842,1.55965361181e+18,-4.494792461,0.2413956076,-1.26771462
1843,1.55965361187e+18,-3.759921312,-0.3444241583,-1.035585761
1844,1.55965361192e+18,-2.901655674,0.3599034846,-0.4583181441
1845,1.55965361197e+18,-1.184513569,3.611539125,0.07924327254
1846,1.55965361202e+18,-0.1283275187,1.593851328,0.6180264354
1847,1.55965361207e+18,0.8240113854,0.5175067186,0.7805166245
1848,1.55965361213e+18,1.667005539,0.2756040692,0.9277350903
1849,1.55965361218e+18,2.861247063,-0.9497916102,1.043188572
1850,1.55965361223e+18,3.50509882,-0.8355597854,0.973549962
1851,1.55965361228e+18,2.82581687,-0.04571104795,1.286312938
1852,1.55965361233e+18,1.524062991,-0.1886535138,1.424368501
1853,1.55965361239e+18,0.1325119436,-0.8624378443,0.7951773405
1854,1.55965361244e+18,-0.8583114743,-3.274133682,0.1171169207
1855,1.55965361249e+18,-2.733056784,0.04408614337,-0.7234336734
1856,1.55965361254e+18,-3.988384962,-0.4775927663,-1.544436574
1857,1.55965361259e+18,-4.137435913,0.9054061174,-1.513282418
1858,1.55965361265e+18,-1.850356698,1.160136938,-1.036807537
1859,1.5596536127e+18,-0.7514100671,3.734323025,-0.4546529651
1860,1.55965361275e+18,0.2681240141,1.808264971,0.6858324409
1861,1.5596536128e+18,0.6945080161,0.5682085156,0.6736151576
1862,1.55965361285e+18,1.826441288,0.1363268048,0.7670775056
1863,1.55965361291e+18,2.401265383,-1.26133287,0.5044054985
1864,1.55965361296e+18,2.688982964,-0.850831449,0.6100851297
1865,1.55965361301e+18,2.640724659,-0.7848579884,0.5722115636
1866,1.55965361306e+18,2.145923853,-0.5930463076,0.7157648206
1867,1.55965361311e+18,1.304151535,-0.652911067,0.4158300161
1868,1.55965361317e+18,0.8710480332,-1.916791201,-0.1999221444
1869,1.55965361322e+18,-0.5644853115,0.562710762,-0.7387052774
1870,1.55965361327e+18,-2.762378454,0.9029626846,-1.232895255
1871,1.55965361332e+18,-4.046417236,0.3556274176,-1.65500319
1872,1.55965361337e+18,-3.686617613,-0.9888869524,-1.295203447
1873,1.55965361343e+18,-2.179613113,0.6256299019,-0.1400573552
1874,1.55965361348e+18,-1.160689831,1.59995997,-0.1687680185
1875,1.55965361353e+18,0.06104071066,0.809500277,0.761579752
1876,1.55965361358e+18,0.3432604671,0.0135428831,0.6479588151
1877,1.55965361363e+18,1.411663771,-0.4519364238,1.023640871
1878,1.55965361369e+18,2.153865099,-2.704196453,0.6351306438
1879,1.55965361374e+18,2.591855526,-0.9210809469,0.9985954762
1880,1.55965361379e+18,2.420202494,-0.7866905928,1.125044584
1881,1.55965361384e+18,2.07078743,-0.566168189,1.526993871
1882,1.55965361389e+18,1.026207805,-0.4708732665,1.401155591
1883,1.55965361395e+18,-0.3231935501,-0.3462567329,1.12321198
1884,1.559653614e+18,-1.408701062,-0.04143498838,0.5581616163
1885,1.55965361405e+18,-3.235188246,-0.834338069,-0.9769427776
1886,1.5596536141e+18,-4.149653435,0.9744338989,-1.055133581
1887,1.55965361415e+18,-2.916927338,-0.1819339842,-1.087509394
1888,1.55965361421e+18,-1.673205733,1.37821579,-0.4430465102
1889,1.55965361426e+18,-0.6664997935,3.943849802,0.6265785694
1890,1.55965361431e+18,0.2785087228,-0.4079541266,0.3089286089
1891,1.55965361436e+18,0.9254150391,0.1601505429,0.4598123133
1892,1.55965361441e+18,1.478858829,1.456406593,0.9136852026
1893,1.55965361447e+18,1.679833651,0.3635686636,1.238665581
1894,1.55965361452e+18,2.172190905,-0.02310903184,1.452468395
1895,1.55965361457e+18,2.502058268,-0.8398358822,1.313191056
1896,1.55965361462e+18,2.356061459,-1.205133319,1.225837231
1897,1.55965361467e+18,1.69327271,-1.335247517,1.027306199
1898,1.55965361473e+18,0.7769747972,-1.519118071,0.4475950003
1899,1.55965361478e+18,-0.8161618114,-1.144657612,-0.3483623862
1900,1.55965361483e+18,-2.784369707,-0.4366647899,-1.124772072
1901,1.55965361488e+18,-3.759310484,0.004379903898,-1.593916655
1902,1.55965361493e+18,-3.473425627,1.148530483,-1.433869958
1903,1.55965361499e+18,-2.761156797,-0.2888354063,-1.384389877
1904,1.55965361504e+18,-3.455710411,0.5401086807,-0.5701065063
1905,1.55965361509e+18,-0.9615477324,0.5291131735,-0.4051728845
1906,1.55965361514e+18,0.3774689138,1.012307525,0.5001294017
1907,1.55965361519e+18,1.134330988,1.568805814,0.537392199
1908,1.55965361525e+18,1.910129786,1.22244525,1.208733201
1909,1.5596536153e+18,2.420202494,0.7911742926,1.861748099
1910,1.55965361535e+18,2.89179039,-0.5539509058,1.817765713
1911,1.5596536154e+18,3.79953599,-2.686481476,0.9882107377
1912,1.55965361545e+18,3.72623229,-1.621132612,0.1384972036
1913,1.55965361551e+18,2.433641434,-0.3096048236,-0.1797636002
1914,1.55965361556e+18,1.462976456,0.1125030518,-0.3660774827
1915,1.55965361561e+18,-0.2969263196,0.05447085574,-1.073459506
1916,1.55965361566e+18,-2.628598928,0.8870801926,-1.523056269
1917,1.55965361571e+18,-4.483186245,0.5908105373,-2.262814045
1918,1.55965361577e+18,-4.94194603,-0.3291525245,-2.745397806
1919,1.55965361582e+18,-4.207685471,-1.540498257,-1.903625369
1920,1.55965361587e+18,-2.097146273,-0.4733166993,-0.7545877695
1921,1.55965361592e+18,0.04515821487,3.887650251,1.07006669
1922,1.55965361597e+18,0.6425843835,3.860161304,1.496450663
1923,1.55965361603e+18,1.62729919,-0.2234728336,2.394422531
1924,1.55965361608e+18,2.849029779,-3.205106258,2.109148502
1925,1.55965361613e+18,3.476388216,-2.007810116,1.658329964
1926,1.55965361618e+18,2.963872433,-0.8337272406,1.623510599
1927,1.55965361623e+18,2.045742035,-1.478190064,1.428644657
1928,1.55965361629e+18,1.264445186,-1.064634323,1.148257494
1929,1.55965361634e+18,0.8368396163,-0.806849122,0.9674413204
1930,1.55965361639e+18,0.1490053087,-0.4537690282,0.3938388526
1931,1.55965361644e+18,-1.596847534,-0.2442422509,-0.5041330457
1932,1.55965361649e+18,-3.45937562,0.6500644684,-1.225564957
1933,1.55965361655e+18,-4.5619874,0.1522092968,-1.726474404
1934,1.5596536166e+18,-3.888203144,0.9799317122,-1.460748076
1935,1.55965361665e+18,-2.645092249,1.078891873,-0.9488429427
1936,1.5596536167e+18,-0.5883090496,3.434998989,0.1647644043
1937,1.55965361675e+18,1.040257692,0.9426689744,0.8183901906
1938,1.55965361681e+18,1.853319287,0.5559912324,1.64611268
1939,1.55965361686e+18,2.145923853,-0.9589545727,1.432920694
1940,1.55965361691e+18,2.448302031,-1.023706317,1.341290951
1941,1.55965361696e+18,2.493506193,-0.9504024386,1.007758379
1942,1.55965361701e+18,2.307192087,-0.9216918349,0.7628014684
1943,1.55965361707e+18,1.997483492,-0.929022193,0.5697680712
1944,1.55965361712e+18,1.853319287,-2.820261002,-0.01238651481
1945,1.55965361717e+18,0.4397771657,0.9273972511,-0.5065764785
1946,1.55965361722e+18,-1.590738893,0.9823752046,-1.480906606
1947,1.55965361727e+18,-3.722047806,0.03553403169,-2.120482445
1948,1.55965361733e+18,-4.912623882,-0.3236547112,-2.439354181
1949,1.55965361738e+18,-4.408049107,0.2242913991,-1.457082748
1950,1.55965361743e+18,-1.842415452,1.885844827,-0.2347414643
1951,1.55965361748e+18,-0.6280152798,0.2560563982,0.6717825532
1952,1.55965361753e+18,-0.009819659404,0.07585113496,0.6204699278
1953,1.55965361759e+18,0.8020202518,0.6806077361,0.5960353017
1954,1.55965361764e+18,1.466641545,-0.3676370382,0.683999896
1955,1.55965361769e+18,1.860649824,-1.0628016,0.8794767261
1956,1.55965361774e+18,2.249159813,-0.4482712448,0.9845455885
1957,1.55965361779e+18,2.291309834,-0.02921768464,1.041356087
1958,1.55965361785e+18,2.027415991,-0.7622559667,0.9240698814
1959,1.5596536179e+18,1.340803385,-0.370691359,0.6339089274
1960,1.55965361795e+18,0.7262729406,-1.101286173,0.4329342246
1961,1.559653618e+18,-0.4239862859,-0.8899267912,-0.8401089311
1962,1.55965361805e+18,-2.200993299,0.4142704904,-1.138822079
1963,1.55965361811e+18,-2.911429644,-0.05059796944,-1.507784724
1964,1.55965361816e+18,-2.863171101,1.279866576,-1.451585054
1965,1.55965361821e+18,-2.844845295,1.259097219,-0.01605170593
1966,1.55965361826e+18,-1.197952509,-1.40671885,0.4249930084
1967,1.55965361831e+18,-0.1381013691,-0.16177544,0.3602412641
1968,1.55965361837e+18,0.5387372971,2.494877338,0.486690402
