,Time (s),Gyroscope x (rad/s),Gyroscope y (rad/s),Gyroscope z (rad/s)
0,1.55965320005e+18,1.068357587,-1.991927743,0.8611507416
1,1.5596532001e+18,1.249173641,-2.093331337,1.111605644
2,1.55965320016e+18,2.90522933,-2.618064642,2.150076389
3,1.55965320021e+18,3.925374269,-2.569806099,3.153728008
4,1.55965320026e+18,5.036538124,-2.980918407,2.249036551
5,1.55965320031e+18,-0.1533729881,-0.2515726388,1.17269206
6,1.55965320036e+18,-3.819175243,0.4955155551,-0.7148815393
7,1.55965320042e+18,-5.67437315,-0.1110736281,-1.854756117
8,1.55965320047e+18,-5.49600029,3.251739502,-1.594527483
9,1.55965320052e+18,-4.265717983,6.208938122,-2.041680813
10,1.55965320057e+18,1.124557137,8.450202942,2.023016453
11,1.55965320062e+18,1.828273773,-1.263776422,1.871521831
12,1.55965320068e+18,3.111090899,-2.045073032,0.8165576458
13,1.55965320073e+18,2.901564121,-0.6858978271,0.9698848128
14,1.55965320078e+18,2.313300848,-2.104326963,-0.2573434711
15,1.55965320083e+18,1.191752315,-1.210631132,0.9943193793
16,1.55965320088e+18,1.067135692,-2.20817399,0.7976207733
17,1.55965320094e+18,1.203358769,-2.24482584,-0.06003400311
18,1.55965320099e+18,-0.01959350146,-0.01822211035,-0.3660774827
19,1.55965320104e+18,-1.982914448,-2.35722518,-1.685546398
20,1.55965320109e+18,-4.734251499,1.33179009,-1.465023994
21,1.55965320114e+18,-5.216224194,3.434998989,-0.5713281631
22,1.5596532012e+18,-3.533901453,4.232178211,-1.752130747
23,1.55965320125e+18,-1.893117189,2.422184467,1.322353959
24,1.5596532013e+18,0.5784435272,4.783178806,1.843422174
25,1.55965320135e+18,1.925401449,-1.47330308,0.2295161337
26,1.5596532014e+18,3.336500168,-0.1239017919,1.170859456
27,1.55965320146e+18,3.938202381,-1.389003634,2.800647974
28,1.55965320151e+18,4.321825504,-1.982764721,1.382829666
29,1.55965320156e+18,3.712182283,-2.589964867,-0.3233169317
30,1.55965320161e+18,2.304748774,0.1045618057,-0.3404211402
31,1.55965320166e+18,1.753137469,-0.1746036112,-0.5114634037
32,1.55965320172e+18,0.2076483667,0.6836620569,-0.6006497145
33,1.55965320177e+18,-1.199174285,-0.6009875536,-0.765583396
34,1.55965320182e+18,-1.803930879,-4.733490944,-0.5365089178
35,1.55965320187e+18,-4.400719166,-0.3419806957,-1.068572521
36,1.55965320192e+18,-6.053719997,4.148489952,0.5044054985
37,1.55965320198e+18,-6.354876995,1.582855701,-0.06553179026
38,1.55965320203e+18,-0.1533729881,-5.900243759,-0.09974024445
39,1.55965320208e+18,0.1978745311,1.639055252,-1.022146821
40,1.55965320213e+18,0.866771996,6.384867191,0.5587724447
41,1.55965320218e+18,2.632172585,2.470442772,1.202624559
42,1.55965320224e+18,3.756775379,-1.86731112,2.302181959
43,1.55965320229e+18,3.274191856,-0.929022193,2.143967867
44,1.55965320234e+18,3.105592966,-1.493461728,1.557537079
45,1.55965320239e+18,2.359115839,-1.05913651,0.3742912114
46,1.55965320244e+18,1.834993362,0.4875743091,-0.351416707
47,1.5596532025e+18,1.101955056,1.218780041,0.1916424781
48,1.55965320255e+18,0.7885812521,1.463736892,0.4109431207
49,1.5596532026e+18,1.423881054,-0.04510018229,1.049908161
50,1.55965320265e+18,0.1080773324,-0.5753312111,0.6003113389
51,1.5596532027e+18,-2.841790915,-0.09946718812,1.06701231
52,1.55965320276e+18,-5.020136356,-1.743916392,0.2484529465
53,1.55965320281e+18,-6.040281296,-1.638236642,-0.6305821538
54,1.55965320286e+18,-6.411687374,-1.994371176,1.25882411
55,1.55965320291e+18,-4.629182816,1.433804512,-0.05697967857
56,1.55965320296e+18,-0.8149400353,2.806418657,2.160461187
57,1.55965320302e+18,1.1667068,-0.03288287669,2.445735455
58,1.55965320307e+18,1.051253319,-0.8789312243,3.571559906
59,1.55965320312e+18,2.112936974,-1.86364603,2.077994347
60,1.55965320317e+18,1.598588467,0.5016242266,2.772548199
61,1.55965320322e+18,1.514899969,-1.497126818,3.227642775
62,1.55965320327e+18,0.9626777768,-1.75124681,4.084075928
63,1.55965320333e+18,1.397613883,-2.405483484,4.39867115
64,1.55965320338e+18,3.580235243,-0.4293344021,4.579487324
65,1.55965320343e+18,1.691440105,-0.51607728,4.03459549
66,1.55965320348e+18,-1.266369462,1.136924028,3.222755909
67,1.55965320353e+18,-3.722658634,0.3696773052,0.2961004376
68,1.55965320359e+18,-5.21744585,0.904184401,-0.2597869337
69,1.55965320364e+18,-6.078765392,0.2896539569,-0.9134128094
70,1.55965320369e+18,-6.255306244,2.569403172,-1.268936276
71,1.55965320374e+18,-5.304800034,6.241313934,-1.56887126
72,1.55965320379e+18,0.008506298065,3.274952412,2.75605464
73,1.55965320385e+18,1.692661762,-4.302831173,0.3694042563
74,1.5596532039e+18,1.508791327,1.050792098,2.335779428
75,1.55965320395e+18,1.673725009,-0.5997658372,0.9020787477
76,1.559653204e+18,1.898523331,-1.558824182,0.9179612398
77,1.55965320405e+18,1.410441995,-1.619910717,1.456133604
78,1.55965320411e+18,2.475180149,-3.919818401,1.83181572
79,1.55965320416e+18,3.117810249,-3.331555128,1.470183492
80,1.55965320421e+18,2.20273447,-2.348673105,0.3547435105
81,1.55965320426e+18,1.333472967,-0.7317126989,-0.4577072859
82,1.55965320431e+18,1.635240436,-0.8361706734,-0.9531190395
83,1.55965320437e+18,0.467876941,1.734350204,-0.477865845
84,1.55965320442e+18,-1.840582728,2.161956072,-0.6208083034
85,1.55965320447e+18,-5.105657578,0.1198334321,-2.004418135
86,1.55965320452e+18,-6.309672832,1.240160227,-1.769235015
87,1.55965320457e+18,-5.349392414,3.82228756,-1.515725851
88,1.55965320463e+18,-3.387904644,5.061733246,-3.050219536
89,1.55965320468e+18,-0.9432217479,4.974379539,1.382218838
90,1.55965320473e+18,0.2223091274,-0.08480641991,-0.6226408482
91,1.55965320478e+18,1.184421897,-0.4953078628,-0.1993112862
92,1.55965320483e+18,2.477012634,-0.902755022,0.1610992104
93,1.55965320489e+18,3.981574059,-1.524615884,0.8428248167
94,1.55965320494e+18,3.827024937,-0.644969821,1.472015977
95,1.55965320499e+18,3.271137476,-1.899687052,0.5318943858
96,1.55965320504e+18,1.762911201,-0.1978164911,1.099999189
97,1.55965320509e+18,1.8123914,-0.8361706734,0.8672594428
98,1.55965320515e+18,2.688982964,-0.4116193354,-0.05820140988
99,1.5596532052e+18,1.758635283,1.757563114,0.5923700333
100,1.55965320525e+18,-0.03364340216,0.196191594,0.2441768944
101,1.5596532053e+18,-2.222373486,-0.5869376659,0.06091731787
102,1.55965320535e+18,-5.243712902,-2.036520958,-1.330022812
103,1.55965320541e+18,-6.917483807,-0.1171822846,-2.014191866
104,1.55965320546e+18,-6.333496571,2.703182697,-1.623849034
105,1.55965320551e+18,-3.478312492,4.530891418,-1.892018914
106,1.55965320556e+18,-0.6487847567,4.234621525,-0.2597869337
107,1.55965320561e+18,1.558882356,-2.481841564,1.42131424
108,1.55965320567e+18,2.984030962,-3.126304388,2.093265772
109,1.55965320572e+18,2.663937569,-1.718260169,2.051116228
110,1.55965320577e+18,2.573529482,-1.436040282,1.802494168
111,1.55965320582e+18,2.308413982,-2.046294689,0.7505841851
112,1.55965320587e+18,2.544818878,-2.031633854,0.08229760081
113,1.55965320593e+18,2.437917471,-0.1862100512,-0.3086561561
114,1.55965320598e+18,3.051836967,-1.474524856,-0.3905121088
115,1.55965320603e+18,2.934550762,-0.4470494986,-0.3605796993
116,1.55965320608e+18,0.3322649002,2.964021921,1.049908161
117,1.55965320613e+18,-3.523516655,1.953040004,-0.3098779023
118,1.55965320619e+18,-6.497208595,-0.6877304316,-1.475408792
119,1.55965320624e+18,-6.85334301,0.2163501382,-1.912177324
120,1.55965320629e+18,-5.504552841,1.594462156,-1.979983568
121,1.55965320634e+18,-2.33355093,2.780762434,-0.2316871285
122,1.55965320639e+18,0.02927571721,0.1106704548,1.352897286
123,1.55965320645e+18,2.363391876,-1.878306746,2.199556589
124,1.5596532065e+18,2.655996323,-1.097620964,1.813489795
125,1.55965320655e+18,2.359115839,-0.3670261502,1.79210937
126,1.5596532066e+18,1.802006721,-1.322419405,1.541043878
127,1.55965320665e+18,1.679222822,-1.474524856,1.61007154
128,1.55965320671e+18,1.896690845,-1.311423779,2.20566535
129,1.55965320676e+18,3.706684589,1.083167911,3.26612711
130,1.55965320681e+18,3.11048007,-0.2027034163,3.634479046
131,1.55965320686e+18,1.258947492,-0.1397842914,4.354689121
132,1.55965320691e+18,-2.155789375,-0.5869376659,1.185520291
133,1.55965320697e+18,-5.120929241,0.7862874269,-0.4986352623
134,1.55965320702e+18,-7.0714221,-0.1251235306,-2.283583403
135,1.55965320707e+18,-7.207034111,0.8046134114,-1.93661201
136,1.55965320712e+18,-4.904683113,2.086819649,-2.567024946
137,1.55965320717e+18,0.007895433344,4.037922859,1.558758855
138,1.55965320723e+18,0.850278616,-2.637001514,2.075550795
139,1.55965320728e+18,2.014587879,-3.497099638,1.294865131
140,1.55965320733e+18,1.980379224,0.7331421375,2.222158432
141,1.55965320738e+18,2.033524513,-1.129385948,0.9943193793
142,1.55965320743e+18,2.15019989,-1.202078938,1.308304191
143,1.55965320749e+18,2.46784997,-0.7146084309,1.50744617
144,1.55965320754e+18,3.272359371,-1.031036735,1.263100147
145,1.55965320759e+18,3.128195047,0.0563034527,2.073718309
146,1.55965320764e+18,2.469071627,-0.7793602347,1.414594769
147,1.55965320769e+18,1.243065,0.01171028707,-0.584767282
148,1.55965320775e+18,0.2369698882,0.7160379291,-1.355679154
149,1.5596532078e+18,-2.785591364,1.879125357,-1.888353586
150,1.55965320785e+18,-6.142906666,-0.7311018705,-1.507784724
151,1.5596532079e+18,-6.870447159,-0.8825964332,-1.755795956
152,1.55965320795e+18,-3.103852034,-0.9736153483,-0.4180010259
153,1.55965320801e+18,-3.581548929,2.731893301,0.7664666772
154,1.55965320806e+18,-1.057453632,0.554158628,1.258213162
155,1.55965320811e+18,-0.1881923079,-0.3505328,0.5557181239
156,1.55965320816e+18,0.2381916344,-0.2674551308,1.502559304
157,1.55965320821e+18,1.49779582,-2.038353443,1.167805195
158,1.55965320827e+18,2.280314207,-1.653508425,1.877630472
159,1.55965320832e+18,2.643168211,-0.5563943982,2.850738764
160,1.55965320837e+18,3.62360692,-1.519118071,3.247801304
161,1.55965320842e+18,2.827038527,0.08684670925,2.706574678
162,1.55965320847e+18,1.773295999,-1.189861655,1.875187159
163,1.55965320853e+18,1.478858829,0.01171028707,1.159863949
164,1.55965320858e+18,0.1428966522,-0.311437428,-1.011151195
165,1.55965320863e+18,-2.825297594,1.428917646,-0.5707173347
166,1.55965320868e+18,-5.881456375,-1.636404157,-1.324524999
167,1.55965320873e+18,-6.391528606,-2.831256628,-0.9213539958
168,1.55965320879e+18,-6.040892124,-0.2802833021,-0.634247303
169,1.55965320884e+18,-3.234577417,0.6207429171,-0.831556797
170,1.55965320889e+18,-0.0623540692,1.104548216,1.978423357
171,1.55965320894e+18,0.27606529,-0.9473481178,1.332127929
172,1.55965320899e+18,0.9040347338,-0.3694696426,1.560591459
173,1.55965320905e+18,1.460532904,-1.081738472,1.99064064
174,1.5596532091e+18,2.366446018,-1.998036385,2.616777658
175,1.55965320915e+18,2.900342226,-2.618064642,4.297878265
176,1.5596532092e+18,2.324296474,-3.115308762,5.055351734
177,1.55965320925e+18,2.307802916,-0.02921768464,6.209886551
178,1.55965320931e+18,2.020085573,-2.316297054,4.114008427
179,1.55965320936e+18,-0.5150051713,-0.7304909825,4.321091175
180,1.55965320941e+18,-2.738554716,0.03186883777,1.629008412
181,1.55965320946e+18,-3.943180799,0.7355856299,0.2020271868
182,1.55965320951e+18,-4.246170044,-0.5191316009,-1.279931903
183,1.55965320957e+18,-6.445896149,2.135077953,-2.094215393
184,1.55965320962e+18,-3.301161528,6.282242298,1.142148852
185,1.55965320967e+18,-0.7679034472,2.26580286,-1.223732352
186,1.55965320972e+18,0.3206584454,-0.1507798582,0.3064851463
187,1.55965320977e+18,1.182589412,0.9084604383,0.6815564036
188,1.55965320983e+18,2.03780055,-0.6382502913,1.391992688
189,1.55965320988e+18,3.243037939,-2.733518124,2.004079819
190,1.55965320993e+18,4.718888283,-3.536805868,2.093876839
191,1.55965320998e+18,3.913767815,-3.577733994,1.060903668
192,1.55965321003e+18,3.001135349,-3.302233696,-2.466843128
193,1.55965321009e+18,0.3176041245,0.6665577888,-2.862072945
194,1.55965321014e+18,-0.683604002,2.340328693,-2.564581633
195,1.55965321019e+18,-1.619449615,1.592629552,-1.845593095
196,1.55965321024e+18,-3.969448328,-1.502624631,-1.675772548
197,1.55965321029e+18,-3.216251135,-3.11591959,-1.375226974
198,1.55965321035e+18,-4.117888451,2.248087883,-2.159577847
199,1.5596532104e+18,-5.244934559,-1.119612217,-1.380113721
200,1.55965321045e+18,-0.09717338532,3.549231052,2.635714293
201,1.5596532105e+18,-0.4074929059,1.227332115,1.760955334
202,1.55965321055e+18,-0.1118341535,3.089860439,0.392617166
203,1.5596532106e+18,0.9467952847,3.560226679,0.3852867782
204,1.55965321066e+18,1.468474269,0.3305819333,1.502559304
205,1.55965321071e+18,2.424478292,-3.064607143,2.187950134
206,1.55965321076e+18,2.625453234,-4.632698059,1.049908161
207,1.55965321081e+18,2.862468719,-4.109797478,-1.492513061
208,1.55965321086e+18,2.203345299,0.4393159449,-2.997684956
209,1.55965321092e+18,3.018850327,-2.839197636,-2.648880959
210,1.55965321097e+18,1.866758466,-0.4757601917,-3.03250432
211,1.55965321102e+18,-0.5260007977,1.869962454,-2.399647951
212,1.55965321107e+18,-2.959687948,0.7093183994,-1.31047523
213,1.55965321112e+18,-5.451407433,-1.451922894,-2.11864996
214,1.55965321118e+18,-5.606566906,3.310993433,-2.088717461
215,1.55965321123e+18,-1.688477278,4.317699432,-0.7173250318
216,1.55965321128e+18,-0.546770215,3.117349148,1.395657778
217,1.55965321133e+18,0.1587791443,-2.561865091,-0.1150118783
218,1.55965321138e+18,0.4116773605,0.09173363447,0.8727571964
219,1.55965321144e+18,1.626688361,-0.5600595474,0.5447226167
220,1.55965321149e+18,2.01825285,-1.280269623,-0.3214843273
221,1.55965321154e+18,1.883251667,-0.1636080295,0.8874179721
222,1.55965321159e+18,1.111118078,-2.456796169,1.903897762
223,1.55965321164e+18,0.4825377166,-1.803781271,0.4695861638
224,1.5596532117e+18,-1.762392044,-0.3768000305,-0.4925266206
225,1.55965321175e+18,-3.79046464,-0.30410707,-2.187066793
226,1.5596532118e+18,-3.932185411,0.2719388604,-2.174849272
227,1.55965321185e+18,-2.687242031,2.970130682,-1.38377893
228,1.5596532119e+18,-2.13074398,4.80089426,-1.824823737
229,1.55965321196e+18,1.332862139,5.475899696,2.828747749
230,1.55965321201e+18,0.2650696933,0.1729787141,1.870300174
231,1.55965321206e+18,1.586371183,-3.037118196,-0.4522095025
232,1.55965321211e+18,2.079339504,-0.5050817132,1.089003563
233,1.55965321216e+18,2.869188309,-0.5643356442,1.224004745
234,1.55965321222e+18,3.695078135,-1.577150226,1.829982996
235,1.55965321227e+18,3.635824203,-1.498348594,2.003468752
236,1.55965321232e+18,2.837423325,-1.867922068,0.9307894111
237,1.55965321237e+18,0.8185136318,1.953040004,1.481178999
238,1.55965321242e+18,-0.8974068761,-3.114087105,1.036469102
239,1.55965321248e+18,-4.5619874,-3.721287012,-0.02643641457
240,1.55965321253e+18,-7.368302345,0.6073039174,-1.364842176
241,1.55965321258e+18,-5.905890942,2.612163544,-2.909109592
242,1.55965321263e+18,-1.532706618,8.911406517,-0.634858191
243,1.55965321268e+18,0.5246874094,4.235843182,0.5208988786
244,1.55965321274e+18,1.650512099,1.665322542,0.8031185865
245,1.55965321279e+18,1.367681503,0.8840258718,-0.5792694688
246,1.55965321284e+18,0.9919993281,0.357460022,0.02060020901
247,1.55965321289e+18,1.681666255,-1.095788479,-0.4430465102
248,1.55965321294e+18,2.426921844,-0.9247461557,0.5777093172
249,1.559653213e+18,3.883835554,-2.726187706,0.3211458921
250,1.55965321305e+18,4.457437992,-1.015154123,-0.4613724649
251,1.5596532131e+18,4.895428181,0.2505585849,-0.5023004413
252,1.55965321315e+18,2.054904699,1.52360177,-0.4045620263
253,1.5596532132e+18,-2.731224298,0.518728435,-0.6922795177
254,1.55965321326e+18,-5.991412163,-2.098829031,-1.470521808
255,1.55965321331e+18,-5.646273613,-2.317518711,-2.24082303
256,1.55965321336e+18,-3.885148764,-0.1587211192,-1.191967249
257,1.55965321341e+18,-1.836917639,3.023275852,1.176968098
258,1.55965321346e+18,-0.3885561228,4.152154922,3.070650339
259,1.55965321352e+18,0.5937151909,0.2920974493,0.9930976629
260,1.55965321357e+18,1.306594968,0.1668700576,1.107940316
261,1.55965321362e+18,1.926012278,-1.831270099,1.257602334
262,1.55965321367e+18,2.592466354,-2.482452393,1.494618058
263,1.55965321372e+18,3.016406775,-1.773848891,2.234375954
264,1.55965321378e+18,2.743960857,-1.260722041,3.423119545
265,1.55965321383e+18,1.981601119,-3.407913446,1.340680003
266,1.55965321388e+18,0.3469256461,-2.053014278,0.3193133175
267,1.55965321393e+18,-1.932212472,-0.3322068453,-1.770456672
268,1.55965321398e+18,-2.853397369,-0.8819856048,-0.4949700534
269,1.55965321404e+18,-6.850288391,0.2310109138,-1.292149186
270,1.55965321409e+18,-6.026842117,3.281060934,-0.7704702616
271,1.55965321414e+18,0.3377626538,0.750857234,0.6265785694
272,1.55965321419e+18,-0.1460426003,1.671431184,1.789666057
273,1.55965321424e+18,-0.924284935,4.493017673,1.147646666
274,1.55965321429e+18,-0.6426759958,2.973185062,-0.4149467051
275,1.55965321435e+18,-0.5980829,0.0563034527,-0.05209275335
276,1.5596532144e+18,0.3493691087,-3.447008848,0.0242653992
277,1.55965321445e+18,1.950446844,-1.999868989,0.6736151576
278,1.5596532145e+18,3.475166559,-1.907628298,2.157406807
279,1.55965321455e+18,4.566171646,-2.622340679,2.875173569
280,1.55965321461e+18,3.458062172,-3.077435255,1.345566869
281,1.55965321466e+18,0.1312902123,-0.1477255374,-1.315972924
282,1.55965321471e+18,-3.287111759,0.3366905749,-2.209057808
283,1.55965321476e+18,-4.704930305,-3.063385248,-3.527305126
284,1.55965321481e+18,-7.531403542,0.9719904661,-1.510228157
285,1.55965321487e+18,-1.937710285,7.048877716,-0.5023004413
286,1.55965321492e+18,0.8447808027,1.223056078,0.966219604
287,1.55965321497e+18,1.649901271,-0.1880426556,0.7707427144
288,1.55965321502e+18,1.522230387,2.110032558,0.4714187682
289,1.55965321507e+18,1.858206272,2.191277504,-0.3159865439
290,1.55965321513e+18,2.096443653,1.097217798,0.04259135947
291,1.55965321518e+18,2.280314207,-0.5612813234,0.6925520301
292,1.55965321523e+18,2.295585632,-1.196581125,1.05051899
293,1.55965321528e+18,1.863704085,-1.2277354,-0.005056131631
294,1.55965321533e+18,1.548497558,-1.947945476,-0.3501950204
295,1.55965321539e+18,-2.191830397,-1.299817324,-1.119885206
296,1.55965321544e+18,-7.258957386,-0.5753312111,-2.164464951
297,1.55965321549e+18,-6.284016609,6.150294781,-1.910955667
298,1.55965321554e+18,-1.570580363,3.062982082,-2.775940895
299,1.55965321559e+18,0.9602344036,-0.6364177465,1.613125801
300,1.55965321565e+18,1.555827975,-1.726201296,0.7511950731
301,1.5596532157e+18,0.8930391669,0.4203791618,1.340680003
302,1.55965321575e+18,1.354853272,1.224888682,1.193461418
303,1.5596532158e+18,1.754359126,-1.453755498,0.5062380433
304,1.55965321585e+18,1.652344704,-1.679775596,0.7053801417
305,1.55965321591e+18,1.568045259,-1.181309581,1.550817609
306,1.55965321596e+18,1.896690845,-2.219780445,1.426201224
307,1.55965321601e+18,2.181964874,-2.244215012,1.890458703
308,1.55965321606e+18,2.412261009,-1.454977155,1.907562971
309,1.55965321611e+18,0.7000057101,-1.624186873,0.3461913764
310,1.55965321617e+18,-2.555295229,1.591407895,-0.9830514193
311,1.55965321622e+18,-6.849066734,-0.4830905795,-2.311072588
312,1.55965321627e+18,-8.258333206,0.8773063421,-2.765556097
313,1.55965321632e+18,-2.418461323,4.485076427,-0.3672992289
314,1.55965321637e+18,-0.6347348094,0.8400436044,0.3394718766
315,1.55965321643e+18,0.06409504265,3.025719404,1.792720318
316,1.55965321648e+18,1.444039702,-0.508136034,1.067623258
317,1.55965321653e+18,2.621787786,-0.5704442859,1.433531523
318,1.55965321658e+18,2.302916288,-0.8758769035,1.239887238
319,1.55965321663e+18,2.301694393,-2.712748766,0.6919410825
320,1.55965321669e+18,2.254657745,-1.906406641,1.384051442
321,1.55965321674e+18,2.523438454,-2.187404633,0.8611507416
322,1.55965321679e+18,2.722580671,-1.679164648,0.914906919
323,1.55965321684e+18,2.161806345,-0.646191597,1.231945992
324,1.55965321689e+18,0.00117591559,-1.00293684,0.0517543368
325,1.55965321695e+18,-3.910194397,-1.331582427,-1.752130747
326,1.559653217e+18,-7.51918602,1.226721287,-1.697152853
327,1.55965321705e+18,-7.451379776,0.7887309194,-1.925616503
328,1.5596532171e+18,-3.096521616,1.284142613,-2.589627028
329,1.55965321715e+18,-0.4508643746,0.1125030518,1.264932752
330,1.55965321721e+18,2.055515528,-0.2240836918,1.435364127
331,1.55965321726e+18,1.694494367,0.8027807474,1.541654706
332,1.55965321731e+18,3.777544975,0.8443196416,0.760968864
333,1.55965321736e+18,4.436057568,0.2249022573,1.796996355
334,1.55965321741e+18,3.930871964,-1.78789866,0.02670885995
335,1.55965321747e+18,2.827649355,-1.16848135,-0.292773664
336,1.55965321752e+18,1.822776079,-0.4837014079,0.006550308317
337,1.55965321757e+18,1.49779582,-0.7598124743,0.08657365292
338,1.55965321762e+18,1.626688361,-0.7353779078,0.3480239809
339,1.55965321767e+18,-1.011638641,1.024524927,-0.07286217809
340,1.55965321773e+18,-5.884510517,0.02942537889,-1.113776565
341,1.55965321778e+18,-8.225956917,0.08684670925,-1.798556566
342,1.55965321783e+18,-6.764767647,0.0611903742,-2.01907897
343,1.55965321788e+18,-1.208337307,0.5737062693,0.3584086895
344,1.55965321793e+18,1.156322122,-1.173979163,2.723679066
345,1.55965321799e+18,3.033510923,-0.9161940217,0.4506493509
346,1.55965321804e+18,3.674308538,1.194956303,1.863580704
347,1.55965321809e+18,3.642543793,-1.936949849,0.8031185865
348,1.55965321814e+18,3.357269526,-1.990095139,0.333363235
349,1.55965321819e+18,2.320020437,-1.9931494,-0.5945410728
350,1.55965321825e+18,4.465990067,-2.830034971,-0.5817129612
351,1.5596532183e+18,2.178910494,1.623783708,-0.9201322794
352,1.55965321835e+18,0.7769747972,4.534556866,-1.266492963
353,1.5596532184e+18,-1.828976274,2.632322311,-2.886507511
354,1.55965321845e+18,-3.40623045,0.5529369116,-1.004431725
355,1.55965321851e+18,-6.265690327,1.359279037,-0.8278915882
356,1.55965321856e+18,-7.087914944,3.518687725,-0.8798151612
357,1.55965321861e+18,-2.907764435,-3.592394829,-2.48272562
358,1.55965321866e+18,-0.982927978,-0.9125288129,1.071288466
359,1.55965321871e+18,-0.0623540692,0.2988169491,0.6766694784
360,1.55965321877e+18,1.351188064,0.5004025102,1.657719135
361,1.55965321882e+18,4.2002635,-1.660227895,1.693149328
362,1.55965321887e+18,5.216742992,-2.607679844,2.293629885
363,1.55965321892e+18,5.474528313,-3.839184284,-1.074681163
364,1.55965321897e+18,3.323671818,0.664114356,-1.698374629
365,1.55965321903e+18,1.353020787,2.167453766,-1.388055086
366,1.55965321908e+18,0.374414593,0.8785280585,-0.823615551
367,1.55965321913e+18,-0.8442615867,1.297581673,0.2423443049
368,1.55965321918e+18,-0.6524499059,0.612801671,0.908187449
369,1.55965321923e+18,0.1190729067,0.4332073033,1.915504098
370,1.55965321929e+18,-0.04830417037,-2.064620495,1.55020678
371,1.55965321934e+18,-2.345768213,-2.803156853,0.2753310204
372,1.55965321939e+18,-8.125164986,-2.390822649,-0.8193394542
373,1.55965321944e+18,-7.990774155,-4.256405354,-2.05573082
374,1.55965321949e+18,-4.481352806,3.103910208,1.121990204
375,1.55965321955e+18,-1.565693498,-1.798283458,3.889209747
376,1.5596532196e+18,1.097679019,-1.492239952,2.687027216
377,1.55965321965e+18,3.007243872,0.3599034846,3.040718079
378,1.5596532197e+18,4.869771957,-2.251545429,1.356562495
379,1.55965321975e+18,4.498365879,-3.251531839,0.1152843237
380,1.55965321981e+18,3.591841698,-2.043240309,-0.532232821
381,1.55965321986e+18,2.478845358,0.1705352515,-0.9665580392
382,1.55965321991e+18,1.679222822,0.1644266099,-0.3233169317
383,1.55965321996e+18,0.7781965137,-1.238730788,1.279593468
384,1.55965322001e+18,-0.7428579926,-0.9931630492,1.525772214
385,1.55965322007e+18,-1.417253137,1.833310366,1.22889173
386,1.55965322012e+18,-2.585838318,-1.070132136,-0.8059004545
387,1.55965322017e+18,-5.444687843,2.04711318,-0.6079801321
388,1.55965322022e+18,-7.732988834,2.36781764,0.7450863719
389,1.55965322027e+18,-5.888175964,1.533986449,1.50744617
390,1.55965322033e+18,-2.382420063,-2.985194683,0.3351958096
391,1.55965322038e+18,1.552773714,-2.195956707,1.601519465
392,1.55965322043e+18,2.448912859,-1.699323297,2.639379501
393,1.55965322048e+18,2.232666731,-2.357836008,1.836702585
394,1.55965322053e+18,1.216186881,-0.3322068453,0.4323233962
395,1.55965322059e+18,1.975492477,-0.7585907578,0.7805166245
396,1.55965322064e+18,2.748236895,-2.001701593,1.489120245
397,1.55965322069e+18,3.685914993,-1.743916392,0.5044054985
398,1.55965322074e+18,2.920500994,-1.454977155,-0.0636991933
399,1.55965322079e+18,2.280925035,-2.371275187,1.302806377
400,1.55965322085e+18,-0.2468353659,-1.36395824,-0.3960098922
401,1.5596532209e+18,-2.014679432,-1.626019359,0.5917592049
402,1.55965322095e+18,-5.808152199,6.062941551,0.392617166
403,1.559653221e+18,-6.517367363,-3.061552763,-2.857186079
404,1.55965322105e+18,-8.827049255,2.905989647,0.2429551482
405,1.55965322111e+18,-1.861352205,2.686689138,0.8171685338
406,1.55965322116e+18,-0.03608686477,-0.5056925416,2.639990568
407,1.55965322121e+18,1.204580426,3.15644455,0.9888215661
408,1.55965322126e+18,3.346884727,3.519298553,2.20566535
409,1.55965322131e+18,5.028596878,-0.260735631,2.369987965
410,1.55965322137e+18,5.811115265,-3.609498739,1.886182666
411,1.55965322142e+18,5.363350868,-4.917361259,0.9423958659
412,1.55965322147e+18,4.082977772,-4.016335011,0.7450863719
413,1.55965322152e+18,1.643792629,-1.426266432,1.809824467
414,1.55965322157e+18,0.275454402,-1.262554526,1.052962542
415,1.55965322163e+18,-0.30670017,-3.848958015,0.7921229601
416,1.55965322168e+18,-1.112431407,3.345201969,1.063958049
417,1.55965322173e+18,-3.436162949,1.264594793,2.157406807
418,1.55965322178e+18,-4.963936806,-0.4171171188,0.2154662162
419,1.55965322183e+18,-4.797170639,0.7838439345,0.3712368608
420,1.55965322189e+18,-4.496624947,2.882165909,-0.8553805351
421,1.55965322194e+18,-3.851551294,4.684829712,-0.229854539
422,1.55965322199e+18,-0.9371131063,7.19365263,-0.6085910201
423,1.55965322204e+18,1.181978345,3.965230227,-0.8107874393
424,1.55965322209e+18,2.998691559,2.022067785,-0.4717571735
425,1.55965322215e+18,3.604669809,-1.447646737,0.09695836902
426,1.5596532222e+18,5.163598061,-2.685259819,0.2044706494
427,1.55965322225e+18,5.653512001,-2.475121975,0.2973221838
428,1.5596532223e+18,3.494103193,0.1998567879,-0.2041981965
429,1.55965322235e+18,2.907061815,0.2865996361,-0.7649724483
430,1.55965322241e+18,-0.2236225009,0.4900177717,-1.026422858
431,1.55965322246e+18,-2.691518068,-4.96989584,-1.919507861
432,1.55965322251e+18,-4.494181633,2.380034924,-3.367258549
433,1.55965322256e+18,-5.540593624,3.245630741,-3.923145771
434,1.55965322261e+18,-6.117250443,-0.9332982302,-3.636039019
435,1.55965322267e+18,-4.506399155,7.328654289,-2.684311152
436,1.55965322272e+18,0.4739856124,9.282200813,-0.04720583186
437,1.55965322277e+18,0.8447808027,-0.8123469353,1.26554358
438,1.55965322282e+18,1.111118078,0.5443847775,-0.1528855264
439,1.55965322287e+18,1.522230387,2.383699894,0.8196119666
440,1.55965322293e+18,2.235720873,-0.9308547974,0.6577326655
441,1.55965322298e+18,3.059777975,-3.8074193,-0.1693788767
442,1.55965322303e+18,1.865536571,-2.399374723,-1.487626076
443,1.55965322308e+18,0.1428966522,-0.4837014079,-2.748451948
444,1.55965322313e+18,-2.201604366,2.216933727,-1.720365763
445,1.55965322319e+18,-2.901655674,3.257848263,-2.521209955
446,1.55965322324e+18,-3.757477999,2.074602365,-3.907874346
447,1.55965322329e+18,-5.150250435,8.708599091,-2.235325098
448,1.55965322334e+18,-2.54857564,4.644512177,-0.3569145203
449,1.55965322339e+18,3.709127903,-5.905130386,1.8122679
450,1.55965322345e+18,1.581484199,2.646982908,2.831801891
451,1.5596532235e+18,0.858219862,3.353754044,1.457966208
452,1.55965322355e+18,0.9150303602,-0.5887702703,-1.020314097
453,1.5596532236e+18,0.9553474188,-1.104951382,-1.270158052
454,1.55965322365e+18,1.166095972,-0.07381084561,-0.394788146
455,1.55965322371e+18,1.528949976,-0.4275018275,1.628397584
456,1.55965322376e+18,2.754956484,-2.186182976,2.548971415
457,1.55965322381e+18,2.910116196,-1.916791201,3.095695734
458,1.55965322386e+18,0.1471727192,-1.500792146,2.677864075
459,1.55965322391e+18,-3.395234823,-0.9986608028,1.070677638
460,1.55965322397e+18,-5.29319334,-1.061579943,-1.617740393
461,1.55965322402e+18,-5.913221359,0.9774882197,-1.892018914
462,1.55965322407e+18,-4.24006176,4.134439945,-1.443643808
463,1.55965322412e+18,0.4232838154,4.290210247,2.012020826
464,1.55965322417e+18,1.464198112,-0.2411879301,1.723692536
465,1.55965322423e+18,1.364016294,-2.392655373,1.766453147
466,1.55965322428e+18,2.600407362,-0.6370286345,1.696203589
467,1.55965322433e+18,2.789775848,-1.903352261,2.04378581
468,1.55965322438e+18,2.125765085,-3.846514702,1.880684972
469,1.55965322443e+18,2.175856113,-3.381646156,2.953975201
470,1.55965322449e+18,2.21006465,-2.795215607,3.108523846
471,1.55965322454e+18,2.390269756,-1.133661985,3.817127705
472,1.55965322459e+18,2.306581259,-1.425044775,3.930137634
473,1.55965322464e+18,1.313314438,0.2749931812,2.315010071
474,1.55965322469e+18,-1.358610153,1.479619503,0.6461262107
475,1.55965322475e+18,-5.553421974,-0.3865738511,-1.737469912
476,1.5596532248e+18,-8.930285454,-0.3725239635,-2.593903065
477,1.55965322485e+18,-4.577869892,7.675625324,-0.9812188148
478,1.5596532249e+18,0.2974455655,-0.7958535552,-0.2970497012
479,1.55965322495e+18,1.5741539,-0.4329996109,0.9381198287
480,1.559653225e+18,0.6321997046,3.072145224,1.306471586
481,1.55965322506e+18,0.4440532327,1.790549874,-0.3037692308
482,1.55965322511e+18,0.5906608701,0.7649071217,-0.9299061298
483,1.55965322516e+18,0.6450278759,-0.1660514921,-0.926240921
484,1.55965322521e+18,1.169150233,0.7404725552,0.2680006325
485,1.55965322526e+18,2.924165964,-0.6626849174,0.9564457536
486,1.55965322532e+18,4.413455486,-1.402442694,1.691927433
487,1.55965322537e+18,4.865496159,-1.664503932,1.746905446
488,1.55965322542e+18,2.852083921,-0.1251235306,1.010201931
489,1.55965322547e+18,1.828884721,-0.9840000868,-2.422250032
490,1.55965322552e+18,-0.7660708427,1.918220758,-2.245098829
491,1.55965322558e+18,-4.076960564,-2.94671011,-2.950037479
492,1.55965322563e+18,-8.513674736,0.7471920252,-1.662944436
493,1.55965322568e+18,-5.33961916,4.797228336,-1.538327932
494,1.55965322573e+18,-0.5449376106,-0.5716660023,-0.5175721049
495,1.55965322578e+18,-0.4398688078,-1.896021843,2.062111855
496,1.55965322584e+18,-0.8851895928,-0.09885632247,2.420689583
497,1.55965322589e+18,-0.6267935634,-0.5789964199,1.877019644
498,1.55965322594e+18,0.4819268584,-1.266830683,1.370612383
499,1.55965322599e+18,1.174037218,-2.177630901,1.123822927
500,1.55965322604e+18,1.570488811,-1.958940983,1.457355261
501,1.5596532261e+18,2.420202494,-2.496502399,1.756068349
502,1.55965322615e+18,2.541153669,-2.365166426,2.084103107
503,1.5596532262e+18,2.44463706,-2.304690599,2.889834166
504,1.55965322625e+18,0.2772870064,-2.430529118,1.372444987
505,1.5596532263e+18,-0.5174486637,-1.596086979,1.743851066
506,1.55965322636e+18,-1.07822299,-1.97971046,0.4927990437
507,1.55965322641e+18,-4.610856533,1.309798956,0.4011692405
508,1.55965322646e+18,-6.456891537,1.070950508,-1.851701736
509,1.55965322651e+18,-5.824645996,1.267649174,-2.772886515
510,1.55965322656e+18,-1.018358111,4.717205048,1.783557296
511,1.55965322662e+18,-0.7526317835,-0.5301271677,0.7304255962
512,1.55965322667e+18,0.5265200138,1.38798964,0.4402646124
513,1.55965322672e+18,1.535669446,3.417284012,1.005314946
514,1.55965322677e+18,2.866744757,1.155860782,1.040745139
515,1.55965322682e+18,3.387812853,-1.224070072,1.535546064
516,1.55965322688e+18,3.6071136,-1.935728192,1.43780756
517,1.55965322693e+18,3.314508915,-1.864256859,1.950934291
518,1.55965322698e+18,3.015185118,-2.148309231,2.856236458
519,1.55965322703e+18,0.9700081944,-3.605833769,2.530645609
520,1.55965322708e+18,0.4196186364,-6.178798199,0.427436471
521,1.55965322714e+18,-1.477117896,1.527266979,-0.97633183
522,1.55965322719e+18,-4.789229393,5.578525543,-1.504119396
523,1.55965322724e+18,-7.54850769,0.8589804173,-3.227370262
524,1.55965322729e+18,-6.096480846,2.113697529,-2.992187262
525,1.55965322734e+18,-2.31033802,8.254115105,-0.1815961897
526,1.5596532274e+18,-0.3146414161,2.675693512,1.88801527
527,1.55965322745e+18,1.15326786,-0.7695863843,0.4048344493
528,1.5596532275e+18,1.082407355,3.218141794,0.2973221838
529,1.55965322755e+18,1.883251667,2.621937513,0.5838180184
530,1.5596532276e+18,2.819708347,-1.863035202,0.5599942207
531,1.55965322766e+18,2.858803511,-2.061566353,0.5404465199
532,1.55965322771e+18,3.2925179,-5.081073284,0.6271893978
533,1.55965322776e+18,2.759843349,0.6457883716,2.0505054
534,1.55965322781e+18,1.867980123,0.7752918601,2.677864075
535,1.55965322786e+18,1.661507726,-1.075019002,1.002871513
536,1.55965322792e+18,1.253449678,-1.084182024,0.6620087028
537,1.55965322797e+18,-0.6726084352,1.79543674,-1.20479548
538,1.55965322802e+18,-3.970669985,1.784441233,-1.173641324
539,1.55965322807e+18,-6.784926414,-1.179476976,-1.115609169
540,1.55965322812e+18,-6.561349392,-0.1293995827,-1.674550891
541,1.55965322818e+18,-4.284654617,-0.03532633558,-1.327579379
542,1.55965322823e+18,-0.4881271422,2.731282473,1.5966326
543,1.55965322828e+18,-0.01592831127,0.09173363447,1.339458227
544,1.55965322833e+18,0.2827847898,-0.02249816619,2.240484715
545,1.55965322838e+18,0.5857739449,-1.828826666,1.932608366
546,1.55965322844e+18,1.301707983,-2.927773237,2.413359404
547,1.55965322849e+18,1.61386013,-2.326681852,2.982074976
548,1.55965322854e+18,1.632186174,-2.798269749,3.94785285
549,1.55965322859e+18,1.920514584,-3.129358768,4.968608856
550,1.55965322864e+18,1.116615891,-3.0163486,5.242276192
551,1.5596532287e+18,1.529560804,-3.609498739,2.847073793
552,1.55965322875e+18,0.6163172126,-0.4769819081,2.864788771
553,1.5596532288e+18,-0.0928973332,0.004990769085,0.622913301
554,1.55965322885e+18,-2.357374668,2.907822609,-0.5206264257
555,1.5596532289e+18,-5.197287083,2.384310722,-0.03621025756
556,1.55965322896e+18,-5.932157993,0.27865839,-0.7044968009
557,1.55965322901e+18,-3.189984083,0.6341819167,-0.1663245559
558,1.55965322906e+18,-0.6200740337,4.892523289,1.038912654
559,1.55965322911e+18,-1.333564639,2.350102425,-1.177917361
560,1.55965322916e+18,-0.5944177508,-0.4953078628,0.4927990437
561,1.55965322922e+18,-0.172920689,-0.06098267809,0.4763056934
562,1.55965322927e+18,0.5240765214,-0.8373923898,1.921001911
563,1.55965322932e+18,1.435487509,-2.061566353,2.575238705
564,1.55965322937e+18,2.184408188,-3.213658094,2.654651165
565,1.55965322942e+18,2.586357594,-2.414035559,2.917934179
566,1.55965322948e+18,2.249159813,-1.519118071,1.538600326
567,1.55965322953e+18,1.309649348,-0.7158302069,1.117103219
568,1.55965322958e+18,1.037203312,0.990316391,2.047451019
569,1.55965322963e+18,0.1422857791,-1.739640355,1.746905446
570,1.55965322968e+18,-0.1307709813,-0.6779565811,1.567921877
571,1.55965322974e+18,-1.152748585,1.362333417,2.231321573
572,1.55965322979e+18,-0.3305239379,-1.730477452,1.715751171
573,1.55965322984e+18,-1.94565165,-1.610136986,1.317467213
574,1.55965322989e+18,-4.665223598,-0.3853521049,-0.7521443367
575,1.55965322994e+18,-5.656658173,2.257861853,-2.692252398
576,1.55965323e+18,-4.624295712,5.502778053,-3.411851645
577,1.55965323005e+18,-1.50216341,1.629892349,1.12626636
578,1.5596532301e+18,-0.1350470334,-4.293056965,-0.06736438721
579,1.55965323015e+18,0.4306142032,1.216947436,-0.4656485319
580,1.5596532302e+18,1.369513988,3.400790691,0.4811925888
581,1.55965323026e+18,2.003592253,1.856523275,1.112827301
582,1.55965323031e+18,2.269929409,-0.661463201,0.8306075335
583,1.55965323036e+18,2.816653728,-0.2228619754,0.06580423564
584,1.55965323041e+18,3.233263969,-0.6852869987,-0.09546418488
585,1.55965323046e+18,4.195376396,-1.918623924,-2.654378653
586,1.55965323051e+18,2.720137119,1.73557198,-2.475395203
587,1.55965323057e+18,1.304151535,1.973198652,-2.387430668
588,1.55965323062e+18,-2.645703077,-0.5154664516,-2.60917449
589,1.55965323067e+18,-5.19056797,-5.625353813,-1.956770658
590,1.55965323072e+18,-3.365913391,-1.374342918,0.6919410825
591,1.55965323077e+18,-1.63472116,-1.275382757,2.551414967
592,1.55965323083e+18,-1.461846352,-2.294305801,1.660773396
593,1.55965323088e+18,-1.690309882,3.58343935,1.522717953
594,1.55965323093e+18,-0.5999154449,3.651856184,0.6901085377
595,1.55965323098e+18,2.142869473,1.34156394,1.616791129
596,1.55965323103e+18,3.687747478,-0.2344684154,2.519039154
597,1.55965323109e+18,3.803201199,-1.493461728,1.805548429
598,1.55965323114e+18,3.461727619,-0.6950607896,0.2020271868
599,1.55965323119e+18,1.480691552,0.4246551692,-0.1956460923
600,1.55965323124e+18,0.5766109824,-1.491018176,-1.41982007
601,1.55965323129e+18,0.4019035101,-0.7830253839,0.2508963943
602,1.55965323135e+18,-1.161911488,-2.608901501,-0.300104022
603,1.5596532314e+18,-3.583992243,-2.642499208,-0.3636340201
604,1.55965323145e+18,-4.401940823,-1.340134501,-0.4442682564
605,1.5596532315e+18,-4.416601658,0.8137763739,-1.637288094
606,1.55965323155e+18,-1.686644793,4.018375397,2.983907461
607,1.55965323161e+18,-0.1967444271,-4.666906834,-0.2487913668
608,1.55965323166e+18,-0.6060240865,0.6867163777,2.171456814
609,1.55965323171e+18,-0.3665649593,2.553520441,0.8648159504
610,1.55965323176e+18,0.1080773324,-0.5240185261,1.239887238
611,1.55965323181e+18,0.996886313,-3.324835777,1.205067873
612,1.55965323187e+18,1.291934252,-1.745138168,1.377331853
613,1.55965323192e+18,0.8539437652,-2.345618725,0.4756948352
614,1.55965323197e+18,0.5240765214,-3.950972557,-0.8773717284
615,1.55965323202e+18,-1.501552582,0.981764257,-0.4980243742
616,1.55965323207e+18,-3.613313675,0.9994793534,-0.4308291972
617,1.55965323213e+18,-2.975570202,0.9512209892,-1.634233713
618,1.55965323218e+18,-1.910221457,1.477786899,-1.836430192
619,1.55965323223e+18,0.05676465109,0.9310625196,1.136040211
620,1.55965323228e+18,0.007284567691,1.380659342,2.630216599
621,1.55965323233e+18,0.8930391669,-0.4085650146,0.958889246
622,1.55965323239e+18,1.526506424,0.5236153603,1.206900477
623,1.55965323244e+18,1.74947226,-0.4158953726,1.732855439
624,1.55965323249e+18,2.122710943,-2.301025629,1.057238579
625,1.55965323254e+18,2.304748774,-1.998036385,0.7395886183
626,1.55965323259e+18,2.316355228,-1.65167582,-0.4601507187
627,1.55965323265e+18,2.651720285,2.425238848,1.043188572
628,1.5596532327e+18,0.09647089243,-0.4910317957,0.2166879624
629,1.55965323275e+18,-3.929131031,-1.67855382,-0.7912396789
630,1.5596532328e+18,-6.458113194,-1.194748521,-2.71485424
631,1.55965323285e+18,-6.188721657,4.670779228,-0.5450610518
632,1.55965323291e+18,-1.982914448,5.427030563,-0.20969598
633,1.55965323296e+18,1.503904462,0.1479332447,2.658316374
634,1.55965323301e+18,2.274205685,-2.382270575,1.330295324
635,1.55965323306e+18,2.401876211,0.3385231793,0.7585254312
636,1.55965323311e+18,2.067733049,-0.1397842914,1.308304191
637,1.55965323317e+18,2.014587879,-2.604014635,-0.1125684157
638,1.55965323322e+18,2.345676661,-2.100050688,-0.6318038702
639,1.55965323327e+18,1.979157567,-0.3157134652,-0.1162336022
640,1.55965323332e+18,3.661480427,-0.6718478799,0.7652449608
641,1.55965323337e+18,3.178286076,-0.8960354328,1.862969875
642,1.55965323343e+18,0.9810037613,-1.462918401,0.908187449
643,1.55965323348e+18,-2.764210939,0.7361964583,-0.4925266206
644,1.55965323353e+18,-5.761115551,-0.02616335824,-1.583531976
645,1.55965323358e+18,-6.042113781,-1.868533015,-2.279307365
646,1.55965323363e+18,-5.082444668,3.925523996,-1.24144733
647,1.55965323369e+18,-0.735527575,6.527810097,1.91489327
648,1.55965323374e+18,1.16365242,-0.9155831337,0.7835709453
649,1.55965323379e+18,1.244286776,-0.5075252056,0.922237277
650,1.55965323384e+18,1.863704085,-0.9045875669,0.4506493509
651,1.55965323389e+18,1.73969841,0.4613071084,0.7072127461
652,1.55965323395e+18,2.381717682,-1.179476976,-0.1388356239
653,1.559653234e+18,2.528325558,0.6152451634,0.733479917
654,1.55965323405e+18,4.663299084,1.332401037,2.782932758
655,1.5596532341e+18,2.996248245,-2.717024565,1.892902255
656,1.55965323415e+18,0.6975623369,-3.696241617,1.890458703
657,1.55965323421e+18,-3.259011984,0.2707171738,-0.4650376439
658,1.55965323426e+18,-6.949248791,-0.4824796915,-1.634844661
659,1.55965323431e+18,-6.692685604,-0.7463734746,-2.333674669
660,1.55965323436e+18,-4.979208469,2.402025938,-2.50593853
661,1.55965323441e+18,-0.7923380136,3.98111248,0.8385487795
662,1.55965323447e+18,0.4837594628,0.6598383188,1.448803067
663,1.55965323452e+18,1.573543072,0.1112813205,2.628384113
664,1.55965323457e+18,2.490451813,-2.107381344,1.863580704
665,1.55965323462e+18,2.940659523,-0.8135686517,2.018740416
666,1.55965323467e+18,2.671878576,-1.344410539,1.399323106
667,1.55965323473e+18,2.120267391,-2.180685043,0.8580964208
668,1.55965323478e+18,1.89546895,-1.790342212,1.063958049
669,1.55965323483e+18,1.788567662,-1.49957037,0.7505841851
670,1.55965323488e+18,1.404333353,-0.006615670864,1.283258677
671,1.55965323493e+18,0.1966527998,0.1803091019,1.515387416
672,1.55965323499e+18,-3.018941879,-0.1807122678,-0.7185467482
673,1.55965323504e+18,-6.483769417,-1.550272107,-1.843149662
674,1.55965323509e+18,-7.028661251,1.829645276,-2.087495804
675,1.55965323514e+18,-3.031769991,3.919415236,-0.7026642561
676,1.55965323519e+18,0.04637994245,1.051402926,0.5227314234
677,1.55965323525e+18,1.354853272,0.9732121825,1.698036075
678,1.5596532353e+18,1.509402275,1.09660697,1.430477142
679,1.55965323535e+18,1.569266915,0.1271638125,0.3382501304
680,1.5596532354e+18,1.766576409,0.1082269996,0.5514420867
681,1.55965323545e+18,2.434863091,-1.048140883,-0.4528203309
682,1.55965323551e+18,2.214340925,-0.3151026368,-0.2707825005
683,1.55965323556e+18,1.36890316,1.25543189,0.5471660495
684,1.55965323561e+18,0.3450930417,-1.532557011,1.509889603
685,1.55965323566e+18,-0.1161102131,-3.290016413,0.6772803068
686,1.55965323571e+18,-2.915094614,-2.671820879,-0.493137449
687,1.55965323577e+18,-6.839293003,-0.8147904277,-1.518169284
688,1.55965323582e+18,-7.493529797,2.859564066,-1.96654439
689,1.55965323587e+18,-2.303007841,4.602362633,0.778073132
690,1.55965323592e+18,0.03782783076,0.2395630181,1.302806377
691,1.55965323597e+18,0.8466134071,-0.7811928391,0.2032489181
692,1.55965323603e+18,1.963886023,0.9933707118,1.308915019
693,1.55965323608e+18,2.24977088,1.306744576,1.841589451
694,1.55965323613e+18,2.670656919,-4.08963871,-1.645840168
695,1.55965323618e+18,2.263210058,1.424641609,-0.2909410596
696,1.55965323623e+18,2.762286901,2.543135643,0.6925520301
697,1.55965323629e+18,2.593077183,-1.732920885,0.2319595814
698,1.55965323634e+18,1.167928576,-0.8880942464,0.3095394671
699,1.55965323639e+18,-0.2786003649,3.27861762,2.570351839
700,1.55965323644e+18,-0.8253247738,-2.915555954,0.1158951893
701,1.55965323649e+18,-3.330483198,-3.285129309,-1.027033687
702,1.55965323655e+18,-6.161843777,-0.1562776417,-1.567649364
703,1.5596532366e+18,-7.30355072,-0.645580709,-2.717908621
704,1.55965323665e+18,-1.76727891,3.494863987,1.793941975
705,1.5596532367e+18,-0.5638744235,1.433193684,1.941771388
706,1.55965323675e+18,1.21313262,-2.25459981,0.7884578109
707,1.55965323681e+18,2.795884609,-0.1043541133,1.47079432
708,1.55965323686e+18,4.17338562,0.3800620437,2.309512138
709,1.55965323691e+18,3.706073761,-2.758563757,0.8770332932
710,1.55965323696e+18,3.383536816,-1.999258041,1.464685678
711,1.55965323701e+18,2.264431715,-1.376175523,0.8501552343
712,1.55965323707e+18,1.42876792,-1.640069366,0.530061841
713,1.55965323712e+18,0.1923767328,-0.2778398395,0.7792948484
714,1.55965323717e+18,-1.268202066,-0.05487402529,1.606406331
715,1.55965323722e+18,-2.875999212,-0.4946970046,-0.01116478443
716,1.55965323727e+18,-4.766016483,0.810111165,-1.036807537
717,1.55965323733e+18,-5.466067791,0.8852475882,-0.9897709489
718,1.55965323738e+18,-3.39645648,1.022692204,-0.1620484889
719,1.55965323743e+18,-1.442909598,2.215101242,2.567297459
720,1.55965323748e+18,-0.05624542013,0.1534310281,0.1146734506
721,1.55965323753e+18,1.889360309,1.61645329,0.3865084946
722,1.55965323759e+18,3.420188665,1.506497502,1.498283148
723,1.55965323764e+18,3.793427229,-0.2008708119,1.7853899
724,1.55965323769e+18,3.296793938,-1.757355452,0.3590195477
725,1.55965323774e+18,2.448912859,0.7765135765,2.589288473
726,1.55965323779e+18,2.232666731,-1.901519656,1.348621249
727,1.55965323785e+18,0.9950536489,-4.129956245,1.522717953
728,1.5596532379e+18,0.4110665023,-0.6003767252,1.918558478
729,1.55965323795e+18,-0.3158631623,0.1949698627,1.719416499
730,1.559653238e+18,-0.9988104701,1.048959494,1.012645364
731,1.55965323805e+18,-2.931588173,0.6018061042,-1.23778224
732,1.55965323811e+18,-5.157580853,-0.2790615857,-2.372159004
733,1.55965323816e+18,-7.967561245,-0.7329344749,-2.183401585
734,1.55965323821e+18,-4.248613834,2.536416292,-0.2988823354
735,1.55965323826e+18,-0.7556861043,2.529696703,0.7469190359
736,1.55965323831e+18,1.121502757,-1.248504758,1.308915019
737,1.55965323837e+18,1.868590951,1.065452933,2.079826832
738,1.55965323842e+18,2.505723476,-1.03286922,2.202610731
739,1.55965323847e+18,3.027402401,-0.5802181363,2.206887007
740,1.55965323852e+18,2.798327923,-1.652286649,1.800050616
741,1.55965323857e+18,2.409206867,-4.068869591,1.715140343
742,1.55965323863e+18,2.372554779,-3.82085824,1.579528332
743,1.55965323868e+18,2.253436089,-1.108005762,0.7365342975
744,1.55965323873e+18,2.159973621,2.780151606,0.632687211
745,1.55965323878e+18,-0.2963154614,0.5156741142,0.045645684
746,1.55965323883e+18,-2.455724239,-0.07625430822,-1.822380304
747,1.55965323889e+18,-5.883899689,2.516257763,-3.738664627
748,1.55965323894e+18,-7.153277874,2.121639013,-3.915204525
749,1.55965323899e+18,-6.53263855,2.019624472,-3.051441193
750,1.55965323904e+18,0.4074012935,4.567543507,2.329060078
751,1.55965323909e+18,1.661507726,-2.693200827,2.88128233
752,1.55965323915e+18,1.464198112,-1.696879745,1.771950841
753,1.5596532392e+18,1.053696752,0.05202739313,2.031568527
754,1.55965323925e+18,1.426324606,-1.848985195,0.6821672916
755,1.5596532393e+18,1.681666255,-4.275341988,-0.03559939563
756,1.55965323935e+18,1.427546263,-2.257043123,0.5325053334
757,1.55965323941e+18,1.697548747,-1.133661985,1.786611557
758,1.55965323946e+18,1.795897961,-3.366985321,2.261864662
759,1.55965323951e+18,1.847821474,-3.205717087,1.63328445
760,1.55965323956e+18,0.02622138895,-3.032231092,-1.424706936
761,1.55965323961e+18,-2.424570084,0.8644781709,-1.299479604
762,1.55965323966e+18,-3.954176426,2.673250198,-2.129034758
763,1.55965323972e+18,-5.764781475,4.889469147,-2.313515902
764,1.55965323977e+18,-6.079988003,6.766047478,-2.317791939
765,1.55965323982e+18,-4.912013054,4.136883259,-0.96961236
766,1.55965323987e+18,0.2430785596,-4.359641552,0.6223024726
767,1.55965323992e+18,2.302916288,-3.305288076,-0.3147647977
768,1.55965323998e+18,1.930899143,6.000022411,0.1959185302
769,1.55965324003e+18,3.270526648,4.689716339,1.131764054
770,1.55965324008e+18,4.061597347,-1.228346229,0.4304907918
771,1.55965324013e+18,4.374360561,-2.04934907,0.06458250433
772,1.55965324018e+18,4.270513058,-0.5765529275,0.5893157125
773,1.55965324024e+18,3.480664253,-0.1544450521,0.9197938442
774,1.55965324029e+18,1.25589323,-0.07930862904,-0.7472574115
775,1.55965324034e+18,-0.1558164507,-2.346229553,-0.8413306475
776,1.55965324039e+18,-0.8686961532,-5.849541664,-1.471743584
777,1.55965324044e+18,-4.021371841,-3.870949268,-1.872471213
778,1.5596532405e+18,-6.258360386,4.538832664,0.528840065
779,1.55965324055e+18,-5.268147469,6.508872986,-1.287873149
780,1.5596532406e+18,0.1978745311,-1.159929156,-0.6672340631
781,1.55965324065e+18,0.05004513636,-1.199635506,1.145203114
782,1.5596532407e+18,0.2290286571,4.252336979,0.8813093305
783,1.55965324076e+18,0.5961586833,3.952402115,-1.343461871
784,1.55965324081e+18,0.04637994245,-0.1660514921,-0.8285024762
785,1.55965324086e+18,1.731757164,-2.029801369,-0.1883157045
786,1.55965324091e+18,3.477610111,0.1974133104,1.144592285
787,1.55965324096e+18,4.092140198,-0.4091758728,0.9466719627
788,1.55965324102e+18,4.664521217,0.3232515454,1.343123436
789,1.55965324107e+18,3.304124355,0.801559031,0.7762405276
790,1.55965324112e+18,3.834966421,-3.511149645,-0.7551986575
791,1.55965324117e+18,1.623633981,-1.194137692,-1.865140796
792,1.55965324122e+18,-2.378144264,1.151584864,-1.028255343
793,1.55965324128e+18,-4.54549408,0.157096222,-0.5181829333
794,1.55965324133e+18,-5.625504017,-2.725576878,-0.7564204335
795,1.55965324138e+18,-5.120929241,-0.1043541133,0.1794251651
796,1.55965324143e+18,-4.423321247,3.171716213,-0.8969193697
797,1.55965324148e+18,-2.631653309,2.218155622,0.426825583
798,1.55965324154e+18,-1.177794099,-0.2937223315,1.300362945
799,1.55965324159e+18,-0.03791946173,-1.435429454,1.438418508
800,1.55965324164e+18,0.7177208066,-1.54599607,1.547763348
801,1.55965324169e+18,1.759246111,-1.632739067,1.46102047
802,1.55965324174e+18,2.133095741,-1.371288538,2.454287291
803,1.5596532418e+18,2.191738844,-4.151336193,1.538600326
804,1.55965324185e+18,1.321255684,-2.646775246,1.244774222
805,1.5596532419e+18,0.755594492,-0.4837014079,0.777462244
806,1.55965324195e+18,0.7103904486,0.7294769287,0.778073132
807,1.559653242e+18,0.2296395153,-0.3609175086,1.273484826
808,1.55965324206e+18,-0.5052313805,-2.697477102,0.9533914328
809,1.55965324211e+18,-1.26698029,-1.094566703,-0.1663245559
810,1.55965324216e+18,-4.244337559,1.57002759,-1.220067143
811,1.55965324221e+18,-5.252875805,4.529058456,-1.217012763
812,1.55965324226e+18,-1.077001214,2.858342171,-0.496802628
813,1.55965324232e+18,0.01766927727,1.619507551,0.5636594296
814,1.55965324237e+18,-0.2926502824,0.7386399508,0.422549516
815,1.55965324242e+18,-0.137490496,0.3660121262,0.1433841288
816,1.55965324247e+18,0.1209055036,0.2084088922,0.3736803234
817,1.55965324252e+18,0.3573103547,-0.2894462943,0.632687211
818,1.55965324258e+18,-0.7581295967,-0.3047178984,0.8990244269
819,1.55965324263e+18,-1.160689831,-3.486715078,-1.57559073
820,1.55965324268e+18,0.1056338698,-3.388365746,-0.6733427048
821,1.55965324273e+18,-0.2895959616,0.8076677322,-0.1266183108
822,1.55965324278e+18,-0.7758446932,-2.172743797,-1.15836978
823,1.55965324284e+18,-0.6151871085,0.4509223998,-1.870027661
824,1.55965324289e+18,-2.342714071,-1.266219854,-0.882869482
825,1.55965324294e+18,-0.002489275998,1.43441546,1.443916202
826,1.55965324299e+18,1.399446368,-1.302260876,1.886182666
827,1.55965324304e+18,1.71343112,-0.7384322286,1.986975431
828,1.5596532431e+18,1.201526165,0.5840910077,2.034012079
829,1.55965324315e+18,0.8246222734,-0.6596305966,2.150687218
830,1.5596532432e+18,1.180756688,-2.851415157,0.6119177938
831,1.55965324325e+18,2.429365158,-2.25459981,-0.969001472
832,1.5596532433e+18,2.217395067,2.538859844,-0.2261893451
833,1.55965324336e+18,0.03049744852,3.37818861,0.4445406795
834,1.55965324341e+18,-1.091051102,0.6946576834,-0.4595398903
835,1.55965324346e+18,-2.213210583,-0.1129062176,-2.26403594
836,1.55965324351e+18,-3.921190023,1.475343347,-3.446671009
837,1.55965324356e+18,-3.017109394,1.006809711,-3.380697489
838,1.55965324362e+18,1.161819816,2.616439581,1.585026145
839,1.55965324367e+18,2.381106853,-1.319975972,3.189158201
840,1.55965324372e+18,2.062846184,-1.84409833,3.045604944
841,1.55965324377e+18,0.1691638678,-2.324849367,1.340680003
842,1.55965324382e+18,-0.9462760687,-0.7653102875,0.9759934545
843,1.55965324388e+18,-1.420918345,-1.677332163,0.1885881573
844,1.55965324393e+18,-1.393429399,-3.332165956,-0.4564855397
845,1.55965324398e+18,-0.9273392558,-3.480606318,-0.4577072859
846,1.55965324403e+18,-0.7679034472,-2.756731033,-1.54260397
847,1.55965324408e+18,-0.03181080893,1.614620686,-1.760682821
848,1.55965324414e+18,-2.709233046,3.799685717,-0.5102416873
849,1.55965324419e+18,-2.773374081,8.388505936,-1.392331004
850,1.55965324424e+18,-0.6133545041,0.1937481165,-1.324524999
851,1.55965324429e+18,0.2113135457,-1.278437138,0.2490638196
852,1.55965324434e+18,-0.3708409965,1.012918353,-0.00322353607
853,1.5596532444e+18,0.06898195297,0.3201972246,0.2832722664
854,1.55965324445e+18,0.960845232,-1.632128,0.7689101696
855,1.5596532445e+18,0.7610923052,-1.798894286,0.3663499355
856,1.55965324455e+18,1.39517045,-1.345021367,0.7817382812
857,1.5596532446e+18,1.459922075,-2.082335711,-0.1742658019
858,1.55965324466e+18,1.287658095,-1.309591174,-1.423485279
859,1.55965324471e+18,1.413496375,3.125901461,-0.2365740687
860,1.55965324476e+18,-1.351890683,1.641498804,-0.08874467015
861,1.55965324481e+18,-1.438022614,0.8834149837,-1.322081566
862,1.55965324486e+18,-0.7062060833,2.504651308,0.6907193661
863,1.55965324492e+18,-0.03364340216,2.327500582,0.6064199805
864,1.55965324497e+18,-0.7544643879,-0.6669610143,0.8666485548
865,1.55965324502e+18,-0.3732844889,0.5920323133,0.6510131359
866,1.55965324507e+18,-0.3531259298,0.6097473502,0.6442936659
867,1.55965324512e+18,0.4043469727,-0.952235043,-0.05575794727
868,1.55965324518e+18,1.64684689,-2.258875847,0.9882107377
869,1.55965324523e+18,2.898509741,-4.133010387,0.8232771754
870,1.55965324528e+18,3.506931543,-4.172105789,0.7481406927
871,1.55965324533e+18,1.448926568,-3.01268363,-0.7118272185
872,1.55965324538e+18,-0.2462245077,-1.881361127,-1.286040545
873,1.55965324544e+18,-3.278559685,1.961592197,-0.6000388861
874,1.55965324549e+18,-5.114209652,0.9164017439,-1.947607636
875,1.55965324554e+18,-3.877207518,3.890093803,-1.760682821
876,1.55965324559e+18,-0.02142609842,6.432514668,3.289950848
877,1.55965324564e+18,0.7232186198,3.122236013,3.389522076
878,1.5596532457e+18,2.351785421,-4.144005775,-1.872471213
879,1.55965324575e+18,1.152045965,5.461239338,0.5318943858
880,1.5596532458e+18,1.739087582,1.19251287,-0.3550819159
881,1.55965324585e+18,2.247327328,-1.948556304,-0.3159865439
882,1.5596532459e+18,2.116602182,-2.795826435,0.2295161337
883,1.55965324596e+18,2.36888957,-2.06278801,0.9216264486
884,1.55965324601e+18,1.439152718,-1.56920898,2.250258207
885,1.55965324606e+18,0.2119244188,-4.451271057,0.3028199375
886,1.55965324611e+18,-2.307283878,-0.7646994591,2.176343679
887,1.55965324616e+18,-5.655436039,-4.770143032,0.6137503386
888,1.55965324622e+18,-6.896714211,0.2701062858,-0.5658304691
889,1.55965324627e+18,-1.342116714,8.206467628,-0.7747463584
890,1.55965324632e+18,3.050615311,-2.199621916,0.4555362463
891,1.55965324637e+18,0.7177208066,1.485117316,0.5868723392
892,1.55965324642e+18,-1.073946953,4.860147953,-1.223121405
893,1.55965324648e+18,0.3970166147,7.469153404,-3.298230648
894,1.55965324653e+18,3.313287258,7.606597424,-1.685546398
895,1.55965324658e+18,4.484315872,1.079502702,-1.045359612
896,1.55965324663e+18,2.867966652,-0.1996490955,0.1977511346
897,1.55965324668e+18,0.9535148144,-0.4543798864,2.37487483
898,1.55965324674e+18,-0.5137835145,-2.695033789,-1.90667963
899,1.55965324679e+18,-4.324971676,2.334830761,-0.4705354571
900,1.55965324684e+18,-4.338410854,-0.5185207725,-1.325135946
901,1.55965324689e+18,-0.4698011875,-1.93328464,0.324811101
902,1.55965324694e+18,-0.3903886974,-0.8795421124,1.096944809
903,1.55965324699e+18,-0.6493955851,2.468610287,1.374277592
904,1.55965324705e+18,0.2375807613,1.566362262,1.784168243
905,1.5596532471e+18,1.510013103,-0.9986608028,2.678474903
906,1.55965324715e+18,1.784902453,-3.211825609,1.351064682
907,1.5596532472e+18,1.904021144,-1.358460426,0.9130743146
908,1.55965324725e+18,2.067733049,-0.2301923484,-0.3648557663
909,1.55965324731e+18,1.538112879,0.3867815435,-1.504119396
910,1.55965324736e+18,-1.480783224,0.008045095019,-0.9470103383
911,1.55965324741e+18,-3.20464468,-5.208133221,-2.20844698
912,1.55965324746e+18,-3.958452702,-5.203246117,-0.2494022399
913,1.55965324751e+18,-4.90590477,1.339120507,0.6546783447
914,1.55965324757e+18,-2.709844112,4.863202095,0.8770332932
915,1.55965324762e+18,0.369527638,-0.4672080576,2.120754957
916,1.55965324767e+18,1.033538222,-2.38715744,1.245995879
917,1.55965324772e+18,1.210689068,1.103937387,1.233167768
918,1.55965324777e+18,1.695716023,0.2450608015,1.509278774
919,1.55965324783e+18,2.309635639,-2.142811537,1.43780756
920,1.55965324788e+18,2.867966652,-1.980321288,1.505613685
921,1.55965324793e+18,1.878364921,0.519339323,2.271027803
922,1.55965324798e+18,0.5766109824,-0.9253569841,0.6198589802
923,1.55965324803e+18,-1.387320757,0.7410833836,0.5844288468
924,1.55965324809e+18,-2.163730383,1.670209527,1.51722014
925,1.55965324814e+18,-3.389126301,-1.994371176,0.2001945972
926,1.55965324819e+18,-4.549769878,-1.75124681,-0.5285676122
927,1.55965324824e+18,-4.304812908,-2.902727842,-1.187080264
928,1.55965324829e+18,-3.758699656,-2.209395647,0.1439950019
929,1.55965324835e+18,-0.2150703818,2.799699306,3.382191658
930,1.5596532484e+18,0.6279236674,-3.147073984,0.9882107377
931,1.55965324845e+18,0.416564256,-0.3987911642,2.293629885
932,1.5596532485e+18,0.3359300792,0.707485795,2.344942331
933,1.55965324855e+18,0.8490568995,-1.378619075,2.50071311
934,1.55965324861e+18,1.233901978,-2.065842628,2.851349831
935,1.55965324866e+18,1.560714841,-2.378605366,3.567894697
936,1.55965324871e+18,2.02436161,-1.359071255,4.935011387
937,1.55965324876e+18,2.522216797,-0.8654921651,3.503143072
938,1.55965324881e+18,2.373165846,-2.195345879,0.6351306438
939,1.55965324887e+18,0.4855920374,1.577357888,-0.636079967
940,1.55965324892e+18,-1.960923195,1.610955477,0.4256038368
941,1.55965324897e+18,-4.329247952,-4.757925987,-1.704483271
942,1.55965324902e+18,-6.177726269,-5.820219994,-1.694709301
943,1.55965324907e+18,-6.216210365,5.601738453,-1.641564131
944,1.55965324913e+18,-4.356125832,6.239481449,-0.1180661991
945,1.55965324918e+18,0.728105545,-2.952818871,1.047464728
946,1.55965324923e+18,0.173439905,0.4173248112,1.46102047
947,1.55965324928e+18,-0.2804329395,2.102091074,0.6870542169
948,1.55965324933e+18,0.1679421216,0.9536644816,0.5276183486
949,1.55965324939e+18,0.6089867949,-0.9913304448,1.636338711
950,1.55965324944e+18,1.205191255,-3.076213598,2.260032177
951,1.55965324949e+18,2.18990612,-3.676083326,2.999179125
952,1.55965324954e+18,1.872867107,-4.139119148,2.781100273
953,1.55965324959e+18,1.169761062,-3.304677248,1.419481516
954,1.55965324965e+18,0.5002527833,-0.7818036675,-0.4167793095
955,1.5596532497e+18,-0.4575839043,0.310423404,-1.469910979
956,1.55965324975e+18,-2.503371477,0.7343639135,-2.005028963
957,1.5596532498e+18,-4.025036812,1.608512044,-1.82726717
958,1.55965324985e+18,-2.887605667,0.9121256471,-2.155912638
959,1.55965324991e+18,-3.067200184,3.956067085,-1.564595103
960,1.55965324996e+18,0.4965876043,2.574290037,2.610057831
961,1.55965325001e+18,0.3835775554,-0.1263452619,0.3749020398
962,1.55965325006e+18,0.3603646755,-0.514855504,0.7218735218
963,1.55965325011e+18,0.6065434217,-0.7750841379,0.4952425063
964,1.55965325017e+18,0.9712299109,-1.488574743,0.7383669019
965,1.55965325022e+18,1.678611994,-1.712151527,1.725525141
966,1.55965325027e+18,2.455021381,-2.925940752,2.310734034
967,1.55965325032e+18,1.858817101,-2.828202248,2.213606358
968,1.55965325037e+18,0.8808218241,-1.808668137,2.167180777
969,1.55965325043e+18,0.9993296862,-0.5490640402,2.049283743
970,1.55965325048e+18,-0.7123147249,0.9335058928,0.7713536024
971,1.55965325053e+18,-2.685409307,1.405704856,-1.377670288
972,1.55965325058e+18,-3.879650831,1.306133747,-2.435688972
973,1.55965325063e+18,-3.727545738,1.812541008,-2.239601374
974,1.55965325069e+18,-1.956647158,6.863174915,-0.6489080787
975,1.55965325074e+18,-0.2089617252,0.12960729,-1.571925521
976,1.55965325079e+18,0.5069723725,-0.1703275591,0.778073132
977,1.55965325084e+18,0.7195534706,0.3330253959,0.3987258077
978,1.55965325089e+18,0.771476984,-1.139159799,1.211787462
979,1.55965325095e+18,0.9602344036,-2.710916042,1.253326297
980,1.559653251e+18,1.417772412,-3.815360546,1.604573727
981,1.55965325105e+18,1.445872188,-3.465945482,2.654651165
982,1.5596532511e+18,-0.4490317702,-2.65227294,1.574030519
983,1.55965325115e+18,-2.149069786,-1.43970561,2.470780849
984,1.55965325121e+18,-3.252292395,-3.122639418,-0.9598385096
985,1.55965325126e+18,-4.733029842,1.346450806,-1.588418841
986,1.55965325131e+18,-4.062299728,5.80943203,-0.8883672357
987,1.55965325136e+18,-2.471606731,2.419130087,-3.023952246
988,1.55965325141e+18,2.388437271,-2.020027399,1.448803067
989,1.55965325147e+18,2.644389868,0.1186117008,-1.500454187
990,1.55965325152e+18,2.356672287,4.153376579,-1.202352047
991,1.55965325157e+18,2.664548397,3.436831713,-1.001988173
992,1.55965325162e+18,2.335292101,3.647580385,-0.6904469728
993,1.55965325167e+18,2.301694393,2.182114601,0.1030670181
994,1.55965325173e+18,2.183186531,1.409369946,1.000428081
995,1.55965325178e+18,1.587592959,0.3647904098,2.29546237
996,1.55965325183e+18,1.336527348,-0.9406285882,2.931983948
997,1.55965325188e+18,-0.1038929075,-3.242368937,1.129931569
998,1.55965325193e+18,-3.444103956,-2.345618725,0.2844939828
999,1.55965325199e+18,-5.276699543,0.4435920119,-1.691044211
1000,1.55965325204e+18,-6.591892719,1.176630259,-0.304990977
1001,1.55965325209e+18,-1.348225474,-0.3358720541,-0.6495189667
1002,1.55965325214e+18,-0.6512281299,1.430750251,0.8990244269
1003,1.55965325219e+18,-0.5614309907,0.223680526,1.46102047
1004,1.55965325225e+18,0.5081940889,-0.5967115164,1.868467569
1005,1.5596532523e+18,0.3762471676,-0.4537690282,2.226434469
1006,1.55965325235e+18,0.9223607183,-2.001090765,1.905730367
1007,1.5596532524e+18,1.297432065,-3.175784588,1.521496058
1008,1.55965325245e+18,1.15693295,-4.230138302,2.059668541
1009,1.55965325251e+18,1.367070556,-3.686468124,2.599673271
1010,1.55965325256e+18,1.646235943,-1.342578053,1.857472062
1011,1.55965325261e+18,-0.3598454595,-0.1953730285,2.061501026
1012,1.55965325266e+18,-3.350030661,-0.6938390732,0.5661028624
1013,1.55965325271e+18,-4.364067078,2.270079136,-1.73441565
1014,1.55965325277e+18,-5.131924629,3.782581568,-1.669053078
1015,1.55965325282e+18,0.4990310967,-0.4940861464,1.506835341
1016,1.55965325287e+18,0.076923199,-1.001104355,0.6772803068
1017,1.55965325292e+18,0.1514487565,0.665336132,0.7304255962
1018,1.55965325297e+18,0.8374504447,1.98724854,0.3235893548
1019,1.55965325303e+18,2.560090303,0.4411485493,0.7719644904
1020,1.55965325308e+18,3.230209827,-0.7695863843,0.7035475373
1021,1.55965325313e+18,3.459284067,-0.2888354063,-0.1046271697
1022,1.55965325318e+18,2.09400034,0.5901996493,0.3431370556
1023,1.55965325323e+18,1.605308056,-0.1135170907,0.3345849216
1024,1.55965325329e+18,1.2626127,-0.8373923898,0.2753310204
1025,1.55965325334e+18,0.373803705,2.720286846,1.330295324
1026,1.55965325339e+18,-0.4502535164,0.3855598271,-1.010540366
1027,1.55965325344e+18,-2.769708633,-1.976656079,-1.34712708
1028,1.55965325349e+18,-5.108100891,3.86199379,-1.753352404
1029,1.55965325355e+18,-6.875333786,3.800907373,2.851349831
1030,1.5596532536e+18,-3.861935854,-7.607000828,-1.855977774
1031,1.55965325365e+18,-1.288360596,-0.2692877054,0.8043403029
1032,1.5596532537e+18,0.9712299109,2.629267931,-0.1932026148
1033,1.55965325375e+18,2.551538229,1.142421842,-0.3972316384
1034,1.55965325381e+18,3.840463877,0.01720807515,-0.1467768699
1035,1.55965325386e+18,4.224087238,0.1937481165,0.214855358
1036,1.55965325391e+18,3.16362524,-0.6822326183,-0.2158046365
1037,1.55965325396e+18,1.578429937,0.2023002505,-0.6263061166
1038,1.55965325401e+18,0.7959116101,2.103923798,0.2185205519
1039,1.55965325407e+18,0.5692805648,1.585910082,0.5697680712
1040,1.55965325412e+18,-0.2046856731,-1.100064397,-0.01177564915
1041,1.55965325417e+18,-0.7947815061,-4.040769577,-0.06675352156
1042,1.55965325422e+18,-2.379365921,-4.578941822,0.5105141401
1043,1.55965325427e+18,-5.154526711,-0.9833891988,1.118325114
1044,1.55965325432e+18,-2.638983727,-0.5680008531,-0.121731393
1045,1.55965325438e+18,-1.922438741,-0.8300620317,0.5740441084
1046,1.55965325443e+18,-0.7190341949,4.565710545,1.258213162
1047,1.55965325448e+18,-0.3140305579,3.271287441,0.5758767128
1048,1.55965325453e+18,-0.5040096641,-0.006004805677,0.09756922722
1049,1.55965325458e+18,0.8545547128,-0.7078889608,1.407264233
1050,1.55965325464e+18,1.220462918,-1.100064397,3.575225115
1051,1.55965325469e+18,0.6144846082,-3.20205164,4.669895649
1052,1.55965325474e+18,0.3609755635,-3.176395416,4.267335415
1053,1.55965325479e+18,-0.09472993016,-2.382881641,3.454273701
1054,1.55965325484e+18,-1.685423017,-1.16542697,2.244149685
1055,1.5596532549e+18,-2.315225124,-3.363320351,1.238665581
1056,1.55965325495e+18,-2.940751314,-0.7372105122,0.3871193528
1057,1.559653255e+18,-5.131924629,0.664114356,-0.2775020301
1058,1.55965325505e+18,-4.496014118,0.2957626283,-0.5065764785
1059,1.5596532551e+18,-1.516213417,2.167453766,0.9045222402
1060,1.55965325516e+18,-0.1888031811,1.708083153,1.373055935
1061,1.55965325521e+18,-0.4105472863,0.412437886,0.6730042696
1062,1.55965325526e+18,-0.8320442438,1.548036337,0.045645684
1063,1.55965325531e+18,-0.2419484556,0.3409666419,-0.2555108666
1064,1.55965325536e+18,1.14043963,-0.9155831337,0.3810107112
1065,1.55965325542e+18,1.967551112,-2.742681265,1.153755307
1066,1.55965325547e+18,1.682277083,-3.407913446,3.903870583
1067,1.55965325552e+18,1.8123914,-5.366958141,2.727344036
1068,1.55965325557e+18,2.90828371,-1.971769214,1.900843382
1069,1.55965325562e+18,2.427532673,-0.1654406339,1.723081708
1070,1.55965325568e+18,1.009103537,0.3330253959,2.89777565
1071,1.55965325573e+18,0.2039831728,-0.3303742409,2.968636036
1072,1.55965325578e+18,-0.4221536815,-1.918013096,1.746905446
1073,1.55965325583e+18,-1.689088225,-0.8459445238,-0.4674811065
1074,1.55965325588e+18,-3.263287783,1.591407895,-0.1241748556
1075,1.55965325594e+18,-5.192400455,1.983583212,-1.138211131
1076,1.55965325599e+18,-6.994452477,0.6115799546,-1.509006381
1077,1.55965325604e+18,-2.252305984,3.784414053,1.198348403
1078,1.55965325609e+18,-0.4814076126,1.742291451,-0.1956460923
1079,1.55965325614e+18,1.331640363,0.5883670449,0.02487626486
1080,1.5596532562e+18,2.467238903,0.75879848,-0.04292977601
1081,1.55965325625e+18,3.803201199,-0.850220561,0.8574855924
1082,1.5596532563e+18,4.058543205,-1.106783986,0.9448392987
1083,1.55965325635e+18,3.186227322,-1.722536087,1.393214345
1084,1.5596532564e+18,1.177091599,-2.476343632,2.426187515
1085,1.55965325646e+18,0.134344548,-3.658368111,2.071274996
1086,1.55965325651e+18,-0.06907358766,-2.282088518,2.205054522
1087,1.55965325656e+18,1.692661762,0.569430232,1.348010421
1088,1.55965325661e+18,0.5790544152,2.314061165,1.739574909
1089,1.55965325666e+18,-1.483226657,-0.5069143176,0.09573663026
1090,1.55965325672e+18,-4.579702854,1.099661231,-2.661098242
1091,1.55965325677e+18,-6.090983391,1.950596571,-3.515087843
1092,1.55965325682e+18,-4.891243458,6.627991676,-3.95613265
1093,1.55965325687e+18,-0.6420651674,6.011629105,0.482414335
1094,1.55965325692e+18,0.5362938643,-0.2185859084,-0.6195865273
1095,1.55965325698e+18,1.566212654,-0.05181969702,-0.296438843
1096,1.55965325703e+18,2.42875433,1.800934553,0.7933447361
1097,1.55965325708e+18,1.737254858,2.550466299,1.071288466
1098,1.55965325713e+18,1.753748298,-1.495294333,0.922237277
1099,1.55965325718e+18,1.221073866,-4.688898087,1.100610018
1100,1.55965325724e+18,1.076298714,-5.344967365,-0.3825708628
1101,1.55965325729e+18,1.18320024,0.5834801793,-0.2170263678
1102,1.55965325734e+18,-1.033629775,0.9884838462,-0.8608783484
1103,1.55965325739e+18,-1.953592896,1.185182333,-1.639120579
1104,1.55965325744e+18,-2.194884539,1.121652484,-1.394774556
1105,1.5596532575e+18,-3.390958786,2.090484619,-0.6794513464
1106,1.55965325755e+18,-0.9346696138,2.610941887,-0.446100831
1107,1.5596532576e+18,-0.121608004,1.497945428,1.644280076
1108,1.55965325765e+18,-0.6481738091,1.756341457,0.7206518054
1109,1.5596532577e+18,0.6285345554,0.1430463046,0.3730694652
1110,1.55965325776e+18,1.607751489,0.117389977,1.152533412
1111,1.55965325781e+18,2.523438454,-2.772002697,1.886793613
1112,1.55965325786e+18,4.06037569,-4.506859779,1.99064064
1113,1.55965325791e+18,3.993791342,-3.866672993,1.756068349
1114,1.55965325796e+18,2.066511154,-1.713984013,2.263697624
1115,1.55965325802e+18,-0.3244152665,-2.746346235,0.6998823881
1116,1.55965325807e+18,-1.615173578,1.590186,0.2001945972
1117,1.55965325812e+18,-3.185097218,3.406288624,-1.337964058
1118,1.55965325817e+18,-3.529014349,2.148516893,-2.45645833
1119,1.55965325822e+18,-3.039100409,2.813138247,-1.372783422
1120,1.55965325828e+18,-2.660974741,2.375148058,0.1287233531
1121,1.55965325833e+18,-0.1393230855,1.524823427,1.518441796
1122,1.55965325838e+18,-0.5541005731,-1.337691069,-0.6397451162
1123,1.55965325843e+18,0.3841884136,0.7288661003,0.5398356915
1124,1.55965325848e+18,0.7415446043,-1.073797226,0.8251097202
1125,1.55965325854e+18,0.7299381495,-3.312007666,0.8758115172
1126,1.55965325859e+18,1.415328979,-2.690757513,1.442083597
1127,1.55965325864e+18,2.072009087,-2.979696751,0.8489334583
1128,1.55965325869e+18,1.327364326,-1.661449552,-0.9909926057
1129,1.55965325874e+18,-0.2938719988,-1.243617773,-1.822991133
1130,1.5596532588e+18,-2.840569019,2.071547747,-2.185844898
1131,1.55965325885e+18,-4.610856533,3.202259541,-2.553586006
1132,1.5596532589e+18,-3.984719753,3.57305479,-1.776565313
1133,1.55965325895e+18,-0.8937416673,3.670182228,-1.543214798
1134,1.559653259e+18,1.11722672,3.290834904,2.877006054
1135,1.55965325906e+18,0.7763639092,0.1705352515,1.929554105
1136,1.55965325911e+18,1.123335361,-2.090888023,1.564867496
1137,1.55965325916e+18,1.59736681,-1.09884274,-0.8999736905
1138,1.55965325921e+18,1.178924084,0.664114356,-1.63179028
1139,1.55965325926e+18,0.6719059348,0.1320507377,-0.9641145468
1140,1.55965325932e+18,-0.172920689,-1.05241704,0.6632304788
1141,1.55965325937e+18,0.5808870196,-3.314450979,-1.058187842
1142,1.55965325942e+18,1.575986624,0.4173248112,-2.643383026
1143,1.55965325947e+18,3.640100002,-2.343175411,-3.10580802
1144,1.55965325952e+18,-0.2340072095,3.257848263,-1.810773849
1145,1.55965325958e+18,-3.616979122,2.302454948,-2.319624424
1146,1.55965325963e+18,-4.085512638,5.992691994,-2.02946353
1147,1.55965325968e+18,-0.2792112529,4.827772141,0.4640883803
1148,1.55965325973e+18,-0.07273877412,-0.2424096465,0.01449155621
1149,1.55965325978e+18,-0.08801040798,1.059344292,0.06458250433
1150,1.55965325984e+18,0.5918826461,1.629281521,-0.4399921894
1151,1.55965325989e+18,1.144715667,1.048348665,-0.9537298679
1152,1.55965325994e+18,1.553995371,1.438691497,-0.7289314866
1153,1.55965325999e+18,1.624244928,0.5065111518,-0.4473225772
1154,1.55965326004e+18,0.6425843835,-0.4476603568,-0.3935664296
1155,1.5596532601e+18,-0.7165907621,-2.185571909,0.7713536024
1156,1.55965326015e+18,0.1868789494,-7.901437759,-2.994019747
1157,1.5596532602e+18,-2.664029121,1.877292752,-0.7625290751
1158,1.55965326025e+18,-2.050109625,2.920650721,-1.25122118
1159,1.5596532603e+18,-0.3152522743,4.774015427,0.805562079
1160,1.55965326036e+18,1.205191255,-1.255835056,0.9430066943
1161,1.55965326041e+18,0.484981209,-0.05609575659,1.169026852
1162,1.55965326046e+18,-0.007987063378,1.813151836,0.5673245788
1163,1.55965326051e+18,-0.1179428101,2.442342997,0.2582267821
1164,1.55965326056e+18,-0.1710880846,0.6714447737,-0.4790875614
1165,1.55965326062e+18,0.5576741099,-2.35050559,-0.6122561693
1166,1.55965326067e+18,1.447093964,-0.2735637724,-0.4479334354
1167,1.55965326072e+18,1.543610692,1.607290268,0.8348836303
1168,1.55965326077e+18,0.8007985353,-2.456185341,-2.521209955
1169,1.55965326082e+18,-2.72755909,1.307966352,-0.909747541
1170,1.55965326088e+18,-4.532055378,-1.737807751,-2.215777397
1171,1.55965326093e+18,-2.966407537,-0.3236547112,0.01754588261
1172,1.55965326098e+18,1.826441288,-3.256418705,0.4628666341
1173,1.55965326103e+18,1.101344228,1.414867759,1.322964907
1174,1.55965326108e+18,1.2894907,2.698295593,1.029749632
1175,1.55965326114e+18,1.621801376,1.34156394,1.200181007
1176,1.55965326119e+18,2.128819466,-2.007810116,0.6998823881
1177,1.55965326124e+18,1.513678193,-3.718843699,0.8446574211
1178,1.55965326129e+18,1.041479349,-3.533140659,2.007133961
1179,1.55965326134e+18,0.8765458465,-3.531308174,2.276525736
1180,1.5596532614e+18,-1.000032187,-2.94671011,0.7035475373
1181,1.55965326145e+18,-2.179002285,1.35500288,0.3712368608
1182,1.5596532615e+18,-2.897379637,1.566362262,-0.6904469728
1183,1.55965326155e+18,-2.538190842,6.829576969,-0.2322980016
1184,1.5596532616e+18,0.2620153725,0.1082269996,0.007772038691
1185,1.55965326166e+18,0.4709312618,-1.183142066,0.3431370556
1186,1.55965326171e+18,-0.9279501438,2.166842699,1.129931569
1187,1.55965326176e+18,-1.129535675,-0.1489472687,0.4952425063
1188,1.55965326181e+18,-0.49545753,-1.85387218,-0.1198987961
1189,1.55965326186e+18,0.1172403097,-2.60218215,-0.2426827103
1190,1.55965326192e+18,1.190530539,-2.464737415,0.7652449608
1191,1.55965326197e+18,2.588190079,-4.340093613,1.833648324
1192,1.55965326202e+18,4.188657284,-4.365139008,1.450024843
1193,1.55965326207e+18,3.353604555,-1.112892628,1.91489327
1194,1.55965326212e+18,0.2278069109,-2.194123983,0.1354428679
1195,1.55965326218e+18,-4.432483673,-0.01944383979,-1.400883198
1196,1.55965326223e+18,-5.687811852,3.166218519,-3.103975534
1197,1.55965326228e+18,-0.1753641367,9.387881279,1.840978622
1198,1.55965326233e+18,3.197833776,0.1320507377,1.768896461
1199,1.55965326238e+18,2.853916407,0.750857234,1.350453854
1200,1.55965326244e+18,2.188073397,1.05995512,-0.5682738423
1201,1.55965326249e+18,2.349952936,1.821093082,-2.242655516
1202,1.55965326254e+18,2.525270939,2.14973855,-2.694084883
1203,1.55965326259e+18,1.016433954,-0.009669996798,-0.8938650489
1204,1.55965326264e+18,0.2968346775,-2.839808702,0.2276835293
1205,1.5596532627e+18,0.9559583068,-6.456130981,-0.7716920376
1206,1.55965326275e+18,-0.2792112529,-3.368206978,-1.73441565
1207,1.5596532628e+18,0.8484460115,5.009198666,-1.839484453
1208,1.55965326285e+18,-4.295039654,0.1210551709,-1.888353586
1209,1.5596532629e+18,-3.504579782,-10.0724535,1.216674328
1210,1.55965326296e+18,1.784902453,-2.43663764,0.9808803797
1211,1.55965326301e+18,-0.6261826754,3.155222893,5.920336723
1212,1.55965326306e+18,-1.023245096,4.297541142,2.136637449
1213,1.55965326311e+18,-0.1100015566,3.053208351,1.56364584
1214,1.55965326316e+18,2.30597043,1.143643498,1.607017159
1215,1.55965326322e+18,3.93881321,-0.173992753,1.139094472
1216,1.55965326327e+18,4.431781769,-1.539887428,0.3639064729
1217,1.55965326332e+18,4.729272842,0.2065762877,-0.5792694688
1218,1.55965326337e+18,4.290671825,0.1277746856,-1.196854234
1219,1.55965326342e+18,2.755567312,-1.084792852,-1.394163728
1220,1.55965326348e+18,0.9412975311,-0.7384322286,-1.488236904
1221,1.55965326353e+18,-2.356153011,-3.036507368,-2.730125904
1222,1.55965326358e+18,-6.414130688,-0.2027034163,-1.598803639
1223,1.55965326363e+18,-3.390347958,0.9121256471,-3.108862638
1224,1.55965326368e+18,-3.729378223,10.01707268,2.06394434
1225,1.55965326374e+18,-1.164965868,-6.886791229,-0.5786585808
1226,1.55965326379e+18,-0.9853714705,-4.795799255,0.6925520301
1227,1.55965326384e+18,-0.8491485119,7.071479797,1.153755307
1228,1.55965326389e+18,1.165485144,3.418505907,0.915517807
1229,1.55965326394e+18,2.469682455,-3.224653721,2.482387304
1230,1.55965326399e+18,3.698743105,-3.07560277,2.916712284
1231,1.55965326405e+18,3.166068792,-2.188015461,2.833634853
1232,1.5596532641e+18,1.261390924,-2.440302849,3.632646561
1233,1.55965326415e+18,0.5729457736,-3.164788961,2.335779428
1234,1.5596532642e+18,0.6401410103,-4.612539768,1.822652698
1235,1.55965326425e+18,1.212521672,-4.399958611,-0.5737716556
1236,1.55965326431e+18,0.2638479471,1.946320534,-0.86698699
1237,1.55965326436e+18,-1.742233515,2.329943895,-0.04048631713
1238,1.55965326441e+18,-4.567485332,-1.756133795,-0.6635688543
1239,1.55965326446e+18,-6.076932907,0.9646601081,-0.2402392626
1240,1.55965326451e+18,-5.170409203,4.792341709,0.9570566416
1241,1.55965326457e+18,-2.255971193,6.734282017,0.8299966455
1242,1.55965326462e+18,-0.2248442173,0.357460022,-0.4167793095
1243,1.55965326467e+18,0.7769747972,1.835753918,-0.6971664429
1244,1.55965326472e+18,0.9040347338,2.682413101,0.6271893978
1245,1.55965326477e+18,1.691440105,-0.9864435196,0.7786839604
1246,1.55965326483e+18,2.420813322,-1.66511488,2.386481285
1247,1.55965326488e+18,2.828871012,-3.24481225,2.921599388
1248,1.55965326493e+18,3.148964643,-4.607041836,2.574627638
1249,1.55965326498e+18,3.641932964,-4.390184402,1.453079224
1250,1.55965326503e+18,3.932093859,-1.103118777,0.7737970352
1251,1.55965326509e+18,2.11415863,0.5511043072,0.3474131227
1252,1.55965326514e+18,-0.3549585342,1.645163894,0.4995185435
1253,1.55965326519e+18,-3.348809004,-0.9345199466,-0.8230047226
1254,1.55965326524e+18,-5.229052067,-0.8575509787,-1.948218465
1255,1.55965326529e+18,-6.492321968,0.4875743091,-1.74113512
1256,1.55965326535e+18,-7.061647892,4.602362633,-1.793058753
1257,1.5596532654e+18,-4.522891998,6.78315115,-1.981205225
1258,1.55965326545e+18,-0.8631983995,4.804559231,2.443902493
1259,1.5596532655e+18,-0.5327203274,-1.672445178,-0.9476212263
1260,1.55965326555e+18,1.435487509,-0.7182736993,1.114659905
1261,1.55965326561e+18,2.201512337,0.4026640356,2.237430096
1262,1.55965326566e+18,2.49778223,-0.7439299822,2.835467339
1263,1.55965326571e+18,3.404917002,-2.695644617,0.2289052606
1264,1.55965326576e+18,3.054280519,-1.297984719,0.4934099019
1265,1.55965326581e+18,2.767784595,-2.767115831,-1.179749966
1266,1.55965326587e+18,3.384758472,-3.895994663,-0.4485443234
1267,1.55965326592e+18,1.606529832,-0.173992753,-0.6049257517
1268,1.55965326597e+18,-0.9688780904,1.68914628,-0.1858722419
1269,1.55965326602e+18,-3.18754077,0.01842980459,-0.3269821107
1270,1.55965326607e+18,-5.302966595,-2.629671097,-1.378281236
1271,1.55965326613e+18,-4.899796009,-0.6926173568,-0.7429813147
1272,1.55965326618e+18,-3.377519846,3.894980669,-0.2292436808
1273,1.55965326623e+18,-1.659766674,5.081891537,1.633895278
1274,1.55965326628e+18,-1.163744092,2.214490414,0.05786298588
1275,1.55965326633e+18,-0.5253899693,-0.3957368433,0.8489334583
1276,1.55965326639e+18,0.3524234295,-3.144630432,1.313801885
1277,1.55965326644e+18,2.378663301,-2.739015818,1.235000372
1278,1.55965326649e+18,2.824594975,-0.02616335824,1.87824142
1279,1.55965326654e+18,3.214937925,-2.062177181,0.8446574211
1280,1.55965326659e+18,2.542375326,-1.515452862,-0.3056018353
1281,1.55965326665e+18,3.513651133,-1.012099862,0.1299450845
1282,1.5596532667e+18,1.522230387,-0.2540161014,1.137261868
1283,1.55965326675e+18,-0.3433520794,0.4356507659,-0.3721861541
1284,1.5596532668e+18,-2.460000277,-0.05304142833,-0.7570312619
1285,1.55965326685e+18,-3.213196993,-0.7524821162,-1.287262321
1286,1.55965326691e+18,-4.565652847,0.1515984386,-1.960435748
1287,1.55965326696e+18,-4.52594614,4.250504494,-2.182790756
1288,1.55965326701e+18,-1.45268333,6.157014847,-0.4522095025
1289,1.55965326706e+18,-1.177183151,2.610331059,0.7799056768
1290,1.55965326711e+18,-1.169852734,-0.3768000305,0.1152843237
1291,1.55965326717e+18,0.01461495087,-2.679151058,-0.446100831
1292,1.55965326722e+18,0.7745313048,-0.299831003,0.3834541738
1293,1.55965326727e+18,0.8698263168,-2.45007658,0.9417849779
1294,1.55965326732e+18,1.863704085,-3.019402981,1.403599143
1295,1.55965326737e+18,1.027429581,-0.6431372762,2.162904501
1296,1.55965326743e+18,1.112950683,-1.873419762,3.152506351
1297,1.55965326748e+18,-0.117331937,-1.238730788,1.898400068
1298,1.55965326753e+18,-0.8057770729,-1.256445885,0.4194951952
1299,1.55965326758e+18,-1.512548208,-0.260124743,-0.9757210016
1300,1.55965326763e+18,-1.838750243,1.220001698,-0.6464646459
1301,1.55965326769e+18,-1.936488628,0.2878213823,-2.000141859
1302,1.55965326774e+18,-4.496014118,3.042212725,-0.4289966226
1303,1.55965326779e+18,-0.6090784669,0.6836620569,1.515387416
1304,1.55965326784e+18,0.8423373699,-1.219794035,1.651610494
1305,1.55965326789e+18,1.509402275,-1.359682083,0.8501552343
1306,1.55965326795e+18,1.459922075,-0.6602414846,2.069442034
1307,1.559653268e+18,1.629131794,-2.046294689,2.291797161
1308,1.55965326805e+18,2.12698698,-3.476941109,2.539808512
1309,1.5596532681e+18,1.831328273,-3.088430882,3.530631781
1310,1.55965326815e+18,1.0738554,-5.160485744,3.168999672
1311,1.55965326821e+18,-0.02814561687,-4.321767807,0.3303088844
1312,1.55965326826e+18,-2.189386845,-0.6211461425,-0.02582555078
1313,1.55965326831e+18,-4.212572575,0.6182994843,-1.291538358
1314,1.55965326836e+18,-5.779441833,1.15280652,-0.1296726316
1315,1.55965326841e+18,-4.889410973,-2.140367985,-1.406381011
1316,1.55965326847e+18,-3.469760418,3.236468077,0.8593181968
1317,1.55965326852e+18,0.381744951,1.166856408,1.412762046
1318,1.55965326857e+18,0.3585320711,1.536429882,1.523328781
1319,1.55965326862e+18,0.9932210445,2.56024003,1.264932752
1320,1.55965326867e+18,2.547262192,0.6946576834,1.640004039
1321,1.55965326873e+18,3.345663071,-1.75796628,1.946047544
1322,1.55965326878e+18,4.250965118,-3.049946308,1.136651039
1323,1.55965326883e+18,4.069538116,-2.647386312,0.3706260026
1324,1.55965326888e+18,3.411025524,-0.5643356442,-0.4473225772
1325,1.55965326893e+18,2.837423325,0.7111510038,1.308915019
1326,1.55965326899e+18,0.3951839805,-2.490393877,-0.2579543591
1327,1.55965326904e+18,-2.554073572,-3.251531839,0.6296328902
1328,1.55965326909e+18,-5.914443493,-0.755536437,0.1281124949
1329,1.55965326914e+18,-6.523475647,4.113670349,-1.149817586
1330,1.55965326919e+18,-5.945597172,4.864423752,-2.549920559
1331,1.55965326925e+18,-5.012805939,4.834491253,-2.059396029
1332,1.5596532693e+18,0.1111316606,4.597475529,-0.4522095025
1333,1.55965326935e+18,0.1380097419,4.706820965,0.002885116497
1334,1.5596532694e+18,1.936396956,3.810681105,0.2295161337
1335,1.55965326945e+18,2.489229918,3.154612064,0.6051982641
1336,1.55965326951e+18,2.149588823,1.695254922,0.5349487066
1337,1.55965326956e+18,2.112936974,-0.2442422509,0.6791129112
1338,1.55965326961e+18,2.415926218,-2.340120792,0.1116191298
1339,1.55965326966e+18,2.960207224,-3.012072802,0.8880288601
1340,1.55965326971e+18,2.936383247,-5.806781292,0.5844288468
1341,1.55965326977e+18,1.36218369,-2.500778675,-0.4693137109
1342,1.55965326982e+18,0.05004513636,1.007420659,-1.303755641
1343,1.55965326987e+18,-1.597458363,0.8803606629,-1.570092916
1344,1.55965326992e+18,-5.360999107,0.7630745173,-1.962268472
1345,1.55965326997e+18,-7.053707123,1.900505662,-2.491888523
1346,1.55965327003e+18,-4.989593029,7.029330254,-0.9751101732
1347,1.55965327008e+18,-0.3115870953,3.316491127,0.05969558284
1348,1.55965327013e+18,2.433641434,-2.005366802,1.709031701
1349,1.55965327018e+18,1.966940284,-1.076240778,-1.769845843
1350,1.55965327023e+18,1.177702427,4.789898396,1.022419214
1351,1.55965327029e+18,1.337138176,0.7893417478,0.07496721298
1352,1.55965327034e+18,1.539945483,-0.4250583351,-0.1437225491
1353,1.55965327039e+18,1.773906827,0.1851960123,0.03220665082
1354,1.55965327044e+18,1.606529832,0.2499477416,1.275928378
1355,1.55965327049e+18,3.376817226,-2.180074215,1.139094472
1356,1.55965327055e+18,3.222879171,-2.095774889,-0.2329088748
1357,1.5596532706e+18,-0.5150051713,1.562697172,-1.4864043
1358,1.55965327065e+18,-5.136200905,0.08929017931,-1.316583872
1359,1.5596532707e+18,-6.393972397,-1.061579943,-3.041056395
1360,1.55965327075e+18,-5.503942013,-2.533765078,-2.098491192
1361,1.55965327081e+18,-1.768500686,1.557810187,-0.1186770722
1362,1.55965327086e+18,-0.06174320728,-1.232011318,0.8776441813
1363,1.55965327091e+18,1.006660104,-0.8361706734,2.191004276
1364,1.55965327096e+18,1.814834833,1.191290975,2.049283743
1365,1.55965327101e+18,2.818486214,-0.9485698938,2.52759099
1366,1.55965327107e+18,2.844753742,-2.429918289,2.116478682
1367,1.55965327112e+18,2.488619089,-3.037118196,1.34495604
1368,1.55965327117e+18,2.071398258,-2.129983187,1.884350061
1369,1.55965327122e+18,1.218630314,-1.731699109,2.076161861
1370,1.55965327127e+18,0.3579212129,-1.34379971,1.302806377
1371,1.55965327133e+18,-1.130757332,0.6305167675,1.74873805
1372,1.55965327138e+18,-3.516186237,0.6182994843,-0.9323495626
1373,1.55965327143e+18,-4.778234005,0.9860403538,-1.509006381
1374,1.55965327148e+18,-4.987760544,5.347007275,-1.598192692
1375,1.55965327153e+18,-1.951760292,4.450257301,1.903286815
1376,1.55965327159e+18,-1.662210226,-0.8471662402,-0.2842215598
1377,1.55965327164e+18,0.6028781533,-2.616231918,-0.5175721049
1378,1.55965327169e+18,1.512456536,1.465569615,0.2930461168
1379,1.55965327174e+18,3.407971382,0.5877562165,1.49400723
1380,1.55965327179e+18,4.31327343,-1.948556304,0.5483877659
1381,1.55965327185e+18,3.800147057,-6.699255466,0.1409406513
1382,1.5596532719e+18,2.601018429,-0.6516894102,-1.003820777
1383,1.55965327195e+18,1.286436439,1.170521617,0.2313487232
1384,1.559653272e+18,1.414718151,-0.3138808906,-0.4070054591
1385,1.55965327205e+18,0.4965876043,0.614023447,-0.2384066582
1386,1.55965327211e+18,-2.043390036,1.199843168,-0.7136597633
1387,1.55965327216e+18,-3.878429174,0.2798801363,-1.088120222
1388,1.55965327221e+18,-3.968226671,1.675707221,-2.259759665
1389,1.55965327226e+18,-2.508258581,2.596892118,-1.461969733
1390,1.55965327231e+18,-0.932226181,0.4802439213,1.260045767
1391,1.55965327237e+18,-0.05196936056,-1.299817324,0.2484529465
1392,1.55965327242e+18,0.244300276,0.4252660573,0.7902904153
1393,1.55965327247e+18,1.404944181,-1.815998554,0.7676883936
1394,1.55965327252e+18,2.732965231,-1.583869696,1.604573727
1395,1.55965327257e+18,2.838034153,-2.145865679,1.915504098
1396,1.55965327263e+18,2.450745583,-1.767129302,1.715751171
1397,1.55965327268e+18,1.430600643,-2.810487032,1.473237753
1398,1.55965327273e+18,-0.2700482607,-1.196581125,0.4249930084
1399,1.55965327278e+18,-3.254125118,0.9622166157,-1.00931859
1400,1.55965327283e+18,-5.186903,0.5755388737,-2.059396029
1401,1.55965327289e+18,-4.807555199,2.227318525,-1.683102846
1402,1.55965327294e+18,-2.675635576,5.60296011,0.09879095852
1403,1.55965327299e+18,-0.02264782973,3.18576622,1.848919868
1404,1.55965327304e+18,0.2638479471,-2.286364794,0.5703788996
1405,1.55965327309e+18,-0.05074762926,-0.189264372,0.8611507416
1406,1.55965327315e+18,-0.2333963364,0.3263058662,0.6552891731
1407,1.5596532732e+18,0.03294090554,-1.79095304,-0.1644919515
1408,1.55965327325e+18,1.873477936,-1.832491994,-1.074070334
1409,1.5596532733e+18,3.081769228,-0.03960239515,-0.7258771658
1410,1.55965327335e+18,3.161181927,0.2988169491,-0.2420718521
1411,1.55965327341e+18,3.613832951,-1.653508425,-0.7032750845
1412,1.55965327346e+18,1.288269043,1.907225132,-0.7845202088
1413,1.55965327351e+18,-1.6243366,1.627448797,-1.452195883
1414,1.55965327356e+18,-3.934018135,1.52360177,-3.091758251
1415,1.55965327361e+18,-4.461194992,2.461890936,-2.623224497
1416,1.55965327367e+18,-1.593182325,3.728214264,-0.2115285844
1417,1.55965327372e+18,0.3402061164,1.755119801,1.738964081
1418,1.55965327377e+18,-0.01287398487,-2.584466934,2.206276178
1419,1.55965327382e+18,-0.3433520794,-1.646178007,0.5416682959
1420,1.55965327387e+18,-0.6457304358,-0.688952148,0.5984787345
1421,1.55965327393e+18,-0.07762569934,-2.213061094,0.5013511777
1422,1.55965327398e+18,0.04699081182,-4.104910851,0.7970099449
1423,1.55965327403e+18,0.5527872443,-3.463502169,1.147646666
1424,1.55965327408e+18,1.008492708,-2.116544247,1.048075557
1425,1.55965327413e+18,1.280938625,-2.279645205,0.4689753056
1426,1.55965327419e+18,-2.656087875,-0.6767348647,0.08596279472
1427,1.55965327424e+18,-4.008543491,0.5871453285,-1.924394727
1428,1.55965327429e+18,-4.323750019,4.483854771,-1.433869958
1429,1.55965327434e+18,0.7189425826,2.6628654,1.249661088
1430,1.55965327439e+18,0.7928572893,0.9671035409,1.837313533
1431,1.55965327445e+18,1.493519664,-0.902755022,0.8837528229
1432,1.5596532745e+18,0.9602344036,0.1094487235,2.817752123
1433,1.55965327455e+18,1.594923377,-1.09884274,2.26919508
1434,1.5596532746e+18,2.075063467,-1.183142066,3.056600571
1435,1.55965327465e+18,2.657217979,-0.8056274652,1.660773396
1436,1.55965327471e+18,1.910129786,-1.320586801,1.182465911
1437,1.55965327476e+18,0.8973152637,-1.333415031,0.3712368608
1438,1.55965327481e+18,0.2186439335,-1.706042767,-0.3611905873
1439,1.55965327486e+18,-1.390985966,-1.573485017,-0.3080452979
1440,1.55965327491e+18,-3.466706038,0.9188451767,-1.62507081
1441,1.55965327497e+18,-4.443479538,0.160761416,-1.760682821
1442,1.55965327502e+18,-4.387891293,-1.293708682,-1.267103791
1443,1.55965327507e+18,-0.8528137207,3.595045805,1.247828484
1444,1.55965327512e+18,-0.6817713976,2.279853106,1.786611557
1445,1.55965327517e+18,-0.5027878881,-0.8825964332,0.8672594428
1446,1.55965327523e+18,-0.3641214967,-0.2540161014,0.4329342246
1447,1.55965327528e+18,0.4831486046,0.6366254091,1.230113387
1448,1.55965327533e+18,1.301707983,-0.6681827307,1.472015977
1449,1.55965327538e+18,2.79282999,-2.612566948,1.714529514
1450,1.55965327543e+18,3.519759655,-2.505054474,0.9894325137
1451,1.55965327549e+18,1.764133096,1.507719278,1.667492867
1452,1.55965327554e+18,-0.5424941182,6.482605934,2.696800709
1453,1.55965327559e+18,-1.497276545,-0.5069143176,0.09634749591
1454,1.55965327564e+18,-2.708011389,-2.950986147,-0.926240921
1455,1.55965327569e+18,-3.132562637,-2.698087931,-1.174252152
1456,1.55965327575e+18,-3.416004181,-3.324224949,-2.447906256
1457,1.5596532758e+18,-3.679898024,-3.28451848,-2.256094456
1458,1.55965327585e+18,-2.30667305,0.3397449255,-1.145541549
1459,1.5596532759e+18,-0.6335130334,2.177227497,2.88128233
1460,1.55965327595e+18,-0.6304587126,-3.082933187,0.8324401379
1461,1.559653276e+18,0.6694624424,-0.8459445238,1.709031701
1462,1.55965327606e+18,0.8887631297,0.4851308465,2.359603167
1463,1.55965327611e+18,1.03109467,-0.8416684866,2.432296038
1464,1.55965327616e+18,1.443428755,-2.654105663,2.670533657
1465,1.55965327621e+18,2.04452014,-2.991303205,2.493382931
1466,1.55965327626e+18,2.395156622,-1.949167132,2.754222155
1467,1.55965327632e+18,2.092778683,-0.551507473,1.829982996
1468,1.55965327637e+18,1.558271527,-0.4775927663,-0.1406682134
1469,1.55965327642e+18,0.1526705027,0.502235055,-2.106432676
1470,1.55965327647e+18,-1.1942873,2.340328693,-2.60917449
1471,1.55965327652e+18,-4.262052536,0.2120740861,-3.537078857
1472,1.55965327658e+18,-4.056801796,-2.937547207,-2.573133469
1473,1.55965327663e+18,-2.807582617,-2.002312422,-1.38377893
1474,1.55965327668e+18,-2.463054419,5.456963062,1.426812053
1475,1.55965327673e+18,-0.5131726265,-6.302803516,0.5080707073
1476,1.55965327678e+18,-0.1631468385,-1.946112752,2.985739946
1477,1.55965327684e+18,-0.5174486637,1.46740222,3.068817854
1478,1.55965327689e+18,0.6505256891,-4.10246706,1.370001554
1479,1.55965327694e+18,2.237553358,-5.466529369,0.4158300161
1480,1.55965327699e+18,1.41838336,-0.07442171127,1.575252175
1481,1.55965327704e+18,-0.7672925591,0.08195979148,3.99733305
1482,1.5596532771e+18,-1.298745394,-1.378008127,2.17939806
1483,1.55965327715e+18,-3.094078302,-2.792772055,0.2044706494
1484,1.5596532772e+18,-6.381144047,0.309812516,-1.281153679
1485,1.55965327725e+18,-6.389696121,3.352532148,-1.505952001
1486,1.5596532773e+18,1.11050725,-0.1623863131,0.9466719627
1487,1.55965327736e+18,2.661494255,-1.054860473,1.195294023
1488,1.55965327741e+18,2.418369532,1.415478587,1.863580704
1489,1.55965327746e+18,2.270540237,0.2310109138,1.649166942
1490,1.55965327751e+18,0.6853449941,-2.100050688,0.6876650453
1491,1.55965327756e+18,0.2705674767,-3.980905056,0.3003765047
1492,1.55965327762e+18,0.2449111491,-1.759799004,0.1329994202
1493,1.55965327767e+18,-0.1423774064,-2.054847002,0.7927339077
1494,1.55965327772e+18,0.3078302741,-3.337663889,0.923459053
1495,1.55965327777e+18,-1.511937261,0.1772547662,0.4433189631
1496,1.55965327782e+18,-1.709857702,3.218141794,-0.970834136
1497,1.55965327788e+18,-4.069019318,5.083724499,-0.2884976268
1498,1.55965327793e+18,-3.177155972,2.483270884,-1.910344839
1499,1.55965327798e+18,1.048198938,-0.4989730418,1.74568367
1500,1.55965327803e+18,1.71343112,-0.1611645818,-1.018481612
1501,1.55965327808e+18,1.656620741,4.686662197,0.3132046461
1502,1.55965327814e+18,2.948600769,1.01047492,-0.2878867388
1503,1.55965327819e+18,3.831300974,-0.8190664649,-0.1308943778
1504,1.55965327824e+18,4.070149422,-0.5356249809,0.4665318429
1505,1.55965327829e+18,4.035941124,-0.8777095079,-0.7527551651
1506,1.55965327834e+18,3.631548166,0.1503766924,-1.641564131
1507,1.5596532784e+18,-0.9022937417,2.650037289,-1.388055086
1508,1.55965327845e+18,-4.630404472,0.9945924878,-1.520612836
1509,1.5596532785e+18,-4.608413219,-0.1019106507,-2.246931553
1510,1.55965327855e+18,-2.66463995,-1.193526864,0.05419779569
1511,1.5596532786e+18,-0.2101834565,-2.554534674,2.37487483
1512,1.55965327866e+18,-0.4685794711,-2.677929401,1.489120245
1513,1.55965327871e+18,-0.7679034472,2.608498573,1.708420873
1514,1.55965327876e+18,0.3915188015,2.135688782,0.4805817306
1515,1.55965327881e+18,1.733589768,1.103937387,0.422549516
1516,1.55965327886e+18,2.762286901,-0.05792835355,-0.06858611852
1517,1.55965327892e+18,3.256476879,-0.8716008067,0.1843120903
1518,1.55965327897e+18,3.37864995,-0.7341561913,0.7573037148
1519,1.55965327902e+18,2.063457012,-0.7420974374,1.418259859
1520,1.55965327907e+18,1.869201779,-1.676721215,0.6546783447
1521,1.55965327912e+18,-1.557752252,-0.2631790638,0.7505841851
1522,1.55965327918e+18,-3.888203144,-2.674264193,-1.119885206
1523,1.55965327923e+18,-5.553421974,-1.207576752,-1.005653381
1524,1.55965327928e+18,-2.715341806,6.456338406,1.564867496
1525,1.55965327933e+18,-0.6457304358,3.081308126,0.03098491952
1526,1.55965327938e+18,-0.3372434378,-0.706056416,1.731633782
1527,1.55965327944e+18,-0.6267935634,-2.812930584,-1.579866648
1528,1.55965327949e+18,-1.051344872,1.277423143,-0.1846505105
1529,1.55965327954e+18,0.04699081182,-0.8691574335,-0.3190408647
1530,1.55965327959e+18,1.108674526,-2.210006475,0.03953703493
1531,1.55965327964e+18,1.829495549,-1.441538095,0.9020787477
1532,1.5596532797e+18,2.643779039,-1.698101521,1.576473951
1533,1.55965327975e+18,2.679820061,-4.337650299,1.744461894
1534,1.5596532798e+18,1.47152853,-4.020000458,0.7634123564
1535,1.55965327985e+18,0.4526053369,-1.29431963,-0.05148189142
1536,1.5596532799e+18,-3.520462275,2.391641378,-0.0575905405
1537,1.55965327996e+18,-5.586408615,2.57306838,-1.333077192
1538,1.55965328001e+18,-4.293206692,5.336011887,-1.960435748
1539,1.55965328006e+18,-0.9346696138,3.015945673,1.263100147
1540,1.55965328011e+18,1.382953167,-2.338899136,1.373055935
1541,1.55965328016e+18,1.36890316,-0.6926173568,1.661995173
1542,1.55965328022e+18,0.3359300792,0.8321022987,1.079840541
1543,1.55965328027e+18,0.09952522069,-1.493461728,-0.532232821
1544,1.55965328032e+18,0.5631719232,-0.9687284827,-0.4864179492
1545,1.55965328037e+18,0.5558415651,-0.4110084474,1.054184198
1546,1.55965328042e+18,0.9651212692,-2.919221163,0.6430718899
1547,1.55965328048e+18,2.274816513,-3.541082144,-1.363009572
1548,1.55965328053e+18,0.2339155674,1.102104783,-0.07835996151
1549,1.55965328058e+18,-1.913275719,-0.0157786496,-0.2793346345
1550,1.55965328063e+18,-3.855827093,1.913333774,-2.235325098
1551,1.55965328068e+18,-3.997548103,6.401971817,-1.640342355
1552,1.55965328074e+18,0.8826544881,-1.272939324,1.066401482
1553,1.55965328079e+18,0.3243236244,-0.3474784791,0.8147250414
1554,1.55965328084e+18,-0.03791946173,1.947542191,1.096944809
1555,1.55965328089e+18,0.4397771657,1.237105966,1.052962542
1556,1.55965328094e+18,0.9718407989,-1.027371407,1.621067166
1557,1.55965328099e+18,1.995651007,-2.056068659,1.424979329
1558,1.55965328105e+18,1.320033908,-1.298595667,0.6094743013
1559,1.5596532811e+18,-0.2621069849,-3.467777967,0.1592666209
1560,1.55965328115e+18,0.2210873961,-1.836157084,0.3742912114
1561,1.5596532812e+18,1.2894907,-1.205744147,1.008369327
1562,1.55965328125e+18,-0.8595331907,-0.7121650577,-0.2530674338
1563,1.55965328131e+18,-3.233966351,1.218169212,-0.6330255866
1564,1.55965328136e+18,-2.401968002,-0.7744732499,-2.311683416
1565,1.55965328141e+18,-1.615784407,5.408093929,-0.6647905707
1566,1.55965328146e+18,0.5466786027,-0.6816217899,1.142148852
1567,1.55965328151e+18,0.8405047655,-0.6492459178,0.0816867277
1568,1.55965328157e+18,0.5533980727,4.053805828,0.183090359
1569,1.55965328162e+18,0.8765458465,2.380645752,0.7634123564
1570,1.55965328167e+18,1.382342339,-2.067675114,0.2337921709
1571,1.55965328172e+18,2.259544611,-2.718857527,0.9314002395
1572,1.55965328177e+18,2.538099289,-0.5197424889,1.80188334
1573,1.55965328183e+18,2.356061459,-2.516660929,1.906341195
1574,1.55965328188e+18,-0.3048675954,-0.5649465322,0.4732513428
1575,1.55965328193e+18,-3.120345354,-0.303496182,-0.4076163471
1576,1.55965328198e+18,-4.094675541,-1.75430119,-1.849869132
1577,1.55965328203e+18,-4.699431896,0.9408363104,-0.8199504018
1578,1.55965328209e+18,-3.270618439,2.230372906,-1.43325901
1579,1.55965328214e+18,0.3017216325,3.2621243,2.569130182
1580,1.55965328219e+18,-0.06907358766,-0.0279959552,1.588080406
1581,1.55965328224e+18,1.507569551,-1.123888135,0.2197422832
1582,1.55965328229e+18,2.426311016,-0.06037181243,1.812878728
1583,1.55965328235e+18,2.529547215,-2.026746988,0.8703137636
1584,1.5596532824e+18,2.607126951,-2.114100933,0.5135684609
1585,1.55965328245e+18,2.528936386,-1.016375899,0.5722115636
1586,1.5596532825e+18,2.514886379,0.2542237937,1.568532705
1587,1.55965328255e+18,3.985239029,-1.43970561,2.429241896
1588,1.55965328261e+18,1.693883538,-0.137951687,2.225212812
1589,1.55965328266e+18,-0.538828969,-0.8276185393,1.128098845
1590,1.55965328271e+18,-4.659115314,-2.258875847,-1.006264329
1591,1.55965328276e+18,-8.95227623,-3.532529831,-0.4662593901
1592,1.55965328281e+18,-8.365234375,2.171729803,-1.306199074
1593,1.55965328287e+18,-1.522932887,7.198540211,-0.2322980016
1594,1.55965328292e+18,2.441582441,-0.3163243532,1.743851066
1595,1.55965328297e+18,2.064067841,1.694644094,1.803104997
1596,1.55965328302e+18,1.580262542,2.768545151,1.062736273
1597,1.55965328307e+18,1.048198938,1.241382122,-0.3123213649
1598,1.55965328313e+18,0.3481473625,-0.6260330081,-0.446100831
1599,1.55965328318e+18,-1.179626584,-3.465945482,2.174510956
1600,1.55965328323e+18,0.6529691219,-7.131748199,1.872743607
1601,1.55965328328e+18,3.117810249,-2.473900318,2.368155241
1602,1.55965328333e+18,5.392672539,1.643942237,4.954558372
1603,1.55965328339e+18,-0.1087798327,-0.4745384455,1.777448654
1604,1.55965328344e+18,-2.555295229,0.7203139663,-1.083233237
1605,1.55965328349e+18,-5.11482048,0.6677795649,-1.855977774
1606,1.55965328354e+18,-5.127037525,1.490004182,-2.804651499
1607,1.55965328359e+18,-0.5962502956,6.956637383,0.387730211
1608,1.55965328365e+18,1.007271051,0.07951632887,0.1446058452
1609,1.5596532837e+18,1.74947226,-0.6523002386,0.3742912114
1610,1.55965328375e+18,1.954723001,2.208381653,0.5874831676
1611,1.5596532838e+18,1.439763546,1.008031487,-0.6531841159
1612,1.55965328385e+18,1.148991704,-0.2454639673,-1.248166919
1613,1.55965328391e+18,0.8728806376,0.0379774943,-1.546880007
1614,1.55965328396e+18,0.5381264687,1.860188484,-0.2939953804
1615,1.55965328401e+18,2.527103662,-0.2491291612,0.4237712622
1616,1.55965328406e+18,1.151435137,-0.3517545462,0.1079539433
1617,1.55965328411e+18,0.1435075253,-1.027371407,0.1782034487
1618,1.55965328417e+18,-2.368981123,-2.943655729,-1.801610827
1619,1.55965328422e+18,-4.420266628,1.646385789,-0.8541588187
1620,1.55965328427e+18,-3.722047806,4.522339344,-0.7509226203
1621,1.55965328432e+18,-1.569358587,2.445397377,0.5514420867
1622,1.55965328437e+18,-0.5583766699,0.03858835623,0.08535192162
1623,1.55965328443e+18,1.247341037,-1.12877512,-0.8767608404
1624,1.55965328448e+18,3.092154026,0.7606310844,1.353508234
1625,1.55965328453e+18,4.173996449,-0.995606482,1.961319089
1626,1.55965328458e+18,3.373152018,-2.069507599,1.246606827
1627,1.55965328463e+18,2.602851152,-1.897243619,1.007147551
1628,1.55965328469e+18,1.761689544,-1.192305088,0.8238880038
1629,1.55965328474e+18,1.384785652,-0.9064201713,0.6064199805
1630,1.55965328479e+18,-1.387931585,0.5443847775,0.05480866134
1631,1.55965328484e+18,-2.96274209,1.174797773,-0.3679100871
1632,1.55965328489e+18,-3.452045441,-0.1532233208,-1.699596286
1633,1.55965328495e+18,-3.194871187,0.4655831456,-0.6024823785
1634,1.559653285e+18,-0.6628345847,5.280422688,-1.019092441
1635,1.55965328505e+18,-0.1906357706,1.102104783,1.905119538
1636,1.5596532851e+18,0.05859724805,-1.362125635,-0.1223422587
1637,1.55965328515e+18,-0.3097544909,1.541927695,0.5037946105
1638,1.55965328521e+18,0.1453401148,-0.5044708848,0.2918243706
1639,1.55965328526e+18,1.461754799,-2.901506186,0.3046525717
1640,1.55965328531e+18,2.627896547,-1.004158616,1.264932752
1641,1.55965328536e+18,2.364002705,-0.6144265532,1.423146844
1642,1.55965328541e+18,2.657828808,-2.603403807,1.206289649
1643,1.55965328547e+18,1.246119261,-0.4336104691,1.32540834
1644,1.55965328552e+18,-1.355555773,0.00865595974,-0.6537950635
1645,1.55965328557e+18,-3.675621986,0.3153102994,-1.869416833
1646,1.55965328562e+18,-4.022593498,0.8198850155,-2.483947277
1647,1.55965328567e+18,-2.687242031,3.790522814,-1.378892064
1648,1.55965328573e+18,-0.735527575,3.375745058,2.263086319
1649,1.55965328578e+18,0.2925586104,-3.596670628,1.249661088
1650,1.55965328583e+18,0.9131977558,-0.9412394762,0.8727571964
1651,1.55965328588e+18,-0.2993697822,1.507719278,0.5575507879
1652,1.55965328593e+18,-0.337854296,-2.38715744,-0.1064597592
1653,1.55965328599e+18,0.6969513893,-2.117765903,0.2392899692
1654,1.55965328604e+18,1.762911201,-1.629684567,0.9558349252
1655,1.55965328609e+18,3.689580441,-2.435415745,2.100596428
1656,1.55965328614e+18,2.969980955,-2.56247592,1.585026145
1657,1.55965328619e+18,-0.5522680283,-1.572874188,-0.3257603645
1658,1.55965328625e+18,-4.762961864,0.7557441592,-2.275642395
1659,1.5596532863e+18,-5.415366173,5.900451183,-3.117414474
1660,1.55965328635e+18,-0.5235573053,6.107534885,0.06702596694
1661,1.5596532864e+18,2.102552176,-3.501986504,0.9259025455
1662,1.55965328645e+18,2.283979177,0.6176885962,1.918558478
1663,1.55965328651e+18,0.3017216325,3.477759838,2.052338123
1664,1.55965328656e+18,-0.7593513131,1.954261661,-1.079568148
1665,1.55965328661e+18,-0.8057770729,0.07035334408,-2.28724885
1666,1.55965328666e+18,-0.119775407,0.05385999009,-2.576798916
1667,1.55965328671e+18,1.138607025,0.0746294111,-1.510228157
1668,1.55965328677e+18,3.323060989,-1.451312065,-0.5523914099
1669,1.55965328682e+18,4.897871494,-1.577150226,0.293656975
1670,1.55965328687e+18,1.780626297,0.8901345134,0.2050815076
1671,1.55965328692e+18,-3.298717976,-1.027982354,-1.56581676
1672,1.55965328697e+18,-5.607177734,0.01720807515,-4.216361523
1673,1.55965328703e+18,-1.298745394,7.06414938,-0.1082923561
1674,1.55965328708e+18,0.9840580821,-1.49957037,1.931997538
1675,1.55965328713e+18,1.174037218,-1.235676527,0.2533398867
1676,1.55965328718e+18,1.27299726,3.157055378,1.715751171
1677,1.55965328723e+18,1.088515997,2.827188253,1.272873878
1678,1.55965328729e+18,1.703657389,-1.126942515,-1.450974107
1679,1.55965328734e+18,2.1239326,0.7881199718,-1.520002007
1680,1.55965328739e+18,3.635213375,-1.616245627,-0.6800622344
1681,1.55965328744e+18,2.761676073,-0.7763059139,-0.9219648242
1682,1.55965328749e+18,0.2149787396,0.2945408821,0.2661680281
1683,1.55965328755e+18,-2.040946722,-2.228943348,0.8141141534
1684,1.5596532876e+18,-2.064770222,-4.090860367,0.1488819122
1685,1.55965328765e+18,-5.657879829,2.46738863,-0.5493370295
1686,1.5596532877e+18,-2.867447376,2.356822014,4.283828735
1687,1.55965328775e+18,-0.4612490833,-4.04993248,-0.3483623862
1688,1.55965328781e+18,0.9504604936,0.7881199718,0.5325053334
1689,1.55965328786e+18,1.44831562,3.671404123,-0.7515334487
1690,1.55965328791e+18,2.09705472,2.690354586,-0.4913048744
1691,1.55965328796e+18,3.028624058,1.092330933,0.6467370391
1692,1.55965328801e+18,2.70303297,-0.6419155002,1.82509625
1693,1.55965328807e+18,2.2662642,-1.281491399,1.32540834
1694,1.55965328812e+18,1.223517179,-1.337691069,-1.007485986
1695,1.55965328817e+18,-0.05563455075,1.576136231,0.3150372505
1696,1.55965328822e+18,-0.3439629376,0.1717569828,-0.5676630139
1697,1.55965328827e+18,-0.4496426284,-0.1654406339,-0.3489732742
1698,1.55965328833e+18,-2.394637585,-2.740237474,-1.5823102
1699,1.55965328838e+18,-3.959674358,-2.435415745,0.3028199375
1700,1.55965328843e+18,-3.295053005,-2.240549803,1.431698918
1701,1.55965328848e+18,-2.467330456,0.3397449255,-0.4271639884
1702,1.55965328853e+18,-1.820424199,2.662254572,2.032790184
1703,1.55965328859e+18,0.3414278626,0.5437739491,-0.0575905405
1704,1.55965328864e+18,0.6883993149,1.652494431,1.513554811
1705,1.55965328869e+18,0.5485111475,-0.2020925432,2.407250643
1706,1.55965328874e+18,1.478858829,-2.673653364,2.123198509
1707,1.55965328879e+18,1.719539762,-2.159304619,3.120741129
1708,1.55965328885e+18,1.32614255,-1.710929632,4.042536736
1709,1.5596532889e+18,1.407387733,-2.326071024,2.357770681
1710,1.55965328895e+18,0.4990310967,-0.9210809469,1.429866314
1711,1.559653289e+18,-0.8387637734,0.004990769085,0.4573688805
1712,1.55965328905e+18,-1.757505178,-0.1678840965,0.07802154869
1713,1.55965328911e+18,-2.116082907,-1.577150226,-0.6244735122
1714,1.55965328916e+18,-2.612105608,-1.220404863,-1.441200376
1715,1.55965328921e+18,-4.341465473,0.1625940055,-1.138822079
1716,1.55965328926e+18,-4.291985035,2.409356356,-0.6971664429
1717,1.55965328931e+18,0.1551139504,3.752038002,1.601519465
1718,1.55965328937e+18,0.4385554194,0.9927598834,1.749959707
1719,1.55965328942e+18,0.05737552047,1.790549874,1.811657071
1720,1.55965328947e+18,-0.2046856731,0.2450608015,0.1268907636
1721,1.55965328952e+18,0.1679421216,0.8980757594,0.3144263923
1722,1.55965328957e+18,0.721386075,-0.2735637724,0.4292690456
1723,1.55965328963e+18,1.378677011,-0.6663501859,1.649166942
1724,1.55965328968e+18,1.712209463,-0.9925521612,1.932608366
1725,1.55965328973e+18,2.404319763,-2.793382883,-0.1266183108
1726,1.55965328978e+18,1.436098337,0.005601634271,-0.9995447397
1727,1.55965328983e+18,1.15326786,0.6433449984,0.4237712622
1728,1.55965328989e+18,-1.53881526,-3.0658288,-2.147971392
1729,1.55965328994e+18,-3.442882299,-0.0005070181214,-0.9427342415
1730,1.55965328999e+18,-3.794740677,-0.2955549359,-2.04901123
1731,1.55965329004e+18,-4.023204327,-0.2741746604,-2.207836151
1732,1.55965329009e+18,-0.2822655737,6.41113472,2.415802717
1733,1.55965329015e+18,-0.1558164507,-0.3364829123,1.36511457
1734,1.5596532902e+18,-0.1552055776,-2.232608557,1.475070357
1735,1.55965329025e+18,-0.1277166456,-0.8447228074,0.8617616296
1736,1.5596532903e+18,0.4464966655,-1.648010612,0.8910831809
1737,1.55965329035e+18,1.192363143,-2.732296467,0.9930976629
1738,1.55965329041e+18,2.152643204,-2.214893579,0.8770332932
1739,1.55965329046e+18,2.747015238,-5.465918541,2.846462965
1740,1.55965329051e+18,0.2436894178,1.069118023,0.4934099019
1741,1.55965329056e+18,-1.897393346,2.767323494,-1.143097997
1742,1.55965329061e+18,-3.370189428,0.9768773913,-2.837027311
1743,1.55965329066e+18,-3.419058561,4.059303284,-3.540133238
1744,1.55965329072e+18,-2.670137644,2.225485802,-2.110097647
1745,1.55965329077e+18,1.897912502,-2.841030598,1.541043878
1746,1.55965329082e+18,2.185630083,-1.937560678,0.7841817737
1747,1.55965329087e+18,1.400057316,2.879111767,2.443291664
1748,1.55965329092e+18,1.448926568,1.274979591,1.324797511
1749,1.55965329098e+18,1.401279092,-2.279034376,0.6424610019
1750,1.55965329103e+18,1.181367517,-2.318129539,1.063958049
1751,1.55965329108e+18,1.01460135,-2.200232744,1.384051442
1752,1.55965329113e+18,2.059791803,-2.14525485,1.401766539
1753,1.55965329118e+18,2.512442827,-1.302260876,1.781113863
1754,1.55965329124e+18,2.2662642,-0.8037948012,1.924056292
1755,1.55965329129e+18,-0.7385818958,-0.7133867741,0.07130202651
1756,1.55965329134e+18,-5.021969318,-0.2485183179,-2.49249959
1757,1.55965329139e+18,-8.923565865,0.3458535671,-3.891380787
1758,1.55965329144e+18,-4.301758766,6.037285328,-0.8816477656
1759,1.5596532915e+18,-0.8705288172,1.607901096,-0.3294255733
1760,1.55965329155e+18,1.894247293,-2.800102472,1.128709674
1761,1.5596532916e+18,2.690815687,0.5297240019,1.506224513
1762,1.55965329165e+18,1.50146091,4.581593037,1.624732256
1763,1.5596532917e+18,1.013379693,1.0898875,0.5019620657
1764,1.55965329176e+18,0.3658624589,-1.696879745,-0.918299675
1765,1.55965329181e+18,0.4104556143,-2.392655373,-1.309253454
1766,1.55965329186e+18,0.2375807613,1.050792098,-0.5077981949
1767,1.55965329191e+18,0.7183317542,-0.1410060227,0.4934099019
1768,1.55965329196e+18,1.13372004,-1.797061682,0.1696513146
1769,1.55965329202e+18,0.5552307367,0.3684555888,0.6595652699
1770,1.55965329207e+18,-2.482602119,-1.544163465,-1.239003897
1771,1.55965329212e+18,-4.032367229,-0.3670261502,-1.25427556
1772,1.55965329217e+18,-5.118485928,0.2450608015,-0.9537298679
1773,1.55965329222e+18,-1.412366152,1.342174768,1.994916677
1774,1.55965329228e+18,-0.9047372341,1.362944245,2.051727057
1775,1.55965329233e+18,1.174648046,-1.599141359,0.4585905671
1776,1.55965329238e+18,2.341400623,0.9353385568,1.238054633
1777,1.55965329243e+18,3.152629614,0.5303348899,2.738950491
1778,1.55965329248e+18,3.720123529,-4.070091248,2.622886181
1779,1.55965329254e+18,2.70975256,-3.59911418,3.366919994
1780,1.55965329259e+18,1.363405347,-3.44639802,4.14332962
1781,1.55965329264e+18,1.489854455,-4.988832474,3.70289588
1782,1.55965329269e+18,2.172190905,-0.850220561,3.054767847
1783,1.55965329274e+18,0.4434423447,-1.843487382,2.501934767
1784,1.5596532928e+18,-2.874166727,-0.8563292027,2.151908875
1785,1.55965329285e+18,-6.043946743,-1.225902677,0.1152843237
1786,1.5596532929e+18,-6.599833965,2.268246651,-0.3850143254
1787,1.55965329295e+18,-5.834419727,1.252988577,0.8477117419
1788,1.559653293e+18,-1.806985259,0.4161030948,3.511084318
1789,1.55965329306e+18,1.02132082,-1.090290666,1.441472769
1790,1.55965329311e+18,3.668200016,-0.4934752882,3.415178537
1791,1.55965329316e+18,5.016990185,-3.562462091,1.851974249
1792,1.55965329321e+18,4.431781769,-3.926537752,-0.352027595
1793,1.55965329326e+18,2.048796177,0.9573296905,-0.2463479042
1794,1.55965329332e+18,1.287047267,1.789938927,-1.044748783
1795,1.55965329337e+18,0.866771996,0.02148413099,-1.408824444
1796,1.55965329342e+18,0.6737385392,-0.8801529408,-1.758850217
1797,1.55965329347e+18,0.2100918293,-0.4128410518,-1.328190327
1798,1.55965329352e+18,-0.1435991526,-0.8471662402,0.07435635477
1799,1.55965329358e+18,-1.42275095,-3.469000101,0.7175974846
1800,1.55965329363e+18,-4.720201492,-1.640069366,-0.5010787249
1801,1.55965329368e+18,-6.160621643,5.020805359,-0.05209275335
1802,1.55965329373e+18,-6.390917778,3.860772133,-2.287859678
1803,1.55965329378e+18,-4.924841404,3.780138016,-1.356289983
1804,1.55965329384e+18,-0.8161618114,6.577290058,0.3187024593
1805,1.55965329389e+18,0.029886581,5.053792,0.8874179721
1806,1.55965329394e+18,1.420215845,2.286572456,0.7963990569
1807,1.55965329399e+18,2.594909668,1.002533674,1.310136676
1808,1.55965329404e+18,2.96814847,-0.03471547365,1.160474777
1809,1.5596532941e+18,3.147742748,-1.001715183,0.2924352288
1810,1.55965329415e+18,2.552760124,-2.219169617,-1.101559162
1811,1.5596532942e+18,1.553384542,-1.661449552,-2.544422865
1812,1.55965329425e+18,0.7103904486,3.409342766,-1.997698665
1813,1.5596532943e+18,1.318812251,2.427071571,-1.381335616
1814,1.55965329436e+18,0.1196837798,1.31835103,-0.8999736905
1815,1.55965329441e+18,-1.508272052,0.4209899902,-0.5902650356
1816,1.55965329446e+18,-3.463040829,-0.6443589926,-2.021522284
1817,1.55965329451e+18,-3.914470196,2.000076771,-2.501662254
1818,1.55965329456e+18,-0.7966140509,8.238232613,2.127474308
1819,1.55965329462e+18,-0.7691251636,-3.107978582,0.5667137504
1820,1.55965329467e+18,-0.1466534734,-3.853234053,-0.4277748764
1821,1.55965329472e+18,0.2113135457,0.9408363104,0.6577326655
1822,1.55965329477e+18,1.459922075,1.054457307,1.355340838
1823,1.55965329482e+18,2.863079548,-1.806224704,1.230113387
1824,1.55965329488e+18,3.298626423,-2.748789787,0.431712538
1825,1.55965329493e+18,2.639503002,-0.4446060359,0.856874764
1826,1.55965329498e+18,1.505737066,-0.1177931428,0.7854034901
1827,1.55965329503e+18,1.363405347,-0.9204701185,0.6852216125
1828,1.55965329508e+18,0.08975137025,-0.6498567462,-0.05697967857
1829,1.55965329514e+18,-2.431289434,0.9762665033,-0.6482972503
1830,1.55965329519e+18,-3.920578957,-0.03899152577,-0.6623470783
1831,1.55965329524e+18,-3.480144978,-1.041421413,-1.088120222
1832,1.55965329529e+18,-2.279184103,2.386143446,-1.93294692
1833,1.55965329534e+18,-0.2425593138,2.403858662,2.476278543
1834,1.5596532954e+18,-1.064173102,-0.5099686384,-0.642799437
1835,1.55965329545e+18,-0.1051146388,0.3403557837,0.3229785264
1836,1.5596532955e+18,1.004827499,0.09784228355,0.5716006756
1837,1.55965329555e+18,2.423867464,-1.908850074,1.723692536
1838,1.5596532956e+18,4.003564835,-2.34745121,1.72247088
1839,1.55965329566e+18,2.996859074,-0.7390431166,1.848919868
1840,1.55965329571e+18,1.994429231,-0.6608523726,1.093890548
1841,1.55965329576e+18,2.064067841,-0.5771638155,0.2582267821
1842,1.55965329581e+18,0.6267018914,0.9115147591,0.6815564036
1843,1.55965329586e+18,-1.547367454,-1.110449195,-0.1015728414
1844,1.55965329592e+18,-3.528403521,-0.003561344463,0.07252375782
1845,1.55965329597e+18,-4.389723778,-0.7219388485,-0.9738884568
1846,1.55965329602e+18,-3.263287783,0.2536129355,-0.7344292402
1847,1.55965329607e+18,-3.307881117,4.576095104,-0.5768259764
1848,1.55965329612e+18,-1.440466046,3.526018143,0.6125286222
1849,1.55965329618e+18,-1.185124397,-2.072561979,-0.2170263678
1850,1.55965329623e+18,-0.9059590101,-1.493461728,0.2539507151
1851,1.55965329628e+18,-0.1387122124,-0.2497400343,0.3229785264
1852,1.55965329633e+18,1.325531721,-1.173979163,1.435974956
1853,1.55965329638e+18,2.991972208,-2.004755974,1.368779778
1854,1.55965329644e+18,3.420799494,-0.6162591577,1.781113863
1855,1.55965329649e+18,3.046949863,-1.193526864,0.530061841
1856,1.55965329654e+18,2.01092267,-0.5612813234,-0.05575794727
1857,1.55965329659e+18,1.035370708,0.1693135202,-0.0881338045
1858,1.55965329664e+18,-0.6072458625,-2.522158623,-1.375837803
1859,1.5596532967e+18,-2.541856289,-0.5026382208,-1.925005674
1860,1.55965329675e+18,-3.553448915,1.023303151,-0.351416707
1861,1.5596532968e+18,-3.849718571,1.585910082,-1.034363985
1862,1.55965329685e+18,-5.141698837,2.259694338,3.458549738
1863,1.5596532969e+18,0.1850463599,-7.015683651,-0.5181829333
1864,1.55965329696e+18,-0.9597150683,-1.973601818,-0.1260074526
1865,1.55965329701e+18,-0.4209319651,5.202232361,0.1439950019
1866,1.55965329706e+18,1.288269043,5.122209072,-0.7228227854
1867,1.55965329711e+18,3.266861677,1.714802623,0.0242653992
1868,1.55965329716e+18,4.696286201,-1.468416214,0.4494276047
1869,1.55965329722e+18,4.462324619,-1.513009429,1.339458227
1870,1.55965329727e+18,1.566212654,-0.0200547073,0.8971918225
1871,1.55965329732e+18,0.7684226632,3.413618803,2.251479864
1872,1.55965329737e+18,-0.5773134828,-0.8392249942,-0.2750585675
1873,1.55965329742e+18,-2.544910431,-0.3676370382,0.1232255697
1874,1.55965329747e+18,-3.955398083,-0.6272547841,-0.4125032425
1875,1.55965329753e+18,-4.420877457,-0.8086817861,-0.9641145468
1876,1.55965329758e+18,-3.177155972,-0.1972056329,-0.4125032425
1877,1.55965329763e+18,-4.005489349,-0.8074600101,0.4194951952
1878,1.55965329768e+18,-0.4661359787,-1.007823825,1.140927076
1879,1.55965329773e+18,-0.1741424054,-1.221626639,0.6546783447
1880,1.55965329779e+18,-0.3916104436,0.1998567879,1.216674328
1881,1.55965329784e+18,0.02499966137,-1.078684211,1.621067166
1882,1.55965329789e+18,0.9425193071,-3.009018421,2.18245244
1883,1.55965329794e+18,2.55764699,-2.740848303,2.955807686
1884,1.55965329799e+18,3.167290449,-2.075616121,3.853779554
1885,1.55965329805e+18,2.565588236,-1.410994887,3.319883347
1886,1.5596532981e+18,1.82583046,-1.247282982,1.163529038
1887,1.55965329815e+18,1.291934252,-1.491629004,-0.8602674603
1888,1.5596532982e+18,0.09158396721,0.1357159317,-2.102156401
1889,1.55965329825e+18,-2.438009024,2.799088478,-0.6617362499
1890,1.55965329831e+18,-5.222332954,0.5798149705,-1.588418841
1891,1.55965329836e+18,-5.822202682,-1.118390322,-1.625681639
1892,1.55965329841e+18,-3.185097218,4.505845547,0.5428900123
1893,1.55965329846e+18,-0.397108227,1.049570322,1.042577744
1894,1.55965329851e+18,-1.387320757,-2.363333702,0.4341559708
1895,1.55965329857e+18,-1.907167077,0.09723142534,0.7383669019
1896,1.55965329862e+18,-1.984746933,-1.225291848,0.9863781929
1897,1.55965329867e+18,-1.771555066,-3.379813433,1.536156893
1898,1.55965329872e+18,0.1416749209,-5.217907429,1.283869505
1899,1.55965329877e+18,1.904021144,-2.454352856,1.688873172
1900,1.55965329883e+18,1.274219155,-0.9125288129,2.858680248
1901,1.55965329888e+18,0.6511365175,-3.303455353,4.114619255
1902,1.55965329893e+18,-0.736749351,-4.774418831,4.052310944
1903,1.55965329898e+18,-1.294469237,-2.467180967,3.844005823
1904,1.55965329903e+18,-1.744066,0.0196515359,1.187352777
1905,1.55965329909e+18,-3.004891872,-0.5582270026,-2.302520275
1906,1.55965329914e+18,-4.287708759,1.664100885,-2.391095638
1907,1.55965329919e+18,-2.381809235,4.559602261,1.214841843
1908,1.55965329924e+18,-0.05441282317,-2.581412554,1.025473475
1909,1.55965329929e+18,0.5497329235,-1.492239952,1.250882864
1910,1.55965329935e+18,0.5533980727,0.8266045451,2.254534483
1911,1.5596532994e+18,1.242454052,-1.274771929,2.270416975
1912,1.55965329945e+18,1.475193739,-1.999258041,1.871521831
1913,1.5596532995e+18,1.230847597,-1.900908828,1.780502915
1914,1.55965329955e+18,1.304762363,-2.046905756,2.221547604
1915,1.55965329961e+18,1.181978345,-2.922886133,1.865413189
1916,1.55965329966e+18,-1.024466753,-3.61866188,0.4842469096
1917,1.55965329971e+18,-4.028702259,-0.8703791499,-1.471132636
1918,1.55965329976e+18,-6.484380245,1.648218274,-2.35383296
1919,1.55965329981e+18,-5.8038764,5.456352234,-1.379502892
1920,1.55965329987e+18,-2.945027113,10.26264,-1.231673598
1921,1.55965329992e+18,0.7873594761,7.722051144,3.961902857
1922,1.55965329997e+18,1.146548271,-0.08724988252,0.3510783017
1923,1.55965330002e+18,2.685928822,-0.7158302069,1.292421579
1924,1.55965330007e+18,2.915614128,1.200454116,1.15619874
1925,1.55965330013e+18,3.557022572,0.05141652748,-0.4864179492
1926,1.55965330018e+18,2.951654911,1.722743869,0.04992173985
1927,1.55965330023e+18,3.089710712,5.098996162,0.9955411553
1928,1.55965330028e+18,2.857581854,-1.710929632,0.2246291935
1929,1.55965330033e+18,0.5460677147,-2.393266201,0.7145431638
1930,1.55965330039e+18,-1.540037155,-4.42317152,0.3614630103
1931,1.55965330044e+18,-3.036657095,-0.893592,0.05297606811
1932,1.55965330049e+18,-4.329247952,-1.343188882,-1.37033999
1933,1.55965330054e+18,-5.080000877,0.7838439345,-1.366674781
1934,1.55965330059e+18,-1.18084836,3.237689734,0.7799056768
1935,1.55965330065e+18,0.7464315295,-0.04326758534,2.642433882
1936,1.5596533007e+18,0.3646407425,-1.848374367,1.173913836
1937,1.55965330075e+18,-0.2755460441,-0.4268909693,1.811046243
1938,1.5596533008e+18,-0.6384000182,-0.362750113,1.937495351
1939,1.55965330085e+18,0.3420387208,-2.826369524,2.217271805
1940,1.55965330091e+18,0.8478351235,-3.04933548,2.312566757
1941,1.55965330096e+18,0.1911550164,-0.07808690518,2.379761696
1942,1.55965330101e+18,-0.02692388557,0.2340652347,1.663827777
1943,1.55965330106e+18,-0.1313818395,-1.62540853,1.662606001
1944,1.55965330111e+18,-0.58158952,-2.606458187,2.321118593
1945,1.55965330117e+18,-0.5834221244,-4.17821455,-0.6489080787
1946,1.55965330122e+18,-1.791713595,1.461904407,-1.504730344
1947,1.55965330127e+18,-2.725115776,0.3733424842,-2.026409149
1948,1.55965330132e+18,-2.732445955,-0.7964644432,-1.599414468
1949,1.55965330137e+18,-2.892492771,1.409369946,-0.4650376439
1950,1.55965330143e+18,-0.4343709946,1.940211892,2.275914907
1951,1.55965330148e+18,-0.350071609,0.1931372732,-0.2304654121
1952,1.55965330153e+18,0.3285996914,1.037963867,0.8525986671
1953,1.55965330158e+18,1.009103537,-0.1336756498,0.8098381162
1954,1.55965330163e+18,1.378677011,-0.4036780596,1.497672319
1955,1.55965330169e+18,1.929066658,-1.536833167,2.005301476
1956,1.55965330174e+18,2.419591427,-2.15869379,2.897164583
1957,1.55965330179e+18,1.538723707,-1.742694736,3.11646533
1958,1.55965330184e+18,0.9443518519,-2.979696751,1.46407485
1959,1.55965330189e+18,-0.6567259431,-2.291862488,0.6662847996
1960,1.55965330195e+18,-2.723283052,-2.178852558,-1.591473103
1961,1.559653302e+18,-3.651798248,-2.651662111,-1.938444614
1962,1.55965330205e+18,-5.692699432,2.860174894,-2.328176737
1963,1.5596533021e+18,-5.272423744,3.720273256,-1.339796782
1964,1.55965330215e+18,-0.4331492484,1.522990823,-0.5065764785
1965,1.55965330221e+18,0.03782783076,-1.640680194,2.206276178
1966,1.55965330226e+18,1.022542596,-2.018805742,1.206289649
1967,1.55965330231e+18,0.1471727192,5.428863049,1.387105703
1968,1.55965330236e+18,1.65356636,0.9139582515,1.128098845
1969,1.55965330241e+18,2.698756933,-2.181295872,0.908187449
1970,1.55965330247e+18,3.155683994,-1.560046077,0.8935266733
1971,1.55965330252e+18,3.371930361,-1.108005762,1.283258677
1972,1.55965330257e+18,2.973035336,-1.247282982,2.334557772
1973,1.55965330262e+18,1.083018303,-2.853247881,1.410929561
1974,1.55965330267e+18,-0.09167559445,-0.6486350894,1.114048958
1975,1.55965330273e+18,-2.315835953,0.6164668798,-0.9396799207
1976,1.55965330278e+18,-4.569317818,1.020248771,-2.457069397
1977,1.55965330283e+18,-5.012805939,0.8705868125,-3.53219223
1978,1.55965330288e+18,-5.168576717,3.349478006,-2.064893723
1979,1.55965330293e+18,-1.834474087,4.636571407,-0.1107358187
