,Time (s),Gyroscope x (rad/s),Gyroscope y (rad/s),Gyroscope z (rad/s)
0,1.55965381705e+18,-0.2236225009,-1.966882229,1.214231014
1,1.5596538171e+18,-0.0672409907,-2.167246103,1.529437423
2,1.55965381716e+18,0.177105099,-1.713373184,1.36511457
3,1.55965381721e+18,0.3194366992,-0.3932933509,1.089003563
4,1.55965381726e+18,0.5069723725,-0.5741094947,0.9533914328
5,1.55965381731e+18,0.3139389455,-1.586313248,0.6815564036
6,1.55965381736e+18,0.08058839291,-2.197178364,0.3345849216
7,1.55965381742e+18,-0.2388941199,-1.833102822,-0.3019366562
8,1.55965381747e+18,-0.6267935634,0.6079148054,-0.5304002762
9,1.55965381752e+18,-0.4313166738,1.782608628,-1.957381487
10,1.55965381757e+18,-0.3347999454,0.2566672266,-2.397204399
11,1.55965381762e+18,-0.7507991791,1.194345474,-3.149179459
12,1.55965381768e+18,-0.7043734193,1.621340156,-3.683075666
13,1.55965381773e+18,-0.6506173015,2.843681574,-3.427734137
14,1.55965381778e+18,-0.3311347663,3.976836681,-2.08566308
15,1.55965381783e+18,0.05859724805,1.8748492,-1.200519443
16,1.55965381788e+18,0.1099099293,-0.5673899651,-0.3208734691
17,1.55965381794e+18,0.3573103547,-0.7427083254,0.3571869433
18,1.55965381799e+18,0.5735566616,0.262775898,0.9888215661
19,1.55965381804e+18,0.4654335082,0.07951632887,1.012645364
20,1.55965381809e+18,0.4061795771,-0.8288402557,0.8593181968
21,1.55965381814e+18,0.2534632683,-1.68527329,0.5050163865
22,1.5596538182e+18,-0.004321871791,-0.988276124,0.05358693376
23,1.55965381825e+18,0.2980564237,-0.9552893639,0.4530928135
24,1.5596538183e+18,0.5002527833,-1.568598151,0.6613978148
25,1.55965381835e+18,0.8924282789,-0.4659863412,0.7389777303
26,1.5596538184e+18,1.120891929,1.316518426,1.232556939
27,1.55965381846e+18,1.075077057,1.82536912,1.46407485
28,1.55965381851e+18,1.088515997,1.108213425,1.520274401
29,1.55965381856e+18,0.6364757419,0.6378471851,1.33823657
30,1.55965381861e+18,-0.3622889221,-0.3737457097,1.308915019
31,1.55965381866e+18,-1.127092123,1.048959494,0.6094743013
32,1.55965381872e+18,-1.505828619,0.4839091301,0.285715729
33,1.55965381877e+18,-1.395872951,-0.3774108887,-0.6214191914
34,1.55965381882e+18,-2.239477873,-0.2656225264,-0.7442030907
35,1.55965381887e+18,-2.381198406,-1.62540853,-0.5517805219
36,1.55965381892e+18,-1.996964335,0.2395630181,0.1549905688
37,1.55965381898e+18,-1.075779557,-1.768961906,0.9772152305
38,1.55965381903e+18,-0.2077400088,-0.3908499181,2.32478404
39,1.55965381908e+18,0.9467952847,-1.775681376,3.642420053
40,1.55965381913e+18,2.115380526,-2.800102472,4.759692669
41,1.55965381918e+18,2.934550762,-4.36025238,4.429825783
42,1.55965381924e+18,3.224100828,-4.499529839,2.740783215
43,1.55965381929e+18,2.502669096,-3.439678431,1.559369802
44,1.55965381934e+18,1.11722672,-2.535597801,0.5887048841
45,1.55965381939e+18,-0.7446905375,-1.874641657,-0.5481153727
46,1.55965381944e+18,-2.728169918,-0.8654921651,-1.830932379
47,1.5596538195e+18,-4.919954777,-0.2240836918,-2.82725358
48,1.55965381955e+18,-5.413533688,-0.1880426556,-3.700790882
49,1.5596538196e+18,-8.753133774,-4.671182632,-2.33062005
50,1.55965381965e+18,-1.375103474,9.026248932,-1.514504194
51,1.5596538197e+18,-0.4074929059,1.177852035,2.838521481
52,1.55965381976e+18,-0.1271057874,0.8009482026,1.602130413
53,1.55965381981e+18,-0.5944177508,-1.519118071,0.136053741
54,1.55965381986e+18,-0.7410253286,0.0196515359,0.2087467015
55,1.55965381991e+18,-0.7220885754,1.030633569,-0.296438843
56,1.55965381996e+18,-0.7489666343,1.789938927,-0.4332726598
57,1.55965382001e+18,-0.4844619334,0.6928250194,-0.4259423018
58,1.55965382007e+18,-0.4111581147,-1.23811996,-0.5194046497
59,1.55965382012e+18,-0.2303420156,-2.216115236,-0.5163503289
60,1.55965382017e+18,-0.2578309774,-1.908850074,-0.2823889554
61,1.55965382022e+18,-0.1093906909,-1.040810585,0.005328577477
62,1.55965382027e+18,-0.0428063795,-0.2833376229,0.2515072823
63,1.55965382033e+18,-0.1582599133,0.1167791039,0.3516891897
64,1.55965382038e+18,-0.01226312015,0.1442680508,0.3394718766
65,1.55965382043e+18,-4.581489338e-05,0.2994278371,0.2985438704
66,1.55965382048e+18,-0.04586071149,0.2169610113,0.1128408611
67,1.55965382053e+18,-0.1326035708,0.1021183431,-0.03254506737
68,1.55965382059e+18,-0.3286913037,0.02392759174,-0.2268002182
69,1.55965382064e+18,-0.3274695873,0.06057950482,-0.2976605892
70,1.55965382069e+18,-0.2523331642,0.3189755082,-0.3746296167
71,1.55965382074e+18,-0.04708243906,1.496723771,-0.1425008029
72,1.55965382079e+18,0.3640298843,1.647607446,-0.04292977601
73,1.55965382085e+18,0.6841232181,1.15280652,0.202638045
74,1.5596538209e+18,0.9064782262,0.714816153,0.4622557759
75,1.55965382095e+18,1.055529356,0.6091364622,0.6949954033
76,1.559653821e+18,1.082407355,0.8027807474,0.9197938442
77,1.55965382105e+18,1.158765554,0.3825055063,1.001649737
78,1.55965382111e+18,1.182589412,0.4295421243,1.106718659
79,1.55965382116e+18,1.241232395,0.2163501382,1.236222029
80,1.55965382121e+18,1.318201423,0.2175718695,1.307082415
81,1.55965382126e+18,1.386007428,-0.2375227362,1.095112205
82,1.55965382131e+18,1.528339028,-0.05976094678,1.568532705
83,1.55965382137e+18,2.171580076,-0.9858326316,1.566089272
84,1.55965382142e+18,2.426921844,-0.8520531654,1.84830904
85,1.55965382147e+18,2.404930592,-1.504457235,1.536156893
86,1.55965382152e+18,1.860038877,-0.5698334575,0.8880288601
87,1.55965382157e+18,1.015823007,1.545592904,0.3620738685
88,1.55965382163e+18,0.472763896,1.830866933,-0.5187938213
89,1.55965382168e+18,0.2302503884,0.5504934192,-1.030698895
90,1.55965382173e+18,-0.04769330099,0.2090197653,-0.6336364746
91,1.55965382178e+18,-0.9365022779,-0.07808690518,0.5893157125
92,1.55965382183e+18,-0.4459774494,-0.7078889608,-0.9445669055
93,1.55965382189e+18,-1.913886547,0.3715099096,-0.1797636002
94,1.55965382194e+18,-2.083707333,-0.8349488974,-0.3923446834
95,1.55965382199e+18,-1.301799655,-2.532543421,0.4152191579
96,1.55965382204e+18,-0.0794582963,-2.821482658,1.056627631
97,1.55965382209e+18,0.9712299109,-3.255197048,1.888626099
98,1.55965382215e+18,1.822165132,-4.828175068,1.243552446
99,1.5596538222e+18,1.235123634,-7.018126965,-1.361787796
100,1.55965382225e+18,-0.7031517625,-5.199581146,-3.342212915
101,1.5596538223e+18,-2.497873783,1.112489462,-3.803416252
102,1.55965382235e+18,-1.934656024,2.301843882,-2.672704697
103,1.55965382241e+18,1.786734939,12.07263374,1.637560606
104,1.55965382246e+18,2.415926218,-2.459239721,2.153741598
105,1.55965382251e+18,2.464184523,-3.462891102,0.9338437319
106,1.55965382256e+18,1.373790145,0.07890546322,1.032193065
107,1.55965382261e+18,0.3756363094,1.421587229,1.092668653
108,1.55965382267e+18,-0.3775605559,1.906614304,0.5770984292
109,1.55965382272e+18,-1.030575395,1.177241206,-0.03437766433
110,1.55965382277e+18,-1.835695982,0.5993626714,-0.6263061166
111,1.55965382282e+18,-2.604164362,1.213893056,-1.158980608
112,1.55965382287e+18,-2.897990465,1.383713603,-1.567649364
113,1.55965382293e+18,-3.442882299,0.08257065713,-2.178514719
114,1.55965382298e+18,-3.971891642,-1.37373209,-2.392317533
115,1.55965382303e+18,-4.439814568,-1.094566703,-1.878579855
116,1.55965382308e+18,-4.246780872,1.168689132,-0.6177539825
117,1.55965382313e+18,-2.755048037,2.563905239,0.1409406513
118,1.55965382319e+18,-1.084331632,-0.2112555206,0.0242653992
119,1.55965382324e+18,0.2137570232,0.54682827,0.8012859821
120,1.55965382329e+18,1.29926455,0.5120089054,0.6681173444
121,1.55965382334e+18,1.764743924,1.240771174,0.8941375017
122,1.55965382339e+18,2.139815092,0.7856765985,0.8416031003
123,1.55965382345e+18,2.128819466,0.6213538051,0.9057439566
124,1.5596538235e+18,1.849043369,0.3641795218,1.087781787
125,1.55965382355e+18,1.603475451,-0.4696515203,1.186741948
126,1.5596538236e+18,1.403111696,-0.696893394,1.07006669
127,1.55965382365e+18,1.084850788,-0.449492991,1.119546771
128,1.55965382371e+18,0.7751421332,-0.009669996798,1.768896461
129,1.55965382376e+18,1.011547089,-0.9106962085,2.115257025
130,1.55965382381e+18,1.44831562,-1.361514807,2.168402433
131,1.55965382386e+18,1.596755981,-1.332193255,2.011409998
132,1.55965382391e+18,1.856984496,-1.813555002,1.489120245
133,1.55965382397e+18,1.182589412,-0.9241352677,0.7414212227
134,1.55965382402e+18,0.1001360863,2.868726969,2.109759331
135,1.55965382407e+18,0.331043154,6.136245251,6.198280334
136,1.55965382412e+18,1.103176713,-3.478162766,-0.05881227553
137,1.55965382417e+18,-0.9200088382,1.655548692,0.632076323
138,1.55965382423e+18,-1.441076875,1.386157155,-1.612853527
139,1.55965382428e+18,-1.511326432,-0.5961006284,-3.849231243
140,1.55965382433e+18,-2.33599472,2.09964776,-3.133908033
141,1.55965382438e+18,-2.375700712,-0.7469843626,-1.650727034
142,1.55965382443e+18,-0.7886728644,-0.7133867741,-0.6189756989
143,1.55965382449e+18,0.9797820449,-3.714567661,-0.3850143254
144,1.55965382454e+18,1.771463394,-4.470208168,-0.3899012506
145,1.55965382459e+18,1.123946309,-7.397474289,-2.410643578
146,1.55965382464e+18,-0.6548933983,-4.960122108,-3.991562843
147,1.55965382469e+18,-1.867460847,2.248698711,-4.610369205
148,1.55965382475e+18,-1.23704803,-0.04998710379,-3.130242586
149,1.5596538248e+18,0.5918826461,12.40250111,2.33822298
150,1.55965382485e+18,2.731132746,-4.055430412,3.06698513
151,1.5596538249e+18,2.59429884,-4.490366936,1.191628933
152,1.55965382495e+18,1.550330162,-2.144644022,1.211176515
153,1.55965382501e+18,-0.1662011594,0.5095654726,0.8483226299
154,1.55965382506e+18,-2.188775778,2.031841755,0.7444755435
155,1.55965382511e+18,-4.267550468,1.761839271,-0.3593579829
156,1.55965382516e+18,-5.478896141,2.724562645,-1.119274259
157,1.55965382521e+18,-5.292582512,2.438678026,-2.399037123
158,1.55965382527e+18,-4.758075237,0.4038857818,-2.45645833
159,1.55965382532e+18,-4.375062466,0.5168958902,-2.137586594
160,1.55965382537e+18,-3.251070499,2.700128078,-0.7955157757
161,1.55965382542e+18,-2.04155755,2.527864218,-0.874928236
162,1.55965382547e+18,-1.040349364,1.998854995,-0.2976605892
163,1.55965382553e+18,-0.2230116278,0.144878909,-0.1015728414
164,1.55965382558e+18,0.1483944356,0.1534310281,0.4347668588
165,1.55965382563e+18,0.3964057267,0.2212370634,0.9191829562
166,1.55965382568e+18,0.7122231126,-0.1678840965,1.259434938
167,1.55965382573e+18,1.005438328,-0.3713022172,1.430477142
168,1.55965382579e+18,1.26627779,-0.4067323804,1.629619241
169,1.55965382584e+18,1.49779582,-0.1550559253,1.783557296
170,1.55965382589e+18,1.798341393,-0.6791782975,1.819598436
171,1.55965382594e+18,2.117824078,-0.791577518,1.868467569
172,1.55965382599e+18,2.322463751,-1.12511003,1.926499724
173,1.55965382605e+18,3.112923622,-1.802559495,1.439640164
174,1.5596538261e+18,3.671865225,-1.750635982,0.6876650453
175,1.55965382615e+18,4.08114481,-1.292487025,-1.052079082
176,1.5596538262e+18,2.870409966,0.656783998,-1.516336799
177,1.55965382625e+18,1.814224005,2.605444193,-2.096658707
178,1.55965382631e+18,1.346912146,0.2890431285,-1.856588721
179,1.55965382636e+18,0.9089217186,-1.336469412,-0.8517153263
180,1.55965382641e+18,2.411650181,-1.716427445,1.110994577
181,1.55965382646e+18,2.824594975,-1.980321288,1.514165759
182,1.55965382651e+18,2.428143501,-10.06084633,2.260032177
183,1.55965382657e+18,-2.411130905,-1.359071255,-1.674550891
184,1.55965382662e+18,-3.332315683,1.443578362,-2.865127087
185,1.55965382667e+18,-3.381795883,0.8241610527,-2.639718056
186,1.55965382672e+18,-3.412950039,2.259083509,-2.14552784
187,1.55965382677e+18,-3.978610992,1.811319351,-2.251818657
188,1.55965382683e+18,-4.711038589,2.817414284,-2.113762856
189,1.55965382688e+18,-5.013416767,0.8204958439,-1.337964058
190,1.55965382693e+18,-4.159427166,-1.10861659,0.4592014551
191,1.55965382698e+18,-2.616992474,-1.735364199,1.950323462
192,1.55965382703e+18,-1.019579887,-2.868519306,3.386467695
193,1.55965382709e+18,0.6951188445,-3.828188658,4.57337904
194,1.55965382714e+18,2.401265383,-4.597878933,5.233724117
195,1.55965382719e+18,3.35543704,-5.730422974,4.391340733
196,1.55965382724e+18,3.238761663,-4.789079666,2.98757267
197,1.55965382729e+18,1.778182864,-3.579566479,1.740796804
198,1.55965382735e+18,0.02072360367,-5.856872082,-1.246334314
199,1.5596538274e+18,-3.092245579,-1.929008603,-2.673315525
200,1.55965382745e+18,-3.832003355,3.846722364,-4.862656593
201,1.5596538275e+18,0.7140556574,8.712264061,0.907576561
202,1.55965382755e+18,4.69689703,-2.627227545,3.955794096
203,1.55965382761e+18,4.295558453,-2.546593189,1.578917503
204,1.55965382766e+18,2.574751139,0.1638157368,1.935051918
205,1.55965382771e+18,1.073244333,0.3427992463,1.850141644
206,1.55965382776e+18,-0.1093906909,0.2817127407,0.8806985021
207,1.55965382781e+18,-1.844858885,1.304911971,0.1513253748
208,1.55965382787e+18,-3.343922138,2.107588768,-0.6043149233
209,1.55965382792e+18,-3.967615366,1.711748242,-1.699596286
210,1.55965382797e+18,-4.25044632,1.357446432,-1.678826928
211,1.55965382802e+18,-4.072684288,0.8400436044,-2.064282894
212,1.55965382807e+18,-3.990217447,1.17601943,-1.505952001
213,1.55965382813e+18,-4.008543491,1.240160227,-1.359955192
214,1.55965382818e+18,-3.749536514,1.304911971,-1.159591436
215,1.55965382823e+18,-3.024439812,2.016570091,-0.5029113293
216,1.55965382828e+18,-2.486267328,2.212046862,-0.3184300065
217,1.55965382833e+18,-1.640829802,1.000090241,-0.221913293
218,1.55965382839e+18,-0.9407783151,-0.3438133001,0.2789962292
219,1.55965382844e+18,-0.4771315753,-0.2460748404,0.6797237992
220,1.55965382849e+18,-0.2926502824,0.357460022,0.8739789724
221,1.55965382854e+18,0.06898195297,0.1815308183,0.4640883803
222,1.55965382859e+18,0.5540089607,0.1015074775,0.5477769375
223,1.55965382865e+18,1.123335361,0.3776185513,0.9356763363
224,1.5596538287e+18,1.480691552,0.3415775001,1.208122134
225,1.55965382875e+18,1.482524157,-0.3340394199,1.284480333
226,1.5596538288e+18,1.589425564,-1.027371407,1.041966915
227,1.55965382885e+18,1.745196223,-0.1513907313,1.317467213
228,1.55965382891e+18,1.836215138,-0.7921883464,1.79210937
229,1.55965382896e+18,2.03413558,-1.83737874,1.589302182
230,1.55965382901e+18,1.596145034,-0.9149723053,2.004079819
231,1.55965382906e+18,1.324920893,-0.9760588408,1.867245793
232,1.55965382911e+18,0.8539437652,-0.9424612522,1.962540746
233,1.55965382917e+18,0.7067252994,-0.8789312243,2.187950134
234,1.55965382922e+18,0.8759349585,-0.9717828035,2.320507765
235,1.55965382927e+18,0.9046456218,0.009266825393,2.468337059
236,1.55965382932e+18,1.207023978,1.546203732,2.203221798
237,1.55965382937e+18,0.4690986872,3.078864813,2.746891737
238,1.55965382942e+18,-1.881510735,2.103312969,3.028500795
239,1.55965382948e+18,1.6700598,-3.436013222,1.619234443
240,1.55965382953e+18,0.9962753654,2.46738863,1.037690759
241,1.55965382958e+18,-1.271256328,0.9591622949,-0.7112163901
242,1.55965382963e+18,-1.997575164,1.86812973,-1.846814871
243,1.55965382968e+18,-2.579118967,2.444786549,-3.325108528
244,1.55965382974e+18,-2.304840326,2.304287672,-4.550504208
245,1.55965382979e+18,-1.76361382,3.097801447,-5.216958523
246,1.55965382984e+18,-1.058064461,2.367206812,-5.051414013
247,1.55965382989e+18,0.6902319193,3.375745058,-3.038613081
248,1.55965382994e+18,2.141036749,0.7178704739,-0.8883672357
249,1.55965383e+18,3.134914637,-1.39022541,1.180022478
250,1.55965383005e+18,3.646208763,-4.238079071,2.572184324
251,1.5596538301e+18,4.53501749,-7.070661068,1.61007154
252,1.55965383015e+18,3.753721237,-5.886193752,0.9674413204
253,1.5596538302e+18,2.195403814,-4.697449684,0.4030018747
254,1.55965383026e+18,0.5094158053,-6.965592861,-2.056952477
255,1.55965383031e+18,-2.812469482,-1.745748997,-3.580450535
256,1.55965383036e+18,-1.698251247,3.149725199,-4.169324875
257,1.55965383041e+18,-4.057412624,5.937102795,-1.44669807
258,1.55965383046e+18,3.513651133,-0.5686116815,3.14334321
259,1.55965383052e+18,3.135525465,-3.393252611,1.278371692
260,1.55965383057e+18,2.053683043,0.1687026471,1.486065865
261,1.55965383062e+18,0.3542560339,2.289626598,0.9711065292
262,1.55965383067e+18,-1.074557781,2.400193453,0.4646992385
263,1.55965383072e+18,-2.486267328,2.174784184,0.2313487232
264,1.55965383078e+18,-3.222970963,1.706250429,-0.4577072859
265,1.55965383083e+18,-3.867433548,1.825980067,-0.5432283878
266,1.55965383088e+18,-3.547951221,1.376383305,-0.6641797423
267,1.55965383093e+18,-3.152721405,2.464334249,-0.9213539958
268,1.55965383098e+18,-2.364705086,3.316491127,-0.8651544452
269,1.55965383104e+18,-1.744066,3.599321842,-0.7716920376
270,1.55965383109e+18,-1.007362604,1.839419127,-0.8950867653
271,1.55965383114e+18,-0.8167726398,0.6396797299,-0.7460356355
272,1.55965383119e+18,-0.676884532,0.4839091301,-0.540174067
273,1.55965383124e+18,-0.4013842642,0.6500644684,-0.2921628058
274,1.5596538313e+18,-0.133214429,0.1002857462,-0.2726151049
275,1.55965383135e+18,0.1642769277,-0.07503257692,-0.07835996151
276,1.5596538314e+18,0.4599356949,0.03858835623,0.09146057814
277,1.55965383145e+18,0.7421554327,0.01415374782,0.2728875279
278,1.5596538315e+18,0.8001877069,0.002547307871,0.4995185435
279,1.55965383156e+18,0.9052564502,-0.1813231409,0.7218735218
280,1.55965383161e+18,1.0243752,-1.119612217,0.9094091058
281,1.55965383166e+18,1.470306873,-1.647399664,0.9827129245
282,1.55965383171e+18,1.734811544,-1.516674519,1.180022478
283,1.55965383176e+18,2.051239729,-1.566154718,1.533102512
284,1.55965383182e+18,2.139204264,-1.764074922,1.70597744
285,1.55965383187e+18,2.244884014,-1.96993649,1.252715468
286,1.55965383192e+18,1.806282759,-1.558824182,0.565492034
287,1.55965383197e+18,1.576597452,-0.9528459311,-0.009332188405
288,1.55965383202e+18,0.9076999426,-1.804392099,-0.8297241926
289,1.55965383208e+18,-0.1191645339,-1.994371176,-1.223121405
290,1.55965383213e+18,-1.434357405,1.670209527,-0.1883157045
291,1.55965383218e+18,-3.795962334,3.293278217,1.198348403
292,1.55965383223e+18,0.3896862268,-2.767115831,-0.9909926057
293,1.55965383228e+18,-4.273048401,1.433804512,0.01754588261
294,1.55965383234e+18,-5.17773962,2.946306944,-1.951272845
295,1.55965383239e+18,-4.698210239,7.495420456,-3.021508694
296,1.55965383244e+18,-3.162495136,2.637820005,-3.732555866
297,1.55965383249e+18,-1.52171123,0.5504934192,-1.409435272
298,1.55965383254e+18,0.7537618876,1.918220758,0.4188843369
299,1.5596538326e+18,2.086669922,-0.2802833021,1.948490977
300,1.55965383265e+18,3.350549936,-1.713373184,3.278344393
301,1.5596538327e+18,3.980352163,-3.511149645,3.914866209
302,1.55965383275e+18,4.22347641,-5.66506052,2.591732025
303,1.5596538328e+18,3.484940529,-5.106118679,0.812281549
304,1.55965383286e+18,1.646235943,-3.038950682,-0.1895374358
305,1.55965383291e+18,-0.7019299865,-1.640680194,-1.465023994
306,1.55965383296e+18,-3.129508495,-0.3676370382,-2.447295427
307,1.55965383301e+18,-2.970683575,0.8883019686,-3.343434811
308,1.55965383306e+18,-7.003005028,-5.023652077,-0.1205096692
309,1.55965383312e+18,0.8301200271,4.281047344,-1.78084147
310,1.55965383317e+18,-0.8760265708,1.216947436,3.402961254
311,1.55965383322e+18,-0.6945996284,0.7844548225,0.6204699278
312,1.55965383327e+18,-1.513159037,1.650661707,0.8006750941
313,1.55965383332e+18,-1.761170268,0.7154270411,-0.06003400311
314,1.55965383338e+18,-1.737957358,0.9603840113,-0.2402392626
315,1.55965383343e+18,-1.279808521,1.061787605,-0.06797525287
316,1.55965383348e+18,-0.8112748265,1.069728851,-0.03437766433
317,1.55965383353e+18,-0.5150051713,0.7343639135,0.04198049009
318,1.55965383358e+18,-0.3073110282,0.6445666552,-0.1760984063
319,1.55965383364e+18,-0.02386956103,0.4338181615,-0.02032776177
320,1.55965383369e+18,0.224141717,-0.4048998058,0.281439662
321,1.55965383374e+18,0.2278069109,-0.6510784626,0.4304907918
322,1.55965383379e+18,0.2339155674,-0.3505328,0.6418501735
323,1.55965383384e+18,0.1966527998,-0.2534052134,0.5960353017
324,1.5596538339e+18,0.1716073155,-0.08053036779,0.5544964671
325,1.55965383395e+18,0.1819920391,-0.1758253425,0.3706260026
326,1.559653834e+18,0.1453401148,-0.1184040084,0.2612811327
327,1.55965383405e+18,0.1819920391,-0.02921768464,0.05847385526
328,1.5596538341e+18,0.06776022911,0.1735895723,-0.1608267725
329,1.55965383416e+18,-0.02448042482,0.2334543765,-0.3110996187
330,1.55965383421e+18,-0.04524984211,-0.02371989749,-0.5145177841
331,1.55965383426e+18,-0.05746714771,0.0001038470946,-0.4754223526
332,1.55965383431e+18,0.05248859897,0.1338833272,-0.4277748764
333,1.55965383436e+18,0.08975137025,0.5688194036,-0.2976605892
334,1.55965383442e+18,0.09586003423,0.8821932077,-0.2158046365
335,1.55965383447e+18,0.04943427071,0.8547043204,-0.1186770722
336,1.55965383452e+18,0.008506298065,0.2053545713,0.0505326055
337,1.55965383457e+18,-0.07396051288,0.0746294111,0.1641535312
338,1.55965383462e+18,-0.06968445331,0.172367841,0.3779563904
339,1.55965383468e+18,-0.05319108814,0.1320507377,0.5508312583
340,1.55965383473e+18,-0.05685628206,-0.1770470738,0.7066018581
341,1.55965383478e+18,-0.3360216916,0.7789570093,0.4292690456
342,1.55965383483e+18,0.6584669352,1.451519608,0.9026896358
343,1.55965383488e+18,0.9113650918,0.2517803311,0.1610992104
344,1.55965383494e+18,0.1111316606,0.2261239886,0.4066670537
345,1.55965383499e+18,-0.1649794281,0.2884322405,0.1568231732
346,1.55965383504e+18,-0.334189117,0.3678447306,-0.2035873383
347,1.55965383509e+18,-0.1753641367,-0.1061867028,-0.6159213781
348,1.55965383514e+18,0.2149787396,0.7129836082,-0.5108525753
349,1.5596538352e+18,0.4513836205,1.373328805,-0.1516637951
350,1.55965383525e+18,1.353020787,1.544982076,0.4879121184
351,1.5596538353e+18,2.183186531,-0.03043941408,1.252715468
352,1.55965383535e+18,1.972438097,-1.627241254,1.504391789
353,1.5596538354e+18,1.657842398,0.9090713263,2.864788771
354,1.55965383546e+18,0.8881522417,-2.494669914,2.200778246
355,1.55965383551e+18,-0.1264949143,-2.029801369,-1.556653857
356,1.55965383556e+18,-1.188178658,0.04347528145,-0.339810282
357,1.55965383561e+18,-1.186957002,1.372107148,-0.4351052642
358,1.55965383566e+18,-1.284695387,2.088041306,-1.201741099
359,1.55965383572e+18,-0.7807316184,1.701363564,-0.4980243742
360,1.55965383577e+18,-0.2828764319,-1.75430119,1.822041869
361,1.55965383582e+18,1.745196223,-3.540471077,2.939314365
362,1.55965383587e+18,3.061610937,-4.422560692,3.958848476
363,1.55965383592e+18,3.73661685,-6.087168694,3.504364729
364,1.55965383598e+18,3.096430063,-6.271038532,1.887404442
365,1.55965383603e+18,1.114172339,-5.756690502,-0.6825056672
366,1.55965383608e+18,-2.408076763,-2.589964867,-3.014178276
367,1.55965383613e+18,-4.008543491,2.653702497,-3.46316433
368,1.55965383618e+18,-3.197314501,-1.781790018,-2.826031685
369,1.55965383624e+18,0.5216330886,13.28459072,2.893499613
370,1.55965383629e+18,2.859414339,-2.078059912,2.804313183
371,1.55965383634e+18,2.169136763,-5.369401932,0.8599290848
372,1.55965383639e+18,0.5026962757,-0.6419155002,1.693760157
373,1.55965383644e+18,-0.9688780904,1.118598104,1.018143177
374,1.5596538365e+18,-1.905334473,0.3458535671,0.1690404713
375,1.55965383655e+18,-3.114236832,-0.5032491088,-0.3416428864
376,1.5596538366e+18,-4.236396313,-0.2729529142,-0.5597218275
377,1.55965383665e+18,-4.753799438,0.810111165,-1.129048228
378,1.5596538367e+18,-4.838098526,1.081335306,-1.753352404
379,1.55965383676e+18,-4.481352806,-0.0402132608,-2.121093273
380,1.55965383681e+18,-4.382392883,1.105159044,-2.062450171
381,1.55965383686e+18,-3.446547508,1.574303627,-1.336742282
382,1.55965383691e+18,-2.826519251,1.357446432,-1.199908614
383,1.55965383696e+18,-2.39952445,0.6256299019,-0.9451777339
384,1.55965383702e+18,-1.726350904,-0.05426315963,-0.7270988822
385,1.55965383707e+18,-0.976208508,-0.558837831,-0.3740187287
386,1.55965383712e+18,-0.436203599,-1.042032242,-0.0759164989
387,1.55965383717e+18,0.1581682861,-1.029814959,0.3040416837
388,1.55965383722e+18,0.67007339,-0.8166229725,0.4982968569
389,1.55965383728e+18,1.112950683,0.1619831324,0.6247459054
390,1.55965383733e+18,1.418994188,0.8809715509,0.6760585904
391,1.55965383738e+18,1.652344704,1.424030781,0.7475298643
392,1.55965383743e+18,1.661507726,1.53032124,1.192239761
393,1.55965383748e+18,1.339581609,1.574303627,1.665049434
394,1.55965383754e+18,1.415328979,2.559018373,2.079826832
395,1.55965383759e+18,1.833771586,1.844305992,2.040731668
396,1.55965383764e+18,2.453188896,-0.6394720674,2.617999315
397,1.55965383769e+18,2.808712721,-0.9461264014,2.771326303
398,1.55965383774e+18,3.024959087,-2.192902327,2.459785223
399,1.5596538378e+18,2.775115013,-1.513620257,1.17941165
400,1.55965383785e+18,1.428157091,-0.4519364238,-0.01482997555
401,1.5596538379e+18,0.1826028973,3.488755465,-0.4363270104
402,1.55965383795e+18,-0.001878410578,3.987221241,-1.205406427
403,1.559653838e+18,-0.08801040798,2.705626011,-1.061853051
404,1.55965383806e+18,-1.100824952,-0.3016635776,-0.9054715037
405,1.55965383811e+18,-2.037281275,0.3055364788,-4.707496643
406,1.55965383816e+18,-3.568720341,-1.745138168,-2.288470507
407,1.55965383821e+18,-3.281002998,2.175395012,-3.736220837
408,1.55965383826e+18,-2.556516886,1.14975214,-2.507160187
409,1.55965383832e+18,-0.9810953736,0.5132306814,-0.6189756989
410,1.55965383837e+18,0.06226243824,0.04164268449,1.332127929
411,1.55965383842e+18,1.266888618,-1.677942991,2.807367325
412,1.55965383847e+18,2.500836372,-2.04934907,3.72916317
413,1.55965383852e+18,3.053058624,-3.225264549,4.401725769
414,1.55965383858e+18,3.137969017,-3.831243038,4.655234814
415,1.55965383863e+18,3.142855883,-5.580150604,3.511695147
416,1.55965383868e+18,2.738463163,-4.42317152,2.647320747
417,1.55965383873e+18,1.549108386,-3.409745932,1.788444161
418,1.55965383878e+18,-0.3317456245,-4.677291393,-0.9488429427
419,1.55965383884e+18,-2.816134453,-2.514828444,-3.440562248
420,1.55965383889e+18,-3.381185055,2.430736542,-4.663514614
421,1.55965383894e+18,-5.470954895,2.576122522,-1.461969733
422,1.55965383899e+18,5.163598061,-0.653521955,2.420078754
423,1.55965383904e+18,3.893609285,-3.497099638,0.9900433421
424,1.5596538391e+18,1.977935791,1.750232816,1.591745615
425,1.55965383915e+18,-0.1167210788,1.499778032,1.217896104
426,1.5596538392e+18,-1.946262479,1.71907866,0.2020271868
427,1.55965383925e+18,-4.064132214,2.753884315,0.2460094839
428,1.5596538393e+18,-5.632223129,2.521144867,-1.139432907
429,1.55965383936e+18,-6.497208595,4.0275383,-1.526721478
430,1.55965383941e+18,-5.290138721,5.788052082,-2.405145645
431,1.55965383946e+18,-2.082485437,3.204092026,-1.364842176
432,1.55965383951e+18,0.626091063,-1.323030233,0.9808803797
433,1.55965383956e+18,2.506334305,-1.96321702,2.785987139
434,1.55965383962e+18,4.036551952,-3.43356967,3.59049654
435,1.55965383967e+18,4.473320484,-4.654078484,3.070650339
436,1.55965383972e+18,4.174607277,-5.743250847,1.946047544
437,1.55965383977e+18,3.265639782,-7.883723259,1.240498066
438,1.55965383982e+18,2.790997505,-8.206259727,-0.008721322753
439,1.55965383988e+18,1.512456536,-2.297971249,-0.7130489349
440,1.55965383993e+18,0.6309779882,2.053221941,-0.8358328938
441,1.55965383998e+18,0.5344613194,6.429460526,-2.105821848
442,1.55965384003e+18,-0.03119994141,6.541859627,-0.7503117323
443,1.55965384008e+18,0.09463829547,-0.1978164911,-1.528554082
444,1.55965384014e+18,-0.7202559114,-1.872808933,-0.874928236
445,1.55965384019e+18,-1.519267678,-1.650454044,-0.09057725966
446,1.55965384024e+18,-2.353098631,-0.9913304448,0.04747828096
447,1.55965384029e+18,-3.489308119,2.309174538,0.1268907636
448,1.55965384034e+18,-3.814899206,4.665892601,-0.7900179625
449,1.5596538404e+18,-2.510091066,4.509510994,-1.764958858
450,1.55965384045e+18,-0.9951453209,3.197983503,-1.855366945
451,1.5596538405e+18,0.09280569851,2.644539595,-0.882258594
452,1.55965384055e+18,1.119670153,0.9976468086,-0.07041871548
453,1.5596538406e+18,1.834382534,-1.673056006,0.4439298213
454,1.55965384066e+18,2.090334892,-2.212450027,0.7133213878
455,1.55965384071e+18,1.791011095,-2.100050688,0.9595000744
456,1.55965384076e+18,0.4037361145,-1.422601342,-0.02032776177
457,1.55965384081e+18,-1.721464157,1.747789264,-0.7680267692
458,1.55965384086e+18,-0.2309528738,0.5517151356,-3.226148605
459,1.55965384092e+18,-2.306061983,1.390433073,-2.322679043
460,1.55965384097e+18,-2.55224061,2.962800264,-2.637274504
461,1.55965384102e+18,-2.012846708,1.689757109,-3.389860392
462,1.55965384107e+18,-2.346379042,2.523588181,-3.457055569
463,1.55965384112e+18,-2.863781929,-0.4904209673,-2.461956024
464,1.55965384118e+18,-1.855243564,0.1699243933,-0.9635037184
465,1.55965384123e+18,-0.5522680283,-0.6718478799,1.222782969
466,1.55965384128e+18,0.2064266354,-2.666933775,2.979631424
467,1.55965384133e+18,1.75619173,-2.925329924,3.807353735
468,1.55965384138e+18,2.180132389,-5.209354877,4.492133617
469,1.55965384144e+18,2.808101892,-7.9167099,2.909381866
470,1.55965384149e+18,2.800771236,-9.009548187,0.2093575746
471,1.55965384154e+18,0.6431953311,-6.58258009,-2.688587189
472,1.55965384159e+18,-4.022593498,-1.084182024,-4.197424412
473,1.55965384164e+18,-3.298107147,4.747137547,-0.8969193697
474,1.5596538417e+18,3.684693336,8.483189583,-0.08202515543
475,1.55965384175e+18,3.5576334,-1.867922068,3.344318151
476,1.5596538418e+18,3.133081913,-2.866686821,1.903897762
477,1.55965384185e+18,1.274829984,-0.2534052134,1.465907335
478,1.5596538419e+18,-1.058064461,1.230386496,1.411540389
479,1.55965384196e+18,-2.47221756,1.392876625,0.3712368608
480,1.55965384201e+18,-4.26693964,2.873614073,-0.2652847171
481,1.55965384206e+18,-5.22783041,3.370247364,-1.389276743
482,1.55965384211e+18,-4.375673294,2.064217567,-2.378267527
483,1.55965384216e+18,-3.917524576,-1.494072556,-2.361163378
484,1.55965384222e+18,-3.185708046,0.6983228326,-1.298257828
485,1.55965384227e+18,-1.721464157,3.696449518,-0.1974786818
486,1.55965384232e+18,-0.9951453209,2.420351982,-0.1919808984
487,1.55965384237e+18,-0.4087146521,0.6903815866,-0.2029764652
488,1.55965384242e+18,-0.3726736009,0.310423404,-0.2781128883
489,1.55965384248e+18,-0.5052313805,0.3366905749,0.1091756672
490,1.55965384253e+18,-0.3671758473,-0.228970632,0.3272545338
491,1.55965384258e+18,-0.03486513346,-0.4690406621,0.6375740767
492,1.55965384263e+18,0.3566994965,-0.2992201149,0.6846107244
493,1.55965384268e+18,0.6719059348,0.1045618057,0.8226662874
494,1.55965384274e+18,0.85883075,0.2713280022,0.8348836303
495,1.55965384279e+18,0.9327453971,0.502235055,1.075564504
496,1.55965384284e+18,1.034149051,0.002547307871,1.012034535
497,1.55965384289e+18,1.076298714,-0.4079541266,1.103664279
498,1.55965384294e+18,1.075687885,-0.4336104691,0.9454501867
499,1.559653843e+18,1.032927394,-0.01638951525,0.9326220155
500,1.55965384305e+18,0.9400758147,0.1467114985,0.8929157853
501,1.5596538431e+18,0.8576090336,0.1479332447,0.8037294149
502,1.55965384315e+18,0.9003695846,0.02087326534,0.7603580356
503,1.5596538432e+18,1.05064249,-0.006004805677,1.109772921
504,1.55965384326e+18,1.546665072,-0.8728225827,1.332127929
505,1.55965384331e+18,2.085448265,-1.813555002,1.766453147
506,1.55965384336e+18,2.539931774,-2.205730438,0.9882107377
507,1.55965384341e+18,2.010311842,-1.249115586,0.4030018747
508,1.55965384346e+18,1.42510283,-0.9998825788,-0.5230698586
509,1.55965384352e+18,0.6847341061,0.2609432936,-1.026422858
510,1.55965384357e+18,-0.5424941182,1.720911264,-0.8333894014
511,1.55965384362e+18,-2.664029121,-5.253948212,-1.659279227
512,1.55965384367e+18,-5.010362625,1.463736892,-0.09974024445
513,1.55965384372e+18,-4.897963524,3.624367476,-3.424068928
514,1.55965384378e+18,-4.104449272,5.716580868,-3.196827173
515,1.55965384383e+18,-2.762989283,2.417297602,-3.202935696
516,1.55965384388e+18,-1.547978401,0.9927598834,-1.255497336
517,1.55965384393e+18,0.1984854043,-1.453755498,1.095723033
518,1.55965384398e+18,1.309038401,-2.207563162,2.743226528
519,1.55965384404e+18,2.21617341,-3.969298601,3.542849064
520,1.55965384409e+18,2.973646164,-5.718205452,3.2429142
521,1.55965384414e+18,3.318785191,-6.849528313,2.003468752
522,1.55965384419e+18,2.466017008,-7.673585415,-0.7692485452
523,1.55965384424e+18,0.3664733171,-4.816568851,-2.245098829
524,1.5596538443e+18,-2.426402569,0.9854295254,-2.910331249
525,1.55965384435e+18,-2.74405241,2.205938339,-1.540771365
526,1.5596538444e+18,4.580832481,8.379343033,2.855014801
527,1.55965384445e+18,3.858789921,-5.310758591,1.740796804
528,1.5596538445e+18,2.98158741,-2.216115236,0.6974388957
529,1.55965384456e+18,0.8863196373,2.342161179,1.551428437
530,1.55965384461e+18,-0.4282623529,1.303079486,0.7371451259
531,1.55965384466e+18,-1.66098845,1.491225958,0.1574340165
532,1.55965384471e+18,-2.381198406,3.168661833,-0.12356399
533,1.55965384476e+18,-2.360429287,2.4710536,-0.9360147715
534,1.55965384482e+18,-2.262079716,2.14973855,-0.9903817773
535,1.55965384487e+18,-2.241921186,2.728228092,-1.123550415
536,1.55965384492e+18,-1.871126056,2.59322691,-0.9983230233
537,1.55965384497e+18,-1.380601287,0.7893417478,-1.164478421
538,1.55965384502e+18,-1.127702951,-0.1636080295,-1.196854234
539,1.55965384508e+18,-1.000032187,-0.5447879434,-1.223732352
540,1.55965384513e+18,-1.260871649,-0.6296982169,-1.425928712
541,1.55965384518e+18,-1.471620202,-1.101286173,-1.094228864
542,1.55965384523e+18,-1.652436256,-1.973601818,-1.104613543
543,1.55965384528e+18,-1.472841978,-2.213671923,-0.441824764
544,1.55965384534e+18,-1.152137637,-1.155653238,-0.3239277899
545,1.55965384539e+18,-0.5626527071,0.2646085024,0.1042887494
546,1.55965384544e+18,-0.3738953471,1.053846478,0.03159578145
547,1.55965384549e+18,-0.2114052027,1.29513824,0.03953703493
548,1.55965384554e+18,-0.1655903012,1.063009381,0.01449155621
549,1.5596538456e+18,-0.08434522152,0.6292950511,0.1696513146
550,1.55965384565e+18,0.1196837798,0.54682827,0.4207169414
551,1.5596538457e+18,0.3066085577,0.8076677322,0.5954243541
552,1.55965384575e+18,0.7091687918,0.7777352929,0.9918760061
553,1.5596538458e+18,1.477026343,0.613412559,1.474459529
554,1.55965384586e+18,2.331626654,-0.05304142833,1.955210447
555,1.55965384591e+18,3.610167742,-0.7072781324,2.287521124
556,1.55965384596e+18,4.861830711,-1.953443289,1.613125801
557,1.55965384601e+18,5.48185873,-2.787274122,0.2044706494
558,1.55965384606e+18,4.420785904,-1.144046783,-1.965322733
559,1.55965384612e+18,2.126376152,3.900478601,-2.963476658
560,1.55965384617e+18,1.414718151,4.560213089,-2.761890888
561,1.55965384622e+18,1.3853966,2.781984091,-3.700179815
562,1.55965384627e+18,1.560104012,0.2701062858,-2.779605865
563,1.55965384632e+18,1.210078239,1.811319351,-1.709370136
564,1.55965384637e+18,3.59733963,2.411799908,1.490342021
565,1.55965384643e+18,-2.08859396,5.059289932,-0.7527551651
566,1.55965384648e+18,-1.741011739,-5.820219994,-1.868195057
567,1.55965384653e+18,-5.147196293,-0.6358068585,-0.1211205274
568,1.55965384658e+18,-2.309727192,1.57002759,-2.454625845
569,1.55965384663e+18,-2.376922369,1.98419416,-1.655614018
570,1.55965384669e+18,-2.885162354,0.2004676461,-2.60550952
571,1.55965384674e+18,-2.618214369,0.3592925966,-1.749076366
572,1.55965384679e+18,-2.442285061,0.3831163645,-0.8193394542
573,1.55965384684e+18,-2.445339441,-0.7182736993,-0.3960098922
574,1.55965384689e+18,-2.182667255,-1.127553344,0.08901711553
575,1.55965384695e+18,-1.877845526,-2.143422365,0.4152191579
576,1.559653847e+18,-1.126481295,-2.471457005,1.058460236
577,1.55965384705e+18,-0.4673577249,-2.14525485,1.945436597
578,1.5596538471e+18,0.07386887819,-3.555131912,2.936259985
579,1.55965384715e+18,1.34569025,-4.307106972,3.234362364
580,1.55965384721e+18,1.756802559,-3.351102829,3.449386835
581,1.55965384726e+18,2.261377335,-5.284491062,2.404196262
582,1.55965384731e+18,2.17707777,-5.213019848,1.0437994
583,1.55965384736e+18,1.059194565,-5.876420021,-0.1400573552
584,1.55965384741e+18,-1.111820579,-3.506262779,-2.044124365
585,1.55965384747e+18,-5.521045685,-2.183739424,-3.965906382
586,1.55965384752e+18,-5.446520329,1.643942237,-2.813203573
587,1.55965384757e+18,-8.972434998,-5.609471798,-2.709356785
588,1.55965384762e+18,-0.07701484114,7.031774044,2.417635441
589,1.55965384767e+18,0.2638479471,-0.8154012561,2.238651752
590,1.55965384773e+18,-0.5027878881,0.7386399508,-0.01849516667
591,1.55965384778e+18,-1.743455172,2.38125658,-0.3361450732
592,1.55965384783e+18,-1.682368636,3.282282829,-1.124161243
593,1.55965384788e+18,-1.012860417,1.890731812,-1.314140439
594,1.55965384793e+18,-0.302424103,0.7416942716,-0.6574602127
595,1.55965384799e+18,0.1502270401,0.1845851392,-0.4888614118
596,1.55965384804e+18,0.3139389455,1.008031487,0.03465010971
597,1.55965384809e+18,0.3768580258,0.5413304567,0.3028199375
598,1.55965384814e+18,0.3786906302,0.001936442801,0.4103322327
599,1.55965384819e+18,0.2705674767,-0.1293995827,0.6039764881
600,1.55965384825e+18,0.1373988688,-0.1135170907,0.6192481518
601,1.5596538483e+18,0.006673702504,-0.1959839016,0.5037946105
602,1.55965384835e+18,-0.2309528738,-0.2399661988,0.528840065
603,1.5596538484e+18,-0.2309528738,-0.5912137032,0.3040416837
604,1.55965384845e+18,-0.3109762371,-0.566168189,0.1030670181
605,1.55965384851e+18,-0.444144845,-0.2399661988,-0.002001805231
606,1.55965384856e+18,-0.6744410396,-0.2332466692,-0.1596050411
607,1.55965384861e+18,-0.7049843073,-0.8825964332,-0.3563036621
608,1.55965384866e+18,-0.5534897447,-1.589978337,-0.4491551518
609,1.55965384871e+18,-0.6157979965,-1.533167958,-0.4589290023
610,1.55965384877e+18,-0.5944177508,-1.171535611,-0.4876396656
611,1.55965384882e+18,-0.4417013824,-0.3957368433,-0.4070054591
612,1.55965384887e+18,-0.1900248975,0.3275276124,-0.07835996151
613,1.55965384892e+18,-0.1350470334,0.7160379291,0.08779538423
614,1.55965384897e+18,-0.09595166147,0.7930069566,0.1366646141
615,1.55965384903e+18,-0.001267545391,0.3861706853,0.1213929728
616,1.55965384908e+18,0.0592081137,-0.1984273493,0.1128408611
617,1.55965384913e+18,0.07570147514,-0.2619573474,0.1672078669
618,1.55965384918e+18,0.120294638,0.06485556066,0.3235893548
619,1.55965384923e+18,0.1428966522,0.3275276124,0.3999475539
620,1.55965384928e+18,0.2693457603,0.5370543599,0.4940207899
621,1.55965384934e+18,0.4935332835,0.8815823793,0.7805166245
622,1.55965384939e+18,1.062859774,0.6244081259,1.002871513
623,1.55965384944e+18,1.648068547,0.1161682457,1.389549136
624,1.55965384949e+18,2.396989584,-0.3340394199,1.964984298
625,1.55965384954e+18,2.982198238,-0.783636272,2.036455631
626,1.5596538496e+18,2.843532085,-0.5808289647,2.545917273
627,1.55965384965e+18,2.188073397,-1.319975972,2.432296038
628,1.5596538497e+18,0.8716588616,0.2169610113,2.139691591
629,1.55965384975e+18,-0.0006566801458,0.9945924878,1.584415317
630,1.5596538498e+18,-0.4508643746,0.2413956076,1.101831675
631,1.55965384986e+18,-0.5571548939,-1.003547788,0.4567579925
632,1.55965384991e+18,-0.8454833627,-1.129385948,0.1171169207
633,1.55965384996e+18,-1.273088932,-1.206965804,-0.4876396656
634,1.55965385001e+18,-2.588892937,0.801559031,-1.095450521
635,1.55965385006e+18,-4.131327629,3.39101696,-2.141252041
636,1.55965385012e+18,-4.287708759,3.896202326,-3.251804829
637,1.55965385017e+18,-3.504579782,3.433777332,-3.429566622
638,1.55965385022e+18,-2.044611931,1.518103957,-2.467453957
639,1.55965385027e+18,-1.08494246,-0.1416168809,-1.725863576
640,1.55965385032e+18,-0.4966792464,-1.139159799,-0.1675462872
641,1.55965385038e+18,0.4532161951,-0.9620088935,1.051740766
642,1.55965385043e+18,0.8893739581,-1.120223045,1.754846692
643,1.55965385048e+18,0.05493205786,-0.1092410386,3.016894341
644,1.55965385053e+18,-0.03914118931,1.518103957,5.1787467
645,1.55965385058e+18,1.267499566,2.425849915,5.159198761
646,1.55965385064e+18,2.809323549,-0.7585907578,3.542849064
647,1.55965385069e+18,1.481913328,-3.181893349,1.577695727
648,1.55965385074e+18,1.334694743,-2.826980352,0.2838831246
649,1.55965385079e+18,1.825219512,-3.360876799,1.046853781
650,1.55965385084e+18,2.118434906,-4.585050583,0.7310364842
651,1.5596538509e+18,1.852097631,-3.026733398,-0.331869036
652,1.55965385095e+18,1.312092781,-2.236274004,-0.4051728845
653,1.559653851e+18,0.2369698882,-3.321781158,-1.769235015
654,1.55965385105e+18,-1.209558964,-3.166621685,-2.587794542
655,1.5596538511e+18,-3.555892229,-2.33401227,-3.312891245
656,1.55965385116e+18,-5.070838451,0.7013771534,-3.490653276
657,1.55965385121e+18,-5.879012585,-2.817817688,-1.030698895
658,1.55965385126e+18,-0.9707106948,8.409885406,-0.6617362499
659,1.55965385131e+18,0.4440532327,0.1717569828,1.571587086
660,1.55965385136e+18,0.1147968546,-0.9485698938,0.6491805315
661,1.55965385142e+18,-0.7165907621,0.8968539834,0.1446058452
662,1.55965385147e+18,-1.39281857,2.34155035,-0.3117104769
663,1.55965385152e+18,-1.028132081,1.243214607,-0.6507407427
664,1.55965385157e+18,-0.7483556867,0.7734592557,-0.532843709
665,1.55965385162e+18,-0.2541657686,0.7722374797,-0.01055391878
666,1.55965385168e+18,-0.09411906451,0.4216008484,-0.05514708161
667,1.55965385173e+18,-0.001267545391,0.6726664901,0.3950605989
668,1.55965385178e+18,0.1624443382,-0.01700037904,0.3419153094
669,1.55965385183e+18,-0.09778425843,0.2420064807,0.5019620657
670,1.55965385188e+18,-0.298148036,0.1063944027,0.4634775221
671,1.55965385194e+18,-0.3525150716,-0.2033142895,0.4610340595
672,1.55965385199e+18,-0.2902068198,-0.500194788,0.4060561955
673,1.55965385204e+18,-0.3586237133,-0.3340394199,0.2350139171
674,1.55965385209e+18,-0.3097544909,-0.2008708119,0.04198049009
675,1.55965385214e+18,-0.1619251072,-0.2686768472,-0.158994168
676,1.5596538522e+18,-0.1313818395,-0.1605537087,-0.1791527271
677,1.55965385225e+18,-0.1790293306,-0.3847412765,-0.3807382584
678,1.5596538523e+18,-0.2688265145,-0.7506495118,-0.6733427048
679,1.55965385235e+18,-0.4966792464,-1.311423779,-0.9885491729
680,1.5596538524e+18,-0.8161618114,-1.41343832,-1.022146821
681,1.55965385246e+18,-0.7587404847,-1.544163465,-0.8804260492
682,1.55965385251e+18,-0.6170197129,-1.321808577,-0.7307640314
683,1.55965385256e+18,-0.4227645695,-0.1251235306,-0.3544710279
684,1.55965385261e+18,-0.2028530687,0.7129836082,-0.143111676
685,1.55965385266e+18,-0.01592831127,0.8766955137,-0.07286217809
686,1.55965385272e+18,0.1123533919,0.7258117795,-0.04170804471
687,1.55965385277e+18,0.2058157623,0.4435920119,0.07557807863
688,1.55965385282e+18,0.2888934314,0.2859887779,0.234403044
689,1.55965385287e+18,0.3884644806,0.3275276124,0.4066670537
690,1.55965385292e+18,0.5362938643,0.5865345001,0.5031837225
691,1.55965385298e+18,0.6352540255,1.064231038,0.711488843
692,1.55965385303e+18,0.8484460115,0.897464931,0.8831419349
693,1.55965385308e+18,1.079352975,0.1143356487,1.039523482
694,1.55965385313e+18,1.185643673,-0.05976094678,0.9949303269
695,1.55965385318e+18,1.005438328,0.2847670615,0.9949303269
696,1.55965385324e+18,0.661521256,0.852871716,0.5667137504
697,1.55965385329e+18,0.4758182168,1.366609335,0.1189495176
698,1.55965385334e+18,0.145950973,1.524212599,0.1665969938
699,1.55965385339e+18,-0.2059074044,1.511384487,0.0688585639
700,1.55965385344e+18,-0.1045037657,0.5431630015,-0.8938650489
701,1.5596538535e+18,0.1502270401,0.3904467523,-1.104002714
702,1.55965385355e+18,0.7238295078,1.621340156,-0.5352871418
703,1.5596538536e+18,1.756802559,0.9964250326,0.7365342975
704,1.55965385365e+18,3.17339921,-0.516688168,0.9301785827
705,1.5596538537e+18,3.923541784,0.05874691159,0.5282292366
706,1.55965385376e+18,3.138579845,2.045891523,0.2429551482
707,1.55965385381e+18,2.112936974,2.091095686,0.5422791243
708,1.55965385386e+18,1.112339854,-0.3163243532,0.9515588284
709,1.55965385391e+18,-0.1106124297,-3.147684813,1.872132778
710,1.55965385396e+18,-0.5241681933,-0.3939042389,-1.806497693
711,1.55965385402e+18,-1.542480588,1.003144622,-0.3159865439
712,1.55965385407e+18,-2.177169323,1.658603072,-2.017857075
713,1.55965385412e+18,-3.297496319,1.058733225,-2.362385035
714,1.55965385417e+18,-3.831392527,0.9121256471,-2.071613312
715,1.55965385422e+18,-3.5852139,0.309812516,-0.9732775092
716,1.55965385428e+18,-2.078820229,-1.207576752,0.5380030274
717,1.55965385433e+18,-0.6829931736,-0.3456458747,1.982699394
718,1.55965385438e+18,0.3909079432,-2.062177181,3.109134912
719,1.55965385443e+18,1.853319287,-2.868519306,4.230072975
720,1.55965385448e+18,2.839866638,-4.154390812,4.663786888
721,1.55965385454e+18,2.965704918,-4.715775967,3.970454931
722,1.55965385459e+18,2.18685174,-4.090860367,2.399920464
723,1.55965385464e+18,0.8331743479,-3.08904171,0.380399853
724,1.55965385469e+18,-1.073336005,-1.535000443,-1.044137955
725,1.55965385474e+18,-3.958452702,-1.674277782,-2.901778936
726,1.5596538548e+18,-5.24065876,-0.03776979819,-3.929254293
727,1.55965385485e+18,-8.993204117,-4.993108749,-0.7869636416
728,1.5596538549e+18,0.2607936263,3.957288742,-0.2200807035
729,1.55965385495e+18,0.4752073288,-0.7152193785,2.552636623
730,1.559653855e+18,-0.7300297618,0.7826222777,0.9540023208
731,1.55965385506e+18,-1.853410959,1.324459672,0.5838180184
732,1.55965385511e+18,-1.950538516,2.124693155,0.277163595
733,1.55965385516e+18,-1.50888288,1.664711714,0.198972851
734,1.55965385521e+18,-0.7306406498,0.3806728721,0.1782034487
735,1.55965385526e+18,-0.3531259298,0.4533658326,0.3254219592
736,1.55965385532e+18,-0.149096936,0.8931888342,0.1775925756
737,1.55965385537e+18,0.1251815557,0.3977771401,0.2460094839
738,1.55965385542e+18,0.2510198057,-0.6669610143,0.1782034487
739,1.55965385547e+18,0.2546849847,-0.5796073079,0.1788143069
740,1.55965385552e+18,0.2901151776,-0.1086301655,0.1928642094
741,1.55965385558e+18,0.1367879957,0.2560563982,0.2490638196
742,1.55965385563e+18,-0.02386956103,0.1992459148,0.1476601809
743,1.55965385568e+18,0.02377793007,-0.05915008113,-0.02765814587
744,1.55965385573e+18,-0.01348484959,-0.07503257692,-0.2860541344
745,1.55965385578e+18,0.03966042772,0.1070052609,-0.347751528
746,1.55965385584e+18,-0.1026711762,0.2835453153,-0.4308291972
747,1.55965385589e+18,-0.2523331642,0.223680526,-0.4693137109
748,1.55965385594e+18,-0.3048675954,0.008045095019,-0.6195865273
749,1.55965385599e+18,-0.3488498926,-0.2979983687,-0.730153203
750,1.55965385604e+18,-0.397108227,-0.5344032645,-0.7545877695
751,1.5596538561e+18,-0.4300949275,-0.6070961952,-0.6177539825
752,1.55965385615e+18,-0.3409086168,-0.5447879434,-0.3960098922
753,1.5596538562e+18,-0.2022422254,-0.05487402529,-0.1858722419
754,1.55965385625e+18,-0.04830417037,0.4338181615,0.04259135947
755,1.5596538563e+18,0.05615378916,0.5792040825,0.1574340165
756,1.55965385636e+18,0.1942093372,0.4442028701,0.2099684328
757,1.55965385641e+18,0.2357481718,0.2493368685,0.2356247753
758,1.55965385646e+18,0.2571284473,0.09234450012,0.3107612133
759,1.55965385651e+18,0.2455220222,0.4252660573,0.4298799038
760,1.55965385656e+18,0.1978745311,1.069118023,0.5435008407
761,1.55965385661e+18,0.2620153725,1.260929704,0.7591363192
762,1.55965385667e+18,0.4745964706,0.1913046688,0.8910831809
763,1.55965385672e+18,1.251617074,-0.3322068453,1.023030043
764,1.55965385677e+18,2.345065832,0.5260588527,1.771340013
765,1.55965385682e+18,3.313898087,-0.09213680029,1.820820093
766,1.55965385687e+18,3.659037113,-0.5618921518,1.792720318
767,1.55965385693e+18,3.255866051,-0.9687284827,1.749348879
768,1.55965385698e+18,2.36583519,-0.9815565944,0.907576561
769,1.55965385703e+18,1.06102705,0.7496355176,0.5538855791
770,1.55965385708e+18,0.2583501935,1.272536159,-0.1956460923
771,1.55965385713e+18,-0.3183066249,1.039796472,-1.320859909
772,1.55965385719e+18,-1.263926029,2.615828753,-1.339185834
773,1.55965385724e+18,-1.646938443,2.287794113,-1.096061349
774,1.55965385729e+18,-1.172907114,-2.31079936,-3.998893023
775,1.55965385734e+18,-3.211364508,1.031855226,-2.212112188
776,1.55965385739e+18,-3.375687361,1.617675066,-2.80098629
777,1.55965385745e+18,-2.006127357,0.7618528008,-2.477838516
778,1.5596538575e+18,-0.6591694355,0.08745758235,-0.1675462872
779,1.55965385755e+18,0.464211762,-1.398777604,1.511722326
780,1.5596538576e+18,1.725037575,-1.666336536,2.762163401
781,1.55965385765e+18,2.440360785,-2.404872656,4.239846706
782,1.55965385771e+18,3.271748543,-5.211798191,3.720000267
783,1.55965385776e+18,3.653539419,-4.940574169,2.602727652
784,1.55965385781e+18,2.684096098,-3.458004475,1.446359754
785,1.55965385786e+18,0.8893739581,-1.866700292,0.4671427011
786,1.55965385791e+18,-1.549810886,-2.125096321,-1.727085233
787,1.55965385797e+18,-5.493556976,-0.9070310593,-3.245085478
788,1.55965385802e+18,-5.399483681,1.339120507,-3.543798685
789,1.55965385807e+18,-5.54853487,-2.406705379,-2.034961224
790,1.55965385812e+18,0.8307309151,4.862591267,1.39138186
791,1.55965385817e+18,-0.3244152665,1.38493526,1.468350887
792,1.55965385823e+18,-0.8827461004,1.380659342,0.6375740767
793,1.55965385828e+18,-1.610286593,-0.1587211192,-0.9152453542
794,1.55965385833e+18,-1.874791265,1.207173586,-0.7521443367
795,1.55965385838e+18,-1.534539342,1.753897905,-0.8511044979
796,1.55965385843e+18,-0.9358913302,0.9371711612,-0.5804911852
797,1.55965385849e+18,-0.3506824672,-0.2027034163,-0.2280219495
798,1.55965385854e+18,-0.2297311425,-0.04510018229,-0.07041871548
799,1.55965385859e+18,0.1862680763,0.05996863917,0.1837012321
800,1.55965385864e+18,0.2992781699,-0.09702372551,0.2508963943
801,1.55965385869e+18,0.3127171993,-0.07564344257,0.5001294017
802,1.55965385875e+18,0.3322649002,-0.2925006151,0.3675716519
803,1.5596538588e+18,0.2253634632,0.03981008753,0.4512601793
804,1.55965385885e+18,0.1276250184,-0.05609575659,0.379788965
805,1.5596538589e+18,-0.03791946173,-0.1324539185,0.332752347
806,1.55965385895e+18,-0.1106124297,-0.2308032215,0.2545616031
807,1.55965385901e+18,-0.192468375,-0.2088120729,0.1708730608
808,1.55965385906e+18,-0.1814727932,-0.0958019942,-0.02277122252
809,1.55965385911e+18,-0.2376723886,0.1002857462,-0.1052380279
810,1.55965385916e+18,-0.2327854782,0.08929017931,-0.147387743
811,1.55965385921e+18,-0.2236225009,0.01232115179,-0.2121394575
812,1.55965385927e+18,-0.2303420156,0.02514932305,-0.2243567556
813,1.55965385932e+18,-0.117331937,-0.06770219654,-0.2439044565
814,1.55965385937e+18,-0.05380195752,-0.1568885148,-0.2213024348
815,1.55965385942e+18,0.009117163718,-0.142227754,-0.1797636002
816,1.55965385947e+18,-0.01226312015,0.08134892583,-0.07897082716
817,1.55965385953e+18,-0.02142609842,0.08990103751,0.007161173504
818,1.55965385958e+18,-0.03608686477,-0.1330647767,0.04259135947
819,1.55965385963e+18,-0.03486513346,-0.1202366054,0.09023884684
820,1.55965385968e+18,-0.03730859235,-0.04082412273,0.1525471061
821,1.55965385973e+18,-0.04952589795,-0.02127643675,0.2215748727
822,1.55965385979e+18,0.01217149012,0.1094487235,0.2875483036
823,1.55965385984e+18,0.08181012422,0.4527550042,0.422549516
824,1.55965385989e+18,0.1942093372,0.2658302188,0.6290220022
825,1.55965385994e+18,0.4397771657,-0.5869376659,0.9094091058
826,1.55965385999e+18,1.280327797,-0.6669610143,1.467129111
827,1.55965386005e+18,2.681652546,-0.9271895885,2.094487906
828,1.5596538601e+18,3.598561287,-1.015765071,2.242928028
829,1.55965386015e+18,3.840463877,-1.727423072,1.847698092
830,1.5596538602e+18,3.439736366,-1.173368335,0.8361052871
831,1.55965386025e+18,2.495338678,0.2114632279,0.6730042696
832,1.55965386031e+18,1.692050934,0.2725497484,0.1837012321
833,1.55965386036e+18,0.9687864184,-0.3303742409,0.7682992816
834,1.55965386041e+18,-0.3134196699,0.7612419724,1.332127929
835,1.55965386046e+18,-0.7159798741,2.69585228,3.132958651
836,1.55965386051e+18,-0.9193980098,-1.078684211,-1.035585761
837,1.55965386057e+18,-2.610272884,1.572470903,-0.3446972072
838,1.55965386062e+18,-2.593168736,2.621326685,-1.385611534
839,1.55965386067e+18,-1.932823539,2.095371485,-1.399661541
840,1.55965386072e+18,-0.5095074177,0.5266696811,0.1165060475
841,1.55965386077e+18,1.321866632,-2.895397425,1.112216473
842,1.55965386083e+18,2.626674891,-2.954040527,1.49400723
843,1.55965386088e+18,2.900342226,-3.771989107,1.376110196
844,1.55965386093e+18,2.381106853,-3.129969835,1.655275583
845,1.55965386098e+18,1.090348601,-1.510565877,1.944214821
846,1.55965386103e+18,0.5271309018,-2.869130135,0.6992715001
847,1.55965386109e+18,-0.2181247175,-4.64125061,-1.934779406
848,1.55965386114e+18,-3.173490763,-0.3493110538,-4.468037605
849,1.55965386119e+18,-3.171047449,2.83818388,-2.964087486
850,1.55965386124e+18,2.371943951,7.783137798,-1.082622409
851,1.55965386129e+18,2.830092669,-1.789731264,3.356535435
852,1.55965386135e+18,3.085434675,-4.273509502,0.588093996
853,1.5596538614e+18,1.345079422,1.333011866,0.9314002395
854,1.55965386145e+18,-0.3616780341,2.084986925,1.082284093
855,1.5596538615e+18,-1.985357881,1.431361079,0.2698332071
856,1.55965386155e+18,-3.932185411,1.189458489,-0.1266183108
857,1.55965386161e+18,-5.646884441,1.524212599,-0.481531024
858,1.55965386166e+18,-6.067770481,2.206549168,-1.998920321
859,1.55965386171e+18,-5.668264866,0.3757859766,-2.62200284
860,1.55965386176e+18,-5.043349266,-1.23811996,-3.196216106
861,1.55965386181e+18,-4.560765743,1.896840453,-1.58902967
862,1.55965386187e+18,-3.815510273,3.819233418,-1.102781057
863,1.55965386192e+18,-2.618214369,2.485103846,-1.796113014
864,1.55965386197e+18,-1.5284307,-0.04937623441,-1.777787089
865,1.55965386202e+18,-0.8839678168,-1.325473785,-1.201741099
866,1.55965386207e+18,-0.3213609457,-0.6632958651,-0.5041330457
867,1.55965386213e+18,0.2943912446,0.1137247831,0.07069116086
868,1.55965386218e+18,0.728716433,0.2065762877,0.4530928135
869,1.55965386223e+18,1.076298714,0.2029111087,0.7078236341
870,1.55965386228e+18,1.444650531,0.4442028701,1.188574553
871,1.55965386233e+18,1.850875854,0.7685723305,1.794552803
872,1.55965386239e+18,2.128208637,1.142421842,2.186728239
873,1.55965386244e+18,2.089724064,1.34156394,2.32234025
874,1.55965386249e+18,1.797119737,0.6854946017,2.297905684
875,1.55965386254e+18,1.513678193,-0.04754364118,2.009577274
876,1.55965386259e+18,1.006049275,-0.07442171127,1.687040687
877,1.55965386265e+18,0.6847341061,-0.7139976025,1.211787462
878,1.5596538627e+18,0.6218150258,-0.5069143176,0.8061729074
879,1.55965386275e+18,0.582108736,0.6274624467,0.8202228546
880,1.5596538628e+18,0.7103904486,0.4173248112,0.8904722929
881,1.55965386285e+18,0.86555022,0.04958393052,1.099388242
882,1.55965386291e+18,1.082407355,-0.04082412273,1.401766539
883,1.55965386296e+18,1.265056133,-0.4030672014,1.443305373
884,1.55965386301e+18,1.28582561,-0.5337923765,1.363281965
885,1.55965386306e+18,1.125167966,-0.1532233208,1.342512608
886,1.55965386311e+18,0.9706190825,-0.2216402441,0.6424610019
887,1.55965386317e+18,0.6120411158,-0.5924354196,0.2722766995
888,1.55965386322e+18,-0.05258022621,-1.627852082,-0.4796984196
889,1.55965386327e+18,-0.9523847103,-1.50628984,-0.9347930551
890,1.55965386332e+18,-2.112417698,3.001895666,-0.2872758806
891,1.55965386337e+18,-2.122802496,2.993343592,-1.154704452
892,1.55965386343e+18,-3.762364864,2.95730257,-0.344086349
893,1.55965386348e+18,-3.00183773,0.4014423192,-2.109486818
894,1.55965386353e+18,-2.521697521,2.059330463,-1.740524292
895,1.55965386358e+18,-1.62128222,0.4454246163,-1.385000706
896,1.55965386363e+18,-0.9126784801,0.8644781709,-0.9427342415
897,1.55965386369e+18,-0.1643685549,0.605471313,0.6901085377
898,1.55965386374e+18,1.06102705,-0.2668442726,1.285091281
899,1.55965386379e+18,1.514289141,-1.513620257,2.304625273
900,1.55965386384e+18,2.175856113,-3.803143024,2.615555763
901,1.55965386389e+18,2.457465172,-2.760396242,2.445735455
902,1.55965386394e+18,2.934550762,-4.587494373,2.01385355
903,1.559653864e+18,2.794051647,-4.644915581,1.521496058
904,1.55965386405e+18,2.105606794,-4.068869591,0.9039113522
905,1.5596538641e+18,1.392726898,-4.377967358,-0.04292977601
906,1.55965386415e+18,0.7910246849,-5.311980247,-1.792447925
907,1.5596538642e+18,-2.157011032,-2.72130084,-3.388027906
908,1.55965386426e+18,-1.987801313,2.581009626,-5.067907333
909,1.55965386431e+18,-4.372008324,4.516230583,-0.1089032218
910,1.55965386436e+18,2.207010269,2.020846128,2.787209034
911,1.55965386441e+18,2.770227909,-4.269233227,1.799439788
912,1.55965386446e+18,1.513678193,1.017805338,1.264932752
913,1.55965386452e+18,0.1117425263,1.30857718,1.137261868
914,1.55965386457e+18,-1.085553288,0.4973481297,0.3675716519
915,1.55965386462e+18,-2.285292625,-0.5386793017,-0.3129322231
916,1.55965386467e+18,-3.53878808,0.4753569961,-1.003209949
917,1.55965386472e+18,-4.122775555,2.137521267,-1.798556566
918,1.55965386478e+18,-3.965172052,2.333609104,-2.517544985
919,1.55965386483e+18,-3.350030661,-0.4837014079,-3.384973526
920,1.55965386488e+18,-3.632861376,-2.274758339,-3.342823744
921,1.55965386493e+18,-3.679287195,0.955497086,-1.983037829
922,1.55965386498e+18,-3.642024517,3.169272661,-1.137600303
923,1.55965386504e+18,-3.026883125,2.559629202,-1.361176968
924,1.55965386509e+18,-2.210767031,0.7911742926,-1.738691688
925,1.55965386514e+18,-1.547367454,-0.7103324533,-1.147984982
926,1.55965386519e+18,-0.8485376835,-1.790342212,-0.4198336303
927,1.55965386524e+18,-0.3793931305,-1.519728899,0.1299450845
928,1.5596538653e+18,-0.01715004072,-0.9626197219,0.3975040615
929,1.55965386535e+18,0.3176041245,-0.5191316009,0.4445406795
930,1.5596538654e+18,0.5595067739,-0.2308032215,0.4359885752
931,1.55965386545e+18,0.7036709785,0.07829460502,0.4182734787
932,1.5596538655e+18,0.7610923052,0.4106052816,0.4952425063
933,1.55965386556e+18,0.7537618876,0.6940467358,0.7175974846
934,1.55965386561e+18,0.8710480332,0.8149980903,1.228280783
935,1.55965386566e+18,1.177091599,0.2902648449,1.536767721
936,1.55965386571e+18,1.387229085,0.3476861715,1.867856741
937,1.55965386576e+18,1.525284648,0.3672338426,1.954599619
938,1.55965386582e+18,1.378677011,0.413048774,1.828150511
939,1.55965386587e+18,1.234512806,0.1051726714,1.65955162
940,1.55965386592e+18,0.959623456,0.2059654444,1.459187865
941,1.55965386597e+18,0.8307309151,-0.2558487058,1.258213162
942,1.55965386602e+18,0.8362287283,-0.2515726388,1.155587912
943,1.55965386608e+18,1.109896421,0.03736662492,1.039523482
944,1.55965386613e+18,1.745807052,0.4894069135,1.186741948
945,1.55965386618e+18,2.597964048,-0.1269561201,0.9595000744
946,1.55965386623e+18,3.144688368,-0.7549256086,0.9161286354
947,1.55965386628e+18,3.113534451,-0.7958535552,0.6412393451
948,1.55965386634e+18,2.458076,-0.1868209243,0.1928642094
949,1.55965386639e+18,1.547275901,0.03431230038,-0.7551986575
950,1.55965386644e+18,0.4397771657,1.559031963,-1.270158052
951,1.55965386649e+18,-0.5620418787,3.194318056,-1.45647192
952,1.55965386654e+18,-0.3775605559,1.086833119,-1.909734011
953,1.5596538666e+18,1.101955056,-2.905782223,-5.472300529
954,1.55965386665e+18,-1.496665597,1.909668565,-1.819325924
955,1.5596538667e+18,-1.36960566,0.1583179533,-3.295176268
956,1.55965386675e+18,-1.5284307,-0.6913956404,-2.884063959
957,1.5596538668e+18,-1.808206916,0.3379123211,-1.55909729
958,1.55965386686e+18,-1.436190009,-0.3749673963,-0.6250843406
959,1.55965386691e+18,-1.233993649,0.4191574156,0.3773455322
960,1.55965386696e+18,-1.127702951,-1.126331687,1.321743131
961,1.55965386701e+18,-0.5412724018,-2.484285116,1.961319089
962,1.55965386706e+18,-0.3531259298,-1.600363016,2.548971415
963,1.55965386712e+18,0.07570147514,-2.505665302,2.813476086
964,1.55965386717e+18,0.6468604803,-3.215490818,2.816530466
965,1.55965386722e+18,0.909532547,-2.133037567,2.832412958
966,1.55965386727e+18,0.9706190825,-2.980307579,2.516595602
967,1.55965386732e+18,1.00788188,-2.748178959,2.541030169
968,1.55965386738e+18,0.7574270368,-2.122652769,2.251479864
969,1.55965386743e+18,1.035370708,-3.158680439,1.931997538
970,1.55965386748e+18,1.225349903,-3.390198231,1.134818316
971,1.55965386753e+18,0.9131977558,-3.962579012,-0.07408390939
972,1.55965386758e+18,-0.4087146521,-4.557561398,-1.910344839
973,1.55965386764e+18,-2.762378454,-1.54599607,-3.923756599
974,1.55965386769e+18,-1.397094607,2.31833744,-3.961630344
975,1.55965386774e+18,-0.9688780904,-4.365139008,-3.333660841
976,1.55965386779e+18,0.1245706975,10.56562901,3.145175934
977,1.55965386784e+18,1.040257692,-1.37373209,2.529423714
978,1.5596538679e+18,1.215576053,-4.939963341,0.6577326655
979,1.55965386795e+18,0.07142541558,-2.1385355,0.6088634729
980,1.559653868e+18,-1.714744449,0.8711977005,1.039523482
981,1.55965386805e+18,-2.597444773,2.182114601,-0.07530563325
982,1.5596538681e+18,-2.824686766,2.463723421,-0.7521443367
983,1.55965386816e+18,-2.543688774,1.708083153,-1.458915353
984,1.55965386821e+18,-2.29689908,1.127150297,-1.525499701
985,1.55965386826e+18,-2.069657326,1.329346657,-1.329411983
986,1.55965386831e+18,-1.728794456,1.220001698,-1.138211131
987,1.55965386836e+18,-1.293247581,0.7691831589,-0.9995447397
988,1.55965386842e+18,-1.100214124,0.9561079741,-0.977553606
989,1.55965386847e+18,-0.9450542927,1.011085868,-0.620197475
990,1.55965386852e+18,-0.5840329528,-0.150169,-0.4314400554
991,1.55965386857e+18,-0.3806148767,-0.5637248158,-0.05514708161
992,1.55965386862e+18,-0.4209319651,-0.4268909693,0.3724585772
993,1.55965386868e+18,-0.4123798609,-0.398180306,0.5447226167
994,1.55965386873e+18,-0.1680337489,-0.4696515203,0.4958533645
995,1.55965386878e+18,-0.02264782973,-0.5557835102,0.4036127329
996,1.55965386883e+18,-0.01776090637,-0.4122301936,0.2728875279
997,1.55965386888e+18,-0.07701484114,-0.07930862904,0.206914112
998,1.55965386894e+18,-0.0550236851,0.03858835623,0.151936233
999,1.55965386899e+18,-0.02997821197,-0.1110736281,0.08779538423
1000,1.55965386904e+18,-0.1344361752,0.02392759174,0.09146057814
1001,1.55965386909e+18,-0.1784184724,0.06852075458,0.1110082641
1002,1.55965386914e+18,-0.2456136495,0.1485441029,0.1543796957
1003,1.5596538692e+18,-0.231563732,0.2029111087,0.1806468964
1004,1.55965386925e+18,-0.2138486505,0.6011952758,0.1806468964
1005,1.5596538693e+18,-0.0928973332,0.9652709365,0.3553543687
1006,1.55965386935e+18,-0.0672409907,0.5712628961,0.5190662146
1007,1.5596538694e+18,0.03294090554,-0.3334285915,0.4805817306
1008,1.55965386946e+18,0.3566994965,0.125331223,0.7438646555
1009,1.55965386951e+18,0.5081940889,0.2872105241,0.5050163865
1010,1.55965386956e+18,0.2589610517,0.6598383188,0.5318943858
1011,1.55965386961e+18,-0.05319108814,0.5010133386,0.4927990437
1012,1.55965386966e+18,-0.3922213018,0.4551984668,0.3388609886
1013,1.55965386972e+18,-0.7074277997,0.267051965,-0.1064597592
1014,1.55965386977e+18,0.1050230116,2.111254215,-1.904236197
1015,1.55965386982e+18,1.818500042,5.052570343,-0.4228879809
1016,1.55965386987e+18,3.921709061,-0.5722768903,0.2502855361
1017,1.55965386992e+18,3.707906246,-1.038977861,1.40787518
1018,1.55965386998e+18,3.837409735,-0.398180306,1.606406331
1019,1.55965387003e+18,2.729910851,0.8803606629,2.112813711
1020,1.55965387008e+18,1.102565885,-0.6571871042,1.732855439
1021,1.55965387013e+18,-0.7960032225,-1.48613131,1.005314946
1022,1.55965387018e+18,-2.53880167,0.2035219669,-1.005653381
1023,1.55965387024e+18,0.006062837783,2.501596928,-2.990965366
1024,1.55965387029e+18,-1.173517942,1.296970725,-1.978761673
1025,1.55965387034e+18,-1.679925323,0.5926431417,-2.6323874
1026,1.55965387039e+18,-1.498498321,-1.00293684,-2.199284077
1027,1.55965387044e+18,-2.192441225,0.02576018684,-1.632401109
1028,1.5596538705e+18,-2.345157385,0.7441377044,-0.4906939864
1029,1.55965387055e+18,-0.931615293,-1.100064397,0.5612159371
1030,1.5596538706e+18,-0.007376197726,-0.8404467106,2.421911478
1031,1.55965387065e+18,1.040257692,-2.561254263,4.011993885
1032,1.5596538707e+18,1.919292688,-3.23137331,4.911187649
1033,1.55965387076e+18,2.856971025,-4.429280281,4.369349957
1034,1.55965387081e+18,3.10742569,-4.572833538,2.853182316
1035,1.55965387086e+18,2.188684225,-2.650440454,1.679099321
1036,1.55965387091e+18,0.2956129909,-1.45009017,0.2515072823
1037,1.55965387096e+18,-2.168006659,-1.02920413,-1.364231348
1038,1.55965387102e+18,-4.742803574,-0.4232257605,-2.541368723
1039,1.55965387107e+18,-5.948651314,-0.6345851421,-2.350167751
1040,1.55965387112e+18,-6.899768353,-3.519090891,-0.9158561826
1041,1.55965387117e+18,1.662118554,0.7887309194,-0.8950867653
1042,1.55965387122e+18,0.5546197891,2.052611113,2.297905684
1043,1.55965387127e+18,-0.675662756,2.617050648,1.754846692
1044,1.55965387133e+18,-1.560806513,2.049556732,0.4341559708
1045,1.55965387138e+18,-1.924271345,2.015959024,-0.3379776776
1046,1.55965387143e+18,-1.659155726,1.929216266,-0.7325966358
1047,1.55965387148e+18,-0.9016829133,1.372107148,-0.4998570085
1048,1.55965387153e+18,-0.09900598228,0.9054061174,-0.352027595
1049,1.55965387159e+18,0.1373988688,1.232218981,-0.04537323862
1050,1.55965387164e+18,0.08914051205,1.228553891,0.2783853412
1051,1.55965387169e+18,0.3542560339,-0.1055758446,0.538613975
1052,1.55965387174e+18,0.514913559,-1.137938142,0.5661028624
1053,1.55965387179e+18,0.484981209,-1.110449195,0.4769165218
1054,1.55965387185e+18,0.378079772,-0.3670261502,0.6003113389
1055,1.5596538719e+18,0.4434423447,0.06668815762,0.5441116691
1056,1.55965387195e+18,0.3890753388,0.2841562033,0.3663499355
1057,1.559653872e+18,0.5252982974,0.7111510038,0.1299450845
1058,1.55965387205e+18,0.5778326988,1.259708047,-0.2970497012
1059,1.55965387211e+18,0.8618850708,1.597516537,-0.5646086931
1060,1.55965387216e+18,1.287658095,2.937144041,-0.7319858074
1061,1.55965387221e+18,1.863704085,4.824106216,-0.9396799207
1062,1.55965387226e+18,1.910740733,4.727589607,-0.04476236925
1063,1.55965387231e+18,2.301083565,1.863242745,0.2673897743
1064,1.55965387237e+18,1.483745813,2.061163187,0.588093996
1065,1.55965387242e+18,0.5307961106,-1.870976448,0.9020787477
1066,1.55965387247e+18,-0.03914118931,-3.972963572,0.4897447228
1067,1.55965387252e+18,-0.7379710078,-4.616816044,-0.1516637951
1068,1.55965387257e+18,-1.671373129,-3.197775602,-0.5749934316
1069,1.55965387263e+18,-2.136852503,-1.228957057,-0.5163503289
1070,1.55965387268e+18,-1.653047085,0.4936829507,-0.4625942111
1071,1.55965387273e+18,-1.067227364,1.73557198,-0.05026016012
1072,1.55965387278e+18,-0.9737650156,1.721522093,0.388341099
1073,1.55965387283e+18,-0.9658237696,-0.1104627624,0.9026896358
1074,1.55965387289e+18,-0.6677215695,-1.857537389,1.199570179
1075,1.55965387294e+18,-0.07579310238,-2.189848185,1.239887238
1076,1.55965387299e+18,0.6199824214,-0.9693393111,1.346177697
1077,1.55965387304e+18,1.147770047,-0.09152594209,1.687651515
1078,1.55965387309e+18,1.452591777,-0.8703791499,1.708420873
1079,1.55965387315e+18,1.26933217,-0.461099416,1.647945166
1080,1.5596538732e+18,0.6328105927,1.291473031,1.091446996
1081,1.55965387325e+18,0.1819920391,2.704404354,0.3101503253
1082,1.5596538733e+18,0.1257924289,3.748373032,-0.9360147715
1083,1.55965387335e+18,0.2064266354,2.24930954,-2.684311152
1084,1.55965387341e+18,-0.3824474514,2.648815393,-3.350765228
1085,1.55965387346e+18,-1.122205377,1.988470197,-3.763099194
1086,1.55965387351e+18,-2.298731804,-5.679110527,-7.179668427
1087,1.55965387356e+18,-2.007349014,-2.462293863,-0.9732775092
1088,1.55965387361e+18,-1.93893218,-0.61198318,-1.725863576
1089,1.55965387367e+18,-1.778274536,-0.06403700262,-1.424096107
1090,1.55965387372e+18,-1.297523618,0.3916684687,-1.303144813
1091,1.55965387377e+18,-0.6793279648,1.055678964,-0.3929555714
1092,1.55965387382e+18,0.08975137025,0.2407847643,0.5441116691
1093,1.55965387387e+18,0.4745964706,-0.2589030266,1.557537079
1094,1.55965387393e+18,1.253449678,-1.78423357,2.043174982
1095,1.55965387398e+18,1.878364921,-1.461696625,2.75605464
1096,1.55965387403e+18,2.879573107,-1.745748997,3.583777189
1097,1.55965387408e+18,3.706684589,-2.481841564,4.236181259
1098,1.55965387413e+18,4.180105209,-2.414646387,4.057808399
1099,1.55965387419e+18,4.498976707,-2.010253668,3.756041288
1100,1.55965387424e+18,3.873450756,-3.007796526,3.302778959
1101,1.55965387429e+18,2.797717094,-3.775654316,2.131139755
1102,1.55965387434e+18,1.55766058,-2.349894762,1.734077215
1103,1.55965387439e+18,0.9052564502,-2.186793804,1.034636497
1104,1.55965387445e+18,-0.3158631623,-2.316297054,-0.7203793526
1105,1.5596538745e+18,-2.444117785,-1.48002255,-1.9628793
1106,1.55965387455e+18,-4.819772243,-0.3896281719,-3.382529974
1107,1.5596538746e+18,-5.277310371,0.6512861848,-3.146125317
1108,1.55965387465e+18,-5.790437698,-0.9106962085,-2.177293062
1109,1.55965387471e+18,-4.172255516,1.603014231,-0.7918505669
1110,1.55965387476e+18,-1.543091416,5.61700964,1.012645364
1111,1.55965387481e+18,-1.27369988,2.155847311,0.7548602223
1112,1.55965387486e+18,-1.42275095,-0.5545617938,-0.8993628621
1113,1.55965387491e+18,-2.168006659,0.4173248112,-0.8773717284
1114,1.55965387497e+18,-1.76055944,2.097204447,-1.320859909
1115,1.55965387502e+18,-1.089218497,1.629281521,-0.9390690923
1116,1.55965387507e+18,-0.5076748133,1.074615836,-0.4259423018
1117,1.55965387512e+18,-0.1527621299,0.518728435,-0.01605170593
1118,1.55965387517e+18,0.01583668217,0.3916684687,0.0816867277
1119,1.55965387523e+18,0.1624443382,0.06363382936,0.1207821146
1120,1.55965387528e+18,0.1355662644,-0.2833376229,0.3089286089
1121,1.55965387533e+18,0.06470590085,-0.6199243665,0.4665318429
1122,1.55965387538e+18,0.05859724805,-0.644969821,0.4488167465
1123,1.55965387543e+18,-0.04158465192,-0.5075252056,0.3975040615
1124,1.55965387549e+18,-0.1319927126,-0.5881593823,0.3321414888
1125,1.55965387554e+18,-0.0623540692,-0.9504024386,0.2490638196
1126,1.55965387559e+18,-0.06418666989,-0.8740442991,0.1861446798
1127,1.55965387564e+18,-0.1063363627,-0.3004418612,0.04381308705
1128,1.55965387569e+18,-0.1863597035,0.3568491638,-0.104016304
1129,1.55965387575e+18,-0.247446239,0.3482970297,-0.2652847171
1130,1.5596538758e+18,-0.2327854782,-0.0200547073,-0.4143358469
1131,1.55965387585e+18,-0.2700482607,-0.02921768464,-0.4796984196
1132,1.5596538759e+18,-0.3054784238,0.3470753133,-0.3935664296
1133,1.55965387595e+18,-0.1753641367,0.4973481297,-0.3428646326
1134,1.55965387601e+18,0.0005650503444,0.3458535671,-0.253678292
1135,1.55965387606e+18,0.02377793007,0.2090197653,-0.2591760755
1136,1.55965387611e+18,-0.1539838612,0.5040676594,-0.2066416591
1137,1.55965387616e+18,-0.3146414161,0.5572129488,-0.03682112321
1138,1.55965387621e+18,-0.2676047981,-0.08114122599,0.187366426
1139,1.55965387627e+18,-0.157038182,-0.6895629764,0.3657390773
1140,1.55965387632e+18,-0.1466534734,-0.2943331897,0.3278654218
1141,1.55965387637e+18,-0.04524984211,0.1558744758,0.5129575729
1142,1.55965387642e+18,0.145950973,0.06241210178,0.7548602223
1143,1.55965387647e+18,0.3530342877,-0.06403700262,0.9405633211
1144,1.55965387653e+18,0.5338504314,-0.4885883629,0.7884578109
1145,1.55965387658e+18,0.4782616496,0.1430463046,0.7988425493
1146,1.55965387663e+18,0.374414593,0.4179356694,0.8165576458
1147,1.55965387668e+18,0.2149787396,0.2493368685,0.7835709453
1148,1.55965387673e+18,-0.06907358766,-0.2540161014,0.9454501867
1149,1.55965387679e+18,-0.08739954233,-1.053027868,1.284480333
1150,1.55965387684e+18,0.3976274729,-0.8129577637,2.114035368
1151,1.55965387689e+18,0.7372685671,0.1913046688,2.819584608
1152,1.55965387694e+18,0.7659791708,-0.9168048501,2.669312
1153,1.55965387699e+18,-0.2425593138,0.1876394749,2.034012079
1154,1.55965387705e+18,-1.735513926,2.888885498,0.9833238721
1155,1.5596538771e+18,-2.048887968,0.5963083506,0.0816867277
1156,1.55965387715e+18,-2.105698347,-0.1037432477,0.8012859821
1157,1.5596538772e+18,-0.9902583361,-0.9656741619,2.608225346
1158,1.55965387725e+18,-0.5553223491,-2.235052109,1.68276453
1159,1.55965387731e+18,-0.5449376106,-0.6138157248,0.6894977093
1160,1.55965387736e+18,0.1099099293,-0.01089172717,-0.3355342448
1161,1.55965387741e+18,0.8979260921,1.116765499,-0.9836622477
1162,1.55965387746e+18,1.169761062,1.7819978,-0.7625290751
1163,1.55965387751e+18,1.946170926,-0.5179098248,-1.315362096
1164,1.55965387757e+18,1.731146216,1.129593611,-0.6440211535
1165,1.55965387762e+18,1.769630909,-0.4311670363,-0.2011438757
1166,1.55965387767e+18,1.659675002,-1.596697927,0.3364175558
1167,1.55965387772e+18,1.986487865,-2.859356403,0.7224843502
1168,1.55965387777e+18,2.032302856,-2.928384066,0.8690920472
1169,1.55965387783e+18,1.61080575,-3.594838142,1.054184198
1170,1.55965387788e+18,1.502071738,-4.702947617,0.9338437319
1171,1.55965387793e+18,1.298653722,-4.395071983,0.8177793622
1172,1.55965387798e+18,1.024986029,-4.910030842,0.5361704826
1173,1.55965387803e+18,1.106842041,-6.056014061,-0.5786585808
1174,1.55965387809e+18,-0.7104821205,-4.458601475,-2.045346022
1175,1.55965387814e+18,-4.157594681,0.6806077361,-3.173003197
1176,1.55965387819e+18,-0.1625359654,3.973782301,-2.908498526
1177,1.55965387824e+18,-0.6878800392,4.211408615,-0.344086349
1178,1.55965387829e+18,2.220449448,2.31467247,2.625940323
1179,1.55965387835e+18,1.765354753,-0.1666623652,2.994903088
1180,1.5596538784e+18,1.171593785,-2.332790613,1.451857448
1181,1.55965387845e+18,-0.2169029713,-0.3224330246,1.202013493
1182,1.5596538785e+18,-2.404411316,1.807043195,0.8978026509
1183,1.55965387855e+18,-4.844817638,3.352532148,-0.3575253785
1184,1.55965387861e+18,-6.349379539,4.227902412,-1.849869132
1185,1.55965387866e+18,-5.725685596,2.928591728,-3.447892666
1186,1.55965387871e+18,-5.219278336,-1.361514807,-4.303714752
1187,1.55965387876e+18,-5.963312626,-2.150141954,-3.103364706
1188,1.55965387881e+18,-5.702472687,3.621313095,-1.410657048
1189,1.55965387887e+18,-4.180196762,4.129552841,-1.202352047
1190,1.55965387892e+18,-1.541258812,1.179073691,-1.080789804
1191,1.55965387897e+18,-0.9139001966,-1.724368811,-0.2658956051
1192,1.55965387902e+18,-0.231563732,-2.161748409,-0.4454899728
1193,1.55965387907e+18,0.6712951064,2.855898857,-0.2268002182
1194,1.55965387913e+18,1.684109569,7.200372696,0.855652988
1195,1.55965387918e+18,2.194182158,7.913863182,2.237430096
1196,1.55965387923e+18,1.521619558,6.981071949,3.594772816
1197,1.55965387928e+18,0.9339671731,2.987845659,2.931983948
1198,1.55965387933e+18,0.3725819588,-2.086000919,1.607017159
1199,1.55965387939e+18,-0.2804329395,-4.520909786,1.211176515
1200,1.55965387944e+18,-0.6628345847,-4.897202492,1.365725517
1201,1.55965387949e+18,-0.5406615734,-1.858148217,1.406653404
1202,1.55965387954e+18,-0.7172015905,1.072172403,0.7982316613
1203,1.55965387959e+18,-0.7617948055,2.088041306,0.3742912114
1204,1.55965387965e+18,-0.8955742717,2.255418301,0.07924327254
1205,1.5596538797e+18,-1.028742909,1.145476222,-0.09363159537
1206,1.55965387975e+18,-1.279197574,-0.216753304,0.1653752774
1207,1.5596538798e+18,-1.132589936,-1.264998078,0.5997004509
1208,1.55965387985e+18,-0.634123981,-1.878917575,1.129931569
1209,1.55965387991e+18,0.1380097419,-1.293097854,1.691927433
1210,1.55965387996e+18,0.9370214939,-1.752468467,2.446957111
1211,1.55965388001e+18,1.863093138,-1.977267027,3.104248047
1212,1.55965388006e+18,2.574751139,-2.532543421,3.580722809
1213,1.55965388011e+18,3.015795946,-2.583245277,2.794539213
1214,1.55965388017e+18,2.275427341,-1.341966987,1.757900953
1215,1.55965388022e+18,1.477637172,-0.7903558016,0.08535192162
1216,1.55965388027e+18,0.275454402,3.374523401,-0.6513515711
1217,1.55965388032e+18,-0.4826293588,3.061149597,-0.6116453409
1218,1.55965388037e+18,0.9541256428,1.521769166,0.05603039265
1219,1.55965388043e+18,-2.062326908,-0.4501038492,-2.717297792
1220,1.55965388048e+18,-4.01159811,1.816206217,-2.073445797
1221,1.55965388053e+18,-4.109947205,2.0202353,-3.412462473
1222,1.55965388058e+18,-2.702513695,1.475954175,-3.712397099
1223,1.55965388063e+18,-1.47895062,1.295749068,-2.766777754
1224,1.55965388069e+18,-0.4936249256,0.06057950482,-1.379502892
1225,1.55965388074e+18,0.4116773605,0.7001553774,0.28205055
1226,1.55965388079e+18,0.9131977558,-2.496502399,1.574030519
1227,1.55965388084e+18,1.907686353,-2.075616121,1.991251469
1228,1.55965388089e+18,2.269929409,-2.692589998,2.504989147
1229,1.55965388094e+18,3.188059807,-4.358419418,2.424965858
1230,1.559653881e+18,3.626661062,-4.949737072,2.423744202
1231,1.55965388105e+18,3.850848675,-5.663838863,1.489731073
1232,1.5596538811e+18,3.217381239,-4.353532791,0.8898614645
1233,1.55965388115e+18,1.75619173,-4.060928345,-0.2286328077
1234,1.5596538812e+18,0.2998889983,-4.666906834,-1.223732352
1235,1.55965388126e+18,-2.599888086,-1.54233098,-2.30068779
1236,1.55965388131e+18,-2.589503765,1.610344648,-4.062423229
1237,1.55965388136e+18,-1.271256328,0.6861055493,-1.442422032
1238,1.55965388141e+18,2.203956127,9.188738823,2.61372304
1239,1.55965388146e+18,1.827662945,-1.197192073,2.782932758
1240,1.55965388152e+18,1.958388209,-4.327876568,1.708420873
1241,1.55965388157e+18,0.6468604803,-2.560643196,1.005925894
1242,1.55965388162e+18,-2.133798122,-0.3523653746,1.418259859
1243,1.55965388167e+18,-5.106268406,2.342772007,0.9527806044
1244,1.55965388172e+18,-7.309659004,4.266386509,-0.02704728208
1245,1.55965388178e+18,-7.196649551,3.820455074,-2.081387281
1246,1.55965388183e+18,-6.841736317,1.30857718,-3.481490135
1247,1.55965388188e+18,-6.118472099,1.035520434,-2.312905073
1248,1.55965388193e+18,-4.808166027,2.982958794,-2.494942904
1249,1.55965388198e+18,-2.97251606,2.229762077,-2.014802694
1250,1.55965388204e+18,-1.325012565,0.5211718678,-1.05574441
1251,1.55965388209e+18,-0.4197102487,-1.247282982,-0.1852613837
1252,1.55965388214e+18,0.1068556085,-1.530724525,0.3144263923
1253,1.55965388219e+18,0.3518125713,-0.800129652,0.2765527368
1254,1.55965388224e+18,0.5949369669,0.7844548225,0.03892616555
1255,1.5596538823e+18,0.8716588616,2.117973566,0.2881591916
1256,1.55965388235e+18,0.9834471941,2.213879347,0.6119177938
1257,1.5596538824e+18,0.9712299109,1.304911971,0.8391596079
1258,1.55965388245e+18,0.8960934877,0.2096306235,1.056627631
1259,1.5596538825e+18,0.8771566749,-0.3792434633,1.197126746
1260,1.55965388256e+18,0.9089217186,-0.05792835355,1.412151217
1261,1.55965388261e+18,0.8936499953,0.498569876,1.571587086
1262,1.55965388266e+18,0.8295091987,0.569430232,1.6430583
1263,1.55965388271e+18,0.8985369802,0.2988169491,1.551428437
1264,1.55965388276e+18,0.9736734033,0.3220298588,1.512943983
1265,1.55965388282e+18,0.8857088089,0.314088583,1.703533888
1266,1.55965388287e+18,0.9388540387,-0.2277488858,1.723692536
1267,1.55965388292e+18,1.062248945,-0.5808289647,1.968649507
1268,1.55965388297e+18,1.636462212,-0.5484531522,2.058446884
1269,1.55965388302e+18,1.904632092,-0.3303742409,2.061501026
1270,1.55965388308e+18,2.067733049,-0.2949440479,2.016297102
1271,1.55965388313e+18,2.046963692,0.1772547662,1.806770086
1272,1.55965388318e+18,1.81605649,-0.2106446624,1.833648324
1273,1.55965388323e+18,1.554606199,-0.6205351949,1.345566869
1274,1.55965388328e+18,0.7617031336,-0.6144265532,0.9943193793
1275,1.55965388334e+18,-0.590141654,-0.2698985934,0.7463080883
1276,1.55965388339e+18,-2.305451155,0.6732773185,0.8513769507
1277,1.55965388344e+18,-1.497887492,-0.6987259984,-1.019703269
1278,1.55965388349e+18,-3.671956778,1.461904407,-1.333688021
1279,1.55965388354e+18,-4.045806408,1.767337084,-1.526110649
1280,1.5596538836e+18,-1.970697165,2.028176546,-2.102767229
1281,1.55965388365e+18,-0.02325869352,0.2230696529,-0.2341306061
1282,1.5596538837e+18,1.960220695,-1.412216544,1.112216473
1283,1.55965388375e+18,3.324893713,-3.309563875,1.638782263
1284,1.5596538838e+18,4.114131927,-4.366971493,1.504391789
1285,1.55965388386e+18,4.169109344,-4.357197762,0.8623725176
1286,1.55965388391e+18,3.192335844,-3.028565884,0.5257857442
1287,1.55965388396e+18,1.80933702,-1.577761054,0.6778912544
1288,1.55965388401e+18,0.7036709785,-1.762853265,0.0566412583
1289,1.55965388406e+18,-1.092272878,-0.9265787601,-0.9305169582
1290,1.55965388412e+18,-3.897366047,-0.225305438,-2.092382669
1291,1.55965388417e+18,-6.752550125,-1.009656429,-3.332439184
1292,1.55965388422e+18,-4.131938457,1.713580847,-2.430802107
1293,1.55965388427e+18,-2.960298777,-7.76399374,-0.9347930551
1294,1.55965388432e+18,-0.2498897016,5.260875702,1.617401958
1295,1.55965388438e+18,-0.7880619764,2.809473038,1.109162092
1296,1.55965388443e+18,-1.936488628,1.726409078,0.1678187251
1297,1.55965388448e+18,-2.836293221,0.1241094917,-0.9842731357
1298,1.55965388453e+18,-3.110571623,1.231608152,-0.8217829466
1299,1.55965388458e+18,-2.423959255,0.7019880414,-1.008707762
1300,1.55965388464e+18,-1.746509552,-0.406121552,-0.7069402933
1301,1.55965388469e+18,-1.238880515,-0.3517545462,-0.04537323862
1302,1.55965388474e+18,-0.5217247605,-0.1819339842,-0.09485332668
1303,1.55965388479e+18,-0.1283275187,0.5168958902,-0.07164043933
1304,1.55965388484e+18,0.03110831231,0.06913162023,-0.06003400311
1305,1.5596538849e+18,0.3731928468,-0.9357417226,-0.2029764652
1306,1.55965388495e+18,0.5491220951,-0.8972572088,-0.2066416591
1307,1.559653885e+18,0.5051397681,0.07035334408,-0.4687028527
1308,1.55965388505e+18,0.3640298843,1.259708047,-0.4387704432
1309,1.5596538851e+18,-0.007376197726,1.245047212,-0.2909410596
1310,1.55965388516e+18,-0.1460426003,0.5651541948,-0.1699897498
1311,1.55965388521e+18,-0.1515403837,-0.3780217171,-0.2897193432
1312,1.55965388526e+18,-0.2388941199,-0.6706262231,-0.3960098922
1313,1.55965388531e+18,-0.4245971739,-0.5380684137,-0.5853781104
1314,1.55965388536e+18,-0.5272225142,0.05019479617,-0.6476863623
1315,1.55965388542e+18,-0.5363854766,0.4875743091,-0.3807382584
1316,1.55965388547e+18,-0.6164088845,0.3092016578,-0.1834287941
1317,1.55965388552e+18,-0.7086494565,0.1351050735,-0.05453621596
1318,1.55965388557e+18,-0.734916687,0.1387702674,0.03403924406
1319,1.55965388562e+18,-0.547381103,-0.0279959552,0.1562123001
1320,1.55965388567e+18,-0.2303420156,-0.1629971713,0.1665969938
1321,1.55965388573e+18,0.03782783076,0.4765787423,0.09695836902
1322,1.55965388578e+18,0.2107027024,0.4246551692,0.04198049009
1323,1.55965388583e+18,0.2583501935,0.01048855577,0.030374052
1324,1.55965388588e+18,0.2198656797,0.3189755082,0.2014163136
1325,1.55965388593e+18,0.1031904146,0.7453594208,0.4286582172
1326,1.55965388599e+18,0.2113135457,0.7453594208,0.5483877659
1327,1.55965388604e+18,0.331043154,0.5566021204,0.674225986
1328,1.55965388609e+18,0.4403880239,0.7361964583,0.8532095551
1329,1.55965388614e+18,0.5350721478,0.6989337206,0.9857672453
1330,1.55965388619e+18,0.6083759665,0.4197682738,0.9057439566
1331,1.55965388625e+18,0.6126520634,0.1027292088,0.8116707206
1332,1.5596538863e+18,0.5741675496,-0.07319997996,0.7347016335
1333,1.55965388635e+18,0.429392457,0.4020531774,0.7450863719
1334,1.5596538864e+18,0.2247525901,0.8595912457,0.7902904153
1335,1.55965388645e+18,0.1887115538,0.4997916222,0.9362872243
1336,1.55965388651e+18,0.4275598526,-0.04387845099,0.9252915978
1337,1.55965388656e+18,0.7806399465,0.6018061042,1.410318613
1338,1.55965388661e+18,1.318201423,0.2358978242,2.194669724
1339,1.55965388666e+18,1.821554303,-1.162372708,2.385259628
1340,1.55965388671e+18,1.733589768,-1.578372002,2.185506582
1341,1.55965388677e+18,0.9296910763,0.1552636325,1.829372168
1342,1.55965388682e+18,-0.04524984211,1.05995512,0.9753825665
1343,1.55965388687e+18,-0.640843451,0.5553803444,0.1580448896
1344,1.55965388692e+18,-0.8277682662,-0.2680660188,1.085949183
1345,1.55965388697e+18,-0.9108458757,-2.329125166,0.06152817979
1346,1.55965388703e+18,-0.3812257349,0.05935777724,1.333960414
1347,1.55965388708e+18,1.258336544,-1.906406641,0.8159467578
1348,1.55965388713e+18,2.505723476,-3.109811068,1.32540834
1349,1.55965388718e+18,2.724413157,-3.12874794,1.197737575
1350,1.55965388723e+18,2.379274368,-3.275966644,0.5178445578
1351,1.55965388729e+18,1.351188064,-2.032855749,0.006550308317
1352,1.55965388734e+18,-0.3861126304,-1.326084614,-0.7319858074
1353,1.55965388739e+18,-3.017109394,-1.316310763,-1.797945738
1354,1.55965388744e+18,-6.507593155,-1.351740956,-2.965309143
1355,1.55965388749e+18,-5.315795422,1.449687123,-3.008069515
1356,1.55965388755e+18,-6.544856071,-8.991221428,-0.2775020301
1357,1.5596538876e+18,-1.381822944,7.60048914,1.218506932
1358,1.55965388765e+18,0.08486445248,1.581023097,1.368779778
1359,1.5596538877e+18,-0.728197217,0.3825055063,0.5331161618
1360,1.55965388775e+18,-1.777052879,1.084389687,-0.4057837129
1361,1.55965388781e+18,-2.321944475,2.821079493,-0.2408501059
1362,1.55965388786e+18,-1.572412968,1.631724954,-0.9366255999
1363,1.55965388791e+18,-0.6182414293,1.006809711,-0.5004678369
1364,1.55965388796e+18,-0.05991061032,0.5590455532,-0.3220951855
1365,1.55965388801e+18,0.09036224335,0.5407196283,-0.03743198887
1366,1.55965388807e+18,0.3004998863,0.3324145377,0.005939442664
1367,1.55965388812e+18,0.4086230397,0.04836220294,0.003495981684
1368,1.55965388817e+18,0.3964057267,-0.0127243232,0.1610992104
1369,1.55965388822e+18,0.271789223,-0.0701456517,0.2313487232
1370,1.55965388827e+18,0.09463829547,-0.1122953594,0.34496966
1371,1.55965388833e+18,-0.02448042482,-0.3725239635,0.3895628154
1372,1.55965388838e+18,-0.1038929075,-0.6425263882,0.2270726562
1373,1.55965388843e+18,-0.1338253021,-0.4720950127,0.08474105597
1374,1.55965388848e+18,-0.2627178729,-0.3291525245,-0.104016304
1375,1.55965388853e+18,-0.3726736009,-0.3871847093,-0.2261893451
1376,1.55965388859e+18,-0.4154341817,-0.5417336226,-0.3886795044
1377,1.55965388864e+18,-0.5162269473,-0.3151026368,-0.5731608272
1378,1.55965388869e+18,-0.6988756657,-0.003561344463,-0.7466465235
1379,1.55965388874e+18,-0.6231283545,-0.2723420262,-0.7759680748
1380,1.55965388879e+18,-0.6744410396,-0.5899919868,-0.7869636416
1381,1.55965388885e+18,-0.6567259431,-0.4275018275,-0.6311929822
1382,1.5596538889e+18,-0.540050745,-0.1819339842,-0.4051728845
1383,1.55965388895e+18,-0.4368144572,0.03553403169,-0.2158046365
1384,1.559653889e+18,-0.3677866757,0.2749931812,-0.1015728414
1385,1.55965388905e+18,-0.1607033759,0.2774366736,0.030374052
1386,1.55965388911e+18,-0.01104138978,0.07035334408,0.140329808
1387,1.55965388916e+18,0.09219484031,-0.01822211035,0.2191314101
1388,1.55965388921e+18,0.1581682861,0.09234450012,0.277163595
1389,1.55965388926e+18,0.1990962476,0.1699243933,0.3132046461
1390,1.55965388931e+18,0.2730109692,0.1180008426,0.3272545338
1391,1.55965388937e+18,0.3420387208,0.06241210178,0.376123786
1392,1.55965388942e+18,0.3200475872,0.2847670615,0.4243821502
1393,1.55965388947e+18,0.2827847898,0.8284371495,0.478138268
1394,1.55965388952e+18,0.318825841,1.077670217,0.6882759333
1395,1.55965388957e+18,0.4758182168,0.6286842227,1.002260685
1396,1.55965388963e+18,0.6083759665,-0.1813231409,1.142759681
1397,1.55965388968e+18,1.076298714,0.1406028569,1.196515799
1398,1.55965388973e+18,1.154489517,0.9298407435,1.696203589
1399,1.55965388978e+18,1.819721818,0.3446318507,2.115257025
1400,1.55965388983e+18,2.440360785,-0.4849231541,2.66625762
1401,1.55965388989e+18,2.87896204,-0.7457626462,2.975966215
1402,1.55965388994e+18,2.890568495,-1.027371407,3.140899897
1403,1.55965388999e+18,2.54420805,-1.189861655,2.562410355
1404,1.55965389004e+18,0.9040347338,-0.3401480913,1.689484
1405,1.55965389009e+18,-1.365940571,1.438080668,0.4133865535
1406,1.55965389015e+18,-2.524141073,1.06362021,0.1207821146
1407,1.5596538902e+18,-1.86623919,-2.778722286,-1.743578672
1408,1.55965389025e+18,-3.926076651,0.08440325409,0.183090359
1409,1.5596538903e+18,-3.963339567,3.437442541,-1.315362096
1410,1.55965389035e+18,-2.146015406,4.217517376,-2.612839937
1411,1.55965389041e+18,-0.436203599,1.420365572,-1.887131929
1412,1.55965389046e+18,0.6291453838,0.6170777678,-0.4454899728
1413,1.55965389051e+18,1.740309358,-0.4800362289,0.6778912544
1414,1.55965389056e+18,2.516108036,-2.02919054,1.450635791
1415,1.55965389061e+18,3.139801502,-2.545982361,2.198334694
1416,1.55965389067e+18,3.549081326,-5.541054726,2.338833809
1417,1.55965389072e+18,3.181340218,-5.437818527,0.8422139883
1418,1.55965389077e+18,2.209453821,-3.533140659,0.8874179721
1419,1.55965389082e+18,1.849654198,-4.250907421,0.2307378501
1420,1.55965389087e+18,1.177702427,-6.526991367,-1.910955667
1421,1.55965389093e+18,-1.472841978,-3.921040297,-2.157134295
1422,1.55965389098e+18,-3.69394803,1.141200066,-2.273198843
1423,1.55965389103e+18,-2.647535801,5.472845554,-2.074056625
1424,1.55965389108e+18,4.550289631,9.946211815,0.9949303269
1425,1.55965389113e+18,1.329807878,1.815595388,2.163515329
1426,1.55965389119e+18,1.833771586,-4.393850327,1.318078041
1427,1.55965389124e+18,0.7904137969,-3.180671453,0.1574340165
1428,1.55965389129e+18,-1.599901915,-0.1752144843,0.8098381162
1429,1.55965389134e+18,-3.911416054,1.988470197,0.2441768944
1430,1.55965389139e+18,-6.09525919,3.827785492,-0.728320539
1431,1.55965389145e+18,-6.171617031,3.417284012,-2.078332663
1432,1.5596538915e+18,-5.825867653,-0.5747203231,-3.905430555
1433,1.55965389155e+18,-6.341437817,-2.120209455,-2.637885332
1434,1.5596538916e+18,-6.173449993,2.054443598,-1.645840168
1435,1.55965389165e+18,-3.751369476,2.723951817,-1.27443409
1436,1.55965389171e+18,-1.113653183,0.5572129488,-0.7600855827
1437,1.55965389176e+18,-0.5644853115,-1.585091472,-0.2304654121
1438,1.55965389181e+18,-0.547381103,-1.864256859,-0.01666257158
1439,1.55965389186e+18,-0.14115569,-0.6712370515,-0.2439044565
1440,1.55965389191e+18,0.3127171993,0.9469450116,-0.1174553409
1441,1.55965389197e+18,0.5900499821,1.647607446,-0.03254506737
1442,1.55965389202e+18,0.754372716,1.350726962,0.1653752774
1443,1.55965389207e+18,1.097679019,0.5046785474,0.392006278
1444,1.55965389212e+18,1.355464101,0.7563550472,0.8361052871
1445,1.55965389217e+18,1.348133802,1.210838795,1.324186683
1446,1.55965389223e+18,1.215576053,0.8986866474,1.54043293
1447,1.55965389228e+18,1.028651237,0.3073690832,1.547152519
1448,1.55965389233e+18,0.814848423,0.2377304286,1.520274401
1449,1.55965389238e+18,0.5576741099,0.25544554,1.423146844
1450,1.55965389243e+18,0.3255453408,0.003769038711,1.125655413
1451,1.55965389249e+18,0.03782783076,0.2853779197,0.8727571964
1452,1.55965389254e+18,-0.06907358766,0.2566672266,0.6791129112
1453,1.55965389259e+18,-0.1368796229,0.2285674512,0.5526638031
1454,1.55965389264e+18,-0.06601926684,0.01293201745,0.5599942207
1455,1.55965389269e+18,0.0408821553,-0.03105027974,0.6974388957
1456,1.55965389275e+18,0.3591429591,0.04591874033,0.7835709453
1457,1.5596538928e+18,0.8466134071,0.3745642304,0.8574855924
1458,1.55965389285e+18,1.775739551,1.314074993,0.7884578109
1459,1.5596538929e+18,2.773893356,1.326903224,0.8813093305
1460,1.55965389295e+18,3.196001291,2.230983734,0.8043403029
1461,1.559653893e+18,3.291296244,2.608498573,0.5642702579
1462,1.55965389306e+18,2.654163599,3.577941656,0.05908472091
1463,1.55965389311e+18,1.866758466,1.625005364,0.0505326055
1464,1.55965389316e+18,1.120891929,-0.370691359,0.1348320097
1465,1.55965389321e+18,4.539904594,-3.52642107,-4.306158066
1466,1.55965389326e+18,-0.7446905375,1.20595181,-1.88346684
1467,1.55965389332e+18,0.2107027024,-1.33402586,-2.824810028
1468,1.55965389337e+18,-0.4917923212,-0.2717311978,-1.713035345
1469,1.55965389342e+18,-0.8870221376,0.3739533722,-1.957381487
1470,1.55965389347e+18,-1.297523618,-0.3016635776,-1.457082748
1471,1.55965389352e+18,-1.483837485,-0.7280475497,-0.7093837857
1472,1.55965389358e+18,-1.830808997,-1.188639879,0.3584086895
1473,1.55965389363e+18,-1.853410959,-1.739029527,1.023640871
1474,1.55965389368e+18,-1.338451505,-2.285753965,1.822041869
1475,1.55965389373e+18,-0.6750519276,-2.501389503,2.415802717
1476,1.55965389378e+18,-0.2511114478,-2.75795269,3.164723635
1477,1.55965389384e+18,0.6364757419,-3.479384422,3.353481054
1478,1.55965389389e+18,1.042090297,-3.097593784,4.632021904
1479,1.55965389394e+18,1.929066658,-4.474483967,4.253285408
1480,1.55965389399e+18,2.57108593,-4.600322247,3.63997674
1481,1.55965389404e+18,2.613235712,-4.440275192,2.461617708
1482,1.5596538941e+18,2.019474745,-3.59911418,1.559369802
1483,1.55965389415e+18,1.169761062,-4.362084866,-0.0759164989
1484,1.5596538942e+18,-0.2889850736,-4.541068554,-1.536495328
1485,1.55965389425e+18,-3.607815981,-1.934506297,-2.950037479
1486,1.5596538943e+18,-3.276726961,3.203481197,-2.912163734
1487,1.55965389436e+18,-1.714744449,-0.7720298171,-1.949440241
1488,1.55965389441e+18,0.7299381495,6.036063671,2.986351013
1489,1.55965389446e+18,2.125765085,-4.651023865,1.021808386
1490,1.55965389451e+18,1.596755981,-2.169689417,1.289367318
1491,1.55965389456e+18,-0.8357094526,1.102715611,1.296697736
1492,1.55965389462e+18,-3.199758053,1.025746584,0.6204699278
1493,1.55965389467e+18,-5.352447033,1.203508377,-0.2017547488
1494,1.55965389472e+18,-6.211934566,1.183349848,-0.8266698718
1495,1.55965389477e+18,-6.031118393,0.9689360857,-1.706926703
1496,1.55965389482e+18,-5.867406845,1.810708404,-1.875525475
1497,1.55965389488e+18,-5.372605324,2.680580616,-2.103989124
1498,1.55965389493e+18,-4.646897793,2.692797899,-2.207225323
1499,1.55965389498e+18,-2.534525633,1.163191319,-1.505341172
1500,1.55965389503e+18,-1.256595612,-0.8031839728,-0.2903302014
1501,1.55965389508e+18,-0.8912982345,-1.737807751,0.3486348689
1502,1.55965389514e+18,-0.580978632,-1.475135684,0.3492456973
1503,1.55965389519e+18,-0.03547599912,-0.4513255656,0.2838831246
1504,1.55965389524e+18,0.3585320711,0.4790221751,0.3547435105
1505,1.55965389529e+18,0.4996419549,0.54682827,0.2747201622
1506,1.55965389534e+18,0.9327453971,0.1833634228,0.423160404
1507,1.5596538954e+18,1.555217028,-0.02677422389,0.9161286354
1508,1.55965389545e+18,2.084837198,0.2878213823,1.364503741
1509,1.5596538955e+18,2.283368349,1.030633569,1.850752473
1510,1.55965389555e+18,2.286422968,1.412424326,2.16656971
1511,1.5596538956e+18,2.167915106,1.151584864,2.165348053
1512,1.55965389566e+18,1.969383836,0.6341819167,2.123198509
1513,1.55965389571e+18,1.803839207,0.074018538,1.971703887
1514,1.55965389576e+18,1.737254858,0.3281385005,1.811657071
1515,1.55965389581e+18,1.623633981,-0.1012997851,1.813489795
1516,1.55965389586e+18,1.782459021,-0.2961657941,1.522717953
1517,1.55965389592e+18,1.67677927,0.2114632279,1.149479151
1518,1.55965389597e+18,1.446483016,0.7893417478,0.7670775056
1519,1.55965389602e+18,0.9626777768,1.518103957,0.1629318148
1520,1.55965389607e+18,0.6890102029,1.700141788,-0.5786585808
1521,1.55965389612e+18,0.06226243824,2.549855471,-1.240836501
1522,1.55965389618e+18,-0.7288080454,1.828423619,-1.912177324
1523,1.55965389623e+18,-1.662210226,0.9267864227,-1.868195057
1524,1.55965389628e+18,-0.8228812814,-1.292487025,-4.848606586
1525,1.55965389633e+18,-1.985968709,0.9420580268,-2.383154631
1526,1.55965389638e+18,-2.192441225,1.167467237,-3.297008991
1527,1.55965389644e+18,-2.017733812,-0.3187678158,-3.846176863
1528,1.55965389649e+18,-1.820424199,0.6268515587,-3.19804883
1529,1.55965389654e+18,-0.9994212985,1.067285419,-2.335507154
1530,1.55965389659e+18,-0.6573367715,1.001312017,-1.104613543
1531,1.55965389664e+18,-0.1326035708,-0.3621392548,-0.4809201658
1532,1.5596538967e+18,0.318825841,0.6518970132,0.5184553862
1533,1.55965389675e+18,1.0708009,0.3397449255,1.337014794
1534,1.5596538968e+18,2.020696402,0.1986350566,2.77926755
1535,1.55965389685e+18,2.628507376,1.299414158,5.690040588
1536,1.5596538969e+18,2.674933195,-0.1196257398,7.202542782
1537,1.55965389696e+18,1.342635989,2.677526236,5.416373253
1538,1.55965389701e+18,1.135552764,-3.950972557,5.894680023
1539,1.55965389706e+18,0.7751421332,-3.877668619,1.401766539
1540,1.55965389711e+18,-0.4081037939,-1.461696625,1.165361643
1541,1.55965389716e+18,-0.9737650156,-0.3138808906,0.6913302541
1542,1.55965389722e+18,-1.253541231,0.03736662492,-0.3465298116
1543,1.55965389727e+18,-1.339062333,-0.9632306695,-1.26771462
1544,1.55965389732e+18,-1.929769158,-1.189861655,-1.810773849
1545,1.55965389737e+18,-2.847288847,0.07707286626,-2.422860861
1546,1.55965389742e+18,-3.259011984,0.511398077,-2.799764633
1547,1.55965389748e+18,-3.130730152,-0.4940861464,-3.330606461
1548,1.55965389753e+18,-3.070865393,-2.594240904,-3.607328415
1549,1.55965389758e+18,-3.397067308,-2.630281925,-3.3501544
1550,1.55965389763e+18,-2.545521259,-0.6064853668,-1.99953115
1551,1.55965389768e+18,-1.328677773,0.2639976144,-1.867584229
1552,1.55965389774e+18,-0.4343709946,2.268246651,-1.111333132
1553,1.55965389779e+18,0.1007469445,2.403858662,-0.4766440988
1554,1.55965389784e+18,0.4153425694,0.9188451767,-0.2322980016
1555,1.55965389789e+18,0.5986021161,-0.7139976025,0.04686741158
1556,1.55965389794e+18,0.7806399465,-1.341966987,0.4427081048
1557,1.559653898e+18,1.144715667,-0.7616451383,1.246606827
1558,1.55965389805e+18,1.83254993,-0.8306729198,2.101818085
1559,1.5596538981e+18,2.531379938,-1.566154718,2.390757322
1560,1.55965389815e+18,2.528325558,-1.404886246,2.131139755
1561,1.5596538982e+18,2.052461386,-0.06892392784,1.71269691
1562,1.55965389825e+18,1.67677927,1.240771174,1.200791836
1563,1.55965389831e+18,1.304151535,1.744735003,0.7970099449
1564,1.55965389836e+18,0.4715421498,2.128358364,0.632687211
1565,1.55965389841e+18,-0.2676047981,2.18944478,0.2563942075
1566,1.55965389846e+18,-0.3995516896,2.037950277,-0.3373668194
1567,1.55965389851e+18,-0.3372434378,1.380048513,-0.6880034804
1568,1.55965389857e+18,-0.3109762371,1.270703554,-0.6928904057
1569,1.55965389862e+18,-0.2443919033,0.8656998873,-0.5523914099
1570,1.55965389867e+18,-0.2364506721,-0.02616335824,-0.06064487249
1571,1.55965389872e+18,-0.1399339586,-1.132440329,0.6992715001
1572,1.55965389877e+18,0.07509060949,-0.3853521049,1.4048208
1573,1.55965389883e+18,0.09952522069,-0.5136338472,1.935051918
1574,1.55965389888e+18,0.1587791443,-1.054249525,2.698633432
1575,1.55965389893e+18,0.3450930417,-1.572874188,3.162280321
1576,1.55965389898e+18,0.2174222171,-0.9339091182,3.331489801
1577,1.55965389903e+18,0.2998889983,-0.7274366617,2.940536022
1578,1.55965389909e+18,0.2901151776,-0.02860681899,1.731633782
1579,1.55965389914e+18,-0.5510462523,0.1070052609,0.2704440951
1580,1.55965389919e+18,-5.252875805,2.520534039,4.172651291
1581,1.55965389924e+18,-3.507023096,0.3324145377,-1.036807537
1582,1.55965389929e+18,-3.987774134,1.067285419,-1.256108165
1583,1.55965389935e+18,-3.539398909,5.208951473,-3.182166338
1584,1.5596538994e+18,-1.040960193,4.478967667,-3.362371683
1585,1.55965389945e+18,0.6132628918,-1.14526844,-1.899349213
1586,1.5596538995e+18,2.209453821,1.00375545,-0.1681571454
1587,1.55965389955e+18,3.206996918,-1.227124333,1.001649737
1588,1.55965389961e+18,3.908270121,-3.1391325,1.674823284
1589,1.55965389966e+18,4.276621819,-5.716983795,2.171456814
1590,1.55965389971e+18,4.232028961,-6.632670879,0.5874831676
1591,1.55965389976e+18,3.537474871,-5.073742867,-0.0392645821
1592,1.55965389981e+18,2.725023985,-5.610082626,-0.8730956316
1593,1.55965389987e+18,1.162430763,-5.377953529,-2.225551367
1594,1.55965389992e+18,-4.00915432,-1.887469769,-2.840081692
1595,1.55965389997e+18,-2.93280983,2.630489588,-2.68492198
1596,1.55965390002e+18,-2.745884895,4.813722134,-2.271366119
1597,1.55965390007e+18,2.009700775,2.736779928,2.47444582
1598,1.55965390013e+18,2.557036161,-1.058525681,1.834869981
1599,1.55965390018e+18,1.186254501,0.4949046969,1.591134787
1600,1.55965390023e+18,-0.6298478842,1.021470547,1.121379375
1601,1.55965390028e+18,-2.21748662,0.1955807209,-0.02460381947
1602,1.55965390033e+18,-4.388502121,0.1796982288,-1.018481612
1603,1.55965390039e+18,-5.805098057,1.460682631,-1.476630449
1604,1.55965390044e+18,-5.369551182,0.1851960123,-2.629333258
1605,1.55965390049e+18,-5.616951466,-1.511176705,-2.333063364
1606,1.55965390054e+18,-5.78066349,2.292681217,-0.8425523639
1607,1.55965390059e+18,-4.317641735,3.217530966,-1.390498519
1608,1.55965390065e+18,-2.106309175,2.684245825,-1.452806711
1609,1.5596539007e+18,-0.9401674271,0.1406028569,-1.077124596
1610,1.55965390075e+18,-0.7630164623,-2.230165243,-0.7582529783
1611,1.5596539008e+18,-0.6860474944,-1.055471301,-0.3960098922
1612,1.55965390085e+18,-0.2920393944,0.6451775432,-0.1877048314
1613,1.55965390091e+18,-0.007987063378,1.228553891,-0.08202515543
1614,1.55965390096e+18,0.284006536,1.030633569,0.2111901641
1615,1.55965390101e+18,0.7164991498,0.7447485924,0.8697028756
1616,1.55965390106e+18,1.169150233,0.9194560647,1.668714643
1617,1.55965390111e+18,1.684109569,1.25237751,2.30890131
1618,1.55965390117e+18,1.750083089,1.45762825,2.711461782
1619,1.55965390122e+18,1.837436914,0.5059002638,2.826304197
1620,1.55965390127e+18,2.06101346,-0.0279959552,3.035220146
1621,1.55965390132e+18,2.115991354,-0.8447228074,3.174497604
1622,1.55965390137e+18,2.466627836,-0.6724588275,2.752389669
1623,1.55965390143e+18,1.71343112,1.832699537,1.737742424
1624,1.55965390148e+18,1.775739551,4.847930431,-1.298868775
1625,1.55965390153e+18,1.982822776,6.899215698,-2.538314104
1626,1.55965390158e+18,1.745196223,4.551049709,-2.992187262
1627,1.55965390163e+18,1.516732574,0.7355856299,-1.854756117
1628,1.55965390169e+18,1.128833175,-6.45674181,1.514776587
1629,1.55965390174e+18,-1.422140121,8.71898365,0.2215748727
1630,1.55965390179e+18,0.9645104408,-2.577136755,-3.009902239
1631,1.55965390184e+18,-0.8167726398,-1.836767912,-2.934154987
1632,1.55965390189e+18,-1.277975917,1.673263788,-2.74784112
1633,1.55965390195e+18,-0.8338769078,-1.521561503,-1.687989831
1634,1.559653902e+18,-0.9584934115,-0.2155315876,0.8324401379
1635,1.55965390205e+18,-0.9707106948,-0.4879774749,2.293629885
1636,1.5596539021e+18,-0.743468821,-3.16845417,3.625315905
1637,1.55965390215e+18,0.1703855842,-4.096969128,3.78230834
1638,1.55965390221e+18,-0.05868887529,-2.048738241,4.609419823
1639,1.55965390226e+18,1.062248945,-3.89355135,4.170207977
1640,1.55965390231e+18,1.806893587,-4.264346123,4.558107376
1641,1.55965390236e+18,2.469071627,-3.949750662,4.273443699
1642,1.55965390241e+18,2.679209232,-3.131191492,4.107899189
1643,1.55965390247e+18,2.351174593,-3.021846533,3.612487793
1644,1.55965390252e+18,1.467863441,-3.080489397,1.754846692
1645,1.55965390257e+18,0.2815630436,-3.850179672,-0.2005330026
1646,1.55965390262e+18,-1.153970242,-4.465321064,-1.532830119
1647,1.55965390267e+18,-4.280378342,-0.9247461557,-4.111903191
1648,1.55965390273e+18,-1.817980886,4.645733833,-3.228592157
1649,1.55965390278e+18,-0.7850076556,5.748345852,-1.498621702
1650,1.55965390283e+18,1.53444767,0.6305167675,3.000400782
1651,1.55965390288e+18,1.860649824,-3.478773594,1.869078517
1652,1.55965390293e+18,0.4232838154,-1.03286922,2.288743019
1653,1.55965390299e+18,-2.329274893,0.06729902327,1.317467213
1654,1.55965390304e+18,-5.178350449,-0.3425915539,0.0505326055
1655,1.55965390309e+18,-7.796519279,0.4435920119,-0.9903817773
1656,1.55965390314e+18,-8.514896393,2.193109989,-1.385611534
1657,1.55965390319e+18,-7.949846268,3.920026064,-2.90666604
1658,1.55965390325e+18,-6.666418552,4.780124664,-2.867570639
1659,1.5596539033e+18,-3.232744694,3.639028072,-3.247528791
1660,1.55965390335e+18,-1.374492645,-0.3963477015,-1.42653954
1661,1.5596539034e+18,-0.7294189334,-1.950999737,-0.5572783351
1662,1.55965390345e+18,-0.5290551186,-1.346853971,-0.2274110913
1663,1.55965390351e+18,-0.1527621299,0.4582527876,-0.1327269673
1664,1.55965390356e+18,0.08425358683,1.04346168,-0.1773201227
1665,1.55965390361e+18,0.2815630436,0.8479847908,-0.01849516667
1666,1.55965390366e+18,0.7189425826,0.2242913991,0.4164408743
1667,1.55965390371e+18,1.202747822,-0.4861449003,1.071288466
1668,1.55965390377e+18,1.726259351,-0.7512603998,1.545930743
1669,1.55965390382e+18,2.073230743,0.0996748805,1.999803543
1670,1.55965390387e+18,2.058570147,0.5798149705,2.30523634
1671,1.55965390392e+18,1.883862495,0.605471313,2.497047901
1672,1.55965390397e+18,1.724426746,0.5987517834,2.42130065
1673,1.55965390403e+18,1.482524157,0.6726664901,2.252701998
1674,1.55965390408e+18,1.301097155,0.690992415,1.855639458
1675,1.55965390413e+18,1.32247746,0.8675324917,1.547152519
1676,1.55965390418e+18,1.480691552,0.1375485212,1.549595952
1677,1.55965390423e+18,1.722594142,-0.5240185261,1.780502915
1678,1.55965390429e+18,1.963886023,-0.5191316009,1.57708478
1679,1.55965390434e+18,1.806282759,-0.1037432477,2.061501026
1680,1.55965390439e+18,2.219227552,-1.513009429,2.038898945
1681,1.55965390444e+18,2.070176601,-1.691381931,2.591121197
1682,1.55965390449e+18,2.192349672,-3.912487984,1.863580704
1683,1.55965390455e+18,1.59064734,-2.103105307,1.140316129
1684,1.5596539046e+18,1.206413031,1.499778032,1.217285275
1685,1.55965390465e+18,0.9602344036,0.991538167,2.694357395
1686,1.5596539047e+18,0.8288983107,-4.861772537,2.124420166
1687,1.55965390475e+18,0.7006166577,0.0752402693,2.646099091
1688,1.55965390481e+18,-1.398927212,1.458850145,2.110980988
1689,1.55965390486e+18,-1.701305509,-0.3945150971,0.07374548167
1690,1.55965390491e+18,-1.899225831,1.473510861,-0.5688847899
1691,1.55965390496e+18,-1.662210226,1.761839271,-0.5230698586
1692,1.55965390501e+18,-0.3653432429,0.9762665033,0.6223024726
1693,1.55965390507e+18,0.03355177492,-2.600960493,0.6522348523
1694,1.55965390512e+18,-0.6487847567,-3.215490818,-0.3642449081
1695,1.55965390517e+18,-0.4612490833,-5.603974342,-1.994033337
1696,1.55965390522e+18,-1.606010556,-6.68520546,-4.138170242
1697,1.55965390527e+18,-4.49906826,0.451533258,-3.8938241
1698,1.55965390533e+18,-1.980470896,5.557755947,-2.690419674
1699,1.55965390538e+18,1.28582561,9.169801712,-0.9531190395
1700,1.55965390543e+18,1.138607025,0.3354688585,1.030971289
1701,1.55965390548e+18,0.3731928468,-3.797034502,0.7481406927
1702,1.55965390553e+18,-1.533317685,0.4606962204,0.5141793489
1703,1.55965390559e+18,-4.087955952,3.383075714,0.2594485283
1704,1.55965390564e+18,-5.543036938,3.794188023,-2.276253223
1705,1.55965390569e+18,-5.505774498,2.228540182,-4.47658968
1706,1.55965390574e+18,-4.797781467,0.4222117364,-4.601817131
1707,1.55965390579e+18,-4.211961746,3.872378588,-4.277447701
1708,1.55965390585e+18,-2.723894119,6.589507103,-4.1351161
1709,1.5596539059e+18,-1.196730852,3.992718935,-4.144279003
1710,1.55965390595e+18,-0.4142124653,-0.8661031127,-2.264646769
1711,1.559653906e+18,-0.4862945676,-4.578330994,-0.6220300198
1712,1.55965390605e+18,-0.5369963646,-4.939352512,0.07618895173
1713,1.55965390611e+18,-0.1234406009,-3.897827387,0.423160404
1714,1.55965390616e+18,0.3316540122,-1.166648746,0.7328690886
1715,1.55965390621e+18,0.4391662776,0.8107220531,0.8458791375
1716,1.55965390626e+18,0.4690986872,0.981764257,0.7530276775
1717,1.55965390631e+18,0.7195534706,0.01720807515,0.8049511909
1718,1.55965390637e+18,1.053085804,-0.2668442726,1.426201224
1719,1.55965390642e+18,1.66028583,-0.2815050483,2.266140938
1720,1.55965390647e+18,2.036578894,0.7679615021,2.670533657
1721,1.55965390652e+18,2.185019255,1.705639601,2.996124744
1722,1.55965390657e+18,2.263820887,0.9469450116,2.855625629
1723,1.55965390663e+18,2.226558208,-0.01028086152,2.771326303
1724,1.55965390668e+18,2.070176601,-0.3487001956,2.559356213
1725,1.55965390673e+18,1.92173624,-0.7549256086,2.563021183
1726,1.55965390678e+18,1.696326971,-0.5484531522,2.30890131
1727,1.55965390683e+18,1.787346005,-0.8599944711,1.954599619
1728,1.55965390689e+18,1.766576409,-0.7311018705,1.389549136
1729,1.55965390694e+18,1.547275901,-0.2711203396,0.8409922719
1730,1.55965390699e+18,0.9406866431,-0.3596957624,0.1879772842
1731,1.55965390704e+18,-0.01348484959,-0.1886535138,-0.5200154781
1732,1.55965390709e+18,-1.244378328,0.7490246296,-0.8999736905
1733,1.55965390715e+18,-4.818550587,1.867518902,0.6174155474
1734,1.5596539072e+18,-1.981081843,-0.6180918217,-3.362982512
1735,1.55965390725e+18,-3.155164719,1.138756752,-3.122912407
1736,1.5596539073e+18,-2.824686766,3.33848238,-3.75088191
1737,1.55965390735e+18,-1.062340498,2.628656864,-4.023327827
1738,1.55965390741e+18,-0.8039444685,1.675707221,-3.027006626
1739,1.55965390746e+18,-0.6829931736,0.8259936571,-1.094228864
1740,1.55965390751e+18,-0.1826945245,-0.4757601917,-0.003834401025
1741,1.55965390756e+18,-0.2559983432,-0.3444241583,0.380399853
1742,1.55965390761e+18,-0.2657721937,-0.4030672014,0.6833889484
1743,1.55965390766e+18,-0.2804329395,-0.3884064555,1.261267543
1744,1.55965390772e+18,0.5515654683,-2.155639648,2.233764887
1745,1.55965390777e+18,1.271164775,-0.9662849903,3.248412132
1746,1.55965390782e+18,1.795287132,-2.002312422,3.704117775
1747,1.55965390787e+18,2.531990767,-3.174562693,3.823236227
1748,1.55965390792e+18,1.990764022,-3.828188658,4.065749645
1749,1.55965390798e+18,1.115394115,-4.841614246,3.50069952
1750,1.55965390803e+18,0.7586488128,-3.977850676,2.376096725
1751,1.55965390808e+18,0.3927405477,-4.404234409,0.9087982774
1752,1.55965390813e+18,0.8062963486,-6.16169405,-1.317805529
1753,1.55965390818e+18,-0.779509902,-3.088430882,-1.546880007
1754,1.55965390824e+18,-3.312157154,-0.303496182,-3.227981091
1755,1.55965390829e+18,-1.474063635,3.59382391,-0.9958795905
1756,1.55965390834e+18,2.045742035,10.34632778,-1.667831302
1757,1.55965390839e+18,1.720150709,1.061176777,1.577695727
1758,1.55965390844e+18,0.9919993281,-3.481217384,1.5966326
1759,1.5596539085e+18,-0.743468821,-1.660227895,0.7438646555
1760,1.55965390855e+18,-3.311546326,0.9976468086,1.230724216
1761,1.5596539086e+18,-5.017693043,1.994578838,0.1415515244
1762,1.55965390865e+18,-5.968199253,2.498542786,-0.9799970984
1763,1.5596539087e+18,-5.566249847,0.8773063421,-2.347113609
1764,1.55965390876e+18,-5.238215446,-0.08480641991,-2.546255589
1765,1.55965390881e+18,-4.86741972,2.684856653,-1.988535523
1766,1.55965390886e+18,-4.434316635,3.823509455,-2.264646769
1767,1.55965390891e+18,-2.943194628,3.065425634,-1.940888047
1768,1.55965390896e+18,-1.262093425,0.04286441579,-1.476630449
1769,1.55965390902e+18,-0.7465231419,-2.314464569,-0.113790147
1770,1.55965390907e+18,-0.3604562879,-2.333401442,0.2502855361
1771,1.55965390912e+18,0.04882340506,-1.326084614,0.3968932033
1772,1.55965390917e+18,0.4733747542,0.247504279,0.4653101265
1773,1.55965390922e+18,0.8496677279,1.119208932,0.4671427011
1774,1.55965390928e+18,0.9541256428,1.664711714,0.4237712622
1775,1.55965390933e+18,1.006049275,1.453352332,0.6113069057
1776,1.55965390938e+18,1.100733399,0.6421232224,0.9607217908
1777,1.55965390943e+18,1.065303206,-0.1122953594,1.333960414
1778,1.55965390948e+18,1.154489517,0.2725497484,1.816544056
1779,1.55965390954e+18,1.414107203,0.940225482,2.071274996
1780,1.55965390959e+18,1.34569025,0.3941119313,2.233154058
1781,1.55965390964e+18,1.376233697,-0.5698334575,2.214217186
1782,1.55965390969e+18,1.816667438,-0.2943331897,2.288743019
1783,1.55965390974e+18,2.409206867,-0.05792835355,2.570351839
1784,1.5596539098e+18,2.673711538,-0.1471146643,2.569741011
1785,1.55965390985e+18,2.739073992,-0.9143614769,2.250869036
1786,1.5596539099e+18,2.327961683,-0.7005586028,2.167791605
1787,1.55965390995e+18,1.552162766,-0.3768000305,1.716362238
1788,1.55965391e+18,0.7152774334,0.5303348899,1.212398291
1789,1.55965391006e+18,0.1147968546,1.62622714,0.07741067559
1790,1.55965391011e+18,-0.5205029845,2.844903231,-1.257940769
1791,1.55965391016e+18,-0.2792112529,2.299400568,-3.067323446
1792,1.55965391021e+18,-0.4551404119,4.092900753,-3.913982868
1793,1.55965391026e+18,-3.924244165,1.221223474,-2.86390543
1794,1.55965391032e+18,-1.979249239,1.744124174,-4.364190578
1795,1.55965391037e+18,-1.35677743,-2.491004705,-3.260356903
1796,1.55965391042e+18,-1.778885365,0.452144146,-3.287235022
1797,1.55965391047e+18,-1.321958303,1.741069794,-3.538911581
1798,1.55965391052e+18,-1.042792797,-0.5484531522,-3.549296379
1799,1.55965391058e+18,-0.9493303895,0.9744338989,-2.349556923
1800,1.55965391063e+18,-0.8167726398,1.266427517,-1.520612836
1801,1.55965391068e+18,-0.5938068032,-0.1367299706,-0.1834287941
1802,1.55965391073e+18,-0.2779895067,-0.07869777083,0.4769165218
1803,1.55965391078e+18,0.1294576079,-0.9210809469,0.9985954762
1804,1.55965391084e+18,0.3585320711,-1.561267734,1.396879673
1805,1.55965391089e+18,0.9370214939,-0.783636272,1.938717008
1806,1.55965391094e+18,1.390894413,-0.5191316009,2.784154654
1807,1.55965391099e+18,1.764133096,-2.715802908,4.153103352
1808,1.55965391104e+18,2.665770054,-3.936311722,4.124392986
1809,1.5596539111e+18,2.819097519,-4.046267509,4.200750828
1810,1.55965391115e+18,3.483718634,-3.954026937,3.737104177
1811,1.5596539112e+18,3.801368713,-4.949737072,3.329657316
1812,1.55965391125e+18,3.588787556,-3.879501104,1.841589451
1813,1.5596539113e+18,2.62056613,-2.967479467,1.887404442
1814,1.55965391136e+18,1.655399084,-2.596073389,1.189185381
1815,1.55965391141e+18,0.4605465829,-2.52948904,0.3376392722
1816,1.55965391146e+18,-0.3598454595,-2.837975979,0.05358693376
1817,1.55965391151e+18,-0.8925199509,-3.406691551,-0.6556276083
1818,1.55965391156e+18,-3.481366873,-1.270495892,-2.348946095
1819,1.55965391162e+18,-2.111196041,2.175395012,-3.848620415
1820,1.55965391167e+18,-2.496041298,-1.431153417,-3.578006744
1821,1.55965391172e+18,-0.6591694355,9.747680664,2.081659317
1822,1.55965391177e+18,0.851500392,0.8009482026,2.385259628
1823,1.55965391182e+18,0.9107542634,-4.492199421,1.104275107
1824,1.55965391188e+18,-0.7055951357,-4.701115131,0.1885881573
1825,1.55965391193e+18,-3.929741859,-1.324252009,0.8452683091
1826,1.55965391198e+18,-7.00605917,2.126525879,0.4420972168
1827,1.55965391203e+18,-7.565611839,3.887039423,-0.08874467015
1828,1.55965391208e+18,-6.401302814,0.4894069135,-3.414295197
1829,1.55965391214e+18,-7.37685442,-1.205744147,-1.971431375
1830,1.55965391219e+18,-7.217418671,3.509524584,-1.649505377
1831,1.55965391224e+18,-2.062937737,3.203481197,-1.56887126
1832,1.55965391229e+18,-1.120983481,0.750246346,0.5722115636
1833,1.55965391234e+18,-0.6597802639,-1.470859647,-0.0001692096703
1834,1.5596539124e+18,-0.3818365932,-1.022484541,-0.131505236
1835,1.55965391245e+18,0.02927571721,0.3556274176,-0.121731393
1836,1.5596539125e+18,0.3683059514,0.8711977005,-0.1651028246
1837,1.55965391255e+18,0.6963405609,0.5150632262,-0.05148189142
1838,1.5596539126e+18,1.245508432,-0.07625430822,0.4976859689
1839,1.55965391266e+18,1.837436914,-0.7139976025,1.004704118
1840,1.55965391271e+18,2.287033796,-0.1788796633,1.317467213
1841,1.55965391276e+18,2.378052473,1.314685941,1.671768904
1842,1.55965391281e+18,2.113547802,2.150960445,2.005912304
1843,1.55965391286e+18,1.613249302,1.575525284,1.989418983
1844,1.55965391292e+18,1.062859774,0.3220298588,1.600908518
1845,1.55965391297e+18,0.5112484097,-0.3151026368,1.236222029
1846,1.55965391302e+18,0.2094809562,-0.1959839016,1.156809568
1847,1.55965391307e+18,0.06470590085,0.400831461,0.8532095551
1848,1.55965391312e+18,-0.157038182,1.307966352,0.6870542169
1849,1.55965391318e+18,-0.09106473625,0.991538167,0.5044054985
1850,1.55965391323e+18,-0.07090618461,0.4625288248,0.3168698549
1851,1.55965391328e+18,0.08730791509,0.1693135202,0.4286582172
1852,1.55965391333e+18,0.2620153725,0.219404459,0.6106960177
1853,1.55965391338e+18,0.3988491893,-0.3609175086,0.9271242023
1854,1.55965391344e+18,0.6511365175,-0.8318945765,1.175746322
1855,1.55965391349e+18,0.8020202518,-0.7866905928,1.775005221
1856,1.55965391354e+18,1.331640363,-1.489796519,1.905119538
1857,1.55965391359e+18,1.480080724,-1.619299889,1.899621725
1858,1.55965391364e+18,1.370735884,-1.101286173,1.717583895
1859,1.5596539137e+18,0.9828363657,1.019027114,1.177578926
1860,1.55965391375e+18,0.728105545,3.190653086,0.3419153094
1861,1.5596539138e+18,0.6419735551,4.43132019,-1.113776565
1862,1.55965391385e+18,1.221684694,3.423392534,-3.116192818
1863,1.5596539139e+18,1.564990997,3.598100185,-4.269506454
1864,1.55965391396e+18,0.1801594347,2.849179506,-3.930476427
1865,1.55965391401e+18,-0.5638744235,-7.961302757,-5.04225111
1866,1.55965391406e+18,-1.155802846,-1.913126111,-3.807081223
1867,1.55965391411e+18,-1.87295866,-1.281491399,-1.467467546
1868,1.55965391416e+18,-1.493000507,-0.4073432684,-1.898738384
1869,1.55965391422e+18,-1.438633442,-0.9687284827,-1.507173777
1870,1.55965391427e+18,-1.426416159,-1.533778787,-0.9201322794
1871,1.55965391432e+18,-1.056842685,-1.980932117,-0.7423704863
1872,1.55965391437e+18,-0.5944177508,0.4442028701,-0.6012606025
1873,1.55965391442e+18,-0.03058907762,1.811319351,0.7982316613
1874,1.55965391448e+18,0.2791196108,-0.193540439,1.541654706
1875,1.55965391453e+18,0.6205932498,-0.2106446624,1.266154408
1876,1.55965391458e+18,0.8197353482,-0.4940861464,1.300362945
1877,1.55965391463e+18,1.017044783,-0.9253569841,0.8904722929
1878,1.55965391468e+18,1.010325313,-0.901533246,0.8690920472
1879,1.55965391474e+18,1.035981655,-0.08358469605,0.7554710507
1880,1.55965391479e+18,0.7647574544,0.4258769155,0.6186372638
1881,1.55965391484e+18,0.5863848329,0.03553403169,0.388341099
1882,1.55965391489e+18,0.2589610517,-0.05365229398,0.2985438704
1883,1.55965391494e+18,0.0408821553,-0.09641286731,0.03403924406
1884,1.55965391499e+18,-0.1228297278,-0.01700037904,-0.04048631713
1885,1.55965391505e+18,-0.1802510619,-0.0157786496,-0.0392645821
1886,1.5596539151e+18,-0.1148884818,0.0856249854,-0.08691207319
1887,1.55965391515e+18,-0.1741424054,0.2658302188,-0.1406682134
1888,1.5596539152e+18,-0.1600925177,-0.09091507643,-0.1260074526
1889,1.55965391525e+18,-0.168644622,-0.2460748404,-0.1382247657
1890,1.55965391531e+18,-0.1338253021,-0.09946718812,-0.1400573552
1891,1.55965391536e+18,-0.08801040798,-0.1801013947,-0.1168444753
1892,1.55965391541e+18,-0.01653917693,-0.4012346268,0.01998934336
1893,1.55965391546e+18,0.08058839291,-0.3218221366,0.1012344211
1894,1.55965391551e+18,0.2528524101,0.2865996361,0.3180915713
1895,1.55965391557e+18,0.4232838154,0.04408614337,0.666895628
1896,1.55965391562e+18,0.8747131824,0.1118921861,0.8147250414
1897,1.55965391567e+18,1.348744631,0.5718737245,1.594799876
1898,1.55965391572e+18,1.701213837,-0.3713022172,2.087157249
1899,1.55965391577e+18,2.108661175,-1.36029315,2.919155836
1900,1.55965391583e+18,2.497171402,-2.058511972,3.614320517
1901,1.55965391588e+18,2.500225544,-2.732296467,3.83178854
1902,1.55965391593e+18,2.750680447,-3.786649942,3.292394638
1903,1.55965391598e+18,2.64744401,-4.403623581,2.410305023
1904,1.55965391603e+18,1.967551112,-3.988235235,1.795163751
1905,1.55965391609e+18,0.851500392,-3.934479237,1.757900953
1906,1.55965391614e+18,0.5741675496,-5.747527122,0.632076323
1907,1.55965391619e+18,-0.8790809512,-3.720065355,-0.868208766
1908,1.55965391624e+18,-4.159427166,-0.8825964332,-3.330606461
1909,1.55965391629e+18,-1.664042711,3.95118022,-3.162007809
1910,1.55965391635e+18,-2.543688774,4.764241695,-2.887729168
1911,1.5596539164e+18,-0.05746714771,8.764187813,2.42130065
1912,1.55965391645e+18,1.147770047,-0.4415517151,1.741407633
1913,1.5596539165e+18,0.5130810142,-2.431750774,1.24905014
1914,1.55965391655e+18,-1.077612042,-2.875849724,0.2692223489
1915,1.55965391661e+18,-3.413560867,-1.675499558,-0.1247857213
1916,1.55965391666e+18,-5.59740448,0.5743172169,-0.3587470949
1917,1.55965391671e+18,-6.094037533,1.726409078,-0.8046787381
1918,1.55965391676e+18,-5.530209064,-1.904573917,-2.194397211
1919,1.55965391681e+18,-5.563195705,-1.137938142,-1.359344363
1920,1.55965391687e+18,-5.57174778,3.135674953,-0.9909926057
1921,1.55965391692e+18,-4.725088596,4.191861153,-1.537106156
1922,1.55965391697e+18,-2.953579426,2.651869774,-1.501676083
1923,1.55965391702e+18,-1.550421715,-0.2900571525,-0.6379125118
1924,1.55965391707e+18,-1.025077581,-2.498945713,0.2252400666
1925,1.55965391713e+18,-0.531498611,-2.803156853,0.375512898
1926,1.55965391718e+18,-0.08556694537,-0.9540677071,0.4213278294
1927,1.55965391723e+18,0.3121063113,0.5162850022,0.427436471
1928,1.55965391728e+18,0.6089867949,0.4814656675,0.2643354535
1929,1.55965391733e+18,0.9431301355,-0.1788796633,0.1580448896
1930,1.55965391739e+18,1.361572862,-0.8630487919,0.104899615
1931,1.55965391744e+18,1.693883538,-0.9406285882,0.030374052
1932,1.55965391749e+18,1.90218854,0.7997264266,0.1849229634
1933,1.55965391754e+18,1.760467768,2.675693512,0.6497913599
1934,1.55965391759e+18,1.450148344,3.044656277,0.8837528229
1935,1.55965391765e+18,1.137996078,2.182114601,0.9246807694
1936,1.5596539177e+18,0.7268838286,1.118598104,0.8819202185
1937,1.55965391775e+18,0.2577393055,0.5724845529,0.7059910297
1938,1.5596539178e+18,-0.07701484114,0.1827525496,0.5819853544
1939,1.55965391785e+18,-0.2278985381,0.3953336477,0.490966469
1940,1.55965391791e+18,-0.3451846838,0.6757208109,0.3107612133
1941,1.55965391796e+18,-0.4844619334,0.5486608148,0.2826614082
1942,1.55965391801e+18,-0.4899597466,-0.1208474711,0.3852867782
1943,1.55965391806e+18,-0.3775605559,-0.4256692231,0.4897447228
1944,1.55965391811e+18,-0.149096936,-0.2796724141,0.7328690886
1945,1.55965391817e+18,0.3793015182,-0.8972572088,1.06029284
1946,1.55965391822e+18,0.9076999426,-0.885650754,1.680321097
1947,1.55965391827e+18,1.731146216,-0.09824545681,2.299738407
1948,1.55965391832e+18,2.134317398,-0.09274767339,2.423133373
1949,1.55965391837e+18,2.250381947,0.2988169491,2.039509773
1950,1.55965391843e+18,1.436098337,2.496099234,1.202013493
1951,1.55965391848e+18,0.4263381362,2.077045679,0.5496094823
1952,1.55965391853e+18,-1.427637935,0.1057835296,1.211787462
1953,1.55965391858e+18,-0.2272876948,-4.918582916,-0.9977121353
1954,1.55965391863e+18,-2.605386019,2.727006435,0.2130227685
1955,1.55965391869e+18,-2.126467705,0.9976468086,-1.369729161
1956,1.55965391874e+18,-1.426416159,0.3305819333,-2.430802107
1957,1.55965391879e+18,-1.073946953,1.124706745,-1.836430192
1958,1.55965391884e+18,-0.2578309774,0.02881451324,-0.7594747543
1959,1.55965391889e+18,1.131887436,-1.602806568,0.7902904153
1960,1.55965391895e+18,2.345676661,-2.518493652,2.066387892
1961,1.559653919e+18,3.009076357,-5.892302036,2.541030169
1962,1.55965391905e+18,3.43179512,-4.634530544,1.818987608
1963,1.5596539191e+18,3.298015594,-4.68767643,1.031582117
1964,1.55965391915e+18,2.670656919,-4.057263374,0.6442936659
