,Time (s),Gyroscope x (rad/s),Gyroscope y (rad/s),Gyroscope z (rad/s)
0,1.55965411805e+18,0.03721696511,0.1149465069,0.03587184101
1,1.5596541181e+18,0.04699081182,0.2859887779,0.01388069056
2,1.55965411816e+18,0.01522581559,0.809500277,-0.01605170593
3,1.55965411821e+18,-0.4032168984,2.7856493,-0.1779309958
4,1.55965411826e+18,-0.982927978,4.940170765,-0.1296726316
5,1.55965411831e+18,-2.02567482,6.510705471,-0.6446320415
6,1.55965411836e+18,-2.134408951,7.632865429,-1.289705634
7,1.55965411842e+18,-0.9719324112,5.350061417,-1.804665208
8,1.55965411847e+18,-0.1655903012,1.15952611,-1.749687314
9,1.55965411852e+18,-0.5589874983,2.44112134,-1.492513061
10,1.55965411857e+18,-0.3256369829,4.147268295,-1.263438463
11,1.55965411862e+18,0.3542560339,1.650661707,-1.314140439
12,1.55965411868e+18,0.9394649267,-0.6064853668,0.324811101
13,1.55965411873e+18,1.348133802,-0.02066557109,2.261864662
14,1.55965411878e+18,2.474569321,-1.960162759,3.93441391
15,1.55965411883e+18,3.134303808,-2.863632441,5.065736294
16,1.55965411888e+18,3.312065363,-4.176382065,4.624691486
17,1.55965411894e+18,3.31573081,-4.520298958,2.735285282
18,1.55965411899e+18,1.454424262,-3.090874195,1.544098139
19,1.55965411904e+18,0.002397646196,-0.7188845277,1.197737575
20,1.55965411909e+18,-0.7892836928,1.384324431,1.252715468
21,1.55965411914e+18,-0.004321871791,-1.794618249,1.250882864
22,1.5596541192e+18,1.354242444,-4.211812019,0.9460610151
23,1.55965411925e+18,1.313925266,-3.390198231,0.718819201
24,1.5596541193e+18,0.4623791873,-1.323030233,0.718819201
25,1.55965411935e+18,-0.1747532785,0.853482604,0.68277812
26,1.5596541194e+18,-0.2718808651,1.295749068,0.2099684328
27,1.55965411946e+18,-0.03730859235,1.00375545,0.08290845901
28,1.55965411951e+18,0.05737552047,0.3880032599,-0.05026016012
29,1.55965411956e+18,-0.2352289259,-0.09702372551,-0.05636881292
30,1.55965411961e+18,-0.5327203274,0.4955155551,0.1843120903
31,1.55965411966e+18,-0.4465883076,-0.04937623441,-0.006888727192
32,1.55965411972e+18,-0.1619251072,0.2084088922,0.1891990155
33,1.55965411977e+18,0.1819920391,-0.2943331897,0.2289052606
34,1.55965411982e+18,0.6358649135,-1.224070072,0.1268907636
35,1.55965411987e+18,0.7195534706,-0.9119179845,0.3706260026
36,1.55965411992e+18,0.4458858073,-1.104951382,0.3296980262
37,1.55965411998e+18,0.0482125394,-2.136702776,-0.582934618
38,1.55965412003e+18,-0.5938068032,-3.746943712,-1.983037829
39,1.55965412008e+18,-2.806971788,-1.980321288,-3.676967144
40,1.55965412013e+18,-3.501525402,3.491198778,-5.368453026
41,1.55965412018e+18,-2.226038933,2.67630434,-0.5432283878
42,1.55965412024e+18,2.937605143,0.5223936439,2.696800709
43,1.55965412029e+18,2.108050108,-2.414646387,1.988808036
44,1.55965412034e+18,-1.020190835,5.197956085,0.1659861356
45,1.55965412039e+18,-1.637164712,0.314699471,-1.373394251
46,1.55965412044e+18,-1.771555066,0.3379123211,0.01632415131
47,1.5596541205e+18,-1.172907114,-0.5655573606,0.8904722929
48,1.55965412055e+18,-0.9407783151,-1.878306746,1.721248984
49,1.5596541206e+18,-1.13442266,-1.873419762,1.772561789
50,1.55965412065e+18,-1.430081248,-1.618078232,2.217271805
51,1.5596541207e+18,-1.144196391,-1.918013096,2.184895754
52,1.55965412076e+18,-0.9481087327,-0.9119179845,2.264308453
53,1.55965412081e+18,-0.4349818826,-0.8471662402,2.257588625
54,1.55965412086e+18,0.05065600201,0.08379238844,1.816544056
55,1.55965412091e+18,0.1404531896,0.5211718678,1.323575854
56,1.55965412096e+18,0.2271960676,0.7710158229,0.5703788996
57,1.55965412102e+18,0.3365409374,0.8082785606,-0.1266183108
58,1.55965412107e+18,0.1483944356,1.642720461,-0.687392652
59,1.55965412112e+18,-0.5394397974,3.833283186,-1.172419548
60,1.55965412117e+18,-0.8583114743,5.270038128,-2.132699728
61,1.55965412122e+18,-0.4136016071,4.654285908,-1.659279227
62,1.55965412127e+18,-0.5571548939,3.443551302,-2.569468498
63,1.55965412133e+18,-0.8784700036,3.711721182,-2.078943491
64,1.55965412138e+18,-0.8864113092,2.489990473,-1.563984275
65,1.55965412143e+18,-0.8027226925,0.991538167,-1.111333132
66,1.55965412148e+18,-0.7630164623,0.5547694564,-0.627527833
67,1.55965412153e+18,-0.7220885754,-0.1000780538,-0.882258594
68,1.55965412159e+18,-0.4270406067,-1.289432764,-1.341629267
69,1.55965412164e+18,-0.4129907191,-1.321197629,-1.44669807
70,1.55965412169e+18,-0.5858656168,-0.6205351949,-1.584142804
71,1.55965412174e+18,-0.8271573782,0.2652193606,-1.644618392
72,1.55965412179e+18,-1.049512386,1.234662533,-1.835208416
73,1.55965412185e+18,-0.821659565,1.354392052,-2.165075779
74,1.5596541219e+18,-0.6176305413,0.2010785043,-1.684324741
75,1.55965412195e+18,-0.5638744235,-0.1947621554,-1.295814395
76,1.559654122e+18,-0.4643034041,-0.4537690282,-1.017259836
77,1.55965412205e+18,-0.404438585,-0.2686768472,-0.7350401282
78,1.55965412211e+18,-0.4765206873,0.2817127407,-0.7570312619
79,1.55965412216e+18,-0.4545295835,0.9805425406,-0.7466465235
80,1.55965412221e+18,-0.4942358136,1.360500693,-0.7289314866
81,1.55965412226e+18,-0.494846642,1.187015057,-0.6183648705
82,1.55965412231e+18,-0.3470172584,0.5529369116,-0.2909410596
83,1.55965412237e+18,-0.1484860629,-0.1434494853,0.05908472091
84,1.55965412242e+18,0.02438879572,-0.2760072351,0.202638045
85,1.55965412247e+18,0.173439905,0.007434229832,0.2038597912
86,1.55965412252e+18,0.1545030922,0.259110719,0.1000126898
87,1.55965412257e+18,0.0347735025,0.3580708802,0.02487626486
88,1.55965412263e+18,-0.03119994141,0.3116451204,-0.04781670123
89,1.55965412268e+18,-0.0672409907,-0.05731748417,-0.08996640146
90,1.55965412273e+18,-0.02631301992,-0.4158953726,-0.07408390939
91,1.55965412278e+18,0.06104071066,-0.354808867,0.03709357232
92,1.55965412283e+18,0.1086882055,-0.01028086152,0.1323885471
93,1.55965412289e+18,0.1190729067,0.21573928,0.187366426
94,1.55965412294e+18,-0.02570215613,-0.08724988252,0.05358693376
95,1.55965412299e+18,-0.009819659404,-0.1214583367,0.02670885995
96,1.55965412304e+18,-0.02386956103,-0.05792835355,0.03587184101
97,1.55965412309e+18,-0.04830417037,-0.009669996798,-0.05820140988
98,1.55965412315e+18,-0.05196936056,0.1131139174,-0.1113466844
99,1.5596541232e+18,-0.07762569934,0.1344942003,-0.1504420638
100,1.55965412325e+18,-0.05807801336,0.1638157368,-0.1479986012
101,1.5596541233e+18,-0.05746714771,-0.006615670864,-0.113790147
102,1.55965412335e+18,-0.01409571525,0.09662055224,-0.05270362273
103,1.55965412341e+18,-0.009208793752,0.1748113036,-0.05026016012
104,1.55965412346e+18,0.004230241757,0.1619831324,-0.08263601363
105,1.55965412351e+18,0.004230241757,0.1143356487,-0.07164043933
106,1.55965412356e+18,0.02377793007,0.09295536578,-0.03315593302
107,1.55965412361e+18,0.03538436815,0.152820155,0.02243280411
108,1.55965412367e+18,0.01217149012,0.1662591994,0.06641510129
109,1.55965412372e+18,-0.05135849491,0.08501411229,0.08229760081
110,1.55965412377e+18,-0.09961685538,-0.1452820748,0.0242653992
111,1.55965412382e+18,-0.07823656499,-0.359084934,0.02243280411
112,1.55965412387e+18,-0.01898263767,-0.3487001956,0.06824769825
113,1.55965412393e+18,0.05187772959,-0.2069794834,0.06091731787
114,1.55965412398e+18,0.1233489588,0.003769038711,0.007161173504
115,1.55965412403e+18,0.1569465548,0.2542237937,-0.01238651481
116,1.55965412408e+18,0.2662914395,0.4411485493,-0.00139094016
117,1.55965412413e+18,0.279730469,0.8479847908,0.03709357232
118,1.55965412419e+18,0.1007469445,0.7972829938,0.07252375782
119,1.55965412424e+18,0.2381916344,0.2413956076,-0.1657136828
120,1.55965412429e+18,0.2730109692,0.01659720764,-0.0759164989
121,1.55965412434e+18,0.08669704944,0.4900177717,0.09879095852
122,1.55965412439e+18,0.03049744852,1.100272059,-0.06614265591
123,1.55965412445e+18,-0.02448042482,0.4851308465,-0.2768911719
124,1.5596541245e+18,-0.1435991526,-0.04998710379,-0.3801273704
125,1.55965412455e+18,-0.08862127364,0.3702881634,-0.4247205555
126,1.5596541246e+18,-0.03303254023,0.5975300074,-0.284832418
127,1.55965412465e+18,-0.02814561687,0.8516499996,-0.1479986012
128,1.55965412471e+18,-0.02203696407,0.8595912457,-0.1150118783
129,1.55965412476e+18,-0.007987063378,0.4026640356,-0.1657136828
130,1.55965412481e+18,0.0653167665,0.2762149274,-0.1486094594
131,1.55965412486e+18,0.05248859897,0.6372363567,-0.09302072972
132,1.55965412491e+18,0.06042984501,0.5926431417,-0.06675352156
133,1.55965412497e+18,0.06042984501,0.2084088922,-0.04170804471
134,1.55965412502e+18,0.1031904146,0.1259420812,0.08535192162
135,1.55965412507e+18,0.1325119436,0.3000386953,0.1940859407
136,1.55965412512e+18,0.1373988688,0.4026640356,0.2044706494
137,1.55965412517e+18,0.1502270401,0.498569876,0.1794251651
138,1.55965412523e+18,0.1899332702,0.9127365351,0.1775925756
139,1.55965412528e+18,0.3872427344,1.720911264,0.387730211
140,1.55965412533e+18,0.7372685671,2.153403759,0.5899266601
141,1.55965412538e+18,0.9785603285,2.422184467,0.8299966455
142,1.55965412543e+18,1.231458545,1.780165195,0.8959701061
143,1.55965412549e+18,1.333472967,1.33179009,0.812892437
144,1.55965412554e+18,1.355464101,0.8278262615,0.7896795869
145,1.55965412559e+18,1.329807878,0.6024169922,0.8611507416
146,1.55965412564e+18,1.222295523,0.9292298555,0.906965673
147,1.55965412569e+18,1.067746639,1.276201248,0.9827129245
148,1.55965412575e+18,0.9834471941,0.9774882197,1.08350575
149,1.5596541258e+18,0.8967043161,0.6079148054,0.9552240372
150,1.55965412585e+18,0.6297562122,0.7117618322,0.8929157853
151,1.5596541259e+18,0.5857739449,0.846152246,0.6552891731
152,1.55965412595e+18,0.5051397681,0.7850656509,0.6442936659
153,1.55965412601e+18,0.3854101598,0.6873272657,0.6455153823
154,1.55965412606e+18,0.2552958429,0.3073690832,0.4714187682
155,1.55965412611e+18,0.09158396721,-0.1801013947,0.4940207899
156,1.55965412616e+18,-0.1124450192,-0.3688587546,0.4048344493
157,1.55965412621e+18,-0.212016046,-0.5111903548,0.537392199
158,1.55965412627e+18,-0.1802510619,-0.2265271544,0.6778912544
159,1.55965412632e+18,-0.07212791592,0.4270986617,0.7682992816
160,1.55965412637e+18,-0.2028530687,0.1033400744,0.914906919
161,1.55965412642e+18,-0.3311347663,-0.1446712166,0.8623725176
162,1.55965412647e+18,-0.2498897016,0.5828692913,1.01386714
163,1.55965412653e+18,-0.2895959616,1.548647165,1.233167768
164,1.55965412658e+18,-0.2517222762,1.081946135,1.221561313
165,1.55965412663e+18,-0.4814076126,0.2749931812,1.899010897
166,1.55965412668e+18,-1.09166193,-1.829437613,0.7487515807
167,1.55965412673e+18,-1.954814553,-0.2216402441,0.7597471476
168,1.55965412679e+18,-2.848510504,-0.9730045199,-0.06003400311
169,1.55965412684e+18,-3.507023096,-0.4891992211,-0.5206264257
170,1.55965412689e+18,-4.069630146,-0.1067975685,-1.068572521
171,1.55965412694e+18,-4.46974659,1.124706745,-1.573147178
172,1.55965412699e+18,-4.158816338,1.169910789,-1.778397918
173,1.55965412705e+18,-3.059869766,-0.7408756614,-1.229230046
174,1.5596541271e+18,-1.139309406,-2.057901144,1.071899295
175,1.55965412715e+18,1.395781279,-2.418922663,3.199542999
176,1.5596541272e+18,2.573529482,-3.26802516,4.572768211
177,1.55965412725e+18,3.381704092,-4.256405354,5.010147572
178,1.55965412731e+18,3.480664253,-3.855066538,4.206249237
179,1.55965412736e+18,3.043284893,-3.004131317,3.633257389
180,1.55965412741e+18,2.327961683,-4.501362324,2.541030169
181,1.55965412746e+18,1.862482309,-2.949153662,1.620456338
182,1.55965412751e+18,0.4837594628,-1.453755498,1.494618058
183,1.55965412757e+18,-0.6561151147,-1.365179896,1.040134311
184,1.55965412762e+18,-1.22421968,-1.624797702,0.3535217643
185,1.55965412767e+18,-1.10815537,-3.352324724,-0.5603326559
186,1.55965412772e+18,-2.225427866,-0.99621737,-3.303117752
187,1.55965412777e+18,-3.673789263,3.149725199,-6.342172146
188,1.55965412783e+18,-0.3402977586,5.362889767,1.783557296
189,1.55965412788e+18,4.851445675,-5.093290329,2.577682018
190,1.55965412793e+18,2.098276377,6.137466908,2.832412958
191,1.55965412798e+18,0.4312250316,6.796590328,0.9698848128
192,1.55965412803e+18,0.2601827681,0.2358978242,0.2282943875
193,1.55965412809e+18,-0.2572200894,-1.379840732,0.379788965
194,1.55965412814e+18,-0.8522028327,-0.7634777427,0.3095394671
195,1.55965412819e+18,-1.00858438,-1.151377201,-0.1840396374
196,1.55965412824e+18,-1.228495836,-0.2442422509,-0.01666257158
197,1.55965412829e+18,-1.011027813,-0.3346503079,-0.08691207319
198,1.55965412835e+18,-0.8827461004,-0.6577980518,-0.1455551386
199,1.5596541284e+18,-1.000032187,0.5431630015,0.08718451858
200,1.55965412845e+18,-1.01224947,0.1913046688,-0.3483623862
201,1.5596541285e+18,-1.262704253,0.8424869776,-0.5658304691
202,1.55965412855e+18,-1.161300659,-0.0707565248,-0.9189105034
203,1.55965412861e+18,-1.254152179,1.283531785,-1.331244588
204,1.55965412866e+18,-0.9279501438,2.389197826,-1.672107458
205,1.55965412871e+18,-0.4630816579,2.358043671,-2.22188592
206,1.55965412876e+18,-0.2260659486,2.642096043,-2.136364937
207,1.55965412881e+18,-0.5247790813,3.238300562,-2.027020216
208,1.55965412887e+18,-0.8900764585,1.056289792,-1.570703745
209,1.55965412892e+18,-1.488724351,1.980528951,-1.049635768
210,1.55965412897e+18,-1.464900613,1.408759117,-0.7949048877
211,1.55965412902e+18,-1.453294158,1.031244397,-0.6996099353
212,1.55965412907e+18,-1.320736408,0.7569658756,-0.67151016
213,1.55965412913e+18,-1.190622211,0.7783461809,-0.6055366993
214,1.55965412918e+18,-1.023855925,0.4564201832,-0.2579543591
215,1.55965412923e+18,-0.915732801,-0.08663901687,-0.1644919515
216,1.55965412928e+18,-0.7960032225,0.3043147326,0.08535192162
217,1.55965412933e+18,-0.6445086598,-0.3144917488,0.07802154869
218,1.55965412939e+18,-0.3085327744,-0.1251235306,0.01998934336
219,1.55965412944e+18,0.1294576079,0.02942537889,-0.1498311907
220,1.55965412949e+18,0.5711131692,-0.952235043,-0.8401089311
221,1.55965412954e+18,0.6835123897,-3.239314556,-2.063672066
222,1.55965412959e+18,0.03904956207,-3.412800312,-2.583518267
223,1.55965412965e+18,-0.7141472697,-1.98642993,-2.790601492
224,1.5596541297e+18,-0.9102350473,0.1955807209,-2.083830595
225,1.55965412975e+18,-0.8179943562,0.7306986451,-1.678826928
226,1.5596541298e+18,-0.624960959,0.3837272227,-1.163867593
227,1.55965412985e+18,-0.4569730163,-0.04326758534,-0.8126199841
228,1.55965412991e+18,-0.3824474514,0.06180123612,-0.4149467051
229,1.55965412996e+18,-0.196133554,0.08073806018,-0.143111676
230,1.55965413001e+18,-0.05807801336,0.07157508284,0.01326982584
231,1.55965413006e+18,0.05065600201,0.1662591994,0.1055104733
232,1.55965413011e+18,0.09952522069,-0.122680068,0.09818009287
233,1.55965413017e+18,0.06104071066,-0.2198076546,0.01388069056
234,1.55965413022e+18,-0.006765332539,0.04408614337,-0.1681571454
235,1.55965413027e+18,-0.08190175891,0.2682736814,-0.4351052642
236,1.55965413032e+18,-0.1478752047,0.2853779197,-0.6922795177
237,1.55965413037e+18,-0.2608852983,0.3122559786,-0.9237974882
238,1.55965413043e+18,-0.3445738256,0.400831461,-1.08873105
239,1.55965413048e+18,-0.4887380004,0.562099874,-1.263438463
240,1.55965413053e+18,-0.5626527071,0.7197031379,-1.345905423
241,1.55965413058e+18,-0.4783532917,0.5743172169,-1.264049411
242,1.55965413063e+18,-0.2834872603,0.1363268048,-0.962282002
243,1.55965413069e+18,-0.1545947194,-0.07991950214,-0.5817129612
244,1.55965413074e+18,-0.04158465192,0.1094487235,-0.2164155096
245,1.55965413079e+18,0.04576907679,0.4863525629,0.03159578145
246,1.55965413084e+18,0.1373988688,0.6250189543,0.1946968138
247,1.55965413089e+18,0.2491872162,1.060565948,0.2056923807
248,1.55965413095e+18,0.1673312634,1.441745877,0.2142444849
249,1.559654131e+18,0.0885296464,1.171743393,0.1464384496
250,1.55965413105e+18,0.05859724805,0.2933191657,0.04870000854
251,1.5596541311e+18,0.1679421216,0.3983879983,0.1103973985
252,1.55965413115e+18,0.2601827681,1.760006547,0.4133865535
253,1.55965413121e+18,0.6792363524,2.949361324,0.7854034901
254,1.55965413126e+18,0.960845232,3.206535339,0.9845455885
255,1.55965413131e+18,1.1935848,2.54374671,1.227059126
256,1.55965413136e+18,1.357907534,1.941433549,1.450024843
257,1.55965413141e+18,1.42876792,1.233440757,1.639393091
258,1.55965413147e+18,1.359740257,0.6384580135,1.495228887
259,1.55965413152e+18,1.26627779,0.413048774,1.318688869
260,1.55965413157e+18,1.123946309,0.8834149837,1.347399592
261,1.55965413162e+18,0.9357997179,0.6781642437,1.430477142
262,1.55965413167e+18,0.7299381495,0.554158628,1.413372874
263,1.55965413173e+18,0.4794833958,0.4955155551,1.347399592
264,1.55965413178e+18,0.1838246286,0.04408614337,1.040745139
265,1.55965413183e+18,0.0115606254,-0.45315817,0.6424610019
266,1.55965413188e+18,-0.1326035708,-0.4360539317,0.3388609886
267,1.55965413193e+18,-0.2260659486,0.1082269996,0.32847628
268,1.55965413199e+18,0.1703855842,0.612190783,0.3022090793
269,1.55965413204e+18,0.1031904146,0.5309457183,0.2869374752
270,1.55965413209e+18,0.05248859897,0.2255131155,-0.08324687928
271,1.55965413214e+18,-0.06052147225,0.5120089054,0.1122299954
272,1.55965413219e+18,-0.2847090065,0.4197682738,0.6479588151
273,1.55965413225e+18,-0.8479267359,0.2114632279,1.45430088
274,1.5596541323e+18,-0.931615293,-0.7738624215,1.315023661
275,1.55965413235e+18,-1.163744092,-0.9986608028,0.9228482246
276,1.5596541324e+18,-1.920606256,0.03858835623,0.5575507879
277,1.55965413245e+18,-2.23397994,0.3922793269,-0.3660774827
278,1.55965413251e+18,-3.144169092,-0.1984273493,-1.248166919
279,1.55965413256e+18,-3.698834896,-0.3499219418,-1.544436574
280,1.55965413261e+18,-3.571164131,0.07279681414,-1.502897739
281,1.55965413266e+18,-3.014665842,0.1796982288,-0.8181177974
282,1.55965413271e+18,-1.252319574,-1.208798409,0.7970099449
283,1.55965413277e+18,0.3518125713,-2.2313869,2.473224163
284,1.55965413282e+18,1.5741539,-3.799478054,3.816516876
285,1.55965413287e+18,2.906450987,-3.812306166,3.708393812
286,1.55965413292e+18,2.618122578,-2.207563162,4.195253372
287,1.55965413297e+18,2.952876806,-5.501348495,3.718167543
288,1.55965413303e+18,3.466614485,-4.834894657,2.520260811
289,1.55965413308e+18,2.533823252,-2.873406172,2.095709562
290,1.55965413313e+18,1.342635989,-1.544163465,1.73590982
291,1.55965413318e+18,0.2259743214,-1.982764721,1.434753299
292,1.55965413323e+18,-0.6713867188,-1.494072556,0.4463732839
293,1.55965413329e+18,-1.426416159,-1.133661985,-0.2799454927
294,1.55965413334e+18,-1.470398426,-2.395098925,-0.5536131263
295,1.55965413339e+18,-2.906542778,-1.242396116,-3.687962532
296,1.55965413344e+18,-3.702500105,3.291445732,-5.424652576
297,1.55965413349e+18,0.0775340721,9.123375893,-1.899349213
298,1.55965413354e+18,2.899731398,1.527877808,3.746878147
299,1.5596541336e+18,1.488632798,0.5932540298,0.958278358
300,1.55965413365e+18,0.2705674767,1.340952992,0.813503325
301,1.5596541337e+18,0.6309779882,-0.9149723053,1.15314436
302,1.55965413375e+18,1.026207805,-2.221002102,1.448192239
303,1.5596541338e+18,0.8698263168,-2.240549803,1.326630116
304,1.55965413386e+18,0.5637827516,-1.506900787,0.9747717381
305,1.55965413391e+18,0.2155896127,-0.6272547841,0.202638045
306,1.55965413396e+18,-0.1161102131,-0.2540161014,-0.1027945727
307,1.55965413401e+18,-0.235839799,-0.09946718812,-0.5481153727
308,1.55965413406e+18,-0.4319275618,0.1564853489,-0.7234336734
309,1.55965413412e+18,-0.6048024297,0.4026640356,-0.832167685
310,1.55965413417e+18,-0.8021118641,0.7496355176,-0.7148815393
311,1.55965413422e+18,-0.641454339,1.047737837,-0.5719391108
312,1.55965413427e+18,-0.4337601364,0.95427531,-0.5865998268
313,1.55965413432e+18,-0.4068820775,1.163191319,-0.4546529651
314,1.55965413438e+18,-0.6524499059,1.584688187,-0.2194698304
315,1.55965413443e+18,-1.072114348,0.4881851673,-0.5181829333
316,1.55965413448e+18,-1.825311184,0.4112161696,-0.6916686296
317,1.55965413453e+18,-3.264509678,2.080710888,-0.9537298679
318,1.55965413458e+18,-4.135603428,3.933465004,-1.590862274
319,1.55965413464e+18,-3.792297363,5.246825218,-1.909734011
320,1.55965413469e+18,-2.345157385,3.606041431,-1.990978956
321,1.55965413474e+18,-1.235826135,0.5798149705,-2.088106632
322,1.55965413479e+18,-0.6231283545,-1.320586801,-2.077721834
323,1.55965413484e+18,-1.238269687,-1.664503932,-1.512671471
324,1.5596541349e+18,-1.83325243,-1.254002452,-1.386833429
325,1.55965413495e+18,-1.734292269,-1.217961431,-1.380724669
326,1.559654135e+18,-1.825922012,-1.10861659,-1.450363278
327,1.55965413505e+18,-1.736735702,-1.51606369,-1.408824444
328,1.5596541351e+18,-1.595015049,-1.448257685,-1.424706936
329,1.55965413516e+18,-1.405035853,-0.2625682056,-1.370950818
330,1.55965413521e+18,-1.463068128,0.9719904661,-1.412489653
331,1.55965413526e+18,-1.584019423,1.827812672,-1.628125072
332,1.55965413531e+18,-1.394040227,2.239535809,-1.786950111
333,1.55965413536e+18,-0.8412072659,1.4209764,-1.808330297
334,1.55965413542e+18,-0.4997335672,0.1735895723,-1.413711429
335,1.55965413547e+18,-0.2761569023,-0.1446712166,-0.6415777206
336,1.55965413552e+18,0.09219484031,0.09539882839,0.09756922722
337,1.55965413557e+18,0.1496161669,0.4979590178,0.5245640278
338,1.55965413562e+18,0.2369698882,0.4912394881,0.4628666341
339,1.55965413568e+18,0.3457039297,0.4588636458,0.4146082997
340,1.55965413573e+18,0.2510198057,0.5993626714,0.3999475539
341,1.55965413578e+18,0.1990962476,0.5223936439,0.3981149197
342,1.55965413583e+18,0.1832137555,0.3018712699,0.4488167465
343,1.55965413588e+18,0.181381166,0.003158173291,0.4365994334
344,1.55965413594e+18,0.03904956207,-0.07442171127,0.4054453075
345,1.55965413599e+18,-0.03425426781,-0.252183497,0.2631137073
346,1.55965413604e+18,-0.1252731979,-0.4036780596,0.06458250433
347,1.55965413609e+18,-0.1619251072,-0.2637899518,-0.1712114662
348,1.55965413614e+18,-0.1808619201,-0.03043941408,-0.3459189534
349,1.5596541362e+18,-0.1307709813,0.02698191814,-0.3459189534
350,1.55965413625e+18,-0.08006916195,-0.08969334513,-0.3263712525
351,1.5596541363e+18,-0.1081689596,-0.04265671968,-0.2658956051
352,1.55965413635e+18,-0.1607033759,-0.0707565248,-0.2701716721
353,1.5596541364e+18,-0.1796402037,-0.2925006151,-0.2677281797
354,1.55965413646e+18,-0.1289383918,-0.5063034296,-0.2109177262
355,1.55965413651e+18,-0.0623540692,-0.4220040143,-0.06797525287
356,1.55965413656e+18,-0.003100140952,-0.2198076546,0.05236519873
357,1.55965413661e+18,0.0653167665,-0.03105027974,0.1525471061
358,1.55965413666e+18,0.09952522069,-0.04387845099,0.2625028491
359,1.55965413672e+18,0.1557248235,-0.16177544,0.3034308255
360,1.55965413677e+18,0.1600008905,-0.1904861182,0.3003765047
361,1.55965413682e+18,0.1654986739,-0.1153496876,0.2588376403
362,1.55965413687e+18,0.1612226069,-0.03532633558,0.2166879624
363,1.55965413692e+18,0.1392314583,0.003158173291,0.1610992104
364,1.55965413698e+18,0.07386887819,-0.007837400772,0.08779538423
365,1.55965413703e+18,-0.01226312015,-0.09396939725,0.03281751275
366,1.55965413708e+18,-0.1356578916,0.1992459148,0.0816867277
367,1.55965413713e+18,-0.1344361752,0.4704701006,0.1183386445
368,1.55965413718e+18,-0.08556694537,0.008045095019,0.1482710391
369,1.55965413724e+18,-0.1191645339,-0.1648297757,0.2796070874
370,1.55965413729e+18,-0.168644622,-0.2735637724,0.4359885752
371,1.55965413734e+18,-0.157038182,-0.6651284099,0.4873012602
372,1.55965413739e+18,-0.07212791592,-1.050584316,0.4885229766
373,1.55965413744e+18,0.01278235577,-1.020651937,0.4964642227
374,1.5596541375e+18,0.06226243824,-0.7787493467,0.565492034
375,1.55965413755e+18,0.1826028973,-0.6492459178,0.6375740767
376,1.5596541376e+18,0.1294576079,-0.2295814753,0.7475298643
377,1.55965413765e+18,0.2259743214,-0.4397191107,1.024251819
378,1.5596541377e+18,0.3114954531,-0.4953078628,1.125044584
379,1.55965413776e+18,0.3854101598,-0.4293344021,1.285091281
380,1.55965413781e+18,0.4135099351,-0.189264372,1.348010421
381,1.55965413786e+18,0.3847992718,-0.1263452619,1.424979329
382,1.55965413791e+18,0.3206584454,-0.2124772668,1.373666763
383,1.55965413796e+18,0.2082592249,-0.2821159065,1.204457045
384,1.55965413802e+18,0.1245706975,-0.3560305834,1.057849407
385,1.55965413807e+18,0.1215163693,-0.311437428,0.922237277
386,1.55965413812e+18,0.1312902123,-0.213088125,0.8458791375
387,1.55965413817e+18,0.076923199,0.01659720764,0.7298147678
388,1.55965413822e+18,-0.02325869352,0.09051190317,0.5716006756
389,1.55965413828e+18,-0.1100015566,-0.1306213289,0.426825583
390,1.55965413833e+18,-0.05196936056,-0.4281127155,0.4372102916
391,1.55965413838e+18,0.05493205786,-0.4158953726,0.5251749158
392,1.55965413843e+18,0.2076483667,-0.3780217171,0.6705608368
393,1.55965413848e+18,0.2491872162,-0.3804652095,0.68277812
394,1.55965413854e+18,0.2467437387,-0.4556016326,0.5722115636
395,1.55965413859e+18,0.1508379132,-0.6278656125,0.4732513428
396,1.55965413864e+18,0.02622138895,-0.5313489437,0.3645173311
397,1.55965413869e+18,-0.06296493858,-0.4006237388,0.3858976066
398,1.55965413874e+18,-0.1124450192,-0.4378865361,0.2655571699
399,1.5596541388e+18,-0.1344361752,-0.5777746439,0.08229760081
400,1.55965413885e+18,-0.1472643465,-0.3835195303,0.1262799054
401,1.5596541389e+18,-0.07396051288,-0.1507798582,0.2796070874
402,1.55965413895e+18,-0.3238043785,-0.1910969764,0.4439298213
403,1.559654139e+18,-0.1936900914,-1.333415031,0.159877494
404,1.55965413906e+18,-0.07762569934,-0.5692225099,-0.2762803137
405,1.55965413911e+18,-0.0501367636,1.138145804,-0.2982714474
406,1.55965413916e+18,-0.0788474381,2.835129499,-0.1913700253
407,1.55965413921e+18,-0.1326035708,2.516868591,0.3590195477
408,1.55965413926e+18,-0.2682156563,1.705028653,1.326630116
409,1.55965413932e+18,0.6609104276,0.7966721058,1.224615574
410,1.55965413937e+18,0.9938319325,0.5132306814,0.9039113522
411,1.55965413942e+18,0.7158882618,-0.8355597854,-0.04720583186
412,1.55965413947e+18,0.3499799669,-0.7518712878,-1.854145288
413,1.55965413952e+18,0.06409504265,0.7123727202,-3.369091034
414,1.55965413958e+18,0.566837132,1.880957842,-3.560902834
415,1.55965413963e+18,1.842934608,1.220001698,-2.056952477
416,1.55965413968e+18,3.129416704,-0.4238366485,0.3504674435
417,1.55965413973e+18,3.890554905,-0.757369101,2.622886181
418,1.55965413978e+18,4.371916294,-2.270482063,3.693732977
419,1.55965413984e+18,4.450718403,-3.315061808,3.975952625
420,1.55965413989e+18,3.976686954,-4.701115131,2.977798939
421,1.55965413994e+18,3.022515297,-2.800102472,2.0999856
422,1.55965413999e+18,1.900966763,-2.377994537,1.760955334
423,1.55965414004e+18,1.577819109,-2.717635632,1.143981457
424,1.5596541401e+18,0.6395300627,-1.570430636,1.142759681
425,1.55965414015e+18,-0.196133554,-1.236287355,0.7811274529
426,1.5596541402e+18,-0.5272225142,-1.195359468,0.5361704826
427,1.55965414025e+18,-0.719645083,-2.170300245,-0.1125684157
428,1.5596541403e+18,-0.8674744964,-2.342564344,-0.5560565591
429,1.55965414036e+18,-2.417239428,-1.207576752,-3.044110775
430,1.55965414041e+18,-3.087358713,3.489977121,-5.499789238
431,1.55965414046e+18,-0.9957561493,11.26079369,-0.09240985662
432,1.55965414051e+18,2.431197643,-2.128150702,3.017505169
433,1.55965414056e+18,1.888138652,-2.713970423,0.5263966322
434,1.55965414062e+18,0.6554126143,2.515646935,0.9967628717
435,1.55965414067e+18,0.2180330753,1.975031137,0.08840624988
436,1.55965414072e+18,0.3261562288,-0.9137505293,0.4121648371
437,1.55965414077e+18,-0.4722446501,0.3782294393,0.1452167183
438,1.55965414082e+18,-0.1167210788,-0.5246294141,-0.08752293885
439,1.55965414088e+18,-0.08617781103,0.2908757031,-0.03315593302
440,1.55965414093e+18,-0.1014494449,1.085000515,-0.3172082901
441,1.55965414098e+18,-0.4001625478,0.4399268329,-0.202365607
442,1.55965414103e+18,-0.4905706048,-0.1666623652,-0.1351704299
443,1.55965414108e+18,-0.4154341817,-0.1654406339,-0.1400573552
444,1.55965414114e+18,-0.3555693924,-0.5649465322,-0.2231350243
445,1.55965414119e+18,-0.3030349612,-0.6620740891,-0.304990977
446,1.55965414124e+18,-0.4820185006,-0.1348973662,-0.1913700253
447,1.55965414129e+18,-0.2211790383,-0.3157134652,-0.2707825005
448,1.55965414134e+18,-0.2676047981,-0.0200547073,-0.2035873383
449,1.5596541414e+18,-0.3317456245,0.4118270278,-0.05636881292
450,1.55965414145e+18,-1.091051102,1.054457307,-0.1205096692
451,1.5596541415e+18,-2.319501162,0.6341819167,0.332752347
452,1.55965414155e+18,-3.678065538,1.448465347,0.06580423564
453,1.5596541416e+18,-4.274270058,2.389808655,-0.5548348427
454,1.55965414166e+18,-3.724491119,2.937754869,-1.560929894
455,1.55965414171e+18,-2.505815029,3.121625185,-2.607342005
456,1.55965414176e+18,-1.33661902,0.0856249854,-3.742329597
457,1.55965414181e+18,-1.623725533,-2.079892397,-3.851674557
458,1.55965414186e+18,-2.266355991,-0.644969821,-3.064880133
459,1.55965414192e+18,-2.337827206,2.102701902,-2.003807306
460,1.55965414197e+18,-2.108752728,1.491836786,-1.475408792
461,1.55965414202e+18,-1.568747759,-1.31081295,-1.934779406
462,1.55965414207e+18,-1.025077581,-2.982140303,-1.712424397
463,1.55965414212e+18,-0.9175654054,-0.7445408702,-1.345905423
464,1.55965414218e+18,-0.7740120888,1.565751433,-1.006264329
465,1.55965414223e+18,-0.4655251503,3.14300561,-0.5646086931
466,1.55965414228e+18,-0.1662011594,2.541913986,-0.2365740687
467,1.55965414233e+18,-0.04830417037,0.8204958439,0.1183386445
468,1.55965414238e+18,-0.03547599912,-0.4470494986,0.3895628154
469,1.55965414244e+18,0.04943427071,-0.8312837481,0.5850396752
470,1.55965414249e+18,0.07875579596,-0.4091758728,0.7664666772
471,1.55965414254e+18,0.1245706975,-0.1532233208,0.7835709453
472,1.55965414259e+18,0.2015397251,-0.4733166993,0.68277812
473,1.55965414264e+18,0.2052049041,-0.5716660023,0.4982968569
474,1.5596541427e+18,0.1294576079,-0.3780217171,0.1727056652
475,1.55965414275e+18,0.0347735025,0.11555738,-0.1718223393
476,1.5596541428e+18,-0.08617781103,0.5443847775,-0.4522095025
477,1.55965414285e+18,-0.1350470334,0.6842729449,-0.6470754743
478,1.5596541429e+18,-0.1393230855,0.5932540298,-0.6935012937
479,1.55965414296e+18,-0.1307709813,0.4380942285,-0.6018714309
480,1.55965414301e+18,-0.1429882795,0.2029111087,-0.4748114944
481,1.55965414306e+18,-0.1289383918,-0.01516778395,-0.3086561561
482,1.55965414311e+18,-0.1124450192,-0.06159354374,-0.1614376307
483,1.55965414316e+18,-0.07701484114,0.00865595974,-0.01421911083
484,1.55965414322e+18,-0.04219551757,0.03247970715,0.1061213464
485,1.55965414327e+18,-0.01043052413,-0.03349373862,0.2099684328
486,1.55965414332e+18,0.04149302468,-0.1556667984,0.2832722664
487,1.55965414337e+18,0.09097310901,-0.1782688051,0.3639064729
488,1.55965414342e+18,0.1245706975,-0.3022744358,0.4011692405
489,1.55965414348e+18,0.1496161669,-0.4580450654,0.3577978313
490,1.55965414353e+18,0.1679421216,-0.4782036543,0.2673897743
491,1.55965414358e+18,0.1490053087,-0.2619573474,0.151936233
492,1.55965414363e+18,0.1086882055,0.06485556066,-0.003834401025
493,1.55965414368e+18,0.04576907679,0.3678447306,-0.1327269673
494,1.55965414374e+18,-0.0116522545,0.4442028701,-0.2103068531
495,1.55965414379e+18,-0.06601926684,0.3989988267,-0.2744476795
496,1.55965414384e+18,-0.07823656499,0.3043147326,-0.2939953804
497,1.55965414389e+18,-0.08251262456,0.451533258,-0.2756694257
498,1.55965414394e+18,-0.03669773042,0.6512861848,-0.2506239712
499,1.559654144e+18,0.03660609946,0.8699759245,-0.2158046365
500,1.55965414405e+18,0.09647089243,0.9695469737,-0.1663245559
501,1.5596541441e+18,0.1557248235,0.8718085289,-0.1113466844
502,1.55965414415e+18,0.2223091274,0.9451123476,-0.03621025756
503,1.5596541442e+18,0.3090519905,1.28230989,-0.02582555078
504,1.55965414426e+18,0.3255453408,1.353781223,-0.01788430288
505,1.55965414431e+18,0.4868137836,1.416089535,0.01693501696
506,1.55965414436e+18,0.6541908383,1.936546683,0.2582267821
507,1.55965414441e+18,0.8062963486,2.205327511,0.3932279944
508,1.55965414446e+18,0.969397366,2.054443598,0.5086815357
509,1.55965414452e+18,1.032927394,2.133245468,0.7029367089
510,1.55965414457e+18,1.124557137,1.690367937,0.8342726827
511,1.55965414462e+18,1.107452869,1.422809005,0.9436176419
512,1.55965414467e+18,1.03781426,0.9683252573,1.024251819
513,1.55965414472e+18,1.043311954,0.7820113301,1.056016803
514,1.55965414478e+18,0.8954825997,0.939003706,1.106107831
515,1.55965414483e+18,0.7794182301,0.7734592557,1.038912654
516,1.55965414488e+18,0.6315888762,0.6347928643,0.8416031003
517,1.55965414493e+18,0.429392457,0.3250841796,0.7078236341
518,1.55965414498e+18,0.339595288,-0.0005070181214,0.4634775221
519,1.55965414504e+18,0.1722181886,0.1815308183,0.431712538
520,1.55965414509e+18,0.1233489588,0.1283855438,0.3535217643
521,1.55965414514e+18,0.1777159721,0.0746294111,0.4683644474
522,1.55965414519e+18,0.216811344,0.3641795218,0.5984787345
523,1.55965414524e+18,0.2345264405,0.2743823528,0.624135077
524,1.5596541453e+18,0.1917658746,0.235286966,0.6552891731
525,1.55965414535e+18,0.279730469,-0.1788796633,0.5172336698
526,1.5596541454e+18,0.3970166147,-0.142227754,0.6143612266
527,1.55965414545e+18,0.4183968902,-0.7384322286,0.588093996
528,1.5596541455e+18,0.1783268452,-0.7237715125,0.4622557759
529,1.55965414556e+18,-0.068462722,-0.0279959552,0.3724585772
530,1.55965414561e+18,-0.3085327744,0.5553803444,0.2582267821
531,1.55965414566e+18,-0.1955226958,0.353794843,0.08229760081
532,1.55965414571e+18,-0.3390760124,0.8321022987,0.07374548167
533,1.55965414576e+18,-0.5150051713,0.5217827559,0.2686115205
534,1.55965414582e+18,-1.209558964,-0.1654406339,1.19285059
535,1.55965414587e+18,-1.000032187,-0.6846761107,0.8739789724
536,1.55965414592e+18,-2.250473499,-1.456198812,0.1800360382
537,1.55965414597e+18,-3.026883125,0.3544057012,-0.2103068531
538,1.55965414602e+18,-3.642635345,-0.03288287669,-1.028866291
539,1.55965414608e+18,-3.836279631,-0.1367299706,-1.583531976
540,1.55965414613e+18,-3.621254921,-0.3163243532,-0.9543406963
541,1.55965414618e+18,-2.618825197,-0.4165062606,-0.2439044565
542,1.55965414623e+18,-1.221165419,-2.200232744,1.206900477
543,1.55965414628e+18,0.07020369172,-2.503221989,2.359603167
544,1.55965414634e+18,1.214354277,-3.385311365,2.922821045
545,1.55965414639e+18,2.116602182,-2.92044282,3.538573265
546,1.55965414644e+18,2.798327923,-3.285129309,3.814073563
547,1.55965414649e+18,3.21005106,-3.379813433,4.06391716
548,1.55965414654e+18,3.432405949,-3.815360546,3.543459892
549,1.5596541466e+18,3.244259596,-4.613761425,2.041342497
550,1.55965414665e+18,2.07078743,-2.227110863,1.967427731
551,1.5596541467e+18,1.235123634,-1.728644729,1.373666763
552,1.55965414675e+18,0.2614045143,-1.74758172,0.7444755435
553,1.5596541468e+18,-0.6860474944,-2.640055656,-0.394788146
554,1.55965414686e+18,-1.792324424,-2.70541811,-2.238990307
555,1.55965414691e+18,-4.208907127,1.48756063,-4.842497826
556,1.55965414696e+18,-3.440438986,3.012280226,-2.230438232
557,1.55965414701e+18,1.251617074,5.21017313,2.618610144
558,1.55965414706e+18,2.374998331,-2.395098925,1.176968098
559,1.55965414712e+18,0.7397119999,1.935935736,1.196515799
560,1.55965414717e+18,0.4886463881,0.7630745173,0.5997004509
561,1.55965414722e+18,0.4074012935,-1.065245152,0.8776441813
562,1.55965414727e+18,0.4862029254,-1.608304262,0.8806985021
563,1.55965414732e+18,0.7317707539,-1.260722041,0.674225986
564,1.55965414738e+18,0.4538270533,0.07218594104,0.3749020398
565,1.55965414743e+18,0.2803413272,0.2383412868,-0.03559939563
566,1.55965414748e+18,0.2497980595,0.3330253959,-0.1076814979
567,1.55965414753e+18,0.06042984501,0.1784764975,-0.4564855397
568,1.55965414758e+18,-0.1851379871,0.6182994843,-0.3508058488
569,1.55965414764e+18,-0.2413375825,0.4472571909,-0.4247205555
570,1.55965414769e+18,-0.2816546857,0.1778656244,-0.4253314137
571,1.55965414774e+18,-0.2205681652,-0.3334285915,-0.4314400554
572,1.55965414779e+18,-0.1613142341,0.02026239969,-0.3556927741
573,1.55965414784e+18,-0.1784184724,0.2163501382,-0.2909410596
574,1.5596541479e+18,0.04027128965,-0.07442171127,-0.1779309958
575,1.55965414795e+18,-0.1796402037,0.1131139174,-0.1168444753
576,1.559654148e+18,-0.2804329395,-0.01516778395,0.1079539433
577,1.55965414805e+18,-0.4209319651,-0.4323887229,0.1446058452
578,1.5596541481e+18,-0.6475629807,-0.6217569709,0.379788965
579,1.55965414816e+18,-0.9432217479,-0.8997007012,0.5435008407
580,1.55965414821e+18,-1.363497019,-1.171535611,0.863594234
581,1.55965414826e+18,-1.579132438,-1.345021367,0.9124634266
582,1.55965414831e+18,-2.076987505,-0.3499219418,0.9564457536
583,1.55965414836e+18,-2.655477047,1.867518902,0.6400175691
584,1.55965414842e+18,-3.670124292,4.076407909,-0.02460381947
585,1.55965414847e+18,-3.821007729,4.95116663,-1.320249081
586,1.55965414852e+18,-2.896768808,3.55350709,-2.295800686
587,1.55965414857e+18,-2.249862432,-1.65167582,-3.791809797
588,1.55965414862e+18,-2.958466291,-3.19472146,-3.479046822
589,1.55965414868e+18,-3.55833602,0.5358326435,-2.034961224
590,1.55965414873e+18,-3.503357887,3.877265692,-1.020314097
591,1.55965414878e+18,-2.840569019,3.008004427,-1.156537056
592,1.55965414883e+18,-2.045222759,-0.0695347935,-1.835819244
593,1.55965414888e+18,-1.716577172,-1.524615884,-1.989146471
594,1.55965414894e+18,-1.584630251,-0.1135170907,-1.680048585
595,1.55965414899e+18,-1.071503401,0.8278262615,-1.368507266
596,1.55965414904e+18,-0.4710229039,1.17601943,-0.7832984328
597,1.55965414909e+18,-0.1148884818,0.8492065668,-0.1834287941
598,1.55965414914e+18,0.07570147514,0.4362616241,0.1995837241
599,1.5596541492e+18,0.1667204052,0.1308290064,0.384065032
600,1.55965414925e+18,0.2351372987,0.08379238844,0.5068489313
601,1.5596541493e+18,0.2632370889,0.07951632887,0.588093996
602,1.55965414935e+18,0.291947782,0.06974248588,0.6772803068
603,1.5596541494e+18,0.271178335,-0.002950479044,0.7456972599
604,1.55965414946e+18,0.2681240141,-0.2760072351,0.7047693133
605,1.55965414951e+18,0.2198656797,-0.4055106938,0.5844288468
606,1.55965414956e+18,0.118462041,-0.4116193354,0.3852867782
607,1.55965414961e+18,0.03416264057,-0.2943331897,0.1739273816
608,1.55965414966e+18,-0.05074762926,-0.1098518968,-0.05148189142
609,1.55965414971e+18,-0.1497077942,0.05385999009,-0.2671173215
610,1.55965414977e+18,-0.2388941199,0.1357159317,-0.4619833231
611,1.55965414982e+18,-0.3225826621,0.03919922188,-0.6324147582
612,1.55965414987e+18,-0.3549585342,-0.09335853904,-0.6880034804
613,1.55965414992e+18,-0.3506824672,-0.1874317825,-0.6232517958
614,1.55965414997e+18,-0.302424103,-0.01028086152,-0.4106706679
615,1.55965415003e+18,-0.208350867,0.4411485493,-0.1351704299
616,1.55965415008e+18,-0.1307709813,0.4295421243,0.07741067559
617,1.55965415013e+18,-0.1002277136,0.5162850022,0.3461913764
618,1.55965415018e+18,-0.05563455075,0.08134892583,0.4854686558
619,1.55965415023e+18,0.04882340506,-0.5240185261,0.6607869864
620,1.55965415029e+18,0.1832137555,-0.929022193,0.8031185865
621,1.55965415034e+18,0.3689167798,-0.7127758861,0.9191829562
622,1.55965415039e+18,0.429392457,-0.2931114733,1.045021296
623,1.55965415044e+18,0.5008636713,-0.08297382295,1.142759681
624,1.55965415049e+18,0.4831486046,-0.03227201104,1.178189874
625,1.55965415054e+18,0.6639647484,0.144878909,1.333960414
626,1.5596541506e+18,0.6609104276,0.55354774,1.465296507
627,1.55965415065e+18,0.5393481851,0.7374182343,1.62656498
628,1.5596541507e+18,0.6267018914,-0.009059132077,1.441472769
629,1.55965415075e+18,0.484370321,-0.3175460696,1.48728776
630,1.5596541508e+18,0.4587139785,-0.5496748686,1.423757672
631,1.55965415086e+18,0.3585320711,-0.4397191107,1.48423326
632,1.55965415091e+18,0.2913369238,-0.2717311978,1.406653404
633,1.55965415096e+18,0.2601827681,-0.05853921548,1.321743131
634,1.55965415101e+18,0.05187772959,-0.05670661852,1.073731899
635,1.55965415106e+18,-0.1038929075,-0.1904861182,0.863594234
636,1.55965415112e+18,-0.212016046,-0.3755782843,0.5196771026
637,1.55965415117e+18,-0.1271057874,-0.1721601635,0.3944497406
638,1.55965415122e+18,-0.05441282317,-0.1709384173,0.277163595
639,1.55965415127e+18,0.02133446932,0.1454897821,0.1586557478
640,1.55965415132e+18,0.1416749209,0.2884322405,0.2185205519
641,1.55965415138e+18,0.1502270401,0.40449664,0.2649463117
642,1.55965415143e+18,-0.1503186673,0.9121256471,0.09023884684
643,1.55965415148e+18,-0.1484860629,1.102715611,0.4567579925
644,1.55965415153e+18,0.07386887819,1.450297952,0.9271242023
645,1.55965415158e+18,0.1630552113,0.6958793402,0.5227314234
646,1.55965415164e+18,0.1441183835,-0.9363526106,-0.4442682564
647,1.55965415169e+18,0.2278069109,-0.3969585598,-1.303755641
648,1.55965415174e+18,0.6951188445,0.8809715509,-1.728307009
649,1.55965415179e+18,-0.2718808651,0.8595912457,-1.052079082
650,1.55965415184e+18,0.1899332702,-3.476941109,-0.7515334487
651,1.5596541519e+18,0.2998889983,1.458850145,0.3443588018
652,1.55965415195e+18,0.7922464013,0.01232115179,-0.7356509566
653,1.559654152e+18,0.3255453408,0.5486608148,-0.7032750845
654,1.55965415205e+18,0.6804580688,1.479008555,-1.021535873
655,1.5596541521e+18,0.8710480332,0.3238624334,-0.497413516
656,1.55965415216e+18,1.018877387,0.2578889728,0.3461913764
657,1.55965415221e+18,0.9345780015,0.05080566555,0.9906542301
658,1.55965415226e+18,1.361572862,-0.9021440744,1.125044584
659,1.55965415231e+18,1.39211607,-1.037756205,1.098777294
660,1.55965415236e+18,1.533836842,-0.6296982169,1.101831675
661,1.55965415242e+18,1.081796527,-0.1520016044,1.699868798
662,1.55965415247e+18,1.559493184,-2.223445654,2.171456814
663,1.55965415252e+18,2.084837198,-2.772002697,2.931373119
664,1.55965415257e+18,2.571696758,-2.746957302,3.327213764
665,1.55965415262e+18,2.83925581,-3.16845417,2.840354204
666,1.55965415268e+18,2.800160408,-3.924705267,2.159850359
667,1.55965415273e+18,2.358504772,-3.03589654,1.519663572
668,1.55965415278e+18,1.083629131,-1.533778787,1.544708967
669,1.55965415283e+18,0.169774726,-1.910071731,1.192239761
670,1.55965415288e+18,-0.4154341817,-1.878306746,0.6687282324
671,1.55965415294e+18,-1.162522316,-2.37066412,-0.3025475144
672,1.55965415299e+18,-2.377533436,-2.164191723,-2.80404067
673,1.55965415304e+18,-3.489918947,2.664697886,-4.900530338
674,1.55965415309e+18,-3.160051823,2.592616081,0.7762405276
675,1.55965415314e+18,2.310857534,-0.2637899518,2.546528101
676,1.5596541532e+18,1.851486683,-0.8355597854,0.1702621877
677,1.55965415325e+18,-0.2132377923,3.72577095,-0.04292977601
678,1.5596541533e+18,0.4006817937,0.02759278379,-0.186483115
679,1.55965415335e+18,0.4739856124,-0.5124121308,0.6339089274
680,1.5596541534e+18,0.4831486046,-1.663893104,0.8538203835
681,1.55965415346e+18,0.7000057101,-1.958940983,0.9833238721
682,1.55965415351e+18,0.6364757419,-1.839211464,0.6681173444
683,1.55965415356e+18,0.6883993149,-1.211852789,0.581374526
684,1.55965415361e+18,0.4263381362,-0.7506495118,0.6467370391
685,1.55965415366e+18,0.3011107445,-1.176422596,0.486079514
686,1.55965415372e+18,0.08914051205,-1.206354976,0.4665318429
687,1.55965415377e+18,-0.03119994141,-0.6596305966,0.565492034
688,1.55965415382e+18,0.007895433344,-0.5741094947,0.528840065
689,1.55965415387e+18,0.0115606254,-0.6474133134,0.2655571699
690,1.55965415392e+18,-0.1313818395,-0.06403700262,0.3144263923
691,1.55965415398e+18,-0.6237392426,0.5095654726,0.3468022346
692,1.55965415403e+18,-0.8778591752,0.1344942003,0.3565760851
693,1.55965415408e+18,-1.739790082,1.29513824,0.289991796
694,1.55965415413e+18,-2.709844112,3.281671762,-0.1174553409
695,1.55965415418e+18,-3.940126657,4.789898396,-0.8223938346
696,1.55965415424e+18,-4.114223003,4.987207413,-1.909734011
697,1.55965415429e+18,-3.429443359,3.912695885,-2.5157125
698,1.55965415434e+18,-2.703124523,2.160734177,-2.337950468
699,1.55965415439e+18,-2.39585948,1.976863742,-1.637288094
700,1.55965415444e+18,-1.910221457,1.370274544,-1.005653381
701,1.5596541545e+18,-1.709246874,0.05691431463,-0.4173901677
702,1.55965415455e+18,-1.464900613,-0.5050817132,0.1446058452
703,1.5596541546e+18,-1.201617837,-0.2576812804,0.4372102916
704,1.55965415465e+18,-1.075779557,-0.09946718812,0.5361704826
705,1.5596541547e+18,-0.9071807265,-0.7585907578,0.624135077
706,1.55965415476e+18,-0.6475629807,-0.9736153483,0.5337269902
707,1.55965415481e+18,-0.4270406067,-0.5142446756,0.528840065
708,1.55965415486e+18,-0.2175138444,0.2365086973,0.4256038368
709,1.55965415491e+18,-0.1973552853,0.750857234,0.3907845318
710,1.55965415496e+18,0.008506298065,0.4771896005,0.151936233
711,1.55965415502e+18,0.06287330389,0.1656483263,0.1690404713
712,1.55965415507e+18,-0.01592831127,-0.1330647767,0.08962798119
713,1.55965415512e+18,-0.2242333591,0.3629578054,0.08351932466
714,1.55965415517e+18,-0.3213609457,1.034909487,0.06152817979
715,1.55965415522e+18,-0.1888031811,1.785663009,0.0816867277
716,1.55965415528e+18,0.1905441433,1.469234705,0.155601427
717,1.55965415533e+18,0.4923115969,0.5804258585,0.08901711553
718,1.55965415538e+18,0.3334866166,-0.04815450683,0.277163595
719,1.55965415543e+18,0.425727278,-1.146490216,0.324200213
720,1.55965415548e+18,0.6114302874,-1.206354976,0.3339740932
721,1.55965415554e+18,0.7445989251,-0.3768000305,0.3474131227
722,1.55965415559e+18,0.7409337163,-0.01761124469,0.4103322327
723,1.55965415564e+18,0.5033071637,0.2548346519,0.1641535312
724,1.55965415569e+18,0.1648878008,0.7117618322,-0.01360824518
725,1.55965415574e+18,-0.09961685538,0.3513513505,-0.2768911719
726,1.5596541558e+18,-0.1955226958,-0.5716660023,-0.6794513464
727,1.55965415585e+18,-0.3402977586,0.5639324784,-0.584767282
728,1.5596541559e+18,-0.4771315753,0.5083436966,-0.5939302444
729,1.55965415595e+18,-0.5070639849,0.6537296772,-0.3642449081
730,1.559654156e+18,-0.6310696602,0.5572129488,0.5917592049
731,1.55965415606e+18,-1.007362604,1.604846835,2.773769855
732,1.55965415611e+18,0.8808218241,-0.4928644001,1.935051918
733,1.55965415616e+18,0.7598705292,0.4173248112,1.38466239
734,1.55965415621e+18,1.043311954,-0.299831003,0.5398356915
735,1.55965415626e+18,1.605919003,-1.188029051,1.007758379
736,1.55965415632e+18,2.407984972,-2.890510559,2.387092352
737,1.55965415637e+18,3.029845715,-4.993108749,2.889834166
738,1.55965415642e+18,3.525257587,-5.902076244,2.218493462
739,1.55965415647e+18,3.234485626,-4.843446732,1.168416023
740,1.55965415652e+18,2.002370596,-2.965036154,0.8904722929
741,1.55965415658e+18,0.3542560339,-1.393279791,0.9857672453
742,1.55965415663e+18,-0.4117689729,-1.844709277,0.9827129245
743,1.55965415668e+18,-0.5699830651,-2.510552168,-0.2891084552
744,1.55965415673e+18,-0.5247790813,-3.125082731,-0.8621001244
745,1.55965415678e+18,-2.866225481,-0.7799710631,-3.301895857
746,1.55965415684e+18,-3.196092844,1.306744576,-4.982386112
747,1.55965415689e+18,1.790400267,7.405622959,0.1769817024
748,1.55965415694e+18,5.091516018,-1.869143844,1.473848581
749,1.55965415699e+18,3.990125895,0.3788402975,2.37487483
750,1.55965415704e+18,2.908894539,-2.597295284,1.194072366
751,1.5596541571e+18,1.910129786,-0.7054454684,1.208733201
752,1.55965415715e+18,1.192973971,-0.8251751065,1.407264233
753,1.5596541572e+18,1.079352975,-1.348075747,1.190407157
754,1.55965415725e+18,0.4159534276,-0.007837400772,1.432309866
755,1.5596541573e+18,0.1581682861,-0.1837665886,1.109162092
756,1.55965415736e+18,-0.294482857,0.3812837601,1.036469102
757,1.55965415741e+18,-0.8460941911,1.05690074,0.01204809546
758,1.55965415746e+18,-0.7055951357,0.06485556066,-0.3214843273
759,1.55965415751e+18,-0.5754808784,0.09723142534,-0.3825708628
760,1.55965415756e+18,-0.5156160593,0.502235055,-0.04537323862
761,1.55965415762e+18,-0.2181247175,-0.543566227,-0.1382247657
762,1.55965415767e+18,-0.1051146388,0.4350398779,0.2032489181
763,1.55965415772e+18,-0.03730859235,0.2224587947,0.09695836902
764,1.55965415777e+18,0.02499966137,0.3495187759,0.1030670181
765,1.55965415782e+18,0.03538436815,0.1357159317,-0.1125684157
766,1.55965415788e+18,-0.3848909438,0.7135944963,-0.2860541344
767,1.55965415793e+18,-0.821048677,1.266427517,-0.3874577582
768,1.55965415798e+18,-1.344560146,1.827812672,-0.5548348427
769,1.55965415803e+18,-2.171060801,3.652467012,-0.496802628
770,1.55965415808e+18,-2.692739725,5.606014252,-0.6837274432
771,1.55965415814e+18,-2.645703077,5.476510525,-0.8816477656
772,1.55965415819e+18,-2.467941523,5.253544807,-0.882869482
773,1.55965415824e+18,-2.290179729,4.92795372,-1.319638133
774,1.55965415829e+18,-1.90594542,2.548022747,-2.04290247
775,1.55965415834e+18,-1.025077581,-4.826952934,-3.081373453
776,1.5596541584e+18,-2.452058792,-7.137245655,-2.970806837
777,1.55965415845e+18,-3.605372667,0.5010133386,-0.824226439
778,1.5596541585e+18,-3.797794819,2.927370071,-0.933571279
779,1.55965415855e+18,-3.246183872,0.2377304286,-1.904847026
780,1.5596541586e+18,-3.332315683,-1.31081295,-2.177293062
781,1.55965415866e+18,-3.26695323,1.015361905,-1.595138311
782,1.55965415871e+18,-2.93586421,0.6256299019,-1.476019621
783,1.55965415876e+18,-2.613327503,0.3605143428,-1.258551598
784,1.55965415881e+18,-1.739179254,0.7771244645,-0.8077331185
785,1.55965415886e+18,-0.9035155177,0.8498173952,-0.343475461
786,1.55965415892e+18,-0.3323565125,0.4057183862,0.07863240689
787,1.55965415897e+18,0.04943427071,0.6237972379,0.4084996283
788,1.55965415902e+18,0.08119926602,0.7636854053,0.4048344493
789,1.55965415907e+18,0.08058839291,0.9115147591,0.2887700498
790,1.55965415912e+18,-0.01104138978,1.358057261,0.2582267821
791,1.55965415918e+18,-0.02325869352,1.753287077,0.3217567801
792,1.55965415923e+18,0.03110831231,1.391044021,0.3626847565
793,1.55965415928e+18,0.1642769277,0.5248370767,0.3626847565
794,1.55965415933e+18,0.2516306639,-0.08602815121,0.324811101
795,1.55965415938e+18,0.2418568283,-0.193540439,0.1971402615
796,1.55965415944e+18,0.1801594347,0.09295536578,0.0688585639
797,1.55965415949e+18,0.09402743727,0.2420064807,-0.07774908841
798,1.55965415954e+18,-0.001878410578,0.1259420812,-0.2500130832
799,1.55965415959e+18,-0.1038929075,-0.04937623441,-0.3141539395
800,1.55965415964e+18,-0.1692554951,-0.2546269596,-0.2854432762
801,1.5596541597e+18,-0.1692554951,-0.4372756779,-0.2341306061
802,1.55965415975e+18,-0.1179428101,-0.4464386702,-0.1486094594
803,1.5596541598e+18,-0.05441282317,-0.2943331897,-0.05270362273
804,1.55965415985e+18,-0.003711006371,-0.134286508,0.02060020901
805,1.5596541599e+18,0.03782783076,-0.06709133089,0.1097865403
806,1.55965415996e+18,0.04882340506,-0.04998710379,0.2191314101
807,1.55965416001e+18,0.05554292351,-0.1727710068,0.2881591916
808,1.55965416006e+18,0.04760167375,-0.3065505028,0.2973221838
809,1.55965416011e+18,0.04760167375,-0.2857810855,0.2734984159
810,1.55965416016e+18,0.05493205786,-0.1367299706,0.2704440951
811,1.55965416022e+18,0.09769262373,-0.06159354374,0.2362356484
812,1.55965416027e+18,0.1215163693,0.06241210178,0.1476601809
813,1.55965416032e+18,0.1404531896,0.2132958174,0.05847385526
814,1.55965416037e+18,0.2198656797,-0.2650116682,0.05541953072
815,1.55965416042e+18,0.7891920805,-0.6791782975,0.07130202651
816,1.55965416048e+18,1.775128484,-2.100661516,0.521509707
817,1.55965416053e+18,2.59735322,-4.087806225,0.2710549533
818,1.55965416058e+18,2.701811314,-1.329138875,0.5160118937
819,1.55965416063e+18,2.269318581,0.5443847775,0.4188843369
820,1.55965416068e+18,1.506347895,0.2584998608,0.1275016218
821,1.55965416074e+18,0.8252331614,-0.00417220965,-0.186483115
822,1.55965416079e+18,0.1679421216,0.498569876,-0.4027293921
823,1.55965416084e+18,0.02622138895,-0.6138157248,-0.5297893882
824,1.55965416089e+18,0.9791711569,-0.4745384455,-0.1724332124
825,1.55965416094e+18,1.905853748,-0.3224330246,0.3437479138
826,1.559654161e+18,2.257712126,-0.6681827307,0.4115539491
827,1.55965416105e+18,1.735422373,-0.6474133134,0.3046525717
828,1.5596541611e+18,1.099511623,-0.4665971994,0.1378863305
829,1.55965416115e+18,0.484981209,-0.1794905365,-0.07041871548
830,1.5596541612e+18,0.04393647984,-0.04937623441,-0.1651028246
831,1.55965416126e+18,-0.3519042134,-0.1660514921,-0.1925917715
832,1.55965416131e+18,-0.5369963646,0.07707286626,-0.1382247657
833,1.55965416136e+18,-0.5504354239,-0.1623863131,-0.158994168
834,1.55965416141e+18,-0.4649142623,-0.2472965717,-0.4149467051
835,1.55965416146e+18,-0.4032168984,0.6824402809,-0.30071491
836,1.55965416152e+18,-0.734916687,1.19923234,-0.540784955
837,1.55965416157e+18,-1.294469237,2.088652134,-0.7014424801
838,1.55965416162e+18,-1.383655667,1.928605437,-1.061853051
839,1.55965416167e+18,-1.126481295,1.680594087,-1.290316701
840,1.55965416172e+18,-0.735527575,1.76550436,-1.4595263
841,1.55965416178e+18,0.1874898225,2.293902874,-1.374615908
842,1.55965416183e+18,0.75620538,1.660435557,-1.024590254
843,1.55965416188e+18,0.9675647616,1.569416642,-0.4534312189
844,1.55965416193e+18,1.067746639,2.301843882,0.01571328565
845,1.55965416198e+18,1.175869703,2.964021921,0.538613975
846,1.55965416204e+18,1.465419888,3.008004427,0.7004932165
847,1.55965416209e+18,1.73664403,1.819260478,0.7212626338
848,1.55965416214e+18,1.459311247,0.8559260368,0.6412393451
849,1.55965416219e+18,0.9877232909,0.5944756866,0.1158951893
850,1.55965416224e+18,0.4416097701,0.4393159449,-0.3245386779
851,1.5596541623e+18,0.1416749209,0.9530536532,-0.3624123037
852,1.55965416235e+18,0.05981897563,0.9335058928,0.3015982509
853,1.5596541624e+18,-0.9792628288,1.739237189,1.741407633
854,1.55965416245e+18,-0.6915453076,-0.8355597854,1.617401958
855,1.5596541625e+18,-0.8344877362,-0.704223752,1.685207963
856,1.55965416256e+18,-1.183291793,-0.3853521049,1.807381153
857,1.55965416261e+18,-1.711690187,-0.2979983687,1.442694426
858,1.55965416266e+18,-1.876623869,-1.545385242,1.211176515
859,1.55965416271e+18,-2.21382165,-2.074394464,0.4579797387
860,1.55965416276e+18,-3.616368055,3.127733946,0.376123786
861,1.55965416282e+18,-3.182043076,2.571235657,-0.8394980431
862,1.55965416287e+18,-1.612119198,0.5474390984,-0.03132333606
863,1.55965416292e+18,1.493519664,-2.945488214,2.407861471
864,1.55965416297e+18,3.560076952,-4.156834126,4.341249943
865,1.55965416302e+18,4.398795128,-5.445148945,4.175705433
866,1.55965416308e+18,4.398795128,-4.356586933,3.100582838
867,1.55965416313e+18,2.814210415,-4.359030724,2.260032177
868,1.55965416318e+18,1.056751132,-3.219156027,1.271652222
869,1.55965416323e+18,-0.8943525553,-3.425017595,-0.1461659968
870,1.55965416328e+18,-2.239477873,-2.822093487,-1.950662017
871,1.55965416334e+18,-4.047638893,1.435637236,-4.742926598
872,1.55965416339e+18,-1.574245572,-2.750011444,0.7566928267
873,1.55965416344e+18,5.338305473,-1.332193255,4.277720451
874,1.55965416349e+18,3.891776562,2.282296419,2.012020826
875,1.55965416354e+18,2.105606794,1.094774365,1.439640164
876,1.5596541636e+18,1.712209463,-2.828202248,0.9894325137
877,1.55965416365e+18,1.145326495,-1.835546255,2.030957699
878,1.5596541637e+18,0.8130158186,-0.9711718559,2.007744789
879,1.55965416375e+18,0.5601176023,-0.5185207725,2.0999856
880,1.5596541638e+18,0.0653167665,-0.01333518792,1.850141644
881,1.55965416386e+18,-0.5962502956,1.595683813,1.564256668
882,1.55965416391e+18,-0.8717505336,0.6885489225,-0.3892903626
883,1.55965416396e+18,-1.048901439,0.4551984668,-1.006875157
884,1.55965416401e+18,-1.122205377,0.2401738912,-0.8895890117
885,1.55965416406e+18,-0.9450542927,-0.3297633827,-0.1706006229
886,1.55965416412e+18,-0.5437158942,-0.2234728336,0.0816867277
887,1.55965416417e+18,-0.4184885025,0.6286842227,0.5825962424
888,1.55965416422e+18,0.09158396721,0.1399919838,0.2038597912
889,1.55965416427e+18,0.02499966137,0.6848837733,0.3003765047
890,1.55965416432e+18,0.2247525901,0.3971662521,-0.04109717906
891,1.55965416438e+18,0.06104071066,0.5419413447,-0.3123213649
892,1.55965416443e+18,-0.2535548806,0.9005192518,-0.4204444885
893,1.55965416448e+18,-0.5143943429,1.078281045,-0.3953990042
894,1.55965416453e+18,-0.8033336401,1.074615836,-0.5621652007
895,1.55965416458e+18,-1.263926029,2.200440407,-0.5743825436
896,1.55965416464e+18,-1.766057253,3.434998989,-0.9024171829
897,1.55965416469e+18,-1.894338965,3.001284838,-1.403326631
898,1.55965416474e+18,-1.937710285,2.6628654,-1.611020923
899,1.55965416479e+18,-2.166174173,2.725784779,-2.064282894
900,1.55965416484e+18,-2.124024153,2.289626598,-2.89017272
901,1.5596541649e+18,-2.571788549,0.7887309194,-3.833959579
902,1.55965416495e+18,-3.059869766,0.4093835652,-3.743551493
903,1.559654165e+18,-3.940737486,0.7001553774,-3.936584949
904,1.55965416505e+18,-4.271215916,1.937157631,-2.968974352
905,1.5596541651e+18,-3.726323843,0.7691831589,-2.978748083
906,1.55965416515e+18,-3.229079485,-0.5185207725,-2.548698902
907,1.55965416521e+18,-2.252916813,-0.5771638155,-1.899349213
908,1.55965416526e+18,-0.7239211202,1.348894238,-0.6660123467
909,1.55965416531e+18,0.476429075,2.544968605,0.5636594296
910,1.55965416536e+18,1.275440812,2.435623646,1.181854963
911,1.55965416541e+18,1.613249302,2.01046133,1.74873805
912,1.55965416547e+18,1.894247293,0.8211067319,2.196502209
913,1.55965416552e+18,1.922958016,0.4307638407,2.227656364
914,1.55965416557e+18,1.720150709,-0.09641286731,2.083492279
915,1.55965416562e+18,1.530171633,-0.4623211324,1.625954151
916,1.55965416567e+18,1.085461617,-0.2851702273,1.06334722
917,1.55965416573e+18,0.7195534706,0.2664411068,0.5734332204
918,1.55965416578e+18,0.3799123466,0.1955807209,0.214855358
919,1.55965416583e+18,0.2235308737,-0.3083830774,-0.03010160662
920,1.55965416588e+18,0.06470590085,-0.3273199201,-0.1504420638
921,1.55965416593e+18,0.04882340506,-0.1825448573,-0.08507947624
922,1.55965416599e+18,0.09708175808,0.4723026752,-0.1449442804
923,1.55965416604e+18,0.0763123408,0.5059002638,0.06030644849
924,1.55965416609e+18,0.1600008905,0.6109691262,0.1018452868
925,1.55965416614e+18,0.1044121385,1.636611819,0.2887700498
926,1.55965416619e+18,-0.01226312015,1.526045322,0.4378211796
927,1.55965416625e+18,-0.2254550904,0.1827525496,0.6772803068
928,1.5596541663e+18,-0.6164088845,0.5248370767,1.286923885
929,1.55965416635e+18,-0.4722446501,-1.23445487,1.230113387
930,1.5596541664e+18,-0.4862945676,-0.7097215652,2.088379145
931,1.55965416645e+18,-0.4215428531,-2.218558788,2.762774467
932,1.5596541665e+18,0.9241933227,-2.619897127,3.243525028
933,1.55965416656e+18,2.153865099,-3.056665659,3.496423244
934,1.55965416661e+18,3.027402401,-4.004728794,3.134791374
935,1.55965416666e+18,2.669435263,-3.302844524,2.517817497
936,1.55965416671e+18,2.309024811,-3.84712553,1.919780254
937,1.55965416676e+18,1.342635989,-2.703585625,1.431087971
938,1.55965416682e+18,-0.1643685549,-1.596086979,0.8080055118
939,1.55965416687e+18,-0.5602092147,-3.870949268,-0.917688787
940,1.55965416692e+18,-2.360429287,-1.237509131,-3.420403719
941,1.55965416697e+18,-3.344532967,3.409342766,-6.35744381
942,1.55965416702e+18,1.007271051,11.47276402,0.9497262836
943,1.55965416708e+18,3.079936743,-2.980918407,4.632632732
944,1.55965416713e+18,2.575972795,-1.778735757,0.3278654218
945,1.55965416718e+18,0.3377626538,4.893744946,1.007147551
946,1.55965416723e+18,0.2571284473,1.392265797,-0.1571615785
947,1.55965416728e+18,-0.1674228907,-0.3138808906,0.2093575746
948,1.55965416734e+18,-0.8021118641,0.7600201964,0.1207821146
949,1.55965416739e+18,-0.4600273371,-0.8532748818,-0.01482997555
950,1.55965416744e+18,-0.4453665912,-0.1495581418,-0.08507947624
951,1.55965416749e+18,-0.4459774494,-0.2479074448,-0.03315593302
952,1.55965416754e+18,-0.5431050658,-0.4525473118,0.0230436679
953,1.5596541676e+18,-0.7141472697,-1.072575569,-0.08019255847
954,1.55965416765e+18,-0.8155509233,-1.121444702,0.02731972747
955,1.5596541677e+18,-0.8357094526,-1.868533015,0.00227425131
956,1.55965416775e+18,-1.150305033,-1.527670145,0.1629318148
957,1.5596541678e+18,-1.522322059,-0.6400829554,-0.08019255847
958,1.55965416786e+18,-1.660377622,0.02026239969,-0.3526384532
959,1.55965416791e+18,-1.748952985,0.6378471851,-1.240836501
960,1.55965416796e+18,-1.573023796,2.465555906,-1.430204749
961,1.55965416801e+18,-1.359220982,2.45456028,-2.186455727
962,1.55965416806e+18,-1.419696689,3.019000053,-2.038626671
963,1.55965416812e+18,-1.257817388,3.005560875,-1.409435272
964,1.55965416817e+18,-1.051344872,2.774653912,-1.008096814
965,1.55965416822e+18,-0.6084675789,1.342174768,-0.6751753092
966,1.55965416827e+18,-0.7245320082,1.36783123,-0.6708992124
967,1.55965416832e+18,-0.5724265575,1.216336489,-0.2408501059
968,1.55965416838e+18,-0.4404796362,0.408772707,-0.2994931936
969,1.55965416843e+18,-0.5699830651,0.5071219802,-0.1021837071
970,1.55965416848e+18,-0.6280152798,0.1418245882,-0.1498311907
971,1.55965416853e+18,-0.5693722367,0.1045618057,-0.4589290023
972,1.55965416858e+18,-0.4710229039,-0.2454639673,-0.3605796993
973,1.55965416864e+18,-0.07640396804,-1.187418222,-0.831556797
974,1.55965416869e+18,-0.04402811453,-1.812333345,-0.531621933
975,1.55965416874e+18,0.1276250184,-1.614413023,-0.5297893882
976,1.55965416879e+18,0.1337336749,-1.075019002,-0.04109717906
977,1.55965416884e+18,0.2895042896,-0.6742913723,0.2270726562
978,1.5596541689e+18,0.3487582505,-0.1355082393,0.4671427011
979,1.55965416895e+18,0.467876941,-0.1923187077,0.4262147248
980,1.559654169e+18,0.4532161951,-0.1067975685,0.2423443049
981,1.55965416905e+18,0.3640298843,0.2884322405,0.1177277863
982,1.5596541691e+18,0.2962238193,0.2511694729,-0.0081104571
983,1.55965416916e+18,0.1923767328,0.2701062858,-0.03437766433
984,1.55965416921e+18,0.2265851945,0.4454246163,-0.2115285844
985,1.55965416926e+18,0.134344548,0.503456831,-0.2518456876
986,1.55965416931e+18,0.1172403097,0.223680526,-0.4913048744
987,1.55965416936e+18,0.07997753471,0.4729135334,-0.4796984196
988,1.55965416942e+18,0.04637994245,0.6317385435,-0.6574602127
989,1.55965416947e+18,-0.01715004072,0.5822584033,-0.6568493843
990,1.55965416952e+18,-0.1258840561,0.2756040692,-0.7704702616
991,1.55965416957e+18,-0.02814561687,0.1161682457,-0.6959447265
992,1.55965416962e+18,0.1001360863,0.2621650398,-0.4607616067
993,1.55965416968e+18,0.0592081137,1.011696696,-0.1846505105
994,1.55965416973e+18,0.02438879572,2.098426104,0.03526097536
995,1.55965416978e+18,-0.2957046032,0.8595912457,0.5575507879
996,1.55965416983e+18,-0.4209319651,0.9512209892,2.057224751
997,1.55965416988e+18,-0.7251428962,-1.183753014,2.205054522
998,1.55965416994e+18,-0.2840981483,-1.737196922,1.732855439
999,1.55965416999e+18,0.1196837798,-0.359084934,1.936273575
1000,1.55965417004e+18,0.5014745593,-0.9772804976,2.316842794
1001,1.55965417009e+18,0.75620538,-2.950375319,3.121963024
1002,1.55965417014e+18,1.731757164,-2.987638235,3.141510725
1003,1.5596541702e+18,2.053683043,-3.425628424,2.810421944
1004,1.55965417025e+18,2.379274368,-4.022443771,1.747516274
1005,1.5596541703e+18,1.593090653,-2.195345879,1.453690052
1006,1.55965417035e+18,0.3970166147,-0.3523653746,1.0437994
1007,1.5596541704e+18,-0.3293021917,-0.323043853,0.9943193793
1008,1.55965417046e+18,0.05371032655,-1.255835056,0.7560819983
1009,1.55965417051e+18,0.3560886085,-2.005977631,0.5850396752
1010,1.55965417056e+18,-0.1759750098,-1.592421889,0.2527289987
1011,1.55965417061e+18,-0.6365673542,-3.140965223,-0.8798151612
1012,1.55965417066e+18,-2.384863853,-2.192902327,-2.927435637
1013,1.55965417072e+18,-3.989606619,2.050167799,-5.44908762
1014,1.55965417077e+18,-3.456932068,3.822898388,-3.486377239
1015,1.55965417082e+18,3.637656689,-1.123277307,4.972884655
1016,1.55965417087e+18,4.021279812,-1.151377201,2.422522545
1017,1.55965417092e+18,3.486773014,0.5370543599,1.982699394
1018,1.55965417098e+18,3.368265152,-1.866089463,1.438418508
1019,1.55965417103e+18,2.283368349,-0.6797891855,1.309525847
1020,1.55965417108e+18,1.421437621,-0.03105027974,1.174524665
1021,1.55965417113e+18,0.1086882055,1.705028653,0.9515588284
1022,1.55965417118e+18,-0.4924032092,0.3519622087,0.1696513146
1023,1.55965417124e+18,-1.018969059,0.2896539569,-0.5658304691
1024,1.55965417129e+18,-1.48567009,0.8730302453,-0.4833636284
1025,1.55965417134e+18,-1.400148869,-0.5362358689,-0.7093837857
1026,1.55965417139e+18,-1.343949318,-0.8697682619,-0.5163503289
1027,1.55965417144e+18,-1.35005796,-0.5282946229,-0.3837925792
1028,1.5596541715e+18,-1.137476921,-0.08908247948,-0.3361450732
1029,1.55965417155e+18,-0.9664346576,-0.02555249445,-0.3996750712
1030,1.5596541716e+18,-0.7599621415,0.08501411229,-0.383181721
1031,1.55965417165e+18,-0.5577657819,0.1259420812,-0.3465298116
1032,1.5596541717e+18,-0.4698011875,0.1937481165,-0.3734078705
1033,1.55965417176e+18,-0.4740772545,0.3678447306,-0.2017547488
1034,1.55965417181e+18,-0.5840329528,0.191915527,-0.1388356239
1035,1.55965417186e+18,-0.6005263925,-0.1672732234,-0.1809853166
1036,1.55965417191e+18,-0.786229372,-0.01211345755,-0.2555108666
1037,1.55965417196e+18,-0.8686961532,0.4790221751,-0.08935553581
1038,1.55965417202e+18,-0.7471340299,0.1980241835,-0.1596050411
1039,1.55965417207e+18,-0.8784700036,0.7612419724,-0.02704728208
1040,1.55965417212e+18,-1.027521133,1.183349848,-0.04903842881
1041,1.55965417217e+18,-1.467954993,1.559642792,-0.2402392626
1042,1.55965417222e+18,-2.081874609,2.177227497,-0.8468284011
1043,1.55965417227e+18,-2.850953817,2.991510868,-1.697763681
1044,1.55965417233e+18,-3.440438986,3.027551889,-2.8932271
1045,1.55965417238e+18,-3.390958786,1.330568314,-3.894435167
1046,1.55965417243e+18,-3.657907009,-0.457434237,-4.463761806
1047,1.55965417248e+18,-3.817953587,-1.348075747,-3.628098011
1048,1.55965417253e+18,-4.04886055,-1.570430636,-2.402091265
1049,1.55965417259e+18,-3.62797451,-0.2717311978,-1.401494145
1050,1.55965417264e+18,-2.922425032,0.3171429038,-1.601247072
1051,1.55965417269e+18,-2.433122158,1.046515942,-1.647061944
1052,1.55965417274e+18,-1.592571497,0.5865345001,-1.597581744
1053,1.55965417279e+18,-0.7654599547,-0.2986092567,-0.9787753224
1054,1.55965417285e+18,-0.298758924,-1.093344927,-0.2054199427
1055,1.5596541729e+18,0.02744312026,-1.26805234,0.3321414888
1056,1.55965417295e+18,0.2778978646,-0.7903558016,0.6504023075
1057,1.559654173e+18,0.4660443664,0.1186117008,0.8868071437
1058,1.55965417305e+18,0.4275598526,0.8192741871,0.9698848128
1059,1.55965417311e+18,0.2992781699,0.8766955137,0.8037294149
1060,1.55965417316e+18,0.2546849847,0.4069401026,0.6247459054
1061,1.55965417321e+18,0.2113135457,-0.142227754,0.5257857442
1062,1.55965417326e+18,0.2235308737,-0.4244475067,0.5532746911
1063,1.55965417331e+18,0.1606117338,-0.5044708848,0.4982968569
1064,1.55965417337e+18,0.02377793007,-0.4812579751,0.2747201622
1065,1.55965417342e+18,-0.1264949143,-0.5026382208,-0.07897082716
1066,1.55965417347e+18,-0.2138486505,-0.3743565381,-0.4045620263
1067,1.55965417352e+18,-0.2682156563,0.01293201745,-0.6043149233
1068,1.55965417357e+18,-0.3512933254,0.3592925966,-0.7356509566
1069,1.55965417363e+18,-0.3384651542,0.3134777248,-0.8223938346
1070,1.55965417368e+18,-0.2602744102,0.31836465,-0.728320539
1071,1.55965417373e+18,-0.2034639418,0.3116451204,-0.5487262011
1072,1.55965417378e+18,-0.08373434842,0.2530020475,-0.3569145203
1073,1.55965417383e+18,-0.003100140952,0.2395630181,-0.166935429
1074,1.55965417389e+18,0.06714936346,0.2444499582,-0.003834401025
1075,1.55965417394e+18,0.08914051205,0.2609432936,0.1366646141
1076,1.55965417399e+18,0.1257924289,0.1515984386,0.2313487232
1077,1.55965417404e+18,0.1410640627,0.00865595974,0.3394718766
1078,1.55965417409e+18,0.1722181886,-0.05853921548,0.4207169414
1079,1.55965417415e+18,0.1801594347,-0.1318430454,0.4720296264
1080,1.5596541742e+18,0.1801594347,-0.2179750502,0.4671427011
1081,1.55965417425e+18,0.1758833826,-0.2124772668,0.4030018747
1082,1.5596541743e+18,0.1404531896,-0.137951687,0.3125938177
1083,1.55965417435e+18,0.09647089243,-0.07503257692,0.1910316199
1084,1.55965417441e+18,0.04027128965,-0.05915008113,0.0505326055
1085,1.55965417446e+18,-0.007987063378,-0.04082412273,-0.07102958113
1086,1.55965417451e+18,-0.08739954233,0.03125797585,-0.1919808984
1087,1.55965417456e+18,-0.1692554951,0.03003624268,-0.3153756857
1088,1.55965417461e+18,-0.2205681652,0.004990769085,-0.4186119139
1089,1.55965417467e+18,-0.2126269192,0.003769038711,-0.4406030476
1090,1.55965417472e+18,-0.1814727932,0.09234450012,-0.3618014157
1091,1.55965417477e+18,-0.1264949143,0.08073806018,-0.2426827103
1092,1.55965417482e+18,-0.07457137108,-0.001117883483,-0.1070706248
1093,1.55965417487e+18,-0.009819659404,-0.08358469605,-0.01421911083
1094,1.55965417493e+18,0.03843869269,-0.05731748417,0.0566412583
1095,1.55965417498e+18,0.0885296464,-0.04754364118,0.09634749591
1096,1.55965417503e+18,0.1355662644,-0.03654807061,0.1220038384
1097,1.55965417508e+18,0.2039831728,0.2035219669,0.1806468964
1098,1.55965417513e+18,0.2363590449,0.8870801926,0.4427081048
1099,1.55965417519e+18,0.4538270533,0.9848185778,0.5544964671
1100,1.55965417524e+18,0.4831486046,0.8650890589,0.6424610019
1101,1.55965417529e+18,0.6120411158,-0.1367299706,0.5868723392
1102,1.55965417534e+18,0.728105545,-0.4262800813,0.580763638
1103,1.55965417539e+18,0.8710480332,-0.06159354374,0.7175974846
1104,1.55965417545e+18,0.9431301355,0.191915527,0.7792948484
1105,1.5596541755e+18,1.078742146,0.4209899902,0.9161286354
1106,1.55965417555e+18,1.052474976,0.5309457183,1.137261868
1107,1.5596541756e+18,1.095235586,0.1118921861,1.128709674
1108,1.55965417565e+18,0.9767277241,0.1503766924,1.073731899
1109,1.55965417571e+18,1.027429581,0.3336362541,0.9656087756
1110,1.55965417576e+18,0.9211390018,0.4912394881,0.8880288601
1111,1.55965417581e+18,0.9327453971,0.1888612062,0.6937736869
1112,1.55965417586e+18,0.9003695846,0.2285674512,0.5630485415
1113,1.55965417591e+18,0.8551655412,0.4845199883,0.5832070708
1114,1.55965417597e+18,0.9046456218,0.7630745173,0.6216915846
1115,1.55965417602e+18,0.8179027438,0.9890946746,0.7579145432
1116,1.55965417607e+18,0.728105545,1.272536159,0.675447762
1117,1.55965417612e+18,0.5863848329,0.8852475882,0.4763056934
1118,1.55965417617e+18,0.4770399332,0.5052893758,0.3944497406
1119,1.55965417623e+18,0.2852282524,0.8565369248,0.3608521521
1120,1.55965417628e+18,-0.03547599912,0.9597731233,0.6100851297
1121,1.55965417633e+18,-0.4630816579,1.573692799,1.607017159
1122,1.55965417638e+18,-0.1771967262,-0.4739275873,1.112827301
1123,1.55965417643e+18,-0.7312515378,-0.1428386271,1.440251112
1124,1.55965417649e+18,-0.1289383918,-1.566154718,1.439029336
1125,1.55965417654e+18,0.4837594628,-2.133037567,2.429241896
1126,1.55965417659e+18,1.541167259,-2.371275187,2.888612509
1127,1.55965417664e+18,2.246716499,-3.294903278,3.217868805
1128,1.55965417669e+18,2.838644981,-4.296111107,2.4084723
1129,1.55965417675e+18,2.424478292,-3.538638353,1.406042576
1130,1.5596541768e+18,1.092181325,-0.4745384455,1.257602334
1131,1.55965417685e+18,-0.04524984211,0.4325964451,1.085949183
1132,1.5596541769e+18,-0.2779895067,-0.09274767339,0.3669608235
1133,1.55965417695e+18,-0.172920689,-0.6413046718,-0.2524565458
1134,1.55965417701e+18,-0.2456136495,-0.018832976,0.198972851
1135,1.55965417706e+18,-0.1277166456,-0.704223752,0.3822324276
1136,1.55965417711e+18,0.2210873961,-0.8984789252,0.0566412583
1137,1.55965417716e+18,0.5387372971,-1.217961431,0.06213904545
1138,1.55965417721e+18,0.5998238325,-1.366401792,0.1366646141
1139,1.55965417727e+18,0.369527638,-1.068910241,0.3144263923
1140,1.55965417732e+18,-0.1802510619,-1.588145733,-0.11195755
1141,1.55965417737e+18,-0.7489666343,-2.514217615,-1.366063833
1142,1.55965417742e+18,-3.254125118,-1.496515989,-3.333050013
1143,1.55965417747e+18,-2.225427866,2.955470085,-5.728252411
1144,1.55965417753e+18,0.7097796202,13.75801086,1.511722326
1145,1.55965417758e+18,4.99194479,-7.164734364,1.905730367
1146,1.55965417763e+18,3.18989253,0.1809199452,1.390160084
1147,1.55965417768e+18,0.1984854043,4.683608055,0.2215748727
1148,1.55965417773e+18,-0.4313166738,1.867518902,-1.085065961
1149,1.55965417779e+18,-0.3433520794,0.5504934192,-0.1522746533
1150,1.55965417784e+18,0.1832137555,-0.8007404804,0.1696513146
1151,1.55965417789e+18,0.1703855842,0.05874691159,0.7493624091
1152,1.55965417794e+18,0.5497329235,-1.225902677,0.8648159504
1153,1.55965417799e+18,0.373803705,-0.60220927,0.906965673
1154,1.55965417805e+18,0.2143678963,-0.3633609712,0.8018968701
1155,1.5596541781e+18,-0.004321871791,-0.6351959705,0.5270075202
1156,1.55965417815e+18,0.2149787396,-1.129996777,0.2484529465
1157,1.5596541782e+18,0.1196837798,-0.7805818915,0.1843120903
1158,1.55965417825e+18,0.08242098987,-0.7677537799,0.08474105597
1159,1.55965417831e+18,0.09341656417,-0.7683646083,0.01876761205
1160,1.55965417836e+18,0.06898195297,-0.5997658372,-0.0636991933
1161,1.55965417841e+18,-0.07151705027,-0.1513907313,0.1000126898
1162,1.55965417846e+18,-0.08373434842,-0.4824796915,0.1427732557
1163,1.55965417851e+18,-0.334189117,-0.4299452901,0.2539507151
1164,1.55965417857e+18,-0.3396869004,-0.2020925432,0.1482710391
1165,1.55965417862e+18,-0.3830583096,-0.04448931664,0.045645684
1166,1.55965417867e+18,-0.538218081,0.2902648449,-0.03132333606
1167,1.55965417872e+18,-0.9285609722,0.5956974626,-0.06797525287
1168,1.55965417877e+18,-1.560195684,1.121652484,-0.1284509152
1169,1.55965417883e+18,-2.361650944,1.837586522,-0.779633224
1170,1.55965417888e+18,-3.613924503,2.703182697,-1.680659533
1171,1.55965417893e+18,-4.540607452,3.243187428,-2.988522053
1172,1.55965417898e+18,-4.731197357,3.414229631,-4.127174854
1173,1.55965417903e+18,-4.536942005,1.50710845,-4.819285393
1174,1.55965417909e+18,-4.591919899,0.1167791039,-4.193148613
1175,1.55965417914e+18,-4.199744225,-0.02982855029,-3.187664032
1176,1.55965417919e+18,-3.411117315,-0.4482712448,-2.289081335
1177,1.55965417924e+18,-2.585227489,-1.110449195,-1.822991133
1178,1.55965417929e+18,-1.763002872,-0.8465553522,-1.761904597
1179,1.55965417935e+18,-1.397094607,0.5956974626,-1.386222363
1180,1.5596541794e+18,-1.115485668,0.9787099361,-1.052690029
1181,1.55965417945e+18,-0.6054132581,0.2401738912,-0.780855
1182,1.5596541795e+18,-0.2547766268,-0.8813747168,-0.4687028527
1183,1.55965417955e+18,0.02866485156,-1.37067771,-0.06858611852
1184,1.5596541796e+18,0.2333047092,-0.5105795264,0.3199241757
1185,1.55965417966e+18,0.2467437387,0.4405376911,0.5160118937
1186,1.55965417971e+18,0.3340974748,0.5859236717,0.6015330553
1187,1.55965417976e+18,0.3597538173,0.353794843,0.6919410825
1188,1.55965417981e+18,0.3371517956,-0.005393940024,0.7206518054
1189,1.55965417986e+18,0.2632370889,-0.08114122599,0.6711716652
1190,1.55965417992e+18,0.09097310901,-0.07686517388,0.5331161618
1191,1.55965417997e+18,0.05065600201,0.05263825879,0.2973221838
1192,1.55965418002e+18,-0.1124450192,0.8143872023,0.371847719
1193,1.55965418007e+18,0.07142541558,0.3232515454,0.3700151443
1194,1.55965418012e+18,0.06104071066,-0.3835195303,0.2496746778
1195,1.55965418018e+18,0.1868789494,-0.5899919868,0.2411225587
1196,1.55965418023e+18,0.3915188015,-0.0127243232,0.3773455322
1197,1.55965418028e+18,0.4776508212,0.5083436966,0.6717825532
1198,1.55965418033e+18,0.7476532459,-0.1440603435,0.8367161751
1199,1.55965418038e+18,0.9687864184,-0.0200547073,0.9998171926
1200,1.55965418044e+18,1.083018303,0.1467114985,1.230724216
1201,1.55965418049e+18,1.324310064,0.08990103751,1.328462601
1202,1.55965418054e+18,1.437320113,0.2450608015,1.443916202
1203,1.55965418059e+18,1.403722525,0.4038857818,1.468961716
1204,1.55965418064e+18,1.364627242,0.06668815762,1.363281965
1205,1.5596541807e+18,1.152656913,-0.3957368433,1.026695371
1206,1.55965418075e+18,0.8679937124,-0.7549256086,0.4848577976
1207,1.5596541808e+18,0.5814979076,-0.5337923765,0.1904207468
1208,1.55965418085e+18,0.3328757286,-0.3309850991,0.03770443797
1209,1.5596541809e+18,0.2119244188,0.006823364645,0.09818009287
1210,1.55965418096e+18,0.1483944356,0.2340652347,0.2289052606
1211,1.55965418101e+18,0.1490053087,0.6201320887,0.32847628
1212,1.55965418106e+18,0.02805398591,0.5889779925,0.2991547585
1213,1.55965418111e+18,-0.03853032738,0.5285022855,0.2081358284
1214,1.55965418116e+18,-0.01287398487,0.5236153603,0.1684295982
1215,1.55965418122e+18,0.01400408521,0.3947228193,0.09695836902
1216,1.55965418127e+18,0.1795485616,0.3733424842,0.1323885471
1217,1.55965418132e+18,0.2595719099,0.7313095927,0.06946942955
1218,1.55965418137e+18,0.3829666972,1.241382122,0.07374548167
1219,1.55965418142e+18,0.4409989119,1.068507195,-0.1131792814
1220,1.55965418148e+18,0.4281707108,1.926772833,0.3437479138
1221,1.55965418153e+18,-0.05196936056,2.24930954,1.98392117
1222,1.55965418158e+18,0.9443518519,-0.9051984549,0.5599942207
1223,1.55965418163e+18,-0.2028530687,-1.323641062,2.220325947
1224,1.55965418168e+18,0.2901151776,-1.859369993,1.968649507
1225,1.55965418174e+18,0.8417264819,-1.985208273,2.661370516
1226,1.55965418179e+18,1.621801376,-4.076810837,3.209927797
1227,1.55965418184e+18,2.219227552,-4.363917351,2.660148859
1228,1.55965418189e+18,2.448302031,-3.096982956,2.112202883
1229,1.55965418194e+18,2.29253149,-3.756717443,1.209344029
1230,1.559654182e+18,1.071411848,-1.943669319,1.096333861
1231,1.55965418205e+18,0.2174222171,-1.335247517,0.9240698814
1232,1.5596541821e+18,-0.05196936056,-1.458642364,0.03526097536
1233,1.55965418215e+18,-0.4966792464,-1.870976448,-0.5310111046
1234,1.5596541822e+18,-1.196120024,-2.590575695,-1.563984275
1235,1.55965418226e+18,-3.443493128,1.867518902,-4.460096359
1236,1.55965418231e+18,-1.820424199,2.125303984,-2.314737558
1237,1.55965418236e+18,3.665145636,-0.4916426837,1.883739233
1238,1.55965418241e+18,2.139815092,0.8418761492,0.8935266733
1239,1.55965418246e+18,0.1135751158,2.528475046,-0.1510529369
1240,1.55965418252e+18,-0.5376072526,2.193721056,0.183090359
1241,1.55965418257e+18,-0.632902205,2.286572456,0.2484529465
1242,1.55965418262e+18,-0.6304587126,0.1277746856,0.530061841
1243,1.55965418267e+18,-0.4233754277,-1.444592357,0.2380682379
1244,1.55965418272e+18,-0.007376197726,-1.527670145,-0.08752293885
1245,1.55965418278e+18,-0.1271057874,-0.4458277822,-0.304990977
1246,1.55965418283e+18,-0.08312349021,-0.5215750933,-0.7924614549
1247,1.55965418288e+18,-0.2480570972,-0.2375227362,-0.7839093208
1248,1.55965418293e+18,0.007895433344,-0.2308032215,-0.685559988
1249,1.55965418298e+18,0.07142541558,-0.1214583367,-0.4100597799
1250,1.55965418304e+18,0.1514487565,0.05569258332,-0.3110996187
1251,1.55965418309e+18,0.07875579596,0.1601505429,-0.06308832765
1252,1.55965418314e+18,0.1526705027,-0.2686768472,-0.2011438757
1253,1.55965418319e+18,-0.08801040798,-0.1098518968,0.08351932466
1254,1.55965418324e+18,-0.1820836663,-0.9479590058,0.3773455322
1255,1.5596541833e+18,-0.5705939531,-0.9497916102,1.109162092
1256,1.55965418335e+18,-1.284695387,-0.6296982169,1.591134787
1257,1.5596541834e+18,-2.084318161,-0.7341561913,1.701701403
1258,1.55965418345e+18,-2.876610279,0.191915527,1.451246619
1259,1.5596541835e+18,-3.319487572,2.011682987,0.5044054985
1260,1.55965418355e+18,-3.806347132,4.334192753,-0.8425523639
1261,1.55965418361e+18,-3.764197588,5.656105042,-2.263425112
1262,1.55965418366e+18,-2.414796114,3.408731937,-3.235922337
1263,1.55965418371e+18,-1.658544898,0.4765787423,-3.430788279
1264,1.55965418376e+18,-1.605399609,-0.834338069,-3.140016556
1265,1.55965418381e+18,-1.883343339,-2.429307222,-2.716076136
1266,1.55965418387e+18,-2.005516291,-1.079295039,-1.672107458
1267,1.55965418392e+18,-2.073322535,0.7887309194,-1.134546041
1268,1.55965418397e+18,-1.883954167,1.419143796,-0.9451777339
1269,1.55965418402e+18,-1.72696197,0.9927598834,-1.151039362
1270,1.55965418407e+18,-1.337840676,0.3446318507,-1.309864283
1271,1.55965418413e+18,-0.9303935766,-0.1355082393,-1.255497336
1272,1.55965418418e+18,-0.6994864941,-0.1312321723,-0.8969193697
1273,1.55965418423e+18,-0.4661359787,0.05080566555,-0.4625942111
1274,1.55965418428e+18,-0.1368796229,0.04836220294,-0.03621025756
1275,1.55965418433e+18,0.09036224335,0.1008966118,0.2350139171
1276,1.55965418439e+18,0.1874898225,0.2071871608,0.3889519572
1277,1.55965418444e+18,0.3004998863,0.1393811256,0.427436471
1278,1.55965418449e+18,0.3438712955,0.219404459,0.4665318429
1279,1.55965418454e+18,0.3249345124,0.3544057012,0.4836360812
1280,1.55965418459e+18,0.2620153725,0.3116451204,0.4384320378
1281,1.55965418465e+18,0.1881006807,0.08073806018,0.3083177507
1282,1.5596541847e+18,0.09708175808,-0.1092410386,0.1537688226
1283,1.55965418475e+18,0.001786780776,-0.09763459116,0.006550308317
1284,1.5596541848e+18,-0.1161102131,-0.02555249445,-0.1577724516
1285,1.55965418485e+18,-0.1625359654,-0.04571104795,-0.3214843273
1286,1.55965418491e+18,-0.2303420156,0.1070052609,-0.4063946009
1287,1.55965418496e+18,-0.2798220813,0.1454897821,-0.4320509434
1288,1.55965418501e+18,-0.2688265145,0.05813604221,-0.4271639884
1289,1.55965418506e+18,-0.2333963364,-0.002339613857,-0.3892903626
1290,1.55965418511e+18,-0.1503186673,0.0563034527,-0.2518456876
1291,1.55965418517e+18,-0.07823656499,0.2230696529,-0.08141428232
1292,1.55965418522e+18,-0.01837177202,0.2817127407,0.06458250433
1293,1.55965418527e+18,0.01461495087,0.2383412868,0.1647644043
1294,1.55965418532e+18,0.04760167375,0.09478796273,0.2337921709
1295,1.55965418537e+18,0.09524916112,-0.001117883483,0.2728875279
1296,1.55965418543e+18,0.1135751158,0.05080566555,0.2753310204
1297,1.55965418548e+18,0.120294638,0.1118921861,0.2405117005
1298,1.55965418553e+18,0.1001360863,0.1125030518,0.1812577695
1299,1.55965418558e+18,0.06104071066,0.04225354642,0.1116191298
1300,1.55965418563e+18,0.01278235577,-0.03715893254,0.01265896019
1301,1.55965418569e+18,-0.02020436898,-0.09641286731,-0.08446861058
1302,1.55965418574e+18,-0.009819659404,-0.05181969702,-0.1479986012
1303,1.55965418579e+18,-0.01287398487,0.09234450012,-0.1760984063
1304,1.55965418584e+18,0.04027128965,0.1638157368,-0.1980895549
1305,1.55965418589e+18,0.3377626538,1.742902398,-0.08996640146
1306,1.55965418595e+18,0.8624958992,3.133842468,0.5618268251
1307,1.559654186e+18,1.66028583,1.565751433,0.6785020828
1308,1.55965418605e+18,2.128208637,1.531543016,1.054795027
1309,1.5596541861e+18,2.47151494,1.408759117,1.057238579
1310,1.55965418615e+18,2.433641434,1.723965526,1.055405855
1311,1.55965418621e+18,2.170358419,1.544371247,1.047464728
1312,1.55965418626e+18,1.725037575,1.291473031,0.8550421
1313,1.55965418631e+18,1.268721342,1.111878514,0.8067837358
1314,1.55965418636e+18,1.17037189,0.8699759245,0.5233423114
1315,1.55965418641e+18,0.9058673978,0.6958793402,0.2838831246
1316,1.55965418647e+18,0.9455736279,0.6525079608,0.2276835293
1317,1.55965418652e+18,0.7623140216,1.000090241,0.3639064729
1318,1.55965418657e+18,0.6236475706,1.100883007,0.3296980262
1319,1.55965418662e+18,0.378079772,1.603625178,0.4799708724
1320,1.55965418667e+18,0.1361771375,1.014751077,0.6974388957
1321,1.55965418673e+18,-0.5602092147,0.04347528145,0.9094091058
1322,1.55965418678e+18,-1.119761825,0.5523260236,1.704755783
1323,1.55965418683e+18,-0.7208667994,-1.276604533,1.39138186
1324,1.55965418688e+18,-1.161911488,-0.9113071561,1.685207963
1325,1.55965418693e+18,-1.337229848,-0.1929295659,1.136651039
1326,1.55965418699e+18,-2.417239428,-0.1110736281,0.9643869996
1327,1.55965418704e+18,-2.849121332,-1.217961431,0.8770332932
1328,1.55965418709e+18,-2.91937089,1.158915162,0.8434356451
1329,1.55965418714e+18,-1.477117896,-1.654730082,2.136026621
1330,1.55965418719e+18,1.393948674,-2.252767086,3.135402203
1331,1.55965418725e+18,2.81298852,-2.217336893,3.814684391
1332,1.5596541873e+18,3.31573081,-2.896008253,3.745045662
1333,1.55965418735e+18,2.592466354,-2.38349247,3.403572083
1334,1.5596541874e+18,1.522841215,-2.872795343,2.515984535
1335,1.55965418745e+18,1.648068547,-3.927148819,0.3590195477
1336,1.55965418751e+18,0.4312250316,-0.05853921548,1.074342728
1337,1.55965418756e+18,-0.8558680415,0.3892250061,1.211787462
1338,1.55965418761e+18,-1.115485668,-1.192305088,1.233167768
1339,1.55965418766e+18,-0.8961851001,-1.290043592,1.238665581
1340,1.55965418771e+18,-0.2541657686,-1.283934951,0.1910316199
1341,1.55965418777e+18,-0.04952589795,-1.065245152,-0.344086349
1342,1.55965418782e+18,-0.2016313523,-2.145865679,-0.9372364879
1343,1.55965418787e+18,-1.65793407,-2.161137342,-2.870625019
1344,1.55965418792e+18,-3.211364508,1.948764086,-5.02575779
1345,1.55965418797e+18,-4.528389454,8.485632896,-1.782063127
1346,1.55965418803e+18,2.87896204,-1.370066881,3.014450788
1347,1.55965418808e+18,3.734784126,-2.361501217,0.8538203835
1348,1.55965418813e+18,0.9651212692,4.824717999,1.798828959
1349,1.55965418818e+18,1.227793336,-1.04264307,0.4799708724
1350,1.55965418823e+18,1.216797709,-1.721925259,1.451246619
1351,1.55965418829e+18,1.490465283,-1.602806568,1.352286458
1352,1.55965418834e+18,1.168539405,-1.147711873,1.406653404
1353,1.55965418839e+18,0.9205281138,-0.5453988314,1.089614391
1354,1.55965418844e+18,0.4745964706,0.4136596024,0.7731862068
1355,1.55965418849e+18,0.1471727192,0.3055364788,0.5465551615
1356,1.55965418855e+18,-0.01898263767,-0.1403951496,0.2545616031
1357,1.5596541886e+18,-0.2254550904,-0.1825448573,0.05297606811
1358,1.55965418865e+18,-0.3433520794,-0.08724988252,-0.1815961897
1359,1.5596541887e+18,-0.4807967544,-0.08297382295,-0.2127503157
1360,1.55965418875e+18,-0.4930140674,-0.2527943552,-0.1895374358
1361,1.55965418881e+18,-0.5260007977,-0.002950479044,-0.1724332124
1362,1.55965418886e+18,-0.5675396323,0.005601634271,-0.1327269673
1363,1.55965418891e+18,-0.4875162542,-0.2039251477,-0.1260074526
1364,1.55965418896e+18,-0.6365673542,-0.137951687,-0.09179899842
1365,1.55965418901e+18,-0.821659565,-0.2497400343,0.008993769065
1366,1.55965418907e+18,-1.06844914,-0.4317778945,-0.008721322753
1367,1.55965418912e+18,-1.246821761,-0.1629971713,0.02915232256
1368,1.55965418917e+18,-1.44596386,0.2639976144,-0.1034054309
1369,1.55965418922e+18,-1.6512146,0.8614238501,-0.5853781104
1370,1.55965418927e+18,-1.899836659,1.972587824,-0.7826875448
1371,1.55965418933e+18,-1.943818927,3.339704037,-1.229840994
1372,1.55965418938e+18,-1.596847534,3.405066729,-1.700817943
1373,1.55965418943e+18,-1.595625877,3.420338392,-2.13880825
1374,1.55965418948e+18,-1.540037155,2.551077127,-2.629333258
1375,1.55965418953e+18,-1.53881526,0.5285022855,-2.551142693
1376,1.55965418959e+18,-1.770944238,-1.233844042,-2.424082518
1377,1.55965418964e+18,-2.252916813,-2.640055656,-2.213944912
1378,1.55965418969e+18,-2.43923068,-2.237495661,-1.626292467
1379,1.55965418974e+18,-2.226038933,-1.126331687,-1.266492963
1380,1.55965418979e+18,-1.511326432,0.1308290064,-0.7692485452
1381,1.55965418985e+18,-0.734916687,0.3623469174,-0.3624123037
1382,1.5596541899e+18,0.02499966137,0.01537547819,-0.0881338045
1383,1.55965418995e+18,0.4440532327,0.1968024671,0.1812577695
1384,1.55965419e+18,0.6267018914,0.9945924878,0.5117358565
1385,1.55965419005e+18,0.7067252994,0.9952033162,0.5502203703
1386,1.55965419011e+18,0.6413626671,1.217558265,0.588093996
1387,1.55965419016e+18,0.5711131692,1.373939872,0.3443588018
1388,1.55965419021e+18,0.4501618743,1.2786448,0.2380682379
1389,1.55965419026e+18,0.3176041245,1.020859718,-0.05881227553
1390,1.55965419031e+18,0.1838246286,0.8351566195,-0.01971689798
1391,1.55965419037e+18,0.1367879957,1.139978409,-0.07652736455
1392,1.55965419042e+18,0.09524916112,0.6299059391,-0.1693788767
1393,1.55965419047e+18,0.06348416954,0.6470101476,-0.398453325
1394,1.55965419052e+18,0.06714936346,0.6854946017,-0.3929555714
1395,1.55965419057e+18,0.07570147514,1.642109632,-0.007499592844
1396,1.55965419063e+18,0.04271475226,2.086819649,0.2588376403
1397,1.55965419068e+18,-0.1387122124,0.8125545979,0.7860143185
1398,1.55965419073e+18,-0.9181762934,-0.4922535419,1.69925797
1399,1.55965419078e+18,-0.2498897016,-1.598530531,2.181230545
1400,1.55965419083e+18,-0.05563455075,-0.7524821162,2.358992338
1401,1.55965419089e+18,0.4403880239,-2.600349665,2.362657547
1402,1.55965419094e+18,1.142883062,-2.65532732,2.761552572
1403,1.55965419099e+18,1.411052823,-3.70173955,3.182438612
1404,1.55965419104e+18,2.295585632,-3.260083914,1.969871163
1405,1.55965419109e+18,2.369500399,-3.653481245,1.492785454
1406,1.55965419115e+18,1.841712832,-2.489783049,1.607628226
1407,1.5596541912e+18,1.094624758,-1.680386424,1.19285059
1408,1.55965419125e+18,0.5216330886,-1.649843097,1.142148852
1409,1.5596541913e+18,0.03782783076,-1.003547788,0.5746549964
1410,1.55965419135e+18,0.09830348939,-1.506900787,-0.1168444753
1411,1.55965419141e+18,-0.3470172584,-2.504443645,-0.5725499392
1412,1.55965419146e+18,-1.938321233,-1.39022541,-2.926213741
1413,1.55965419151e+18,-2.72755909,2.706236839,-5.291483879
1414,1.55965419156e+18,-3.720825911,3.183322668,-1.201741099
1415,1.55965419161e+18,3.300458908,-0.9894978404,1.867856741
1416,1.55965419167e+18,2.48128891,0.05935777724,1.305860758
1417,1.55965419172e+18,0.4122882485,2.50404048,-0.08691207319
1418,1.55965419177e+18,-0.830211699,2.889496326,-0.05575794727
1419,1.55965419182e+18,-0.2034639418,-0.173992753,0.2716658413
1420,1.55965419187e+18,-1.042181849,1.279866576,0.2753310204
1421,1.55965419193e+18,-0.5541005731,-0.6822326183,0.06091731787
1422,1.55965419198e+18,-0.3940539062,0.04225354642,0.2783853412
1423,1.55965419203e+18,-0.1484860629,0.2548346519,0.06519337744
1424,1.55965419208e+18,-0.3659541011,0.1125030518,-0.2384066582
1425,1.55965419213e+18,-0.2169029713,-0.6370286345,-0.5010787249
1426,1.55965419219e+18,-0.1179428101,0.02942537889,-0.4210553467
1427,1.55965419224e+18,-0.02142609842,-0.4360539317,-0.1968678087
1428,1.55965419229e+18,-0.1161102131,-1.159318328,-0.08935553581
1429,1.55965419234e+18,-0.2211790383,-1.535611272,0.07802154869
1430,1.55965419239e+18,-0.3592346013,-1.366401792,0.2808288038
1431,1.55965419245e+18,-0.5528788567,-1.425044775,0.140329808
1432,1.5596541925e+18,-0.8106639981,-0.9754479527,0.1012344211
1433,1.55965419255e+18,-1.08799684,0.1790873557,-0.2231350243
1434,1.5596541926e+18,-1.417863965,0.5120089054,-0.1504420638
1435,1.55965419265e+18,-2.289568901,1.397152662,-0.6373016238
1436,1.55965419271e+18,-3.142947435,3.185155392,-0.4662593901
1437,1.55965419276e+18,-3.351252556,4.044642448,-0.7313748598
1438,1.55965419281e+18,-2.505204201,3.100855827,-1.067961693
1439,1.55965419286e+18,-1.53209579,1.812541008,-1.388055086
1440,1.55965419291e+18,-0.7837859392,-0.7592016459,-1.647061944
1441,1.55965419297e+18,-1.179626584,-2.125707388,-1.897516608
1442,1.55965419302e+18,-1.531484962,-2.845306396,-1.783284903
1443,1.55965419307e+18,-1.961534023,-2.159915686,-1.616518736
1444,1.55965419312e+18,-2.310949087,-0.4232257605,-1.358733535
1445,1.55965419317e+18,-2.458167553,1.221223474,-1.176084876
1446,1.55965419323e+18,-2.153345585,0.3250841796,-1.35384655
1447,1.55965419328e+18,-1.893728018,0.3092016578,-1.121106982
1448,1.55965419333e+18,-1.583408594,0.02148413099,-0.9219648242
1449,1.55965419338e+18,-1.568136811,0.9897055626,-0.5701065063
1450,1.55965419343e+18,-1.32989943,0.743526876,-0.6727318764
1451,1.55965419349e+18,-1.158857226,0.4228225946,-0.7778006792
1452,1.55965419354e+18,-0.8326551318,0.5944756866,-0.67151016
1453,1.55965419359e+18,-0.5052313805,0.5639324784,-0.5493370295
1454,1.55965419364e+18,-0.1277166456,0.4619179666,-0.2933845222
1455,1.55965419369e+18,0.145950973,0.2401738912,-0.1467768699
1456,1.55965419375e+18,0.2485763431,0.2914865613,-0.07041871548
1457,1.5596541938e+18,0.3096628785,0.2829344571,-0.03010160662
1458,1.55965419385e+18,0.3457039297,0.2890431285,0.07252375782
1459,1.5596541939e+18,0.2943912446,0.3415775001,0.198972851
1460,1.55965419395e+18,0.244300276,0.08929017931,0.277163595
1461,1.55965419401e+18,0.1935984641,-0.3083830774,0.3138155341
1462,1.55965419406e+18,0.118462041,-0.5289054513,0.3138155341
1463,1.55965419411e+18,0.05859724805,-0.6046527624,0.3199241757
1464,1.55965419416e+18,0.03416264057,-0.6370286345,0.3009873629
1465,1.55965419421e+18,0.01950187236,-0.6351959705,0.2472312152
1466,1.55965419426e+18,0.02438879572,-0.5191316009,0.1824794859
1467,1.55965419432e+18,-0.01837177202,-0.1752144843,0.1299450845
1468,1.55965419437e+18,-0.08251262456,0.1711461246,0.06397163868
1469,1.55965419442e+18,-0.1552055776,0.1204442978,-0.05820140988
1470,1.55965419447e+18,-0.2193464339,0.09539882839,-0.1620484889
1471,1.55965419452e+18,-0.2700482607,0.11555738,-0.2206915617
1472,1.55965419458e+18,-0.3274695873,0.2126849592,-0.2158046365
1473,1.55965419463e+18,-0.298758924,0.04714047164,-0.2634521127
1474,1.55965419468e+18,-0.2059074044,-0.1526124626,-0.2713933587
1475,1.55965419473e+18,-0.1234406009,0.08440325409,-0.1925917715
1476,1.55965419478e+18,-0.04952589795,0.4020531774,-0.08752293885
1477,1.55965419484e+18,0.0115606254,0.3867815435,-0.03987545148
1478,1.55965419489e+18,0.04760167375,0.1320507377,-0.006277862005
1479,1.55965419494e+18,0.06348416954,-0.03105027974,0.01693501696
1480,1.55965419499e+18,0.08914051205,-0.002339613857,0.05725212395
1481,1.55965419504e+18,0.1282358915,0.01720807515,0.08718451858
1482,1.5596541951e+18,0.1514487565,0.01048855577,0.1134517267
1483,1.55965419515e+18,0.1453401148,-0.005393940024,0.1372754723
1484,1.5596541952e+18,0.1129642576,-0.06525873393,0.1134517267
1485,1.55965419525e+18,0.06470590085,-0.1177931428,0.05114347115
1486,1.5596541953e+18,0.02194533311,-0.1061867028,0.01937847957
1487,1.55965419536e+18,-0.009819659404,-0.09458027035,-0.01421911083
1488,1.55965419541e+18,-0.005543602165,-0.08602815121,-0.02154949307
1489,1.55965419546e+18,-0.02386956103,-0.04204585776,-0.01544084027
1490,1.55965419551e+18,-0.02081523277,-0.04571104795,-0.02460381947
1491,1.55965419556e+18,-0.01776090637,-0.04754364118,-0.01849516667
1492,1.55965419562e+18,-0.01348484959,0.001936442801,0.009604634717
1493,1.55965419567e+18,-4.581489338e-05,-0.01333518792,0.01204809546
1494,1.55965419572e+18,-0.01226312015,-0.02738508955,0.001663386123
1495,1.55965419577e+18,0.3591429591,-0.550896585,0.04320222139
1496,1.55965419582e+18,1.619968891,-3.274133682,0.2661680281
1497,1.55965419588e+18,2.671267748,-4.541068554,0.1641535312
1498,1.55965419593e+18,3.475777388,-2.046905756,0.5544964671
1499,1.55965419598e+18,3.917433023,-1.007823825,1.026695371
1500,1.55965419603e+18,3.764716864,-1.944891095,0.9845455885
1501,1.55965419608e+18,3.443401575,-1.50628984,0.8409922719
1502,1.55965419614e+18,2.877129316,-1.195970297,0.7359234095
1503,1.55965419619e+18,2.155086756,-1.191083431,0.2405117005
1504,1.55965419624e+18,1.551551938,-0.5582270026,-0.007499592844
1505,1.55965419629e+18,1.031705618,-0.1605537087,-0.1999221444
1506,1.55965419634e+18,0.6896210313,-0.2906680107,-0.3245386779
1507,1.5596541964e+18,0.4049578607,-0.003561344463,-0.2542891502
1508,1.55965419645e+18,0.1532813609,0.1051726714,-0.1791527271
1509,1.5596541965e+18,0.0005650503444,-0.09213680029,-0.1198987961
1510,1.55965419655e+18,-0.1906357706,0.06974248588,-0.04720583186
1511,1.5596541966e+18,-0.2749351859,-0.06464786828,0.009604634717
1512,1.55965419666e+18,-0.357401967,-0.1129062176,0.01449155621
1513,1.55965419671e+18,-0.3354108334,0.08501411229,0.01265896019
1514,1.55965419676e+18,-0.2602744102,-0.07747603953,-0.07102958113
1515,1.55965419681e+18,-0.1857488602,0.04836220294,-0.1009619758
1516,1.55965419686e+18,-0.1466534734,-0.03960239515,-0.1345595717
1517,1.55965419692e+18,-0.08190175891,-0.0823629573,-0.1858722419
1518,1.55965419697e+18,0.01705841348,-0.02616335824,-0.1803744435
1519,1.55965419702e+18,0.1844354868,-0.4592668116,-0.104016304
1520,1.55965419707e+18,0.4538270533,-0.8575509787,-0.1089032218
1521,1.55965419712e+18,0.805685401,-0.2228619754,-0.006277862005
1522,1.55965419718e+18,1.120280981,-0.9271895885,-0.1950352192
1523,1.55965419723e+18,1.105620265,-0.5362358689,-0.1663245559
1524,1.55965419728e+18,0.8563872576,-0.3682478964,-0.1479986012
1525,1.55965419733e+18,0.5949369669,-0.5747203231,-0.1577724516
1526,1.55965419738e+18,0.3560886085,-0.3108265698,-0.09485332668
1527,1.55965419744e+18,0.2100918293,-0.2112555206,-0.1290617883
1528,1.55965419749e+18,0.1111316606,-0.122680068,-0.1211205274
1529,1.55965419754e+18,0.005451972596,-0.07747603953,-0.06186660007
1530,1.55965419759e+18,-0.01898263767,-0.1947621554,0.03526097536
1531,1.55965419764e+18,-0.04097378626,-0.2326358259,0.1036778763
1532,1.5596541977e+18,-0.1362687647,-0.1171822846,0.08840624988
1533,1.55965419775e+18,-0.2028530687,-0.2937223315,0.03403924406
1534,1.5596541978e+18,-0.2633287311,-0.1177931428,-0.09179899842
1535,1.55965419785e+18,-0.2010204792,0.04652960598,-0.1302835047
1536,1.5596541979e+18,-0.1545947194,0.08806844056,-0.1852613837
1537,1.55965419796e+18,-0.1869705766,0.1955807209,-0.1657136828
1538,1.55965419801e+18,-0.1875814497,0.03370143473,-0.09607505053
1539,1.55965419806e+18,-0.1264949143,0.06057950482,-0.02765814587
1540,1.55965419811e+18,-0.0806800276,0.0752402693,-0.03071247041
1541,1.55965419816e+18,-0.08129089326,0.06424469501,-0.05087102577
1542,1.55965419822e+18,-0.07640396804,-0.1752144843,0.01632415131
1543,1.55965419827e+18,-0.1356578916,-0.1794905365,-0.003834401025
1544,1.55965419832e+18,-0.1387122124,-0.1196257398,0.06519337744
1545,1.55965419837e+18,-0.1643685549,-0.09152594209,0.1006235555
1546,1.55965419842e+18,-0.1161102131,-0.1159605458,0.04992173985
1547,1.55965419848e+18,-0.07579310238,0.04958393052,0.005939442664
1548,1.55965419853e+18,-0.08251262456,0.009877691045,-0.08080342412
1549,1.55965419858e+18,-0.03730859235,0.03431230038,-0.06247746199
1550,1.55965419863e+18,-0.03975205496,0.07829460502,-0.07530563325
1551,1.55965419868e+18,-0.08434522152,-0.02677422389,-0.05087102577
1552,1.55965419874e+18,-0.1582599133,-0.03227201104,-0.02277122252
1553,1.55965419879e+18,-0.1307709813,0.01232115179,-0.01788430288
1554,1.55965419884e+18,-0.06785185635,0.07768373191,-0.06980784237
1555,1.55965419889e+18,-0.02570215613,0.1088378578,-0.08935553581
1556,1.55965419894e+18,-0.02020436898,0.1070052609,-0.03315593302
1557,1.559654199e+18,-0.005543602165,0.1070052609,-0.006888727192
1558,1.55965419905e+18,-0.003711006371,0.06974248588,-0.02093862742
1559,1.5596541991e+18,0.005451972596,0.219404459,-0.0392645821
1560,1.55965419915e+18,0.06959282607,0.0611903742,-0.05514708161
1561,1.5596541992e+18,-0.03853032738,0.1070052609,-0.0575905405
1562,1.55965419926e+18,-0.1252731979,0.3580708802,-0.05942313746
1563,1.55965419931e+18,-0.2914285362,1.276812315,-0.1400573552
1564,1.55965419936e+18,-0.8405963778,2.087430477,-0.2506239712
1565,1.55965419941e+18,-1.710468531,2.534583807,-0.3453080654
1566,1.55965419946e+18,-2.802695513,1.919442534,-0.6507407427
1567,1.55965419952e+18,-3.223581791,1.369663715,-0.4980243742
1568,1.55965419957e+18,-3.659739494,1.158915162,-0.4919157326
1569,1.55965419962e+18,-3.133173466,0.9671035409,-0.399064213
1570,1.55965419967e+18,-2.530860662,1.087443948,-0.284832418
1571,1.55965419972e+18,-2.000018597,0.3293601871,-0.03621025756
1572,1.55965419978e+18,-1.631666899,0.1314398795,-0.00322353607
1573,1.55965419983e+18,-1.27369988,0.1619831324,-0.2756694257
1574,1.55965419988e+18,-1.190011382,0.4179356694,-0.5224589705
1575,1.55965419993e+18,-1.665264487,1.40814817,-0.728320539
1576,1.55965419998e+18,-2.269410133,3.510135412,-0.9066932201
1577,1.55965420004e+18,-2.226038933,4.880306244,-1.516947627
1578,1.55965420009e+18,-0.5595983863,2.10942173,-2.096658707
1579,1.55965420014e+18,0.118462041,-0.2509617507,-0.5646086931
1580,1.55965420019e+18,0.484370321,-0.4989730418,0.3767346442
1581,1.55965420024e+18,0.7458207011,-0.3328177333,0.616193831
1582,1.5596542003e+18,0.6120411158,0.613412559,0.624135077
1583,1.55965420035e+18,0.3560886085,0.5303348899,0.2063032389
1584,1.5596542004e+18,0.08364272118,0.004990769085,-0.1596050411
1585,1.55965420045e+18,-0.08006916195,-0.5362358689,-0.1852613837
1586,1.5596542005e+18,0.04149302468,-0.8184555769,0.03403924406
1587,1.55965420055e+18,0.1111316606,-0.7335453033,0.3046525717
1588,1.55965420061e+18,0.2119244188,-0.3572523296,0.4616449177
1589,1.55965420066e+18,0.2534632683,0.2377304286,0.5068489313
1590,1.55965420071e+18,0.2265851945,0.503456831,0.392006278
1591,1.55965420076e+18,0.1661095321,0.4887960553,0.2075249851
1592,1.55965420081e+18,0.1435075253,0.3989988267,0.04136962444
1593,1.55965420087e+18,0.08547531813,1.006809711,0.09695836902
1594,1.55965420092e+18,-0.1759750098,0.9713795781,0.1171169207
1595,1.55965420097e+18,0.2131461501,-0.4342213571,0.1971402615
1596,1.55965420102e+18,0.8032420278,-0.071367383,0.1977511346
1597,1.55965420107e+18,1.055529356,1.859577656,0.3541326225
1598,1.55965420113e+18,1.286436439,2.501596928,0.6278002262
1599,1.55965420118e+18,1.444039702,2.123471498,0.8251097202
1600,1.55965420123e+18,1.552162766,1.601181626,0.9631652832
1601,1.55965420128e+18,1.494130611,1.262762308,0.9546131492
1602,1.55965420133e+18,1.430600643,0.9023517966,1.040745139
1603,1.55965420138e+18,1.425713658,0.5877562165,0.9118525982
1604,1.55965420144e+18,1.216797709,0.6317385435,0.828164041
1605,1.55965420149e+18,0.9382432103,0.4161030948,0.6406283975
1606,1.55965420154e+18,0.7024492025,0.3904467523,0.5557181239
1607,1.55965420159e+18,0.5912717581,0.7142053246,0.5618268251
1608,1.55965420164e+18,0.4660443664,0.9964250326,0.6821672916
1609,1.5596542017e+18,0.3609755635,0.6097473502,0.6687282324
1610,1.55965420175e+18,0.1422857791,0.4832982421,0.5538855791
1611,1.5596542018e+18,-0.3189174831,1.44724369,0.5233423114
1612,1.55965420185e+18,-0.4710229039,0.8498173952,0.4579797387
1613,1.5596542019e+18,-0.8607549667,0.3916684687,0.5147902369
1614,1.55965420196e+18,-1.390375137,0.4820765257,1.589302182
1615,1.55965420201e+18,-1.272478104,-0.5906028152,2.015075207
1616,1.55965420206e+18,-0.8259356022,-0.3810760677,1.79210937
1617,1.55965420211e+18,-0.9841496944,-0.03105027974,1.55020678
1618,1.55965420216e+18,-1.18756783,-1.001104355,0.6778912544
1619,1.55965420222e+18,-1.792324424,-0.7127758861,0.3669608235
1620,1.55965420227e+18,-2.666472673,0.05935777724,0.05297606811
1621,1.55965420232e+18,-2.684798479,-0.1220691949,-0.1840396374
1622,1.55965420237e+18,-1.048901439,-0.3297633827,0.9973737001
1623,1.55965420242e+18,1.085461617,-1.111670852,2.928929806
1624,1.55965420248e+18,2.591855526,-3.878890276,4.465255737
1625,1.55965420253e+18,3.618109226,-3.925316095,3.783529997
1626,1.55965420258e+18,3.164236069,-3.07560277,3.289950848
1627,1.55965420263e+18,2.559479475,-3.944252968,1.918558478
1628,1.55965420268e+18,1.451370001,-2.225278378,1.098777294
1629,1.55965420274e+18,0.002397646196,-0.8960354328,1.072510123
1630,1.55965420279e+18,-0.5009553432,-1.291876078,1.072510123
1631,1.55965420284e+18,-0.3696192801,-1.229567885,0.9747717381
1632,1.55965420289e+18,-0.4960683882,-0.5545617938,0.486690402
1633,1.55965420294e+18,-0.1527621299,-1.318754315,0.1818686426
1634,1.559654203e+18,-0.4410905242,-1.910071731,-0.6983881593
1635,1.55965420305e+18,-1.152137637,-3.205106258,-1.429593921
1636,1.5596542031e+18,-4.150875092,0.9121256471,-3.138794899
1637,1.55965420315e+18,-5.403759956,2.906600475,-4.336091042
1638,1.5596542032e+18,1.376844525,8.800228119,0.9723282456
1639,1.55965420326e+18,3.856957197,-2.494669914,2.829358578
1640,1.55965420331e+18,1.444650531,0.605471313,0.8409922719
1641,1.55965420336e+18,0.5961586833,1.38127017,0.423160404
1642,1.55965420341e+18,0.9999406338,-1.192305088,1.384051442
1643,1.55965420346e+18,0.9229715466,-3.298568249,1.641836524
1644,1.55965420352e+18,0.8673828244,-2.379827261,1.670547247
1645,1.55965420357e+18,0.6560234427,-1.110449195,1.744461894
1646,1.55965420362e+18,0.5307961106,-0.9467372894,1.307693243
1647,1.55965420367e+18,0.4190077484,-1.161151052,1.063958049
1648,1.55965420372e+18,0.3157715201,-1.16176188,0.9087982774
1649,1.55965420378e+18,-0.001267545391,-0.7225497365,0.7230952382
1650,1.55965420383e+18,-0.2101834565,-0.5014165044,0.7120996714
1651,1.55965420388e+18,-0.8124966025,0.4881851673,0.5025728941
1652,1.55965420393e+18,-0.9047372341,0.7062640786,0.4628666341
1653,1.55965420398e+18,-0.6066350341,0.2835453153,0.2215748727
1654,1.55965420404e+18,-0.5418832898,-0.3260982037,0.03953703493
1655,1.55965420409e+18,-0.3763388097,0.04103181884,-0.07164043933
1656,1.55965420414e+18,-0.2859307528,0.3873924315,-0.2445152998
1657,1.55965420419e+18,-0.3225826621,0.3360797465,-0.3349233568
1658,1.55965420424e+18,-0.4081037939,0.6555622816,-0.2439044565
1659,1.5596542043e+18,-0.538828969,0.5480499864,-0.1541072577
1660,1.55965420435e+18,-0.6958213449,0.8828041553,-0.04354064167
1661,1.5596542044e+18,-1.109987974,1.792993307,-0.1742658019
1662,1.55965420445e+18,-1.533317685,3.284115553,-0.3709644079
1663,1.5596542045e+18,-1.96886456,4.936505795,-0.6647905707
1664,1.55965420456e+18,-2.297509909,6.095317364,-1.074681163
1665,1.55965420461e+18,-2.535747528,5.237051964,-1.890797138
1666,1.55965420466e+18,-2.450226307,2.327500582,-3.048386812
1667,1.55965420471e+18,-2.24069953,-2.431750774,-3.596943855
1668,1.55965420476e+18,-3.297496319,-5.008991241,-3.074043274
1669,1.55965420482e+18,-3.849718571,-0.8581618071,-0.962282002
1670,1.55965420487e+18,-3.62492013,2.506483793,-0.4351052642
1671,1.55965420492e+18,-2.813691139,1.375772357,-1.168754339
1672,1.55965420497e+18,-2.15395689,0.1289964169,-1.235949636
1673,1.55965420502e+18,-1.701305509,-0.2234728336,-1.06246388
1674,1.55965420508e+18,-1.267591238,0.9518319368,-0.9085258245
1675,1.55965420513e+18,-0.828989923,1.904781699,-0.7258771658
1676,1.55965420518e+18,-0.3036458492,1.721522093,-0.5084090829
1677,1.55965420523e+18,-0.02570215613,1.183960676,-0.2487913668
1678,1.55965420528e+18,0.2675131559,1.221834302,0.1354428679
1679,1.55965420534e+18,0.4745964706,1.035520434,0.3315306008
1680,1.55965420539e+18,0.5503437519,0.413048774,0.529450953
1681,1.55965420544e+18,0.6370866299,-0.2075903267,0.6003113389
1682,1.55965420549e+18,0.6731277108,-0.0707565248,0.6797237992
1683,1.55965420554e+18,0.7696443796,0.1283855438,0.7511950731
1684,1.5596542056e+18,0.7855269313,0.06607729197,0.7212626338
1685,1.55965420565e+18,0.7574270368,0.08623585105,0.6485697031
1686,1.5596542057e+18,0.6407518387,0.3348580003,0.5398356915
1687,1.55965420575e+18,0.4654335082,0.6409015059,0.5343378782
1688,1.5596542058e+18,0.2662914395,0.5358326435,0.4280473292
1689,1.55965420586e+18,0.1129642576,0.3666229844,0.2802179158
1690,1.55965420591e+18,0.07386887819,0.3324145377,0.1904207468
1691,1.55965420596e+18,0.08730791509,0.4435920119,0.0810758695
1692,1.55965420601e+18,0.08303186297,0.4906286299,0.1751491129
1693,1.55965420606e+18,0.2913369238,0.2988169491,0.1812577695
1694,1.55965420612e+18,0.326767087,0.1864177436,0.3156481385
1695,1.55965420617e+18,0.4947550297,-0.2185859084,0.3541326225
1696,1.55965420622e+18,0.5295743346,-0.1129062176,0.4286582172
1697,1.55965420627e+18,0.5338504314,0.1522092968,0.5074598193
1698,1.55965420632e+18,0.5259091854,0.2719388604,0.624135077
1699,1.55965420638e+18,0.4220620692,0.3660121262,0.6693391204
1700,1.55965420643e+18,0.2644588351,0.4912394881,0.7316473126
1701,1.55965420648e+18,0.1398423314,0.5596564412,0.6516240239
1702,1.55965420653e+18,0.1331228018,0.6030278206,0.6485697031
1703,1.55965420658e+18,0.2290286571,0.7930069566,0.5398356915
1704,1.55965420664e+18,0.2180330753,1.488171577,0.4213278294
1705,1.55965420669e+18,0.3108845949,1.750232816,0.1647644043
1706,1.55965420674e+18,0.185657233,1.274979591,-0.1913700253
1707,1.55965420679e+18,0.03416264057,-0.4439951777,-0.3972316384
1708,1.55965420684e+18,-0.447810024,-0.3432024121,0.1812577695
1709,1.5596542069e+18,-0.6316804886,-1.127553344,1.704144716
1710,1.55965420695e+18,-0.2712699771,-0.8337272406,2.340666533
1711,1.559654207e+18,0.09097310901,-0.885650754,2.217882633
1712,1.55965420705e+18,0.9791711569,-2.356003523,2.883114815
1713,1.5596542071e+18,2.02130723,-3.665698528,3.517803669
1714,1.55965420716e+18,2.673711538,-3.166621685,2.891055822
1715,1.55965420721e+18,2.615068436,-3.689522266,2.513541222
1716,1.55965420726e+18,2.393324137,-3.644928932,1.8122679
1717,1.55965420731e+18,1.581484199,-2.093331337,1.38466239
1718,1.55965420736e+18,0.4599356949,-0.8037948012,1.341901779
1719,1.55965420742e+18,0.04271475226,-1.095788479,0.8739789724
1720,1.55965420747e+18,0.09036224335,-1.31081295,0.4030018747
1721,1.55965420752e+18,0.00972802937,-1.385949373,-0.0007800749154
1722,1.55965420757e+18,-0.3641214967,-2.830034971,-0.9091367126
1723,1.55965420762e+18,-1.583408594,-2.596073389,-2.414919376
1724,1.55965420768e+18,-3.500914574,1.79849112,-4.643966675
1725,1.55965420773e+18,-3.623698473,2.348269701,-0.9561733603
1726,1.55965420778e+18,4.825789452,-2.916777611,1.235000372
1727,1.55965420783e+18,3.704241037,1.281699061,1.609460711
1728,1.55965420788e+18,0.3542560339,7.271233082,1.144592285
1729,1.55965420794e+18,0.08364272118,0.6115799546,-0.1009619758
1730,1.55965420799e+18,-0.06907358766,0.07890546322,0.486690402
1731,1.55965420804e+18,-0.4319275618,0.6488426924,0.4756948352
1732,1.55965420809e+18,-0.3146414161,-0.3969585598,0.1855338216
1733,1.55965420814e+18,-0.2346180677,0.176643908,-0.09302072972
1734,1.5596542082e+18,-0.2114052027,0.3800620437,-0.213972047
1735,1.55965420825e+18,-0.1857488602,0.3684555888,-0.2237458974
1736,1.5596542083e+18,-0.3109762371,0.2304000407,-0.1699897498
1737,1.55965420835e+18,-0.3176957369,0.02026239969,-0.3899012506
1738,1.5596542084e+18,-0.4453665912,-0.1489472687,-0.5053547621
1739,1.55965420846e+18,-0.4673577249,-0.2534052134,-0.4222770929
1740,1.55965420851e+18,-0.4160450399,-0.3890173137,-0.3294255733
1741,1.55965420856e+18,-0.4252080321,-0.4672080576,-0.3184300065
1742,1.55965420861e+18,-0.4728555381,-0.6309199333,-0.1962569654
1743,1.55965420866e+18,-0.4887380004,-0.6327525377,-0.253678292
1744,1.55965420872e+18,-0.6561151147,-0.1330647767,-0.2390175164
1745,1.55965420877e+18,-0.8167726398,0.1412137151,0.03770443797
1746,1.55965420882e+18,-0.634123981,-0.1067975685,-0.0759164989
1747,1.55965420887e+18,-0.634123981,0.9726012945,0.04014789686
1748,1.55965420892e+18,-0.8491485119,1.431971908,-0.2188589573
1749,1.55965420898e+18,-1.015914679,1.733128548,-0.6476863623
1750,1.55965420903e+18,-1.386098981,2.322002649,-1.227397442
1751,1.55965420908e+18,-1.63777554,2.803975344,-2.160799503
1752,1.55965420913e+18,-1.681757808,3.431334019,-2.536481619
1753,1.55965420918e+18,-1.426416159,3.469207525,-2.37704587
1754,1.55965420924e+18,-0.8234921694,2.035506725,-2.356276274
1755,1.55965420929e+18,-0.7850076556,1.195567131,-1.864529848
1756,1.55965420934e+18,-0.7819533348,-0.4293344021,-1.798556566
1757,1.55965420939e+18,-0.9053480625,-1.236287355,-1.428982973
1758,1.55965420944e+18,-0.7501883507,-3.276577473,-1.783895731
1759,1.5596542095e+18,-0.9065698385,-4.134842873,-1.876747251
1760,1.55965420955e+18,-0.9646020532,-3.79153657,-1.602468729
1761,1.5596542096e+18,-1.311573505,-1.132440329,-1.259773374
1762,1.55965420965e+18,-1.182680964,1.574303627,-0.4882505536
1763,1.5596542097e+18,-0.9853714705,3.075810194,-0.2115285844
1764,1.55965420976e+18,-0.3745062053,1.946320534,-0.2817780674
1765,1.55965420981e+18,-0.2511114478,0.235286966,-0.1644919515
1766,1.55965420986e+18,-0.2376723886,-0.1959839016,0.09634749591
1767,1.55965420991e+18,0.1178511828,-0.05365229398,0.3168698549
1768,1.55965420996e+18,0.464211762,0.1424354613,0.5208988786
1769,1.55965421002e+18,0.7946898937,-0.1910969764,0.616193831
1770,1.55965421007e+18,0.856998086,0.3635686636,0.8342726827
1771,1.55965421012e+18,0.8887631297,0.2823235691,0.8978026509
1772,1.55965421017e+18,0.7922464013,0.2859887779,0.8440465927
1773,1.55965421022e+18,0.6657972932,0.2438390851,0.8324401379
1774,1.55965421028e+18,0.4892572463,0.4533658326,0.7890686393
1775,1.55965421033e+18,0.3725819588,0.3385231793,0.7854034901
1776,1.55965421038e+18,0.3689167798,0.6402906775,0.7628014684
1777,1.55965421043e+18,0.2100918293,0.1687026471,0.6595652699
1778,1.55965421048e+18,0.1722181886,0.4576418996,0.4695861638
1779,1.55965421054e+18,0.208870098,0.4796330631,0.2631137073
1780,1.55965421059e+18,0.1960419267,2.285961628,0.1849229634
1781,1.55965421064e+18,-0.1319927126,2.039171934,0.5117358565
1782,1.55965421069e+18,-0.3531259298,0.4839091301,1.032804012
1783,1.55965421074e+18,-0.03975205496,-1.184363842,1.366947293
1784,1.5596542108e+18,0.03171917796,-0.323043853,2.164737225
1785,1.55965421085e+18,0.4458858073,-3.224042892,2.551414967
1786,1.5596542109e+18,1.217408538,-3.865451336,3.092641592
1787,1.55965421095e+18,2.0310812,-4.13850832,3.224588394
1788,1.559654211e+18,2.860025167,-4.003507137,2.750556946
1789,1.55965421106e+18,2.930885792,-4.142784119,1.679099321
1790,1.55965421111e+18,1.979157567,-2.580801725,1.331516981
1791,1.55965421116e+18,0.9058673978,-1.553937435,1.248439312
1792,1.55965421121e+18,-0.08434522152,-0.6309199333,0.9821020961
1793,1.55965421126e+18,-0.545548439,-0.1300104558,0.8501552343
1794,1.55965421132e+18,-0.345795542,-1.992538571,0.4836360812
1795,1.55965421137e+18,-0.219957307,-1.251559138,0.3187024593
1796,1.55965421142e+18,-0.4643034041,-2.25826478,-0.6550167203
1797,1.55965421147e+18,-0.8167726398,-2.79399395,-0.9940469265
1798,1.55965421152e+18,-2.967018366,0.1289964169,-4.129007339
1799,1.55965421158e+18,-3.697613001,3.129566431,-5.130215168
1800,1.55965421163e+18,1.707322478,7.639584541,2.283855915
1801,1.55965421168e+18,5.324255943,-4.087195396,2.855014801
1802,1.55965421173e+18,3.594896317,1.436248064,1.413983941
1803,1.55965421178e+18,1.581484199,3.970117092,1.099999189
1804,1.55965421184e+18,0.5216330886,2.54680109,0.5746549964
1805,1.55965421189e+18,0.4648226202,-1.34379971,0.01265896019
1806,1.55965421194e+18,0.3377626538,-1.460474968,0.3315306008
1807,1.55965421199e+18,0.1398423314,-0.8013513684,0.4402646124
1808,1.55965421204e+18,0.1606117338,-0.3236547112,0.4885229766
1809,1.5596542121e+18,0.2271960676,-0.6199243665,0.3052634299
1810,1.55965421215e+18,0.0775340721,-0.5337923765,0.3681825399
1811,1.5596542122e+18,-0.07029531896,-0.7848579884,0.2166879624
1812,1.55965421225e+18,-0.3097544909,-0.5344032645,0.08840624988
1813,1.5596542123e+18,-0.4166559279,-0.1239017919,0.1177277863
1814,1.55965421236e+18,-0.4417013824,-0.08053036779,0.07313462347
1815,1.55965421241e+18,-0.1820836663,-0.5056925416,-0.1608267725
1816,1.55965421246e+18,-0.1784184724,0.1803091019,-0.1687680185
1817,1.55965421251e+18,-0.1552055776,0.4356507659,-0.1223422587
1818,1.55965421256e+18,-0.05624542013,0.1754221618,-0.1284509152
1819,1.55965421262e+18,-0.1881923079,0.2859887779,0.1238364354
1820,1.55965421267e+18,-0.2022422254,-0.2711203396,0.1275016218
1821,1.55965421272e+18,-0.5418832898,-0.4317778945,0.3254219592
1822,1.55965421277e+18,-0.5980829,-0.7188845277,0.1940859407
1823,1.55965421282e+18,-0.8686961532,-0.1996490955,0.2863265872
1824,1.55965421288e+18,-1.130757332,0.2560563982,0.1898098737
1825,1.55965421293e+18,-1.553476095,1.694033146,-0.2561217248
1826,1.55965421298e+18,-1.899836659,3.281060934,-1.223121405
1827,1.55965421303e+18,-1.574245572,3.430112362,-2.097880363
1828,1.55965421308e+18,-1.686033964,4.843043327,-2.370326519
1829,1.55965421314e+18,-1.14114213,4.816165447,-3.278072119
1830,1.55965421319e+18,-0.2608852983,5.045239925,-3.914593697
1831,1.55965421324e+18,0.5246874094,3.6695714,-4.296995163
1832,1.55965421329e+18,1.156322122,0.8681433797,-3.538911581
1833,1.55965421334e+18,0.216811344,1.169910789,-2.783882141
1834,1.5596542134e+18,-0.119775407,-0.07503257692,-1.925005674
1835,1.55965421345e+18,-0.09228646755,-0.7934101224,-1.159591436
1836,1.5596542135e+18,-2.111196041,-1.960773587,0.07008029521
1837,1.55965421355e+18,-1.657323241,-0.5924354196,0.856874764
1838,1.5596542136e+18,-1.049512386,0.2884322405,0.3101503253
1839,1.55965421366e+18,-1.209558964,-1.072575569,-0.2573434711
1840,1.55965421371e+18,-0.9340587854,0.8895236254,-0.3416428864
1841,1.55965421376e+18,-1.277364969,-0.7347670197,-1.440589428
1842,1.55965421381e+18,-1.235215306,1.17601943,-0.8376654387
1843,1.55965421386e+18,-0.2144595236,-0.401845485,0.2680006325
1844,1.55965421392e+18,0.5265200138,-0.6303091049,2.191004276
1845,1.55965421397e+18,1.411663771,-2.002312422,3.176940918
1846,1.55965421402e+18,2.067121983,-2.59240818,3.817738533
1847,1.55965421407e+18,2.423256636,-2.187404633,3.795136452
1848,1.55965421412e+18,2.881405592,-3.692576647,3.471988678
1849,1.55965421418e+18,3.187448978,-4.33459568,3.046215773
1850,1.55965421423e+18,2.847807884,-3.431126118,2.133583069
1851,1.55965421428e+18,2.027415991,-2.104326963,1.484844208
1852,1.55965421433e+18,1.034759879,0.9310625196,1.503780961
1853,1.55965421438e+18,0.2516306639,0.1986350566,1.827539563
1854,1.55965421444e+18,-0.5712048411,-1.286989212,1.256991506
1855,1.55965421449e+18,-0.7630164623,-2.993135691,-0.438159585
1856,1.55965421454e+18,-0.6732193232,0.3599034846,-0.1651028246
1857,1.55965421459e+18,-0.05319108814,1.005588055,-0.2310762852
1858,1.55965421464e+18,1.011547089,-0.747595191,0.5416682959
1859,1.5596542147e+18,1.137996078,-2.428085566,0.4970751107
1860,1.55965421475e+18,0.6731277108,-1.597919703,0.4469841719
1861,1.5596542148e+18,-0.06968445331,-0.9772804976,0.3162589669
1862,1.55965421485e+18,-0.9029046893,-1.132440329,0.1128408611
1863,1.5596542149e+18,-0.8515920043,-1.252780795,-0.6818948388
1864,1.55965421496e+18,-0.8387637734,-2.192291498,-0.9812188148
1865,1.55965421501e+18,-2.225427866,-1.511176705,-2.046567678
1866,1.55965421506e+18,-3.60170722,1.852247357,-4.568219662
1867,1.55965421511e+18,-5.298079967,6.590117931,-4.005001545
1868,1.55965421516e+18,1.982822776,4.055027485,1.739574909
1869,1.55965421522e+18,3.788540602,-3.994954824,2.794539213
1870,1.55965421527e+18,2.341400623,2.09964776,0.8379379511
1871,1.55965421532e+18,1.770241737,0.7728483677,1.660162449
1872,1.55965421537e+18,1.701213837,-2.189848185,1.355951667
1873,1.55965421542e+18,1.285214663,-2.070729256,1.453690052
1874,1.55965421548e+18,0.7354359031,-0.9668958187,0.9711065292
1875,1.55965421553e+18,0.1783268452,0.4283203781,0.6974388957
1876,1.55965421558e+18,-0.08129089326,0.3977771401,0.4139974415
1877,1.55965421563e+18,0.01705841348,-0.09396939725,-0.04964929447
1878,1.55965421568e+18,-0.2761569023,0.2780475318,-0.08996640146
1879,1.55965421574e+18,-0.4496426284,0.2609432936,-0.1797636002
1880,1.55965421579e+18,-0.5443267226,0.1803091019,-0.218248114
1881,1.55965421584e+18,-0.5632635355,0.2212370634,-0.2041981965
1882,1.55965421589e+18,-0.5125617385,0.1015074775,-0.2750585675
1883,1.55965421594e+18,-0.5999154449,0.04103181884,-0.2909410596
1884,1.559654216e+18,-0.5437158942,-0.1727710068,-0.2377957851
1885,1.55965421605e+18,-0.404438585,-0.2277488858,-0.2506239712
1886,1.5596542161e+18,-0.3201391995,0.007434229832,-0.1699897498
1887,1.55965421615e+18,-0.3042567074,0.0746294111,-0.08935553581
1888,1.5596542162e+18,-0.4337601364,0.1955807209,-0.07408390939
1889,1.55965421626e+18,-1.00553,0.1925264001,0.03220665082
1890,1.55965421631e+18,-1.796600461,-0.1758253425,-0.05636881292
1891,1.55965421636e+18,-2.492986917,0.4417594373,0.07374548167
1892,1.55965421641e+18,-3.114236832,1.643942237,-0.1773201227
1893,1.55965421646e+18,-3.282835722,3.68239975,-0.4900831282
1894,1.55965421652e+18,-3.070254564,5.354948521,-1.169976234
1895,1.55965421657e+18,-2.12463522,5.690313339,-1.601247072
1896,1.55965421662e+18,-1.319514751,3.570611,-1.793669581
1897,1.55965421667e+18,-1.045847178,1.90783608,-1.269547224
1898,1.55965421672e+18,-1.428859591,1.435026407,-0.8120090961
1899,1.55965421678e+18,-1.491778731,0.8583695292,-0.6537950635
1900,1.55965421683e+18,-1.345171094,-0.2723420262,-0.8767608404
1901,1.55965421688e+18,-1.138698578,-0.7201062441,-0.9347930551
1902,1.55965421693e+18,-0.5333311558,-1.795229077,-1.417376637
1903,1.55965421698e+18,-0.1881923079,-1.091512322,-1.27443409
1904,1.55965421704e+18,0.02377793007,-0.7598124743,-1.502897739
1905,1.55965421709e+18,0.09341656417,0.04469700903,-1.21456933
1906,1.55965421714e+18,0.2052049041,0.3440209627,-1.221899629
1907,1.55965421719e+18,0.2033723146,1.106991649,-0.6085910201
1908,1.55965421724e+18,0.4263381362,0.3055364788,-0.3917338252
1909,1.55965421729e+18,0.3976274729,0.510787189,0.2179096788
1910,1.55965421735e+18,0.2864499688,0.1161682457,0.4164408743
1911,1.5596542174e+18,0.275454402,-0.5136338472,0.3480239809
1912,1.55965421745e+18,0.06287330389,-0.3071613908,0.1201712415
1913,1.5596542175e+18,-0.01715004072,-0.08847161382,0.09451489896
1914,1.55965421755e+18,-0.1283275187,0.6207429171,0.04320222139
1915,1.55965421761e+18,-0.1087798327,2.088041306,0.03953703493
1916,1.55965421766e+18,-0.121608004,1.989691854,0.07069116086
1917,1.55965421771e+18,0.04699081182,2.951804638,0.6821672916
1918,1.55965421776e+18,-0.2162921131,2.028176546,1.773783445
1919,1.55965421781e+18,0.2950021029,-1.758577108,1.982088447
1920,1.55965421787e+18,0.3976274729,-0.3780217171,2.357770681
1921,1.55965421792e+18,0.5240765214,-1.871587276,2.090822458
1922,1.55965421797e+18,0.7519293427,-2.998022795,2.687638044
1923,1.55965421802e+18,1.34569025,-3.858731985,2.857458591
1924,1.55965421807e+18,2.115380526,-3.709069729,2.730398417
1925,1.55965421813e+18,2.414704561,-4.731047153,2.278969049
1926,1.55965421818e+18,2.03413558,-3.696241617,1.536156893
1927,1.55965421823e+18,1.499628425,-2.275369167,1.232556939
1928,1.55965421828e+18,0.7421554327,-2.009032011,1.109162092
1929,1.55965421833e+18,0.4006817937,-1.726201296,0.8599290848
1930,1.55965421839e+18,0.06653849781,-1.230178714,0.5532746911
1931,1.55965421844e+18,-0.2303420156,-1.316310763,0.3968932033
1932,1.55965421849e+18,-0.4545295835,-1.447035909,-0.1718223393
1933,1.55965421854e+18,-0.6646671891,-2.718857527,-0.9635037184
1934,1.55965421859e+18,-1.368383884,-2.250934601,-1.607966542
1935,1.55965421865e+18,-3.430665016,0.9683252573,-4.449711323
1936,1.5596542187e+18,-4.54549408,1.959148645,-4.18520689
1937,1.55965421875e+18,3.07382822,5.74895668,1.992473245
