,Time (s),Gyroscope x (rad/s),Gyroscope y (rad/s),Gyroscope z (rad/s)
0,1.55965441905e+18,1.720150709,-0.8825964332,-0.8859238029
1,1.5596544191e+18,1.640127301,-2.034688234,-1.783895731
2,1.55965441916e+18,1.761689544,-0.7671428919,-1.800999999
3,1.55965441921e+18,1.691440105,-1.707264543,-0.933571279
4,1.55965441926e+18,1.649901271,-3.159902096,-0.3288146853
5,1.55965441931e+18,1.657842398,-2.312021017,0.1995837241
6,1.55965441936e+18,1.143493891,-2.427474499,0.124447301
7,1.55965441942e+18,-0.02692388557,-2.622340679,-0.4980243742
8,1.55965441947e+18,-1.037905931,0.07035334408,-0.4748114944
9,1.55965441952e+18,-3.432497501,1.04346168,-1.998920321
10,1.55965441957e+18,-5.304188728,0.5553803444,-1.543214798
11,1.55965441962e+18,-5.503942013,1.558421135,-2.578020573
12,1.55965441968e+18,-8.117834091,1.265816689,-4.452765942
13,1.55965441973e+18,1.772074223,5.850971222,0.6381850243
14,1.55965441978e+18,1.847210646,3.728825092,2.628384113
15,1.55965441983e+18,2.015809536,0.6170777678,1.038912654
16,1.55965441988e+18,2.814210415,-0.8587726951,3.838508129
17,1.55965441994e+18,2.658439636,-0.06281527132,3.686402559
18,1.55965441999e+18,0.6419735551,-6.404207706,4.033984661
19,1.55965442004e+18,-1.070892572,-6.048072815,1.668103814
20,1.55965442009e+18,-0.4801858962,-4.152558327,-1.444865465
21,1.55965442014e+18,-4.181418419,3.395903826,0.08962798119
22,1.5596544202e+18,-7.660906792,5.5974617,-1.888353586
23,1.55965442025e+18,-1.344560146,0.1925264001,-0.6037040949
24,1.5596544203e+18,-0.04952589795,5.533321381,-2.723406553
25,1.55965442035e+18,0.9309128523,2.406301975,-0.6116453409
26,1.5596544204e+18,2.280925035,-0.8025730848,0.9649978876
27,1.55965442046e+18,3.093375683,-0.2992201149,1.830593824
28,1.55965442051e+18,2.552760124,0.09723142534,2.208719492
29,1.55965442056e+18,1.222906351,-1.76468575,0.4518710673
30,1.55965442061e+18,1.152656913,0.5504934192,1.420092583
31,1.55965442066e+18,0.8130158186,-0.6590197682,-0.1363921613
32,1.55965442072e+18,0.5063614845,1.182128072,1.184909463
33,1.55965442077e+18,2.239997149,-5.724925518,1.608849883
34,1.55965442082e+18,-5.109322548,-3.787871599,-1.601857901
35,1.55965442087e+18,-7.904031277,2.26213789,-2.419195652
36,1.55965442092e+18,0.7971333265,4.70620966,-0.2567326128
37,1.55965442098e+18,-1.21383512,2.416686773,2.037677288
38,1.55965442103e+18,-0.9096241593,-2.238106489,-0.3880686462
39,1.55965442108e+18,2.410428524,-1.919234753,0.5221205354
40,1.55965442113e+18,3.757997036,2.019624472,3.534908056
41,1.55965442118e+18,3.987071514,1.011696696,4.616750717
42,1.55965442124e+18,2.979144096,-1.104951382,4.939898014
43,1.55965442129e+18,2.132484913,-4.063371658,3.756652117
44,1.55965442134e+18,1.588203907,-2.401207447,2.221547604
45,1.55965442139e+18,0.6456387043,-0.001117883483,-1.192578077
46,1.55965442144e+18,-6.076322079,-0.7219388485,-1.981205225
47,1.5596544215e+18,-7.703056812,0.5358326435,-2.856575251
48,1.55965442155e+18,-3.921190023,6.194277287,-0.4430465102
49,1.5596544216e+18,-0.6683323979,4.663449287,1.412762046
50,1.55965442165e+18,-0.8399855494,1.088054776,-0.7350401282
51,1.5596544217e+18,0.3725819588,-0.3847412765,-0.8816477656
52,1.55965442176e+18,1.349355459,0.6549513936,0.3107612133
53,1.55965442181e+18,2.10743928,0.9255647063,1.949712634
54,1.55965442186e+18,3.301680803,-1.170924783,4.327811241
55,1.55965442191e+18,3.037176371,-0.3444241583,5.668660164
56,1.55965442196e+18,2.31940937,-3.743889093,5.614293575
57,1.55965442201e+18,1.257725716,-5.619856358,3.217257977
58,1.55965442207e+18,1.320644855,-2.688925028,1.120157599
59,1.55965442212e+18,0.08486445248,-0.6632958651,0.2392899692
60,1.55965442217e+18,-3.394013166,2.711734533,-2.352000475
61,1.55965442222e+18,-5.296858311,-1.704210162,-4.031269073
62,1.55965442227e+18,-6.404356956,0.8498173952,-3.193161964
63,1.55965442233e+18,-3.551005363,4.984153271,-2.961032867
64,1.55965442238e+18,-2.064159393,5.135647774,0.007772038691
65,1.55965442243e+18,-1.357999325,0.7135944963,-1.035585761
66,1.55965442248e+18,-0.4392579198,0.2206262052,-0.8333894014
67,1.55965442253e+18,0.5051397681,-1.026760578,-0.5969845653
68,1.55965442259e+18,2.10743928,-0.1691058129,0.2172988057
69,1.55965442264e+18,3.351771832,1.26887095,2.870286703
70,1.55965442269e+18,3.825192451,-0.01211345755,4.888585567
71,1.55965442274e+18,2.41898036,-1.541109085,5.418816566
72,1.55965442279e+18,2.385383129,-4.479981899,3.74565649
73,1.55965442285e+18,1.932731867,-5.184309483,3.187325716
74,1.5596544229e+18,-2.043390036,-0.8459445238,-0.3624123037
75,1.55965442295e+18,-3.478312492,2.097815275,-1.833375812
76,1.559654423e+18,-7.428777695,-1.437262058,-3.67513442
77,1.55965442305e+18,-7.504525185,2.488157988,-2.537092447
78,1.55965442311e+18,-3.48869729,5.3384552,-2.604287863
79,1.55965442316e+18,-0.7672925591,3.579774141,0.7896795869
80,1.55965442321e+18,-0.06540839374,1.904781699,-0.7924614549
81,1.55965442326e+18,0.2131461501,0.08990103751,-0.6293604374
82,1.55965442331e+18,1.087905169,-0.9058093429,0.5942026973
83,1.55965442337e+18,2.018863678,0.1522092968,2.344331503
84,1.55965442342e+18,3.028013229,-0.5973224044,5.327797413
85,1.55965442347e+18,2.261377335,-2.729852915,6.751724243
86,1.55965442352e+18,4.296169281,-0.1880426556,5.652777672
87,1.55965442357e+18,1.843545556,-5.364514828,4.457314491
88,1.55965442363e+18,-3.215640306,-3.278409958,0.380399853
89,1.55965442368e+18,-4.339632511,5.640833378,-1.551766992
90,1.55965442373e+18,-6.688409328,-1.843487382,-4.728877068
91,1.55965442378e+18,-7.577218056,-0.04754364118,-2.708745718
92,1.55965442383e+18,-5.557086945,9.772115707,-2.88711834
93,1.55965442389e+18,2.415926218,5.883347034,2.829358578
94,1.55965442394e+18,-0.2211790383,2.184557915,-0.2310762852
95,1.55965442399e+18,0.4012926519,0.02759278379,0.1006235555
96,1.55965442404e+18,0.4862029254,-1.963827848,0.05236519873
97,1.55965442409e+18,1.29926455,-0.4158953726,0.4976859689
98,1.55965442415e+18,2.034746408,0.6024169922,3.331489801
99,1.5596544242e+18,2.364002705,-1.651064992,4.506183624
100,1.55965442425e+18,2.272372723,-3.645539999,4.624080658
101,1.5596544243e+18,1.63707304,-3.005353212,1.875187159
102,1.55965442435e+18,0.5167461634,-3.70479393,-0.4143358469
103,1.55965442441e+18,0.8179027438,0.2829344571,0.277163595
104,1.55965442446e+18,-1.610286593,-0.8997007012,-0.2231350243
105,1.55965442451e+18,-4.696988583,-0.1978164911,-2.041069984
106,1.55965442456e+18,-7.989552021,1.98724854,-2.803429842
107,1.55965442461e+18,-5.839306831,6.924871922,-0.9873274565
108,1.55965442467e+18,-1.980470896,3.221807241,-0.2713933587
109,1.55965442472e+18,-1.683590412,1.217558265,-1.055133581
110,1.55965442477e+18,-0.7611839175,-0.1715492904,-0.7270988822
111,1.55965442482e+18,0.09097310901,-0.2637899518,0.9943193793
112,1.55965442487e+18,2.51794076,-2.0395751,2.436572313
113,1.55965442493e+18,2.999302387,-0.398180306,3.465880156
114,1.55965442498e+18,3.198444605,-0.5814398527,5.725470543
115,1.55965442503e+18,2.314522743,-2.361501217,6.821362972
116,1.55965442508e+18,1.243065,-4.198372841,5.656442642
117,1.55965442513e+18,0.07264714688,-4.299165726,3.417011023
118,1.55965442519e+18,-0.6219066381,-3.704183102,0.6656739116
119,1.55965442524e+18,1.406776905,4.971936226,0.5795419216
120,1.55965442529e+18,-1.467344165,1.415478587,0.02487626486
121,1.55965442534e+18,-3.957841873,4.389170647,-2.55602932
122,1.55965442539e+18,-3.717771769,3.865048409,-1.677605271
123,1.55965442545e+18,-4.755021095,5.173521519,-2.749062777
124,1.5596544255e+18,-5.054955482,8.490519524,-1.334909797
125,1.55965442555e+18,-1.835695982,1.864464641,-2.242044687
126,1.5596544256e+18,-1.60478878,-3.739613295,-0.4393813312
127,1.55965442565e+18,0.0763123408,-5.445759773,0.4610340595
128,1.55965442571e+18,1.404944181,-2.604625463,1.202013493
129,1.55965442576e+18,1.940062284,-2.364555359,2.044396639
130,1.55965442581e+18,1.972438097,-1.307147861,0.5092924237
131,1.55965442586e+18,2.13370657,0.117389977,1.080451369
132,1.55965442591e+18,0.7983550429,0.5407196283,1.757900953
133,1.55965442597e+18,0.4245055318,-3.665698528,0.8306075335
134,1.55965442602e+18,0.373803705,0.1619831324,0.02731972747
135,1.55965442607e+18,0.5295743346,2.77221036,0.7310364842
136,1.55965442612e+18,0.2198656797,1.665322542,-1.670885563
137,1.55965442617e+18,-1.317071319,0.8650890589,1.707810044
138,1.55965442623e+18,-2.53880167,-0.8997007012,2.597840548
139,1.55965442628e+18,-5.555254459,3.372690916,-1.235949636
140,1.55965442633e+18,-6.613273144,-0.3144917488,-2.267700911
141,1.55965442638e+18,-6.627322674,3.869935036,-4.751479149
142,1.55965442643e+18,-1.092272878,4.097787857,0.1727056652
143,1.55965442649e+18,-1.854632735,-0.3102157116,0.8299966455
144,1.55965442654e+18,0.9052564502,-2.180074215,5.7266922
145,1.55965442659e+18,1.765965581,-1.346853971,4.830553055
146,1.55965442664e+18,0.7922464013,-1.95955193,5.442029476
147,1.55965442669e+18,-0.6524499059,-3.107978582,4.502518654
148,1.55965442675e+18,-0.07212791592,-4.596046448,3.519636154
149,1.5596544268e+18,0.7000057101,-2.74756813,4.415775776
150,1.55965442685e+18,-0.9920910001,-4.239911556,0.7976207733
151,1.5596544269e+18,-2.403800488,4.888858318,1.45430088
152,1.55965442695e+18,-3.816121101,1.095996141,-2.181569099
153,1.55965442701e+18,-4.733029842,-0.3658044338,-0.6397451162
154,1.55965442706e+18,-3.839944839,8.704321861,-1.262827635
155,1.55965442711e+18,-3.986552477,7.29872179,-1.348348737
156,1.55965442716e+18,-0.4300949275,0.310423404,-1.996476769
157,1.55965442721e+18,1.057972789,0.2218479365,-0.627527833
158,1.55965442727e+18,0.4074012935,-2.700531483,-1.361176968
159,1.55965442732e+18,1.35240984,-0.3450350165,0.5642702579
160,1.55965442737e+18,2.932718277,0.3006495237,3.901427031
161,1.55965442742e+18,2.922333479,-0.08908247948,5.075510025
162,1.55965442747e+18,3.066497803,-1.297984719,4.509849072
163,1.55965442753e+18,1.723815918,-2.214893579,3.015061617
164,1.55965442758e+18,0.6639647484,-3.234427691,-0.3190408647
165,1.55965442763e+18,-1.800876617,0.8070568442,-3.448503494
166,1.55965442768e+18,-2.987176657,1.218169212,-2.844968796
167,1.55965442773e+18,-4.563209057,-2.274758339,-2.013581038
168,1.55965442779e+18,-4.40682745,0.4961264431,-1.719143987
169,1.55965442784e+18,-2.477715254,4.544330597,-2.097880363
170,1.55965442789e+18,-0.01226312015,1.52360177,2.277747393
171,1.55965442794e+18,-0.3372434378,-1.202078938,0.2276835293
172,1.55965442799e+18,-0.05807801336,-0.4183388352,0.5074598193
173,1.55965442805e+18,0.4049578607,0.05202739313,0.4805817306
174,1.5596544281e+18,1.045144677,-0.7231605649,2.646709919
175,1.55965442815e+18,1.489854455,-0.8202881217,4.999762535
176,1.5596544282e+18,1.123335361,-0.9949956536,6.562355995
177,1.55965442825e+18,0.3011107445,-3.949750662,5.098112106
178,1.55965442831e+18,-0.4563621581,-4.759147644,2.617388487
179,1.55965442836e+18,-1.232161045,-2.891121387,0.136053741
180,1.55965442841e+18,-0.9096241593,-1.906406641,-1.129659057
181,1.55965442846e+18,1.922347188,-1.974212646,-0.8333894014
182,1.55965442851e+18,-2.05499649,-0.3175460696,-2.713632584
183,1.55965442857e+18,-6.506982327,-0.8276185393,-2.176071405
184,1.55965442862e+18,-5.169187546,12.07935333,-1.987313867
185,1.55965442867e+18,-0.692767024,11.92969131,-1.75457418
186,1.55965442872e+18,-0.6915453076,-1.388392806,-3.062436819
187,1.55965442877e+18,0.1471727192,-0.8838181496,-1.37705946
188,1.55965442883e+18,1.615081906,-1.071353793,0.5844288468
189,1.55965442888e+18,3.406749725,-0.6602414846,2.068220377
190,1.55965442893e+18,4.266848087,1.249934077,4.221520424
191,1.55965442898e+18,3.053058624,-1.440927267,4.680280209
192,1.55965442903e+18,3.250978947,-4.181268692,3.145786762
193,1.55965442909e+18,2.01825285,-2.270482063,0.9368980527
194,1.55965442914e+18,1.370735884,-2.341342449,-0.4919157326
195,1.55965442919e+18,-1.257817388,-1.056692958,-2.371548176
196,1.55965442924e+18,-3.312157154,-0.9559002519,-2.411865234
197,1.55965442929e+18,-5.318849564,0.3873924315,-2.614061594
198,1.55965442935e+18,-2.812469482,6.410523891,-1.217012763
199,1.5596544294e+18,-1.874180436,4.249893665,-2.29091382
200,1.55965442945e+18,-1.098381519,1.398985267,-1.463802338
201,1.5596544295e+18,-0.8405963778,-0.7494277954,-1.339796782
202,1.55965442955e+18,-0.1497077942,-2.518493652,-1.061853051
203,1.5596544296e+18,2.051850557,-1.607693434,1.828761339
204,1.55965442966e+18,3.502044678,1.190680146,4.465866566
205,1.55965442971e+18,3.206996918,-0.7873014808,4.373014927
206,1.55965442976e+18,2.859414339,-3.833075762,3.186104059
207,1.55965442981e+18,2.106217623,-2.790328503,1.65955162
208,1.55965442986e+18,1.390894413,-2.585077763,-0.6110345125
209,1.55965442992e+18,1.696326971,-1.337691069,-0.2420718521
210,1.55965442997e+18,-0.6316804886,-3.448230505,-1.716700554
211,1.55965443002e+18,-3.153332233,2.84184885,-2.354443789
212,1.55965443007e+18,-7.959619999,-0.3407589793,-3.581672192
213,1.55965443012e+18,-3.659128666,8.163706779,-0.7875745296
214,1.55965443018e+18,-0.7947815061,4.711096764,-3.000128508
215,1.55965443023e+18,-0.3103653491,-0.7323235869,-1.62201643
216,1.55965443028e+18,0.2724000812,-0.4091758728,0.155601427
217,1.55965443033e+18,1.734200597,-2.647997141,1.866634965
218,1.55965443038e+18,3.233263969,-1.329138875,3.464658499
219,1.55965443044e+18,3.608946085,1.415478587,4.356521606
220,1.55965443049e+18,1.247341037,-0.7738624215,3.288118362
221,1.55965443054e+18,0.7934681177,-2.386546612,1.501948476
222,1.55965443059e+18,1.582706094,-0.9045875669,2.106705189
223,1.55965443064e+18,1.026818633,-4.306496143,0.6730042696
224,1.5596544307e+18,-0.3195283413,-2.188015461,-0.1406682134
225,1.55965443075e+18,-3.169825792,-0.4843122959,-1.454028487
226,1.5596544308e+18,-5.453239918,2.953637123,-2.342837334
227,1.55965443085e+18,-6.857008457,5.937102795,-3.460109949
228,1.5596544309e+18,-4.813053131,6.881501198,-3.851063728
229,1.55965443096e+18,-0.3372434378,-2.770169973,-2.662320137
230,1.55965443101e+18,-1.06172967,-1.707875371,-0.9073040485
231,1.55965443106e+18,1.023153424,0.314088583,1.084727407
232,1.55965443111e+18,2.552149057,-1.273550153,2.878227711
233,1.55965443116e+18,3.821527004,-0.07381084561,4.208081722
234,1.55965443122e+18,3.115977764,1.723965526,4.661953926
235,1.55965443127e+18,1.668227196,-0.6700153351,4.274665833
236,1.55965443132e+18,0.1141859889,-3.388976574,2.143357038
237,1.55965443137e+18,-0.4679685831,-3.313840151,0.8232771754
238,1.55965443142e+18,-0.5907524824,-3.003520489,-0.3019366562
239,1.55965443148e+18,1.705489993,-4.157444954,1.12321198
240,1.55965443153e+18,-0.8937416673,2.437456131,-0.284832418
241,1.55965443158e+18,-4.74036026,-0.1257343888,-1.081400633
242,1.55965443163e+18,-8.849040031,1.813151836,-3.290289402
243,1.55965443168e+18,-8.432429314,6.788649559,-3.132686377
244,1.55965443173e+18,-0.2217898965,1.087443948,-2.688587189
245,1.55965443179e+18,-0.07823656499,2.916374445,-0.1962569654
246,1.55965443184e+18,0.6144846082,-0.2735637724,2.15313077
247,1.55965443189e+18,3.03106761,-2.050570726,3.159836769
248,1.55965443194e+18,4.378025532,1.956705213,4.333309174
249,1.55965443199e+18,3.09459734,3.759979486,5.164696217
250,1.55965443205e+18,1.018877387,-0.740264833,4.129890442
251,1.5596544321e+18,0.4495509863,-3.500764847,3.636922359
252,1.55965443215e+18,0.866161108,-7.084100723,2.128085136
253,1.5596544322e+18,2.49167347,-1.78423357,1.330295324
254,1.55965443225e+18,0.5179678798,0.4118270278,1.177578926
255,1.55965443231e+18,-1.621893048,0.8302696943,-0.2451261729
256,1.55965443236e+18,-4.957217216,0.94755584,-4.043486118
257,1.55965443241e+18,-7.564390182,0.9750447869,-4.729487896
258,1.55965443246e+18,-7.983443737,4.007990837,-5.391055107
259,1.55965443251e+18,-8.560100555,3.040991068,-6.355611324
260,1.55965443257e+18,2.285201073,2.016570091,-0.868208766
261,1.55965443262e+18,1.546054125,1.674485445,1.999192715
262,1.55965443267e+18,2.362170219,0.6659469604,5.594745636
263,1.55965443272e+18,2.280925035,0.1515984386,4.633243561
264,1.55965443277e+18,1.721983314,-0.4934752882,3.724886894
265,1.55965443283e+18,1.239399791,-2.399374723,3.073093653
266,1.55965443288e+18,1.08729434,-4.268622398,0.725538671
267,1.55965443293e+18,3.509375095,-2.782387495,2.204443455
268,1.55965443298e+18,2.221671104,0.1473223716,2.757887363
269,1.55965443303e+18,2.648054838,-1.007212996,3.864775181
270,1.55965443309e+18,1.362794518,-0.1733818799,2.91487956
271,1.55965443314e+18,-2.675635576,-0.6052635908,-1.951883674
272,1.55965443319e+18,-6.810582638,1.052624583,-5.495512962
273,1.55965443324e+18,-7.764753819,2.339107037,-5.548658371
274,1.55965443329e+18,-8.121499062,1.631114006,-5.741080761
275,1.55965443335e+18,-5.674983978,-0.354808867,-5.359290123
276,1.5596544334e+18,2.149588823,3.273119926,-1.391720176
277,1.55965443345e+18,1.434876561,4.786232948,4.817725182
278,1.5596544335e+18,2.221671104,0.2450608015,4.002830982
279,1.55965443355e+18,3.518537998,1.73557198,2.840965033
280,1.55965443361e+18,2.510610342,1.232218981,3.014450788
281,1.55965443366e+18,0.8478351235,-2.633336067,2.976577044
282,1.55965443371e+18,1.246730089,-5.166594028,2.359603167
283,1.55965443376e+18,2.41531539,-2.227110863,2.269806147
284,1.55965443381e+18,1.601032019,2.100258589,3.134791374
285,1.55965443387e+18,1.448926568,-2.753676653,0.907576561
286,1.55965443392e+18,-2.590725422,-1.004769444,-1.992200851
287,1.55965443397e+18,-6.775152206,-0.2045360059,-4.050816536
288,1.55965443402e+18,-7.900366306,1.038574696,-3.628098011
289,1.55965443407e+18,-6.593725204,2.130801678,-3.618324041
290,1.55965443413e+18,-1.881510735,-1.94672358,-3.705677748
291,1.55965443418e+18,3.555800676,1.789938927,2.914268732
292,1.55965443423e+18,1.397003055,3.258459091,3.872716665
293,1.55965443428e+18,2.134928226,1.370885491,3.05354619
294,1.55965443433e+18,1.955944657,1.668987632,2.285077572
295,1.55965443439e+18,1.376844525,-0.6663501859,2.91121459
296,1.55965443444e+18,1.527117252,-3.437234879,2.424965858
297,1.55965443449e+18,1.075687885,-2.137313604,3.376082897
298,1.55965443454e+18,1.137385249,0.9151799679,5.562369823
299,1.55965443459e+18,1.906464577,-3.004742146,5.095668316
300,1.55965443465e+18,0.5271309018,-2.222223759,1.673601508
301,1.5596544347e+18,-0.2205681652,1.446632743,-0.7930723429
302,1.55965443475e+18,-4.722644806,1.218780041,-4.449100494
303,1.5596544348e+18,-7.408619404,1.282920957,-4.152220249
304,1.55965443485e+18,-6.7867589,1.256042838,-3.540744066
305,1.55965443491e+18,-4.902239323,1.729463339,-3.609771967
306,1.55965443496e+18,0.866771996,3.863826513,2.537975788
307,1.55965443501e+18,-0.07762569934,3.383686543,1.829372168
308,1.55965443506e+18,1.866147518,1.25543189,1.999192715
309,1.55965443511e+18,1.425713658,0.7050423622,2.202610731
310,1.55965443517e+18,0.3139389455,-1.693825483,3.665022135
311,1.55965443522e+18,0.0347735025,-4.224029064,4.353467464
312,1.55965443527e+18,0.5039179921,-4.158055782,4.349802017
313,1.55965443532e+18,1.028040409,2.698295593,5.427979469
314,1.55965443537e+18,0.3334866166,-1.714594841,3.938079119
315,1.55965443543e+18,3.251589775,0.707485795,2.567297459
316,1.55965443548e+18,-0.5211138725,0.2249022573,1.291810751
317,1.55965443553e+18,-3.130730152,1.694644094,-2.114373684
318,1.55965443558e+18,-4.238839626,0.7697940469,-3.91703701
319,1.55965443563e+18,-7.293166161,-4.517855644,-3.642147779
320,1.55965443569e+18,-6.521643162,0.3812837601,-2.483336449
321,1.55965443574e+18,-9.756785393,6.743445396,-4.535233021
322,1.55965443579e+18,1.806893587,5.549203396,3.597827196
323,1.55965443584e+18,1.061637998,0.2847670615,0.2673897743
324,1.55965443589e+18,0.4385554194,-0.2943331897,1.390771031
325,1.55965443595e+18,1.646235943,-0.5808289647,2.940536022
326,1.559654436e+18,-0.2810438275,-2.211228371,4.318647861
327,1.55965443605e+18,0.9730625153,-2.512995958,5.150646687
328,1.5596544361e+18,0.3035542071,-1.848374367,5.340625286
329,1.55965443615e+18,3.539307356,3.034882307,6.14085865
330,1.55965443621e+18,0.9150303602,-3.054833174,3.350426674
331,1.55965443626e+18,0.1532813609,0.7783461809,2.01079917
332,1.55965443631e+18,0.07997753471,0.8705868125,-0.229854539
333,1.55965443636e+18,-1.535760999,1.296359897,-2.69775033
334,1.55965443641e+18,-2.612716436,-0.6718478799,-3.620767593
335,1.55965443647e+18,-6.45566988,-0.610761404,-4.81134367
336,1.55965443652e+18,-5.331067085,2.920039892,-3.22492671
337,1.55965443657e+18,-5.226608753,7.982279778,-2.042291641
338,1.55965443662e+18,1.369513988,-0.07258912176,-0.1370030195
339,1.55965443667e+18,0.2858391106,-0.3144917488,0.2056923807
340,1.55965443672e+18,0.8808218241,-1.274160981,1.756679177
341,1.55965443678e+18,0.4434423447,-2.886234283,1.55020678
342,1.55965443683e+18,0.8960934877,-4.16172123,3.751765251
343,1.55965443688e+18,2.154475927,-4.097579956,3.269792557
344,1.55965443693e+18,3.219825029,2.31222868,2.530645609
345,1.55965443698e+18,1.789789319,1.44724369,3.542238235
346,1.55965443704e+18,2.564977407,-2.626616716,1.330295324
347,1.55965443709e+18,-2.513145447,-1.202078938,-1.399661541
348,1.55965443714e+18,-1.31340611,2.349491596,-3.052052021
349,1.55965443719e+18,-5.377492905,-5.442705631,-4.389846802
350,1.55965443724e+18,-5.949873447,-2.561865091,-1.782063127
351,1.5596544373e+18,-7.056150436,3.424003601,0.340693593
352,1.55965443735e+18,0.0763123408,3.956677914,0.1574340165
353,1.5596544374e+18,0.5723348856,4.223626137,1.796996355
354,1.55965443745e+18,0.9742842317,1.061176777,0.2997656167
355,1.5596544375e+18,1.579040885,-0.9760588408,0.175759986
356,1.55965443756e+18,1.12700057,-1.282713175,1.542876363
357,1.55965443761e+18,0.5393481851,-1.360903978,3.062709332
358,1.55965443766e+18,0.7024492025,0.1540418863,3.313163757
359,1.55965443771e+18,-0.2407267094,0.9695469737,2.688248873
360,1.55965443776e+18,1.260779977,0.3208081126,0.7353125811
361,1.55965443782e+18,0.66029948,-2.503832817,2.503767252
362,1.55965443787e+18,-2.49909544,-4.975393772,-2.882231474
363,1.55965443792e+18,-6.147182465,-1.245450497,-2.868792534
364,1.55965443797e+18,-6.678635597,-2.542928219,-3.033115149
365,1.55965443802e+18,-5.352447033,1.924940228,-5.612799168
366,1.55965443808e+18,0.4519944787,2.209603548,0.030374052
367,1.55965443813e+18,1.201526165,-2.48917222,4.244122505
368,1.55965443818e+18,2.134317398,-2.173965693,2.958251238
369,1.55965443823e+18,1.08729434,2.856509686,3.28200984
370,1.55965443828e+18,0.8288983107,-1.861202478,2.344942331
371,1.55965443834e+18,2.276648998,-3.144019604,2.489106655
372,1.55965443839e+18,2.215562582,0.6903815866,6.145746231
373,1.55965443844e+18,0.9559583068,-3.021846533,6.292964458
374,1.55965443849e+18,4.863052368,-3.39386344,5.181190014
375,1.55965443854e+18,0.3927405477,-2.452520132,1.200181007
376,1.5596544386e+18,-5.134367943,-0.798907876,-3.05571723
377,1.55965443865e+18,-7.429389,2.230983734,-5.651283741
378,1.5596544387e+18,-6.576621056,-1.290654421,-5.753297806
379,1.55965443875e+18,-0.8460941911,3.651856184,-3.180333853
380,1.5596544388e+18,3.104982138,5.868075371,3.449386835
381,1.55965443886e+18,1.379287958,1.593851328,3.13967824
382,1.55965443891e+18,0.05126686394,0.5840910077,2.319896936
383,1.55965443896e+18,0.3133280575,0.4643614292,1.46407485
384,1.55965443901e+18,0.09158396721,-1.804392099,1.071288466
385,1.55965443906e+18,1.958388209,-5.905130386,0.966219604
386,1.55965443912e+18,2.418369532,-0.2314140797,-0.182817921
387,1.55965443917e+18,3.185616493,3.447827339,2.952142477
388,1.55965443922e+18,1.571710467,-2.657770634,0.1146734506
389,1.55965443927e+18,-0.7617948055,-5.340080261,-2.51937747
390,1.55965443932e+18,-1.969475389,-2.774446011,-2.444241047
391,1.55965443938e+18,-3.52534914,3.190042257,-3.584115744
392,1.55965443943e+18,-6.301120758,2.571846485,-3.251194
393,1.55965443948e+18,-7.15083456,0.9793208838,-3.396579981
394,1.55965443953e+18,-5.778220177,-3.191056252,-5.497345924
395,1.55965443958e+18,3.423242807,3.913917542,3.812851667
396,1.55965443964e+18,0.815459311,3.439275265,3.78536272
397,1.55965443969e+18,3.614443779,2.400804281,2.516595602
398,1.55965443974e+18,2.23938632,1.178462863,1.583193541
399,1.55965443979e+18,1.474582911,-2.587521315,2.109759331
400,1.55965443984e+18,2.728078365,-1.924121737,3.701673985
401,1.5596544399e+18,1.794065475,-2.043851376,5.023586273
402,1.55965443995e+18,0.6028781533,-0.6468024254,3.313163757
403,1.55965444e+18,0.4593248665,-3.924094439,2.143967867
404,1.55965444005e+18,0.2461328804,-5.726147175,-2.259759665
405,1.5596544401e+18,-4.745857716,3.178435802,-2.063060999
406,1.55965444016e+18,-5.822813511,-0.9723936319,-3.070988655
407,1.55965444021e+18,-6.164897919,0.8803606629,-3.988508224
408,1.55965444026e+18,-6.900990486,2.646982908,-6.072169781
409,1.55965444031e+18,1.529560804,5.388546467,2.075550795
410,1.55965444036e+18,1.624855757,4.548606396,4.030319691
411,1.55965444042e+18,1.845378041,2.369650126,1.168416023
412,1.55965444047e+18,2.117824078,0.7209248543,1.446359754
413,1.55965444052e+18,3.041452169,-1.371899486,1.094501376
414,1.55965444057e+18,4.049379826,-0.5759420991,2.136026621
415,1.55965444062e+18,4.543570042,-0.2381336093,1.495839715
416,1.55965444068e+18,4.809296608,-5.406053543,0.5606051087
417,1.55965444073e+18,-1.234604478,-1.181309581,-1.299479604
418,1.55965444078e+18,-6.852731705,0.0611903742,-2.827864408
419,1.55965444083e+18,-7.271174908,-0.4250583351,-3.399023533
420,1.55965444088e+18,-4.299315453,-2.090888023,-3.862059355
421,1.55965444094e+18,-0.07090618461,-0.757369101,0.6449044943
422,1.55965444099e+18,0.7916355729,5.838142872,1.724303365
423,1.55965444104e+18,0.5735566616,5.499112606,3.318050861
424,1.55965444109e+18,1.116615891,2.202272892,2.710239887
425,1.55965444114e+18,1.221073866,-0.3621392548,1.349232197
426,1.5596544412e+18,1.035981655,-1.797672629,1.712086082
427,1.55965444125e+18,1.203358769,-2.819650173,1.127488017
428,1.5596544413e+18,0.7592597008,2.18577981,2.382205248
429,1.55965444135e+18,0.2620153725,-0.791577518,3.63997674
430,1.5596544414e+18,0.4648226202,-3.473886728,2.311344862
431,1.55965444146e+18,0.1306793541,-1.777513981,0.9515588284
432,1.55965444151e+18,1.318812251,-5.3083148,-0.7979592085
433,1.55965444156e+18,-4.142323017,-4.366971493,-2.47967124
434,1.55965444161e+18,-6.729337215,2.378813267,-1.810163021
435,1.55965444166e+18,-6.548521519,2.979904652,-4.683672905
436,1.55965444172e+18,-2.095924616,2.650648117,-1.644618392
437,1.55965444177e+18,-0.1356578916,2.488157988,2.506821871
438,1.55965444182e+18,0.4226729572,1.138756752,1.015699744
439,1.55965444187e+18,1.417772412,1.458850145,2.107926846
440,1.55965444192e+18,1.980990291,1.965257287,1.910006523
441,1.55965444198e+18,2.078728437,-2.696866274,1.931386709
442,1.55965444203e+18,3.739060402,-3.457393646,1.416427255
443,1.55965444208e+18,4.571670055,1.103326559,3.206873178
444,1.55965444213e+18,3.487383842,2.463723421,4.123782158
445,1.55965444218e+18,1.49474144,-4.164775372,2.735285282
446,1.55965444224e+18,-0.6451194882,-3.111643791,-0.677007854
447,1.55965444229e+18,-6.067770481,-2.156861305,-3.409408092
448,1.55965444234e+18,-8.040254593,0.5358326435,-3.779592514
449,1.55965444239e+18,-6.181391239,1.763060927,-3.112527609
450,1.55965444244e+18,-0.640843451,1.566362262,-3.329995632
451,1.5596544425e+18,1.166095972,7.448383808,3.65341568
452,1.55965444255e+18,0.08181012422,1.754508734,3.990613461
453,1.5596544426e+18,0.9828363657,-0.8202881217,1.743240237
454,1.55965444265e+18,0.9700081944,-0.2283597589,1.681542873
455,1.5596544427e+18,0.7965224385,-1.624186873,1.385273218
456,1.55965444276e+18,1.276662588,-1.953443289,1.849530816
457,1.55965444281e+18,2.122100115,-0.6400829554,2.921599388
458,1.55965444286e+18,1.710376859,1.296970725,4.244122505
459,1.55965444291e+18,1.899745107,-0.706056416,3.263683796
460,1.55965444296e+18,1.217408538,-4.639417648,1.140316129
461,1.55965444302e+18,-1.516824245,-1.93328464,-0.6739535332
462,1.55965444307e+18,-4.532666206,-1.263165474,-3.204768419
463,1.55965444312e+18,-6.93947506,-1.38350594,-3.718505859
464,1.55965444317e+18,-6.32616663,0.7905634642,-3.076486588
465,1.55965444322e+18,-6.021344662,2.380645752,-4.061812401
466,1.55965444328e+18,1.420215845,3.625589132,2.35838151
467,1.55965444333e+18,0.4098447561,3.089860439,1.559980631
468,1.55965444338e+18,1.563769221,2.475940704,1.749959707
469,1.55965444343e+18,2.079339504,0.6213538051,0.588093996
470,1.55965444348e+18,1.806893587,-1.637625813,1.705366611
471,1.55965444354e+18,2.996248245,-2.569806099,1.28203702
472,1.55965444359e+18,3.749444962,1.417922139,3.160447598
473,1.55965444364e+18,2.768395424,3.328097582,4.399282455
474,1.55965444369e+18,1.878364921,-5.005326271,3.379137278
475,1.55965444374e+18,0.271789223,-3.519701719,1.081673145
476,1.5596544438e+18,-4.246170044,-1.786066175,-1.86391902
477,1.55965444385e+18,-6.706735134,0.561488986,-2.844968796
478,1.5596544439e+18,-5.926660538,-0.2075903267,-2.020300627
479,1.55965444395e+18,-2.497873783,5.519271374,-3.110695124
480,1.559654444e+18,0.6810688972,8.067801476,0.8018968701
481,1.55965444406e+18,-0.2150703818,5.754454613,0.5233423114
482,1.55965444411e+18,0.6505256891,0.5358326435,1.387716651
483,1.55965444416e+18,0.9736734033,-1.65167582,0.8996353149
484,1.55965444421e+18,0.9364106059,-1.776292205,1.635727882
485,1.55965444426e+18,0.04454734921,-3.82085824,1.8812958
486,1.55965444432e+18,0.5063614845,-4.440275192,2.005912304
487,1.55965444437e+18,0.5350721478,-0.7249932289,2.64304471
488,1.55965444442e+18,0.9028130174,1.285364389,0.9552240372
489,1.55965444447e+18,1.855152011,-5.130553246,0.1421623975
490,1.55965444452e+18,-3.319487572,-1.924732566,-1.621405482
491,1.55965444458e+18,-7.41900444,-0.560670495,-3.119858027
492,1.55965444463e+18,-7.420226097,-0.6724588275,-2.981802464
493,1.55965444468e+18,-6.486823559,3.140562057,-3.036169529
494,1.55965444473e+18,2.708530664,2.809473038,2.841575861
495,1.55965444478e+18,0.6144846082,1.668987632,3.412123919
496,1.55965444484e+18,0.437944591,1.957926989,2.728565931
497,1.55965444489e+18,1.474582911,1.401428699,1.579528332
498,1.55965444494e+18,0.8991478086,-0.6657392383,2.51720643
499,1.55965444499e+18,1.28277123,-2.938768864,1.850752473
500,1.55965444504e+18,0.7403228879,-1.49285078,2.674809933
501,1.5596544451e+18,-0.2865416408,0.6971010566,3.443278074
502,1.55965444515e+18,-0.3225826621,-2.41037035,4.188533783
503,1.5596544452e+18,-0.4826293588,-1.779346585,1.510500431
504,1.55965444525e+18,0.2363590449,-3.972352743,0.2783853412
505,1.5596544453e+18,-2.21382165,-1.133661985,-1.915842652
506,1.55965444536e+18,-6.675580978,2.919429064,-2.924991846
507,1.55965444541e+18,-8.71098423,2.634154797,-4.744148731
508,1.55965444546e+18,-3.236409903,-1.006602049,-3.991562843
509,1.55965444551e+18,-0.6671106815,7.730603695,1.738353252
510,1.55965444556e+18,0.3878535926,2.742888927,4.316815376
511,1.55965444562e+18,-0.8405963778,-2.169078588,-0.5939302444
512,1.55965444567e+18,0.3560886085,0.2413956076,3.46404767
513,1.55965444572e+18,0.08303186297,-2.420755148,2.727344036
514,1.55965444577e+18,0.9241933227,-4.70172596,2.988183498
515,1.55965444582e+18,2.376219988,-3.690743923,3.821403742
516,1.55965444588e+18,1.99809432,0.3012604117,4.55016613
517,1.55965444593e+18,1.144715667,0.03247970715,5.196461201
518,1.55965444598e+18,1.764133096,-2.98641634,1.994916677
519,1.55965444603e+18,-1.796600461,-1.487353086,0.6748369336
520,1.55965444608e+18,-7.569887638,3.475316048,-3.902376413
521,1.55965444614e+18,-7.911361694,1.956094384,-3.508979321
522,1.55965444619e+18,-9.605291367,2.308563709,-4.076472759
523,1.55965444624e+18,0.01094975974,0.7923960686,2.776213408
524,1.55965444629e+18,0.6896210313,-1.48002255,1.655886531
525,1.55965444634e+18,1.538112879,-1.202689767,1.740796804
526,1.5596544464e+18,2.391491652,2.54374671,3.042550564
527,1.55965444645e+18,1.69999218,0.0007147123106,2.721846342
528,1.5596544465e+18,1.853319287,-2.178852558,2.785987139
529,1.55965444655e+18,2.280925035,-3.450673819,2.21910429
530,1.5596544466e+18,1.615692735,8.775182724,3.694954634
531,1.55965444666e+18,-0.1460426003,-1.995592952,5.948436737
532,1.55965444671e+18,-0.8699179292,-2.657159805,3.501921177
533,1.55965444676e+18,-0.5180595517,-0.6541327834,3.495812416
534,1.55965444681e+18,-5.648716927,4.667114258,-2.056952477
535,1.55965444686e+18,-6.914429665,3.522963524,-4.880982399
536,1.55965444692e+18,-6.869225502,3.645747662,-5.503454208
537,1.55965444697e+18,-7.475814342,-1.998647213,-4.656795025
538,1.55965444702e+18,-0.3800039887,-1.258889437,-1.683102846
539,1.55965444707e+18,0.06898195297,1.235273361,3.150062799
540,1.55965444712e+18,1.628520846,-2.382881641,4.627135277
541,1.55965444718e+18,2.652941942,-0.9125288129,4.498242855
542,1.55965444723e+18,2.606516123,-1.275993705,3.137234688
543,1.55965444728e+18,1.618136287,-0.4928644001,2.731009245
544,1.55965444733e+18,1.440374374,-0.7176628709,1.851974249
545,1.55965444738e+18,1.564380169,-1.932673812,1.836702585
546,1.55965444744e+18,1.795287132,1.881568789,3.64303112
547,1.55965444749e+18,0.2650696933,-2.909447193,4.595981121
548,1.55965444754e+18,-0.6915453076,-2.977253437,3.641809225
549,1.55965444759e+18,-0.2028530687,1.716635108,1.882517457
550,1.55965444764e+18,-4.76723814,1.760006547,-2.295189857
551,1.5596544477e+18,-8.961438179,4.246228218,-5.336688042
552,1.55965444775e+18,-8.298039436,8.510066986,-6.401426315
553,1.5596544478e+18,-4.66461277,0.3446318507,-6.090495586
554,1.55965444785e+18,-0.1778075993,-2.089055061,-2.351389647
555,1.5596544479e+18,1.943727374,1.28230989,3.316218376
556,1.55965444796e+18,2.896066427,-2.753676653,3.917920351
557,1.55965444801e+18,3.164236069,0.7374182343,5.007704258
558,1.55965444806e+18,2.622398615,-4.389573574,3.020559311
559,1.55965444811e+18,2.307192087,-3.809251785,0.6644521356
560,1.55965444816e+18,1.053085804,-0.5099686384,-0.2481804937
561,1.55965444822e+18,2.657828808,-0.7659211159,1.417038202
562,1.55965444827e+18,1.785513282,0.8394326568,1.282647848
563,1.55965444832e+18,0.4605465829,-1.313867331,1.181854963
564,1.55965444837e+18,-1.344560146,1.061176777,0.7169865966
565,1.55965444842e+18,-4.106893063,1.322627068,-2.400869608
566,1.55965444847e+18,-5.100770473,2.437456131,-3.741718769
567,1.55965444853e+18,-5.770278931,2.117362738,-4.852272034
568,1.55965444858e+18,-7.053095818,-0.4806470871,-6.647604942
569,1.55965444863e+18,1.121502757,0.074018538,-2.444851875
570,1.55965444868e+18,1.778182864,1.157693505,2.15313077
571,1.55965444873e+18,2.72624588,0.3867815435,4.222742081
572,1.55965444879e+18,2.379274368,0.09112276882,3.911811829
573,1.55965444884e+18,3.288852692,1.026357412,2.614333868
574,1.55965444889e+18,2.072009087,1.025135756,2.075550795
575,1.55965444894e+18,1.549108386,-2.616231918,1.701090455
576,1.55965444899e+18,1.177091599,-3.365152836,1.582582593
577,1.55965444905e+18,0.9620669484,-2.546593189,2.552025795
578,1.5596544491e+18,1.561325788,-1.230178714,3.356535435
579,1.55965444915e+18,1.624244928,-1.349297523,1.043188572
580,1.5596544492e+18,-2.745274067,-0.602820158,-2.276864052
581,1.55965444925e+18,-6.236979961,2.290237665,-4.534011364
582,1.55965444931e+18,-6.682911396,0.2139066756,-6.634166241
583,1.55965444936e+18,-7.204590321,5.256598949,-7.637206554
584,1.55965444941e+18,-1.157024503,9.200956345,0.1409406513
585,1.55965444946e+18,1.964496851,2.595059395,4.850711823
586,1.55965444951e+18,1.607751489,-2.657159805,4.46159029
587,1.55965444957e+18,2.380496025,-1.158096671,3.393798113
588,1.55965444962e+18,1.966940284,1.274979591,3.55384469
589,1.55965444967e+18,1.24978447,-1.96993649,2.343720675
590,1.55965444972e+18,1.262001872,-4.665074348,-0.2573434711
591,1.55965444977e+18,1.004827499,-0.4079541266,0.4549253881
592,1.55965444983e+18,2.925387859,0.1876394749,1.919780254
593,1.55965444988e+18,1.987709761,-0.4745384455,0.7066018581
594,1.55965444993e+18,-2.684798479,-1.842876554,-1.067961693
595,1.55965444998e+18,-6.734224319,0.6244081259,-3.590835094
596,1.55965445003e+18,-6.718341827,1.57674706,-3.79730773
597,1.55965445009e+18,-7.608372688,-0.4665971994,-5.117998123
598,1.55965445014e+18,-0.6005263925,2.092317343,-1.060631275
599,1.55965445019e+18,2.167304039,1.548647165,1.235000372
600,1.55965445024e+18,2.536877394,1.767947912,3.244136095
601,1.55965445029e+18,2.330404997,1.857745171,4.274665833
602,1.55965445035e+18,1.774517655,0.6677795649,3.397463322
603,1.5596544504e+18,1.020709991,0.1210551709,2.565464735
604,1.55965445045e+18,0.8850979209,-3.189223528,2.39808774
605,1.5596544505e+18,0.1062447354,-4.574055195,1.723081708
606,1.55965445055e+18,0.5081940889,-3.200829983,2.134193897
607,1.55965445061e+18,-0.02814561687,-0.2326358259,3.067595959
608,1.55965445066e+18,-0.6182414293,-3.759771824,2.431074381
609,1.55965445071e+18,-2.715952635,-1.998647213,-1.728917837
610,1.55965445076e+18,-5.78982687,2.041615486,-1.970209599
611,1.55965445081e+18,-7.718327999,4.81494379,-3.669025898
612,1.55965445087e+18,-6.265690327,3.486311674,-4.425887585
613,1.55965445092e+18,2.582081556,2.981126308,-0.7038859725
614,1.55965445097e+18,0.8111832142,1.050792098,1.021808386
615,1.55965445102e+18,3.229598522,1.745345831,3.741991282
616,1.55965445107e+18,4.136122704,1.888899207,3.957015753
617,1.55965445113e+18,3.369486809,0.9023517966,2.98757267
618,1.55965445118e+18,2.126376152,-1.864867806,1.567921877
619,1.55965445123e+18,2.294363976,-4.198983669,-0.5652195215
620,1.55965445128e+18,3.276024342,-0.04143498838,1.635727882
621,1.55965445133e+18,3.076882362,-0.3297633827,1.837924361
622,1.55965445139e+18,-0.08556694537,-3.875836134,0.1800360382
623,1.55965445144e+18,-4.813053131,1.678761601,-2.555418491
624,1.55965445149e+18,-6.449561119,7.479537964,-3.987286568
625,1.55965445154e+18,-5.852134705,12.04942131,-4.551115036
626,1.55965445159e+18,1.05064249,-0.1214583367,-4.285999775
627,1.55965445165e+18,0.1929876059,-5.373066902,-3.343434811
628,1.5596544517e+18,0.6987839937,-3.057276726,-0.1632702351
629,1.55965445175e+18,2.629729033,-0.4201714396,2.056003094
630,1.5596544518e+18,3.006632805,1.504664898,2.557523727
631,1.55965445185e+18,2.728078365,4.288377762,3.73221755
632,1.55965445191e+18,2.628507376,0.8565369248,2.812254429
633,1.55965445196e+18,2.577805519,1.036131382,3.354702711
634,1.55965445201e+18,1.94189477,-3.938755274,2.546528101
635,1.55965445206e+18,-0.4997335672,-4.731657982,-0.131505236
636,1.55965445211e+18,0.6945080161,-1.148933768,1.657108188
637,1.55965445217e+18,-1.18756783,-2.603403807,0.5239531994
638,1.55965445222e+18,-5.191178799,3.664073467,-1.26099515
639,1.55965445227e+18,-5.591906071,4.69949007,-3.570065737
640,1.55965445232e+18,-3.942569971,3.161331654,-2.125980139
641,1.55965445237e+18,-2.039113998,0.9909272194,-1.590862274
642,1.55965445243e+18,-0.5583766699,-1.600973964,-2.178514719
643,1.55965445248e+18,1.853930235,0.3379123211,1.431698918
644,1.55965445253e+18,3.614443779,2.833296776,3.410291433
645,1.55965445258e+18,3.457451344,-0.06159354374,3.66685462
646,1.55965445263e+18,3.22349,0.2713280022,3.206873178
647,1.55965445269e+18,2.017031193,-1.342578053,1.420703411
648,1.55965445274e+18,2.193571329,-1.442759871,0.0242653992
649,1.55965445279e+18,-0.2101834565,1.60667944,1.944214821
650,1.55965445284e+18,1.052474976,-3.506873608,3.45793891
651,1.55965445289e+18,0.6902319193,-2.269260406,2.575238705
652,1.55965445295e+18,-1.149694204,-2.55270195,0.4243821502
653,1.559654453e+18,-6.218653679,-1.429320812,-2.626889706
654,1.55965445305e+18,-8.148377419,7.164331436,-5.094785213
655,1.5596544531e+18,-7.569887638,6.529031754,-6.024522305
656,1.55965445315e+18,3.338332653,1.077059269,-3.281737328
657,1.55965445321e+18,-2.028118372,1.91455555,1.302806377
658,1.55965445326e+18,2.628507376,-1.384727716,2.618610144
659,1.55965445331e+18,2.196014643,-0.560670495,4.442653656
660,1.55965445336e+18,1.406165957,-0.9278004766,3.864775181
661,1.55965445341e+18,1.328586102,0.6861055493,3.39501977
662,1.55965445347e+18,1.282160282,-2.058511972,2.668700933
663,1.55965445352e+18,1.11050725,-4.263735294,1.406042576
664,1.55965445357e+18,0.6822906733,-4.0664258,2.469559193
665,1.55965445362e+18,2.347509384,-1.107394934,3.288118362
666,1.55965445367e+18,1.834993362,1.394098401,4.612473965
667,1.55965445373e+18,0.09402743727,-0.1122953594,2.486663103
668,1.55965445378e+18,-3.499082088,0.05691431463,-1.713035345
669,1.55965445383e+18,-7.08180666,0.9328950644,-5.017816544
670,1.55965445388e+18,-7.400067329,1.337287784,-5.366009712
671,1.55965445393e+18,-8.989539146,2.128358364,-6.01597023
672,1.55965445399e+18,-2.086761475,2.731893301,-3.38680625
673,1.55965445404e+18,3.475166559,5.051348686,1.796996355
674,1.55965445409e+18,1.56743443,3.887650251,4.696773529
675,1.55965445414e+18,2.970591784,-1.509344101,4.424938679
676,1.55965445419e+18,2.197847366,-0.3358720541,2.96435976
677,1.55965445425e+18,1.309038401,-1.301039219,1.793331146
678,1.5596544543e+18,2.128819466,-2.236274004,0.5966461301
679,1.55965445435e+18,3.752499342,-1.613191247,1.56364584
680,1.5596544544e+18,3.946754694,-2.599127769,2.260032177
681,1.55965445445e+18,3.972410917,-0.4617102742,3.485428095
682,1.55965445451e+18,1.9351753,-1.20818758,-1.107056975
683,1.55965445456e+18,-4.769070625,0.05202739313,-3.706899405
684,1.55965445461e+18,-7.384795666,4.025705814,-4.708718777
685,1.55965445466e+18,-7.667015553,2.337885141,-5.603025436
686,1.55965445471e+18,-6.922370434,-3.097593784,-6.372715473
687,1.55965445477e+18,-0.01898263767,0.09417709708,-1.016649008
688,1.55965445482e+18,0.6719059348,2.824744701,1.638782263
689,1.55965445487e+18,1.558271527,2.375148058,3.375472069
690,1.55965445492e+18,3.153851509,1.465569615,3.619207382
691,1.55965445497e+18,2.337124586,0.9316733479,3.345539808
692,1.55965445503e+18,1.023153424,-2.74145937,3.379137278
693,1.55965445508e+18,0.6657972932,-6.050516605,3.366309166
694,1.55965445513e+18,1.357296705,-6.097553253,1.98086679
695,1.55965445518e+18,4.601602077,1.488782525,4.193420887
696,1.55965445523e+18,2.691426516,4.361070633,4.581931114
697,1.55965445529e+18,-1.981081843,-3.994343996,-0.2121394575
698,1.55965445534e+18,-7.07508707,1.736793756,-2.637274504
699,1.55965445539e+18,-8.009711266,2.68607831,-4.213306427
700,1.55965445544e+18,-8.32491684,5.440469742,-4.665347099
701,1.55965445549e+18,-1.13442266,3.887039423,-2.29091382
702,1.55965445555e+18,2.904618502,2.32811141,0.6125286222
703,1.5596544556e+18,1.334694743,1.565140605,3.38158083
704,1.55965445565e+18,2.026805162,1.034298658,3.446943283
705,1.5596544557e+18,2.578416586,0.561488986,3.062709332
706,1.55965445575e+18,1.42510283,-0.4989730418,2.826304197
707,1.55965445581e+18,0.7604814172,-3.624770403,1.892291307
708,1.55965445586e+18,0.3408169746,-5.472637653,1.219728589
709,1.55965445591e+18,1.119059324,0.2071871608,1.711475253
710,1.55965445596e+18,0.3786906302,2.618883133,3.687624216
711,1.55965445601e+18,1.827052116,-4.36025238,0.8324401379
712,1.55965445607e+18,1.343246818,-0.4910317957,-0.6574602127
713,1.55965445612e+18,-2.892492771,-0.6932281852,-4.48025465
714,1.55965445617e+18,-6.558294773,5.155806541,-5.610355377
715,1.55965445622e+18,-6.8044734,-1.907628298,-5.60913372
716,1.55965445627e+18,-3.120956182,-3.024900913,-3.876109123
717,1.55965445633e+18,-0.4936249256,5.568751335,2.896553755
718,1.55965445638e+18,-1.095938087,4.642068863,2.497047901
719,1.55965445643e+18,0.6847341061,-0.03105027974,1.836702585
720,1.55965445648e+18,0.8869305253,-0.8080708385,3.605157375
721,1.55965445653e+18,1.823997855,-1.808668137,3.684570074
722,1.55965445659e+18,2.441582441,-4.406067371,2.799426317
723,1.55965445664e+18,1.938840508,-1.232011318,4.172651291
724,1.55965445669e+18,1.966940284,2.463723421,5.156755447
725,1.55965445674e+18,0.5796653032,-0.8129577637,4.050478458
726,1.55965445679e+18,-0.2327854782,-0.7304909825,1.784779072
727,1.55965445685e+18,0.8631067276,3.14667058,0.8648159504
728,1.5596544569e+18,-2.160065413,-0.4232257605,-0.2713933587
729,1.55965445695e+18,-1.455126882,-0.6303091049,-4.147333622
730,1.559654457e+18,-6.302342892,3.320767403,-4.166881084
731,1.55965445705e+18,-5.668875694,0.04714047164,-3.425901651
732,1.55965445711e+18,-4.958438873,-3.746332645,-1.95310533
733,1.55965445716e+18,-0.9499412775,0.07707286626,-0.8798151612
734,1.55965445721e+18,1.366459727,6.977406502,2.503156424
735,1.55965445726e+18,1.634629607,3.525407314,2.133583069
736,1.55965445731e+18,0.2577393055,-1.905184865,2.6198318
737,1.55965445737e+18,-0.4526969492,-2.247880459,4.197696686
738,1.55965445742e+18,-1.6512146,-3.772599936,5.269154072
739,1.55965445747e+18,-0.8980177045,-4.89414835,5.283204079
740,1.55965445752e+18,-0.5479919314,-2.343175411,4.124392986
741,1.55965445757e+18,0.3334866166,1.011085868,1.891680479
742,1.55965445763e+18,1.582095265,2.574900866,1.922223806
743,1.55965445768e+18,1.815445662,5.147254467,1.154976964
744,1.55965445773e+18,-0.7471340299,0.8718085289,-0.2884976268
745,1.55965445778e+18,-3.254735947,-2.53926301,-1.737469912
746,1.55965445783e+18,-4.844817638,1.047126889,-3.584726572
747,1.55965445789e+18,-5.480729103,-1.746970654,-2.819312334
748,1.55965445794e+18,-5.590684414,-1.410384059,-2.987300396
749,1.55965445799e+18,-1.402592421,4.912071228,1.136651039
750,1.55965445804e+18,1.357296705,5.59013176,2.833634853
751,1.55965445809e+18,0.4000709355,-0.4922535419,-0.1455551386
752,1.55965445815e+18,0.6419735551,0.005601634271,1.484844208
753,1.5596544582e+18,1.36523807,-1.936949849,2.580736637
754,1.55965445825e+18,1.31575799,-2.850193262,3.56361866
755,1.5596544583e+18,1.018266559,0.8266045451,6.426743984
756,1.55965445835e+18,-0.6420651674,-0.4824796915,7.219646931
757,1.55965445841e+18,2.322463751,-4.581385136,5.273430824
758,1.55965445846e+18,1.733589768,-2.643720865,4.52328825
759,1.55965445851e+18,-1.640218973,-1.26438725,0.4622557759
760,1.55965445856e+18,-2.584005833,3.110629559,-2.841303349
761,1.55965445861e+18,-6.168562889,0.743526876,-6.185790539
762,1.55965445866e+18,-6.308451176,0.09723142534,-2.093604565
763,1.55965445872e+18,-5.798378944,1.48756063,-3.295787096
764,1.55965445877e+18,-8.220458984,1.321405411,-4.304325581
765,1.55965445882e+18,2.230834007,3.952402115,1.355340838
766,1.55965445887e+18,3.203942299,3.975614786,1.814711452
767,1.55965445892e+18,1.373179197,1.452130437,0.05114347115
768,1.55965445898e+18,2.051850557,-0.4714841247,0.340693593
769,1.55965445903e+18,2.629729033,-1.223459244,1.475070357
770,1.55965445908e+18,3.681028128,1.865075469,3.008342028
771,1.55965445913e+18,2.006646395,0.8357675076,5.365670681
772,1.55965445918e+18,3.21310544,-0.9840000868,6.194004536
773,1.55965445924e+18,2.923555136,-4.311382771,4.172651291
774,1.55965445929e+18,0.7696443796,-3.471443415,0.9668304324
775,1.55965445934e+18,-0.436203599,-0.0707565248,-2.351389647
776,1.55965445939e+18,-1.653658032,1.000090241,-2.64827013
777,1.55965445944e+18,-4.218681335,0.353183955,-3.909096003
778,1.5596544595e+18,-4.981651783,-0.748206079,-3.054495335
779,1.55965445955e+18,-7.019498348,0.3122559786,-2.524875164
780,1.5596544596e+18,-9.343840599,-0.1129062176,-2.281750917
781,1.55965445965e+18,3.633380651,2.911487579,1.214841843
782,1.5596544597e+18,0.216811344,7.133788109,1.14642477
783,1.55965445976e+18,0.7592597008,0.8693650961,-0.6104235649
784,1.55965445981e+18,0.9241933227,-2.026746988,1.513554811
785,1.55965445986e+18,1.834382534,0.006823364645,3.456106424
786,1.55965445991e+18,1.684720635,0.07707286626,5.440807819
787,1.55965445996e+18,0.4923115969,-2.171522141,4.454871178
788,1.55965446002e+18,0.2968346775,-1.937560678,4.376069546
789,1.55965446007e+18,0.1092990637,-4.67851305,3.172054052
790,1.55965446012e+18,1.307205796,-5.474470615,1.434753299
791,1.55965446017e+18,0.03171917796,0.700766325,0.8874179721
792,1.55965446022e+18,-3.116680145,0.8296588659,-1.726474404
793,1.55965446028e+18,-7.324320316,0.9060170054,-3.48271203
794,1.55965446033e+18,-5.943764687,5.720857143,-2.846190453
795,1.55965446038e+18,-3.415393353,4.500348091,-3.254859209
796,1.55965446043e+18,2.119045734,6.134412766,1.110994577
797,1.55965446048e+18,-0.4074929059,1.730685115,-2.255483627
798,1.55965446054e+18,1.298042893,0.8339349627,-0.005056131631
799,1.55965446059e+18,1.374400973,-0.5026382208,1.172081232
800,1.55965446064e+18,1.484356642,-0.8416684866,3.66685462
801,1.55965446069e+18,2.18685174,-1.694436431,4.190366268
802,1.55965446074e+18,2.172801733,0.3825055063,4.277720451
803,1.5596544608e+18,1.184421897,-1.331582427,2.583790779
804,1.55965446085e+18,0.8288983107,-2.151363611,1.952156186
805,1.5596544609e+18,1.977935791,-4.965008736,2.042564154
806,1.55965446095e+18,-0.2059074044,-6.400541782,-0.5114634037
807,1.559654461e+18,-2.066602945,1.26887095,-0.9482320547
808,1.55965446106e+18,-3.165549517,2.86139679,-0.05881227553
809,1.55965446111e+18,-3.105684757,7.999384403,-3.038613081
810,1.55965446116e+18,-3.297496319,7.262680531,-4.000725746
811,1.55965446121e+18,-2.755048037,-1.985819101,-5.752076149
812,1.55965446126e+18,-0.9065698385,0.1613722742,-4.30066061
813,1.55965446132e+18,0.3945731223,1.058733225,-1.428372145
814,1.55965446137e+18,0.5081940889,-0.1538341939,0.7585254312
815,1.55965446142e+18,1.69327271,-1.954664946,3.080424309
816,1.55965446147e+18,1.82583046,0.1998567879,3.075537443
817,1.55965446152e+18,1.243675828,-1.205133319,3.551401377
818,1.55965446158e+18,0.02622138895,-1.602806568,2.823250055
819,1.55965446163e+18,-1.001864791,-2.746957302,2.042564154
820,1.55965446168e+18,1.560104012,-6.95704031,3.092641592
821,1.55965446173e+18,0.3560886085,-2.475732803,0.1158951893
822,1.55965446178e+18,-2.978624821,1.202897429,-0.8566023111
823,1.55965446184e+18,-5.599236965,2.430125713,-3.23470068
824,1.55965446189e+18,-5.434914112,7.243744373,-1.534051895
825,1.55965446194e+18,1.2894907,0.1222768947,-1.113776565
826,1.55965446199e+18,1.05430758,2.315283298,-1.150428414
827,1.55965446204e+18,0.8912066221,1.07033968,0.1568231732
828,1.5596544621e+18,0.9235824347,-1.31753242,1.153755307
829,1.55965446215e+18,1.668838024,-0.3859629929,3.194045067
830,1.5596544622e+18,1.924179673,-0.800129652,4.493966103
831,1.55965446225e+18,1.520397782,-1.977267027,1.736520648
832,1.5596544623e+18,0.6169281006,-1.365790844,0.6278002262
833,1.55965446236e+18,0.5588958859,-5.448203087,-1.859643102
834,1.55965446241e+18,-1.696418524,3.137507915,-2.507771015
835,1.55965446246e+18,-4.342076302,3.394682169,-2.696528435
836,1.55965446251e+18,-4.109947205,1.944487929,-1.979983568
837,1.55965446256e+18,-2.703124523,1.926772833,-2.038015604
838,1.55965446262e+18,0.4159534276,0.8485956192,0.9051330686
839,1.55965446267e+18,1.946170926,4.847930431,1.448803067
840,1.55965446272e+18,1.141050458,1.754508734,-0.02765814587
841,1.55965446277e+18,0.4532161951,-1.253391623,0.2276835293
842,1.55965446282e+18,-0.1973552853,-2.392044544,1.075564504
843,1.55965446288e+18,-0.14115569,-0.6718478799,2.397476912
844,1.55965446293e+18,0.5375156403,-0.3151026368,4.744421482
845,1.55965446298e+18,0.8221788406,-0.26440081,4.353467464
846,1.55965446303e+18,0.1477835625,-1.65839529,3.447554111
847,1.55965446308e+18,-0.6774953604,-3.684635162,2.746891737
848,1.55965446314e+18,-0.6664997935,-5.297319412,0.9906542301
849,1.55965446319e+18,-1.411755323,2.152182102,-0.352027595
850,1.55965446324e+18,-4.951719761,-1.048751831,-2.813203573
851,1.55965446329e+18,-6.540580273,2.494877338,-4.460707188
852,1.55965446334e+18,-6.620603561,4.544330597,-4.121677399
853,1.5596544634e+18,-1.201006889,3.354975939,0.4750839472
854,1.55965446345e+18,1.649290442,4.512565613,1.58013916
855,1.5596544635e+18,0.583330512,2.503429651,-0.4241096675
856,1.55965446355e+18,1.446483016,-0.1666623652,0.7634123564
857,1.5596544636e+18,2.502058268,-1.571652412,2.255145311
858,1.55965446366e+18,3.111701727,-1.199024677,3.515360355
859,1.55965446371e+18,3.447066545,-1.13854897,4.128057957
860,1.55965446376e+18,2.853305578,0.8589804173,3.64303112
861,1.55965446381e+18,1.60042119,-2.058511972,1.818987608
862,1.55965446386e+18,1.007271051,-2.94671011,0.6497913599
863,1.55965446392e+18,0.3072193861,-2.580801725,-0.6446320415
864,1.55965446397e+18,-1.444131255,-2.421365976,-2.122315168
865,1.55965446402e+18,-4.596806526,-0.6584088802,-3.704456091
866,1.55965446407e+18,-5.729961872,1.191901922,-3.939028263
867,1.55965446412e+18,-5.072670937,5.047683716,-3.619545937
868,1.55965446418e+18,-1.06172967,4.32136488,0.07191288471
869,1.55965446423e+18,2.670656919,3.717829943,1.592967391
870,1.55965446428e+18,1.175869703,1.632335782,-0.1351704299
871,1.55965446433e+18,2.231444836,0.6433449984,0.5172336698
872,1.55965446438e+18,1.624855757,-0.7891340256,1.670547247
873,1.55965446444e+18,1.629742622,-0.05120883137,4.01138258
874,1.55965446449e+18,1.502682686,-0.5759420991,5.258769512
875,1.55965446454e+18,0.6731277108,-0.5014165044,4.817114353
876,1.55965446459e+18,0.3182149529,-2.233219385,3.273457527
877,1.55965446464e+18,1.894247293,-5.580761433,2.916101456
878,1.5596544647e+18,0.2852282524,-2.907614708,-0.2451261729
879,1.55965446475e+18,-2.648146629,-1.609526157,-2.038626671
880,1.5596544648e+18,-4.015263081,1.758174062,-1.987313867
881,1.55965446485e+18,-4.275491714,1.866297126,-2.713021755
882,1.5596544649e+18,-2.996339798,5.573027134,-2.730125904
883,1.55965446496e+18,-0.3567911088,8.233956337,-0.4870288074
884,1.55965446501e+18,-0.7648491263,-0.1135170907,-1.419209242
885,1.55965446506e+18,-0.7086494565,-1.371288538,-0.8981410861
886,1.55965446511e+18,-0.05563455075,-1.161151052,-0.7668051124
887,1.55965446516e+18,0.3255453408,-1.932673812,0.2588376403
888,1.55965446521e+18,0.909532547,0.1070052609,1.863580704
889,1.55965446527e+18,1.235734582,1.336676955,3.643642187
890,1.55965446532e+18,0.472153008,-2.023692846,3.611266136
891,1.55965446537e+18,-0.3140305579,-1.177644253,2.553247452
892,1.55965446542e+18,-0.7941706777,-2.666322947,1.791498542
893,1.55965446547e+18,-1.368383884,-3.81780386,0.8929157853
894,1.55965446553e+18,0.6199824214,-6.368777275,0.2545616031
895,1.55965446558e+18,-1.049512386,3.237078905,-0.1632702351
896,1.55965446563e+18,-3.17471242,1.480230331,-1.939055562
897,1.55965446568e+18,-6.356098652,1.593851328,-3.783257484
898,1.55965446573e+18,-8.971823692,6.16984272,-6.173573017
899,1.55965446579e+18,2.874075174,2.186390638,-1.870638609
900,1.55965446584e+18,1.797730565,6.81125164,4.581931114
901,1.55965446589e+18,2.335902929,2.038561106,-0.3672992289
902,1.55965446594e+18,1.776350379,0.4949046969,1.096333861
903,1.55965446599e+18,1.949225187,1.191901922,3.923418283
904,1.55965446605e+18,1.894858122,-1.258889437,5.77678299
905,1.5596544661e+18,0.7922464013,-2.406705379,4.876978874
906,1.55965446615e+18,0.5998238325,-5.420714378,5.20562458
907,1.5596544662e+18,-0.447810024,-9.524506569,1.880684972
908,1.55965446625e+18,-4.821605206,2.884609699,0.5233423114
909,1.55965446631e+18,-6.439176083,-0.6089287996,-2.779605865
910,1.55965446636e+18,-5.855800152,0.3641795218,-1.878579855
911,1.55965446641e+18,-3.394013166,6.922428608,-1.614075184
912,1.55965446646e+18,0.8105723858,5.646942616,2.377929211
913,1.55965446651e+18,1.156322122,2.584063768,-0.6959447265
914,1.55965446657e+18,1.395781279,2.210825205,-0.1107358187
915,1.55965446662e+18,0.86555022,-0.559448719,-0.06064487249
916,1.55965446667e+18,-0.1765858829,-1.822718024,1.406042576
917,1.55965446672e+18,-0.5052313805,-2.894786596,3.597827196
918,1.55965446677e+18,-0.01531744562,-2.300414562,4.179981232
919,1.55965446683e+18,0.5252982974,-3.126915216,3.267960072
920,1.55965446688e+18,0.2149787396,-3.208771229,0.9307894111
921,1.55965446693e+18,-0.2107943296,-2.897840738,-0.3892903626
922,1.55965446698e+18,-1.552254438,-1.548439622,-1.185858607
923,1.55965446703e+18,-1.483226657,0.5975300074,-0.03621025756
924,1.55965446709e+18,-2.486878157,-1.663282275,-1.905457854
925,1.55965446714e+18,-2.984122515,-0.1550559253,-0.6452429295
926,1.55965446719e+18,-3.550394535,3.450881481,-0.3642449081
927,1.55965446724e+18,-4.130105972,3.730658054,1.320521474
928,1.55965446729e+18,-0.5168378353,0.9072387218,0.2533398867
929,1.55965446735e+18,-1.196120024,4.913903713,-0.5468935966
930,1.5596544674e+18,1.243675828,4.452089787,-0.9457886219
931,1.55965446745e+18,1.943116546,1.14975214,0.06213904545
932,1.5596544675e+18,2.029859304,-1.354795337,3.082867622
933,1.55965446755e+18,2.638892174,-1.735975266,4.041925907
934,1.55965446761e+18,2.473958492,-1.068299413,4.539781094
935,1.55965446766e+18,1.074466228,-0.2772289813,2.822639227
936,1.55965446771e+18,0.4898681045,-1.594865322,2.026681662
937,1.55965446776e+18,-0.7984467149,-2.830034971,1.219728589
938,1.55965446781e+18,-0.7966140509,-4.787858009,0.9821020961
939,1.55965446787e+18,0.06776022911,-1.443981528,1.03707993
940,1.55965446792e+18,-1.186346054,2.308563709,0.5105141401
941,1.55965446797e+18,-5.048847198,1.451519608,-2.68797636
942,1.55965446802e+18,-6.682911396,5.45146513,-2.55602932
943,1.55965446807e+18,-3.698834896,1.488171577,-3.689184427
944,1.55965446813e+18,0.6138737798,4.507067204,1.613736868
945,1.55965446818e+18,0.7745313048,3.323821545,0.3376392722
946,1.55965446823e+18,-0.03119994141,-1.691381931,1.734688163
947,1.55965446828e+18,-0.2639396191,-2.534986734,4.243511677
948,1.55965446833e+18,-0.5278334022,-2.974809885,5.884906769
949,1.55965446839e+18,-0.4013842642,-2.440913677,6.732176781
950,1.55965446844e+18,-1.389153481,-1.878917575,5.245941639
951,1.55965446849e+18,-0.9383348227,-1.412827492,4.278942108
952,1.55965446854e+18,0.5399590731,-1.335858345,2.617388487
953,1.55965446859e+18,2.254657745,1.835753918,4.195864201
954,1.55965446865e+18,-0.1484860629,-1.661449552,2.90816021
955,1.5596544687e+18,0.02561052516,4.761798382,0.3541326225
956,1.55965446875e+18,-1.771555066,1.845527768,-0.1455551386
957,1.5596544688e+18,-5.930936337,0.518728435,-6.468621254
958,1.55965446885e+18,-6.461778164,6.022013664,-4.044707775
959,1.55965446891e+18,-3.423945665,7.146005154,-4.512630939
960,1.55965446896e+18,2.399432898,5.164969921,0.8513769507
961,1.55965446901e+18,-0.2321746051,0.707485795,-0.8657652736
962,1.55965446906e+18,-0.1258840561,-2.649829626,1.779281259
963,1.55965446911e+18,0.05187772959,-3.603390217,2.914268732
964,1.55965446917e+18,0.232693851,-3.663866043,4.493355274
965,1.55965446922e+18,2.330404997,-3.898438215,4.240457535
966,1.55965446927e+18,3.905826569,-1.85692656,2.249647379
967,1.55965446932e+18,2.552149057,2.869337797,0.9411741495
968,1.55965446937e+18,2.25282526,-0.6571871042,-0.5884324312
969,1.55965446943e+18,-1.304854035,-0.3505328,-2.928046465
970,1.55965446948e+18,-3.264509678,0.7636854053,-4.46620512
971,1.55965446953e+18,-4.631015301,-2.360890388,-2.763112783
972,1.55965446958e+18,-4.486851215,-4.396904469,-2.321457148
973,1.55965446963e+18,-5.784328461,4.177811146,-0.4039511383
974,1.55965446969e+18,-1.041571021,1.899894834,1.91489327
975,1.55965446974e+18,-2.568734169,-1.619910717,0.5099032521
976,1.55965446979e+18,0.03782783076,-1.270495892,0.8177793622
977,1.55965446984e+18,0.2174222171,-1.646788836,2.120754957
978,1.55965446989e+18,0.8062963486,-2.775056839,2.732230902
979,1.55965446995e+18,1.233901978,-4.05237627,3.231307745
980,1.55965447e+18,1.121502757,-1.242396116,3.968622208
981,1.55965447005e+18,0.6578561068,0.9579405785,2.828747749
982,1.5596544701e+18,-0.3720627427,-1.126331687,1.46407485
983,1.55965447015e+18,-1.037905931,0.4057183862,0.6577326655
984,1.55965447021e+18,-0.7831750512,-4.836727142,-1.013594627
985,1.55965447026e+18,-1.584019423,0.4497006536,-0.9867165685
986,1.55965447031e+18,-3.568109512,1.423419952,-3.496151209
987,1.55965447036e+18,-3.804514647,2.111254215,-4.256067276
988,1.55965447041e+18,-5.164300919,1.896840453,-4.26217556
989,1.55965447047e+18,1.164263248,3.7190516,3.429228306
990,1.55965447052e+18,2.358504772,3.885817528,2.309512138
991,1.55965447057e+18,0.7360467911,1.551701546,0.3810107112
992,1.55965447062e+18,1.189308882,-0.7384322286,1.572808862
993,1.55965447067e+18,1.015212178,-1.543552637,2.500102282
994,1.55965447073e+18,1.608973265,-1.294930458,3.748099804
995,1.55965447078e+18,1.942505598,-1.04264307,3.7688694
996,1.55965447083e+18,0.8270657063,-0.3260982037,1.952156186
997,1.55965447088e+18,0.2278069109,-2.791550398,0.6687282324
998,1.55965447093e+18,-0.3121979535,-6.878849506,-1.217623711
999,1.55965447099e+18,-1.865628242,2.097204447,-2.648880959
1000,1.55965447104e+18,-4.200966358,-0.1471146643,-3.390471458
1001,1.55965447109e+18,-4.528389454,2.232816458,-3.499205351
1002,1.55965447114e+18,-4.397053719,0.06057950482,-3.860837698
1003,1.55965447119e+18,0.3805232346,0.9267864227,1.725525141
1004,1.55965447125e+18,1.056140184,4.384894371,2.686416149
1005,1.5596544713e+18,1.304762363,4.359238148,1.402377486
1006,1.55965447135e+18,0.6987839937,-0.653521955,0.5679354668
1007,1.5596544714e+18,1.044533849,-2.36027956,1.299141169
1008,1.55965447145e+18,1.70671165,-0.6639066935,2.980242491
1009,1.55965447151e+18,2.819097519,-0.9375742674,4.021156788
1010,1.55965447156e+18,2.124543428,-0.8667139411,3.33210063
1011,1.55965447161e+18,1.114783168,-1.233844042,2.925875187
1012,1.55965447166e+18,-0.2761569023,-2.919221163,1.150700927
1013,1.55965447171e+18,-0.6805496812,-1.345021367,0.3480239809
1014,1.55965447177e+18,-3.193038225,-2.341953516,-2.107043505
1015,1.55965447182e+18,-4.296261311,2.017791748,-2.780216932
1016,1.55965447187e+18,-4.092232227,-0.3517545462,-3.436897039
1017,1.55965447192e+18,-2.373257399,5.380604744,-3.977512836
1018,1.55965447197e+18,0.4568813741,4.727589607,1.925888896
1019,1.55965447203e+18,0.4703204334,0.7056531906,0.4384320378
1020,1.55965447208e+18,0.6835123897,0.5083436966,-0.3214843273
1021,1.55965447213e+18,0.9290801883,0.510176301,-0.2384066582
1022,1.55965447218e+18,1.034149051,-0.9681175351,1.865413189
1023,1.55965447223e+18,1.463587284,-0.6956716776,3.205040693
1024,1.55965447229e+18,1.282160282,-0.4165062606,4.435323238
1025,1.55965447234e+18,1.233901978,-2.593019009,2.409694195
1026,1.55965447239e+18,1.926623225,-2.497113228,2.090822458
1027,1.55965447244e+18,0.711612165,-3.205106258,1.465296507
1028,1.55965447249e+18,-1.858908772,-3.150128126,-1.520002007
1029,1.55965447255e+18,-4.112390518,-0.1122953594,-2.946372271
1030,1.5596544726e+18,-5.489891529,1.103326559,-3.504703045
1031,1.55965447265e+18,-4.660336971,2.932257175,-3.38008666
1032,1.5596544727e+18,-1.013471246,2.053832769,-0.2041981965
1033,1.55965447275e+18,1.466030717,6.096539021,1.63328445
1034,1.55965447281e+18,0.145950973,0.9188451767,0.03465010971
1035,1.55965447286e+18,0.8753240705,-0.5417336226,0.1849229634
1036,1.55965447291e+18,1.08057487,-1.143435955,1.856250286
1037,1.55965447296e+18,2.148367167,-1.980932117,3.072482824
1038,1.55965447301e+18,2.706697941,0.1314398795,4.313150406
1039,1.55965447306e+18,2.860025167,0.05263825879,3.501921177
1040,1.55965447312e+18,1.754359126,-2.549647808,1.25576973
1041,1.55965447317e+18,0.5081940889,-0.2686768472,-0.121731393
1042,1.55965447322e+18,1.661507726,0.5449956656,0.4188843369
1043,1.55965447327e+18,-1.914497495,-4.118960381,-2.541979551
1044,1.55965447332e+18,-3.903474569,-0.5680008531,-1.352014065
1045,1.55965447338e+18,-5.204006672,-0.5276837349,-1.706926703
1046,1.55965447343e+18,-5.998131752,2.364152431,-3.179111958
1047,1.55965447348e+18,-8.368288994,-1.638847709,-2.827864408
1048,1.55965447353e+18,3.8422966,1.174797773,2.07677269
1049,1.55965447358e+18,0.755594492,5.94015789,1.555093765
1050,1.55965447364e+18,1.500239253,3.264567614,0.7444755435
1051,1.55965447369e+18,1.934564471,-1.408551335,3.250244856
1052,1.55965447374e+18,3.031678438,-1.859980822,3.37486124
1053,1.55965447379e+18,3.045117378,0.4509223998,4.701049805
1054,1.55965447384e+18,1.407387733,-0.3517545462,3.564840317
1055,1.5596544739e+18,0.2901151776,-1.217961431,1.36511457
1056,1.55965447395e+18,0.7140556574,-6.955207825,1.405431747
1057,1.559654474e+18,-0.8015010357,-2.519104481,-2.703858852
1058,1.55965447405e+18,-4.108725548,0.2420064807,-1.372172594
1059,1.5596544741e+18,-6.783093452,1.355613828,-1.603690386
1060,1.55965447416e+18,-4.587032795,6.467333794,-1.444865465
1061,1.55965447421e+18,-0.04524984211,8.684164047,-1.067961693
1062,1.55965447426e+18,0.5442351103,0.7465811968,0.4598123133
1063,1.55965447431e+18,1.519786835,2.489990473,-0.8077331185
1064,1.55965447436e+18,1.542999744,1.944487929,0.1262799054
1065,1.55965447442e+18,1.04758811,-1.415270925,0.1574340165
1066,1.55965447447e+18,0.9046456218,-2.035299301,2.09021163
1067,1.55965447452e+18,1.754359126,0.7288661003,3.956404924
1068,1.55965447457e+18,1.149602532,0.3959445059,5.12621212
1069,1.55965447462e+18,0.7928572893,-0.901533246,4.106066704
1070,1.55965447468e+18,0.7164991498,-0.4580450654,2.478111029
1071,1.55965447473e+18,-0.03242167458,-2.184350252,1.83181572
1072,1.55965447478e+18,0.9333562851,-6.090833664,1.457966208
1073,1.55965447483e+18,-1.382433891,-5.18919611,-0.8187286258
1074,1.55965447488e+18,-4.348795414,-1.596697927,-1.779008746
1075,1.55965447494e+18,-6.689020157,2.51747942,-2.629333258
1076,1.55965447499e+18,-5.029910088,6.799644947,-1.397217989
1077,1.55965447504e+18,-1.441687703,5.235830307,-1.759461045
1078,1.55965447509e+18,-0.2291202843,2.537027121,-1.593305826
1079,1.55965447514e+18,-0.6438977718,-0.9076418877,-0.3856251836
1080,1.5596544752e+18,0.5711131692,-0.3639718294,0.2093575746
1081,1.55965447525e+18,0.7800291181,-1.295541406,2.710239887
1082,1.5596544753e+18,1.072022676,-2.222223759,4.107899189
1083,1.55965447535e+18,2.029248476,-0.8691574335,4.707768917
1084,1.5596544754e+18,1.098900795,-1.048140883,3.244747162
1085,1.55965447546e+18,-0.2682156563,-1.875252485,1.766453147
1086,1.55965447551e+18,-0.1533729881,-5.494018078,0.8941375017
1087,1.55965447556e+18,0.4183968902,-0.3053287566,-0.08385775238
1088,1.55965447561e+18,-2.457556725,-2.193513155,-2.91644001
1089,1.55965447566e+18,-4.069630146,1.2786448,-1.460748076
1090,1.55965447572e+18,-3.94562459,1.352559447,-2.851688147
1091,1.55965447577e+18,-3.144169092,8.323143005,-3.495540142
1092,1.55965447582e+18,-0.09900598228,5.949320316,0.03098491952
1093,1.55965447587e+18,-0.04158465192,-1.332804084,-0.5352871418
1094,1.55965447592e+18,-0.4710229039,-0.6248112917,-0.4980243742
1095,1.55965447598e+18,0.06348416954,0.08257065713,0.2441768944
1096,1.55965447603e+18,-0.1191645339,-0.9180266261,1.698036075
1097,1.55965447608e+18,-0.1943009645,-0.1281778514,3.446943283
1098,1.55965447613e+18,0.9474061728,-1.514841914,3.974730968
1099,1.55965447618e+18,0.6499148011,-1.622965097,2.698022366
1100,1.55965447624e+18,0.4220620692,-2.222223759,1.950323462
1101,1.55965447629e+18,0.3377626538,-2.340120792,1.327851772
1102,1.55965447634e+18,0.4770399332,-2.834921837,1.451857448
1103,1.55965447639e+18,1.158765554,-4.891705036,1.274095654
1104,1.55965447644e+18,0.3994600475,-1.497737765,-1.135767698
1105,1.5596544765e+18,-2.684798479,2.112475872,-2.01602459
1106,1.55965447655e+18,-6.49171114,0.948777616,-4.803402901
1107,1.5596544766e+18,-7.123345375,7.855831146,-5.074626923
1108,1.55965447665e+18,-1.930990815,3.052597523,-3.3244977
1109,1.5596544767e+18,1.067135692,4.679942608,-0.5200154781
1110,1.55965447676e+18,1.399446368,1.201064944,1.612514973
1111,1.55965447681e+18,2.163028002,-1.321197629,1.461631298
1112,1.55965447686e+18,2.828871012,0.7600201964,2.801869631
1113,1.55965447691e+18,2.503890753,2.714178324,3.296059608
1114,1.55965447696e+18,0.9205281138,-0.3334285915,2.288132191
1115,1.55965447702e+18,0.0592081137,-2.174576521,1.390771031
1116,1.55965447707e+18,1.559493184,-3.979072332,0.5141793489
1117,1.55965447712e+18,1.297432065,-4.683399677,-0.1993112862
1118,1.55965447717e+18,-1.617006063,-0.5924354196,-1.135767698
1119,1.55965447722e+18,-3.795351505,0.3195863664,-1.262216806
1120,1.55965447728e+18,-4.208296299,8.022597313,-1.598192692
1121,1.55965447733e+18,-0.07212791592,6.252309799,0.6302437186
1122,1.55965447738e+18,0.6938970685,0.008045095019,-1.207238913
1123,1.55965447743e+18,0.7586488128,0.9548862576,-0.8706521392
1124,1.55965447748e+18,0.8417264819,-0.4525473118,-0.8474393487
1125,1.55965447754e+18,0.3756363094,-1.740251184,1.121379375
1126,1.55965447759e+18,0.07570147514,-1.508122444,3.023002863
1127,1.55965447764e+18,-0.3451846838,-0.9473481178,3.790860653
1128,1.55965447769e+18,0.1117425263,-1.501402974,2.817141294
1129,1.55965447774e+18,0.3909079432,-1.071353793,2.330892563
1130,1.5596544778e+18,-0.9584934115,-1.918623924,1.299752116
1131,1.55965447785e+18,-1.585852027,-3.385922194,0.1103973985
1132,1.5596544779e+18,-0.9358913302,-2.235052109,-0.6104235649
1133,1.55965447795e+18,-2.356153011,-1.938782454,-0.1993112862
1134,1.559654478e+18,-1.361053586,0.4668048918,-1.22800827
1135,1.55965447806e+18,-3.042154789,4.522339344,-1.239003897
1136,1.55965447811e+18,-6.17467165,6.371428013,-0.5285676122
1137,1.55965447816e+18,2.313300848,0.2487259954,0.340693593
1138,1.55965447821e+18,-0.4288732409,2.331165552,-1.824823737
1139,1.55965447826e+18,0.1092990637,1.46740222,0.4677535594
1140,1.55965447832e+18,0.6865667105,-2.34745121,1.252104521
1141,1.55965447837e+18,0.3964057267,-3.152571678,2.303403616
1142,1.55965447842e+18,1.18686533,-3.16539979,2.515373707
1143,1.55965447847e+18,1.652344704,0.1143356487,1.416427255
1144,1.55965447852e+18,1.209467411,1.099661231,2.170235157
1145,1.55965447858e+18,0.1807702929,-1.151377201,1.555093765
1146,1.55965447863e+18,2.625453234,-1.092734098,0.733479917
1147,1.55965447868e+18,-1.717798829,-2.636390686,0.380399853
1148,1.55965447873e+18,-3.309713602,-2.005977631,-0.1180661991
1149,1.55965447878e+18,-5.067783833,-0.9100853801,0.0517543368
1150,1.55965447884e+18,-5.692699432,7.761757851,-2.193175554
1151,1.55965447889e+18,-3.714717388,-0.4311670363,-1.139432907
1152,1.55965447894e+18,2.547262192,-0.6944499612,0.778073132
1153,1.55965447899e+18,-0.4783532917,3.511968374,1.937495351
1154,1.55965447904e+18,-0.4319275618,-0.7011694312,1.382829666
1155,1.5596544791e+18,-0.07457137108,-2.129372358,2.206276178
1156,1.55965447915e+18,0.4110665023,-2.085390091,3.690678596
1157,1.5596544792e+18,1.697548747,-2.60584712,4.930734634
1158,1.55965447925e+18,1.275440812,-0.150169,5.764565945
1159,1.5596544793e+18,0.7849160433,-1.24483943,3.776810646
1160,1.55965447936e+18,-0.09228646755,-0.1006889194,2.597840548
1161,1.55965447941e+18,-1.84669137,-0.2894462943,0.1103973985
1162,1.55965447946e+18,-1.223608851,1.034909487,-1.786950111
1163,1.55965447951e+18,-4.956606388,1.384324431,-2.527318954
1164,1.55965447956e+18,-5.574802399,5.202232361,-3.891380787
1165,1.55965447962e+18,-2.745274067,5.013474941,-0.5823237896
1166,1.55965447967e+18,-1.64144063,-2.139146328,-0.8963085413
1167,1.55965447972e+18,0.9070890546,2.40141511,-0.03254506737
1168,1.55965447977e+18,0.8624958992,3.266400337,0.4512601793
1169,1.55965447982e+18,-0.06296493858,-1.1587075,0.1775925756
1170,1.55965447988e+18,-0.1765858829,-2.515439272,2.08043766
1171,1.55965447993e+18,0.1746616513,-5.500126839,2.586234093
1172,1.55965447998e+18,2.104384899,-1.083571076,2.456119776
1173,1.55965448003e+18,1.763522148,4.169259071,5.686986446
1174,1.55965448008e+18,4.282119751,-1.189250708,5.319245338
1175,1.55965448014e+18,2.638281345,-2.266817093,4.177537918
1176,1.55965448019e+18,-0.07762569934,-2.497724056,2.082270622
1177,1.55965448024e+18,-2.018344641,2.302454948,-1.256108165
1178,1.55965448029e+18,-4.640789032,0.5834801793,-4.360525608
1179,1.55965448034e+18,-6.08120966,-1.018208504,-2.863294601
1180,1.5596544804e+18,-4.896131039,2.71295619,-2.076500177
1181,1.55965448045e+18,-4.286487103,1.086833119,-4.423444271
1182,1.5596544805e+18,1.470306873,3.161942482,2.194058895
1183,1.55965448055e+18,2.078728437,3.274341583,1.941771388
1184,1.5596544806e+18,1.897912502,0.5645433068,0.6882759333
1185,1.55965448066e+18,1.414107203,-0.5887702703,0.5923700333
1186,1.55965448071e+18,1.186254501,-0.8367815614,0.8837528229
1187,1.55965448076e+18,0.3243236244,-1.48002255,2.983296633
1188,1.55965448081e+18,0.1447292417,-2.249102116,4.506794453
1189,1.55965448086e+18,0.5259091854,-0.7805818915,4.022989273
1190,1.55965448092e+18,1.017044783,0.1479332447,4.033373833
1191,1.55965448097e+18,1.32247746,-2.142200708,3.781086683
1192,1.55965448102e+18,0.5735566616,-3.394474268,1.91122818
1193,1.55965448107e+18,-0.7410253286,-0.1049649715,0.7481406927
1194,1.55965448112e+18,-1.94259727,2.361097813,-2.457069397
1195,1.55965448118e+18,-4.569317818,-0.3945150971,-3.736220837
1196,1.55965448123e+18,-4.945000172,2.4710536,-4.019051552
1197,1.55965448128e+18,-4.605969906,9.353672981,-1.960435748
1198,1.55965448133e+18,1.616914392,4.997592449,1.715751171
1199,1.55965448138e+18,-0.02203696407,1.607290268,-2.387430668
1200,1.55965448144e+18,0.7024492025,-1.544163465,-0.5310111046
1201,1.55965448149e+18,-0.3677866757,-2.46351552,0.8684811592
1202,1.55965448154e+18,0.2253634632,-2.345618725,3.094474077
1203,1.55965448159e+18,0.7659791708,-1.663893104,5.146370411
1204,1.55965448164e+18,1.246119261,-2.117765903,5.475626945
1205,1.5596544817e+18,0.6352540255,-1.936949849,3.460993052
1206,1.55965448175e+18,3.361545563,-9.151268959,2.930762291
1207,1.5596544818e+18,0.8405047655,-2.046294689,0.4714187682
1208,1.55965448185e+18,-3.386071682,-1.981542945,-4.400231361
1209,1.5596544819e+18,-5.744622707,3.011669397,-2.669039488
1210,1.55965448196e+18,-4.751355648,1.153417468,-2.562137842
1211,1.55965448201e+18,-3.395234823,0.3000386953,-2.98974371
1212,1.55965448206e+18,-0.5021770597,5.572416306,-0.4827527404
1213,1.55965448211e+18,2.531990767,6.687245369,2.770104647
1214,1.55965448216e+18,0.323101908,-0.08908247948,-0.2261893451
1215,1.55965448221e+18,0.6670190692,-2.222834826,0.474473089
1216,1.55965448227e+18,0.574778378,-0.9241352677,-0.3526384532
1217,1.55965448232e+18,1.171593785,-0.901533246,1.960708261
1218,1.55965448237e+18,1.780015469,1.153417468,3.47748661
1219,1.55965448242e+18,1.58087337,-1.015154123,3.369363546
1220,1.55965448247e+18,1.408609509,-1.712151527,1.930775881
1221,1.55965448253e+18,2.079339504,-3.239925385,1.147646666
1222,1.55965448258e+18,-0.2706591189,-2.515439272,-0.7069402933
1223,1.55965448263e+18,-3.236409903,-0.6681827307,-2.681867599
1224,1.55965448268e+18,-5.595571518,0.6940467358,-1.951883674
1225,1.55965448273e+18,-5.145974636,0.9536644816,-1.804665208
1226,1.55965448279e+18,-3.255957603,5.600516796,-2.457680225
1227,1.55965448284e+18,1.232680321,9.701254845,3.180606127
1228,1.55965448289e+18,0.5393481851,0.8589804173,0.3461913764
1229,1.55965448294e+18,1.115394115,-0.8624378443,0.28205055
1230,1.55965448299e+18,1.145326495,-0.09213680029,-0.245737046
1231,1.55965448305e+18,0.8863196373,-1.833713651,0.5361704826
1232,1.5596544831e+18,0.8288983107,-2.147698164,1.773172617
1233,1.55965448315e+18,0.9791711569,-0.2931114733,2.697411537
1234,1.5596544832e+18,0.3609755635,-0.2912788689,3.323548555
1235,1.55965448325e+18,0.02805398591,-1.43970561,3.04010725
1236,1.55965448331e+18,-0.2798220813,-2.010253668,2.168402433
1237,1.55965448336e+18,0.1826028973,-3.207549572,1.36144948
1238,1.55965448341e+18,-0.3231935501,-3.161123753,-0.0759164989
1239,1.55965448346e+18,-3.037267923,-0.1752144843,-1.380113721
1240,1.55965448351e+18,-4.971267223,0.64945364,-3.0850389
1241,1.55965448357e+18,-5.343894958,-1.248504758,-3.434453726
1242,1.55965448362e+18,-4.210128784,0.9884838462,-4.169324875
1243,1.55965448367e+18,2.866133928,4.711707592,1.788444161
1244,1.55965448372e+18,0.9736734033,6.237038136,2.97107935
1245,1.55965448377e+18,0.437944591,1.062398553,0.5526638031
1246,1.55965448383e+18,1.040257692,-1.152598858,1.278371692
1247,1.55965448388e+18,1.7164855,-2.461683035,2.380372524
1248,1.55965448393e+18,2.679209232,-1.148322701,2.889223337
1249,1.55965448398e+18,2.349341869,2.006185293,4.275276661
1250,1.55965448403e+18,-0.02692388557,-1.519728899,2.216660738
1251,1.55965448409e+18,0.5723348856,-10.29419708,0.7676883936
1252,1.55965448414e+18,-1.347614527,0.5358326435,-1.465634942
1253,1.55965448419e+18,-5.865573883,1.62622714,-2.463788748
1254,1.55965448424e+18,-5.720188141,1.89806211,-1.911566496
1255,1.55965448429e+18,-5.080611706,7.75931406,-1.885910273
1256,1.55965448435e+18,-0.03119994141,4.165593624,-2.144917011
1257,1.5596544844e+18,1.107452869,1.317740202,0.9314002395
1258,1.55965448445e+18,1.605919003,0.9671035409,0.4280473292
1259,1.5596544845e+18,1.933953524,0.8388218284,0.3608521521
1260,1.55965448455e+18,1.827662945,-0.1715492904,-0.1247857213
1261,1.55965448461e+18,1.357296705,-1.979099512,1.017532229
1262,1.55965448466e+18,0.8423373699,0.7197031379,2.883725643
1263,1.55965448471e+18,1.39883554,0.02209499478,4.634465218
1264,1.55965448476e+18,0.4959767759,-2.52582407,4.446318626
1265,1.55965448481e+18,-0.2413375825,-2.635168791,3.280788183
1266,1.55965448487e+18,-1.535760999,-2.553923845,1.140316129
1267,1.55965448492e+18,-2.230925798,-5.322976112,-0.07225131243
1268,1.55965448497e+18,-4.680495262,2.723340988,-1.676994205
1269,1.55965448502e+18,-5.066562176,2.574900866,-2.995241404
1270,1.55965448507e+18,-4.188748837,1.334844351,-3.17178154
1271,1.55965448513e+18,-3.951733112,1.541316867,-3.126577616
1272,1.55965448518e+18,1.836215138,4.415438175,3.130515099
1273,1.55965448523e+18,2.279703379,4.789287567,0.9033004642
1274,1.55965448528e+18,1.503904462,0.4454246163,0.06030644849
1275,1.55965448533e+18,1.89546895,-0.7537038326,0.01388069056
1276,1.55965448539e+18,1.820943475,-0.7750841379,1.311358571
1277,1.55965448544e+18,1.622412205,0.2933191657,3.336987495
1278,1.55965448549e+18,0.711612165,-1.590589285,2.962527275
1279,1.55965448554e+18,-0.4453665912,-1.721925259,1.93444109
1280,1.55965448559e+18,0.5796653032,-6.630838394,0.1782034487
1281,1.55965448565e+18,-2.42273736,-1.918623924,-1.947607636
1282,1.5596544857e+18,-5.246767521,-0.08908247948,-3.259135246
1283,1.55965448575e+18,-4.891854286,2.641485214,-3.411240816
1284,1.5596544858e+18,-3.952954769,2.520534039,-3.333050013
1285,1.55965448585e+18,0.8777675033,4.303038597,2.765828609
1286,1.55965448591e+18,2.023139954,2.476551533,3.726719618
1287,1.55965448596e+18,1.70976603,-0.1159605458,0.5282292366
1288,1.55965448601e+18,1.586982012,0.7942286134,-0.1333378255
1289,1.55965448606e+18,0.9113650918,-1.292487025,0.2600593865
1290,1.55965448611e+18,0.9791711569,-3.085987329,0.2887700498
1291,1.55965448617e+18,1.532615066,-0.748206079,1.595410824
1292,1.55965448622e+18,1.906464577,-0.1959839016,1.567311049
1293,1.55965448627e+18,1.580262542,0.3055364788,0.4970751107
1294,1.55965448632e+18,1.268110514,2.560851097,-0.398453325
1295,1.55965448637e+18,-2.111196041,-3.510538816,-2.603065968
1296,1.55965448643e+18,-4.67499733,-1.016375899,-3.280515671
1297,1.55965448648e+18,-6.285238266,1.078281045,-2.990354538
1298,1.55965448653e+18,-2.571177721,0.656783998,-2.55602932
1299,1.55965448658e+18,0.4501618743,2.097815275,1.327240944
1300,1.55965448663e+18,0.07875579596,0.8382109404,3.74565649
1301,1.55965448669e+18,0.6590777636,0.2505585849,1.89473474
1302,1.55965448674e+18,0.6425843835,1.599349022,1.902065158
1303,1.55965448679e+18,-0.3335782588,-0.78424716,1.688262343
1304,1.55965448684e+18,0.3915188015,-3.431736946,2.012020826
1305,1.55965448689e+18,2.811766863,-4.547177315,1.610682487
1306,1.55965448695e+18,3.387201786,-0.1067975685,3.209927797
1307,1.559654487e+18,2.035968065,1.001312017,3.515360355
1308,1.55965448705e+18,0.66029948,-0.5527291894,3.126239061
1309,1.5596544871e+18,-1.504606962,-1.897854447,-0.4564855397
1310,1.55965448715e+18,-3.834446907,-0.4885883629,-2.63544178
1311,1.55965448721e+18,-6.535692692,1.92127502,-4.309212685
1312,1.55965448726e+18,-6.693907261,0.3592925966,-4.096020699
1313,1.55965448731e+18,-5.816093922,1.249323249,-3.906652451
1314,1.55965448736e+18,2.792219162,2.960356951,-1.515725851
1315,1.55965448741e+18,2.90217495,4.035479546,5.880630493
1316,1.55965448747e+18,0.9193063974,1.093552589,4.016880512
1317,1.55965448752e+18,2.01092267,-0.7689754963,2.304014444
1318,1.55965448757e+18,0.7226077914,-0.8202881217,3.346150637
1319,1.55965448762e+18,0.7928572893,-5.136662006,2.526980162
1320,1.55965448767e+18,0.7433772087,-5.939949512,2.686416149
1321,1.55965448772e+18,2.603461981,-0.902755022,4.606365681
1322,1.55965448778e+18,1.298653722,0.3385231793,7.209873199
1323,1.55965448783e+18,0.1899332702,-5.749360085,3.875770807
1324,1.55965448788e+18,-3.664015532,5.855247021,0.297933042
1325,1.55965448793e+18,-7.086693287,1.578579545,-3.576785088
1326,1.55965448798e+18,-8.364012718,-0.97972399,-4.619532108
1327,1.55965448804e+18,-8.178920746,-4.381632328,-6.640885353
1328,1.55965448809e+18,0.2339155674,9.646887779,-2.528540611
1329,1.55965448814e+18,1.510013103,10.31212044,5.147592068
1330,1.55965448819e+18,1.456256986,-1.928397655,3.396852493
1331,1.55965448824e+18,2.026805162,2.955470085,3.810408115
1332,1.5596544883e+18,0.6358649135,0.7746809721,3.502532244
1333,1.55965448835e+18,0.9901667237,-3.787260771,2.012020826
1334,1.5596544884e+18,1.629742622,-6.622897148,1.537378669
1335,1.55965448845e+18,1.482524157,-2.024914503,0.8684811592
1336,1.5596544885e+18,0.3237127662,4.171702862,4.07674551
1337,1.55965448856e+18,-1.027521133,-1.379840732,4.049256802
1338,1.55965448861e+18,0.3108845949,-5.668725491,0.02731972747
1339,1.55965448866e+18,-2.406854868,6.452062607,-1.471743584
1340,1.55965448871e+18,-4.241894245,1.274979591,-5.067907333
1341,1.55965448876e+18,-6.91992712,1.088054776,-5.582866669
1342,1.55965448882e+18,-9.549701691,1.832699537,-4.928629875
1343,1.55965448887e+18,3.636435032,2.014126539,0.478138268
1344,1.55965448892e+18,1.681666255,2.260915995,4.240457535
1345,1.55965448897e+18,0.8912066221,3.19615078,2.823860884
1346,1.55965448902e+18,2.180132389,2.088041306,3.150062799
1347,1.55965448908e+18,1.890582204,-0.3480893672,3.278344393
1348,1.55965448913e+18,0.2204765379,-2.640055656,3.043772221
1349,1.55965448918e+18,0.2968346775,-4.482425213,2.630827427
1350,1.55965448923e+18,-0.5760917068,-6.341898918,2.47444582
1351,1.55965448928e+18,-0.2065182626,-2.225278378,2.636325121
1352,1.55965448934e+18,0.7189425826,0.0227058623,2.203221798
1353,1.55965448939e+18,4.649860382,0.5297240019,1.528826594
1354,1.55965448944e+18,0.2375807613,5.39893055,-0.6305821538
1355,1.55965448949e+18,-4.095897198,1.219390869,-5.785673618
1356,1.55965448954e+18,-5.839306831,0.01293201745,-6.508327484
1357,1.5596544896e+18,-6.159399986,-6.795161247,-2.890783548
1358,1.55965448965e+18,-0.7214776874,-3.552077532,-0.5811020732
1359,1.5596544897e+18,0.6816797853,4.000660419,4.160434246
1360,1.55965448975e+18,0.2375807613,6.345160961,3.173886776
1361,1.5596544898e+18,1.267499566,0.4411485493,2.985739946
1362,1.55965448986e+18,0.6761820316,-2.210617542,4.156157494
1363,1.55965448991e+18,1.773295999,-4.901478767,3.035830975
1364,1.55965448996e+18,2.553370953,-6.399320126,1.608239055
1365,1.55965449001e+18,1.781237125,-2.117155075,1.424979329
1366,1.55965449006e+18,0.76292485,5.65671587,3.287507534
1367,1.55965449012e+18,-0.09228646755,1.598127365,5.096279144
1368,1.55965449017e+18,1.695105195,-4.798853397,1.257602334
1369,1.55965449022e+18,0.4422205985,1.179073691,2.104261398
1370,1.55965449027e+18,-3.850940466,3.687897205,-2.704469681
1371,1.55965449032e+18,-5.586408615,0.7361964583,-4.885258675
1372,1.55965449038e+18,-7.298052788,-4.393850327,-5.218791008
1373,1.55965449043e+18,-7.828895092,1.468623877,-2.910942078
1374,1.55965449048e+18,1.58087337,1.940211892,0.1036778763
1375,1.55965449053e+18,0.5552307367,0.7783461809,4.134167194
1376,1.55965449058e+18,0.8722697496,1.340342164,1.189796209
1377,1.55965449064e+18,1.740309358,2.400804281,1.8812958
1378,1.55965449069e+18,0.7995767593,-0.09091507643,2.738339663
1379,1.55965449074e+18,1.402500749,-2.737183332,2.715737581
1380,1.55965449079e+18,1.989542246,-4.425004005,3.046215773
1381,1.55965449084e+18,1.623023152,-2.143422365,3.543459892
1382,1.5596544909e+18,0.8802109957,-0.3615283668,6.595953465
1383,1.55965449095e+18,0.4935332835,-3.848958015,4.817725182
1384,1.559654491e+18,1.29254508,-1.460474968,4.01382637
1385,1.55965449105e+18,-1.10449028,2.044669867,1.300362945
1386,1.5596544911e+18,-4.093453884,3.252961159,-5.671442509
1387,1.55965449116e+18,-5.008529663,4.012266636,-4.070975304
1388,1.55965449121e+18,-6.175282478,0.314088583,-4.165048122
1389,1.55965449126e+18,-5.808763504,-2.585688829,-2.47967124
1390,1.55965449131e+18,0.856998086,1.532153964,0.4286582172
1391,1.55965449136e+18,2.552760124,4.916957855,2.252701998
1392,1.55965449142e+18,3.050004482,4.216295719,2.46100688
1393,1.55965449147e+18,2.673100471,1.882790565,2.116478682
1394,1.55965449152e+18,1.595534205,-2.582634449,3.256964445
1395,1.55965449157e+18,1.855152011,-6.302803516,2.955196857
1396,1.55965449162e+18,2.558868647,-5.591756821,2.763385296
1397,1.55965449168e+18,2.541153669,1.882179737,4.401725769
1398,1.55965449173e+18,1.016433954,1.114322066,3.313163757
1399,1.55965449178e+18,3.106814861,-3.103702307,1.457966208
1400,1.55965449183e+18,2.170358419,2.339107037,1.315023661
1401,1.55965449188e+18,-0.7929489017,-0.9400177598,-1.572536349
1402,1.55965449194e+18,-4.868030548,1.554755807,-6.538259983
1403,1.55965449199e+18,-4.34024334,0.2865996361,-4.623197079
1404,1.55965449204e+18,-5.668264866,1.906614304,-4.090522766
1405,1.55965449209e+18,-5.812428474,9.651164055,-1.041083574
1406,1.55965449214e+18,4.873436928,5.232775211,4.260615826
1407,1.5596544922e+18,-0.6884909868,-2.134259224,-2.578631401
1408,1.55965449225e+18,2.174634457,-1.016375899,-0.02216035873
1409,1.5596544923e+18,2.086669922,-0.1593319923,0.3083177507
1410,1.55965449235e+18,1.397003055,-1.583258867,1.466518164
1411,1.5596544924e+18,0.9107542634,-1.531335354,3.55017972
1412,1.55965449246e+18,1.541778088,-1.036534429,4.583763599
1413,1.55965449251e+18,1.270553946,1.17296505,3.731606722
1414,1.55965449256e+18,0.6694624424,-1.297984719,2.840354204
1415,1.55965449261e+18,0.5802761912,-3.166010857,2.158628702
1416,1.55965449266e+18,0.5558415651,-4.842835903,0.3058742583
1417,1.55965449272e+18,-0.08678868413,-3.374315739,-1.471743584
1418,1.55965449277e+18,-3.79046464,-0.6211461425,-2.964698315
1419,1.55965449282e+18,-6.081820488,0.7062640786,-3.486377239
1420,1.55965449287e+18,-7.886926651,7.168607235,-4.114957333
1421,1.55965449292e+18,-1.25048697,5.700087547,-2.278085709
1422,1.55965449298e+18,0.7940790057,3.57305479,1.343734384
1423,1.55965449303e+18,-0.4905706048,0.12960729,-1.122939587
1424,1.55965449308e+18,1.150824308,0.5089545846,0.2447877526
1425,1.55965449313e+18,1.200915337,-0.4171171188,1.791498542
1426,1.55965449318e+18,2.188684225,-2.093942165,3.294227123
1427,1.55965449324e+18,2.468460798,-0.3505328,4.941730499
1428,1.55965449329e+18,1.242454052,-1.927786827,4.114619255
1429,1.55965449334e+18,0.9657320976,-1.012099862,2.842186689
1430,1.55965449339e+18,3.246092081,-3.957692146,2.181841612
1431,1.55965449344e+18,0.5332395434,-3.495877981,-1.017870784
1432,1.5596544935e+18,-3.510688543,-0.07319997996,-2.937819958
1433,1.55965449355e+18,-6.988344193,-1.155653238,-2.22188592
1434,1.5596544936e+18,-6.890605927,2.807640553,-3.959797621
1435,1.55965449365e+18,-6.470330715,-1.36395824,-3.491874933
1436,1.5596544937e+18,1.729313731,2.59628129,1.683986306
1437,1.55965449376e+18,0.626091063,5.822260857,3.173275709
1438,1.55965449381e+18,-0.1778075993,0.3562382758,0.439653784
1439,1.55965449386e+18,0.3988491893,-1.677332163,0.6497913599
1440,1.55965449391e+18,1.775128484,-3.22159934,2.145189524
1441,1.55965449396e+18,3.343830585,-0.5557835102,3.247801304
1442,1.55965449402e+18,3.919265509,0.455809325,4.284439564
1443,1.55965449407e+18,2.790386677,1.350116134,3.251466513
1444,1.55965449412e+18,1.128222346,-2.61195612,2.147633076
1445,1.55965449417e+18,1.659675002,-2.745735407,1.155587912
1446,1.55965449422e+18,0.09402743727,-1.024927974,0.7273712754
1447,1.55965449428e+18,-3.39279151,-3.958913803,-1.816882491
1448,1.55965449433e+18,-4.425153732,3.246241808,-3.036780357
1449,1.55965449438e+18,-4.053136826,0.3501296341,-2.91399622
1450,1.55965449443e+18,-4.772124767,3.416673183,-5.51689291
1451,1.55965449448e+18,0.2064266354,6.174729824,0.6650630236
1452,1.55965449454e+18,-0.9841496944,1.810097575,-1.565205932
1453,1.55965449459e+18,1.033538222,0.3599034846,-2.195618868
1454,1.55965449464e+18,0.8209570646,0.7306986451,0.8244988918
1455,1.55965449469e+18,0.9712299109,-0.6095396876,3.083478451
1456,1.55965449474e+18,1.973048925,-1.864867806,3.746267319
1457,1.5596544948e+18,2.635837555,0.6372363567,4.275276661
1458,1.55965449485e+18,1.286436439,-0.5716660023,2.350440264
1459,1.5596544949e+18,2.797106266,-4.542290211,2.913047075
1460,1.55965449495e+18,0.3322649002,-2.505665302,-0.05331448838
1461,1.559654495e+18,-4.266328812,-5.723092556,-2.293357372
1462,1.55965449506e+18,-5.202174187,1.107602596,-1.036807537
1463,1.55965449511e+18,-5.723242283,2.599335432,-2.835194826
1464,1.55965449516e+18,-3.629807234,0.2701062858,-3.507146597
1465,1.55965449521e+18,-0.546770215,3.718440771,0.4420972168
1466,1.55965449526e+18,1.458700418,3.103299379,1.627175808
1467,1.55965449532e+18,0.8637176752,2.884609699,0.0517543368
1468,1.55965449537e+18,1.189308882,1.220612526,0.7823491693
1469,1.55965449542e+18,1.667616367,-1.78789866,2.693746567
1470,1.55965449547e+18,2.238164663,0.3977771401,4.146384239
1471,1.55965449552e+18,1.667616367,-0.3835195303,6.393146515
1472,1.55965449558e+18,0.7983550429,-1.730477452,4.934400558
1473,1.55965449563e+18,0.00972802937,-2.326681852,3.071871996
1474,1.55965449568e+18,-1.76361382,-2.620507956,0.7646340728
1475,1.55965449573e+18,-0.6121327877,-9.197083473,-2.155301809
1476,1.55965449578e+18,-4.700043201,2.252974749,-2.100323915
1477,1.55965449584e+18,-5.45629406,4.626797199,-2.486390829
1478,1.55965449589e+18,-5.159413338,7.591937065,-4.140002728
1479,1.55965449594e+18,-1.216278553,9.188738823,-0.02093862742
1480,1.55965449599e+18,0.4232838154,1.703806996,-1.132713437
1481,1.55965449604e+18,0.8484460115,0.1986350566,0.03403924406
1482,1.5596544961e+18,0.7537618876,-0.7549256086,0.1140625924
1483,1.55965449615e+18,1.530782461,-1.68832767,0.3913954198
1484,1.5596544962e+18,1.03781426,-2.051181555,2.867842913
1485,1.55965449625e+18,1.513067365,-0.05487402529,4.399282455
1486,1.5596544963e+18,1.611416698,1.135091424,5.059016705
1487,1.55965449636e+18,0.8783783913,-1.291876078,4.395617008
1488,1.55965449641e+18,1.787346005,-4.057874203,3.369363546
1489,1.55965449646e+18,-0.7294189334,-6.341898918,1.483622432
1490,1.55965449651e+18,-4.22723341,-5.107340336,-3.571898222
1491,1.55965449656e+18,-6.207658291,2.485714674,-1.669053078
1492,1.55965449662e+18,-5.262650013,3.888261318,-3.260356903
1493,1.55965449667e+18,-2.897379637,2.370260954,-2.670871973
1494,1.55965449672e+18,0.4403880239,1.762450099,0.8800876141
1495,1.55965449677e+18,0.3603646755,3.080697298,-0.4906939864
1496,1.55965449682e+18,0.566837132,0.6213538051,0.3584086895
1497,1.55965449688e+18,1.028040409,0.2982060909,1.077397108
1498,1.55965449693e+18,1.166095972,-1.415881872,2.973522663
1499,1.55965449698e+18,2.119656563,-3.532529831,3.500088692
1500,1.55965449703e+18,3.536864042,-1.783622622,3.488482237
1501,1.55965449708e+18,2.539320946,4.646344662,0.9087982774
1502,1.55965449714e+18,1.17342627,0.3085907996,1.786000729
1503,1.55965449719e+18,-0.4862945676,-3.482439041,-0.1284509152
1504,1.55965449724e+18,0.00972802937,0.1650374532,0.6552891731
1505,1.55965449729e+18,-3.365302563,-3.823912621,-1.758239388
1506,1.55965449734e+18,-6.316392422,-3.790925741,-3.818687677
1507,1.5596544974e+18,-7.324931145,3.075810194,-3.205990076
1508,1.55965449745e+18,-8.30048275,8.162485123,-3.744773149
1509,1.5596544975e+18,2.396378756,1.773445725,1.274706602
1510,1.55965449755e+18,0.1154077128,2.778929949,1.824485183
1511,1.5596544976e+18,0.807518065,1.990302801,0.01388069056
1512,1.55965449766e+18,1.535058618,0.07096421719,1.335182309
1513,1.55965449771e+18,1.268721342,-1.698712349,3.204429865
1514,1.55965449776e+18,1.833771586,-0.3932933509,4.631411076
1515,1.55965449781e+18,1.129444003,-2.316297054,6.722403049
1516,1.55965449786e+18,-0.727586329,-1.859980822,4.633243561
1517,1.55965449792e+18,1.099511623,-5.949112892,3.276511908
1518,1.55965449797e+18,-0.06357580423,-0.6663501859,0.6058091521
1519,1.55965449802e+18,-2.584005833,-0.7109432817,-2.430802107
1520,1.55965449807e+18,-4.703097343,0.7814005017,-2.131478071
1521,1.55965449812e+18,-5.124594212,2.521144867,-3.164451122
1522,1.55965449818e+18,-4.737305641,4.510733128,-2.962255001
1523,1.55965449823e+18,-2.85950613,0.6274624467,-2.03557229
1524,1.55965449828e+18,2.142258644,0.700766325,1.469572544
1525,1.55965449833e+18,2.353007078,4.100231647,1.578917503
1526,1.55965449838e+18,0.9461844563,1.692200541,0.5777093172
1527,1.55965449844e+18,0.8826544881,-1.795229077,2.111592054
1528,1.55965449849e+18,1.44831562,-4.452493191,2.796371937
1529,1.55965449854e+18,3.852681398,-4.819012165,2.239262581
1530,1.55965449859e+18,3.714625835,2.180892706,0.616193831
1531,1.55965449864e+18,2.90828371,5.370220184,1.663216829
1532,1.5596544987e+18,3.117199421,1.658603072,2.195280552
1533,1.55965449875e+18,0.8484460115,-4.20509243,0.8196119666
1534,1.5596544988e+18,-2.793532372,-3.163567066,-0.866376102
1535,1.55965449885e+18,-3.291998625,0.4142704904,-1.198686719
1536,1.5596544989e+18,-4.62490654,0.2780475318,-2.931100607
1537,1.55965449895e+18,-4.930950165,8.965773582,-3.074654102
1538,1.55965449901e+18,-2.052552938,1.048348665,-1.840095282
1539,1.55965449906e+18,-0.546770215,-0.3664153218,-1.909123063
1540,1.55965449911e+18,0.134344548,3.72271657,-0.2823889554
1541,1.55965449916e+18,0.4458858073,0.3171429038,-0.2891084552
1542,1.55965449921e+18,0.9816146493,-2.577747583,0.7017149925
1543,1.55965449927e+18,0.2302503884,-0.3499219418,2.989405155
1544,1.55965449932e+18,-0.3659541011,0.2389521599,4.837883472
1545,1.55965449937e+18,-0.976208508,-2.858745575,4.549555302
1546,1.55965449942e+18,-0.6799388528,-2.15502882,3.327213764
1547,1.55965449947e+18,-0.9187871814,-1.896632671,2.781100273
1548,1.55965449953e+18,-0.9878149629,-2.419533491,2.012020826
1549,1.55965449958e+18,2.874075174,3.147892237,1.640614867
1550,1.55965449963e+18,0.9449626803,-0.4213931561,3.56361866
1551,1.55965449968e+18,-3.17471242,-0.9381851554,-0.3746296167
1552,1.55965449973e+18,-4.36590004,3.829618216,-3.047165155
1553,1.55965449979e+18,-4.503344059,4.123444557,-5.220623493
1554,1.55965449984e+18,-4.168590546,3.557782888,-4.342810154
1555,1.55965449989e+18,-0.4154341817,0.897464931,-2.477227688
1556,1.55965449994e+18,-0.6982647777,3.17293787,-0.2280219495
1557,1.55965449999e+18,-1.230939388,-1.88380456,1.814100623
1558,1.55965450005e+18,-0.09106473625,-3.053611517,3.311942101
1559,1.5596545001e+18,0.3713602722,-1.930841208,5.167750835
1560,1.55965450015e+18,0.8295091987,-3.567349195,3.77253437
1561,1.5596545002e+18,1.589425564,-2.313242912,2.627773285
1562,1.55965450025e+18,-0.596861124,1.880957842,3.963124514
1563,1.55965450031e+18,1.667005539,-1.613191247,2.183674097
1564,1.55965450036e+18,-0.2920393944,-2.682816505,0.5398356915
1565,1.55965450041e+18,-2.665251017,1.852858186,-0.4723680317
1566,1.55965450046e+18,-3.880261898,5.28836441,-1.554210424
1567,1.55965450051e+18,-5.275477886,3.362306118,-3.294565439
1568,1.55965450057e+18,-2.956022739,3.045877934,-3.062436819
1569,1.55965450062e+18,1.170982957,4.559602261,0.04747828096
1570,1.55965450067e+18,0.1123533919,-1.517285347,-0.9885491729
1571,1.55965450072e+18,-0.5803678036,-3.259473085,0.6577326655
1572,1.55965450077e+18,-1.033018947,-1.932673812,1.98392117
1573,1.55965450083e+18,-0.5779243112,-0.7616451383,4.026043892
1574,1.55965450088e+18,0.4623791873,-2.169078588,5.142094135
1575,1.55965450093e+18,0.5931043029,-3.406080723,3.330268145
1576,1.55965450098e+18,0.5979912877,-1.422601342,2.813476086
1577,1.55965450103e+18,-0.9438326359,-2.962592602,1.012645364
1578,1.55965450109e+18,-0.692156136,-1.157485843,1.380997062
1579,1.55965450114e+18,-0.5589874983,1.646996617,-1.353235722
1580,1.55965450119e+18,-1.759337783,0.7044314742,-2.190121174
1581,1.55965450124e+18,-2.712287664,-0.7530930042,-2.759447575
1582,1.55965450129e+18,-3.265731335,7.742209911,-1.931114316
1583,1.55965450135e+18,-1.763002872,5.7220788,-0.1651028246
1584,1.5596545014e+18,-0.546770215,0.4961264431,-0.1993112862
1585,1.55965450145e+18,0.6651864648,-1.834935308,-1.183415174
1586,1.5596545015e+18,0.06653849781,-2.226500034,0.7719644904
1587,1.55965450155e+18,-0.002489275998,-1.356627822,1.605184674
1588,1.55965450161e+18,-0.580978632,1.044072509,3.44816494
1589,1.55965450166e+18,1.233901978,-2.958927393,2.316231728
1590,1.55965450171e+18,2.596742392,-0.1220691949,1.588691235
1591,1.55965450176e+18,0.6541908383,-0.7940210104,1.103664279
1592,1.55965450181e+18,-0.9181762934,-1.94977808,0.01876761205
1593,1.55965450187e+18,1.244897604,-7.585620403,0.2539507151
1594,1.55965450192e+18,0.2693457603,2.146684408,-2.005028963
1595,1.55965450197e+18,-2.034837961,2.259694338,-1.90667963
1596,1.55965450202e+18,-4.328636646,2.118584394,-4.694668293
1597,1.55965450207e+18,-3.092245579,3.106964588,-3.254859209
1598,1.55965450213e+18,-3.189373255,-1.272328496,-2.972028494
1599,1.55965450218e+18,3.71034956,1.334844351,1.804326773
1600,1.55965450223e+18,0.5362938643,4.321975708,1.460409522
1601,1.55965450228e+18,0.5393481851,0.459474504,0.6125286222
1602,1.55965450233e+18,1.183811069,-2.458017826,2.566075802
1603,1.55965450239e+18,3.44523406,-0.2246945649,2.974744558
1604,1.55965450244e+18,2.157530308,6.604778767,4.763968945
1605,1.55965450249e+18,0.5796653032,-0.3206003904,4.416386604
1606,1.55965450254e+18,0.1117425263,-5.211798191,0.3523000479
1607,1.55965450259e+18,-0.9132893682,-2.950986147,-0.3239277899
1608,1.55965450265e+18,-2.543077946,-2.361501217,-2.505327702
1609,1.5596545027e+18,-4.366510868,1.794825912,-2.777162552
1610,1.55965450275e+18,-3.668291569,0.09112276882,-2.931100607
1611,1.5596545028e+18,-2.828351736,2.551077127,-3.816855192
1612,1.55965450285e+18,1.52467382,3.413007975,2.554469347
1613,1.55965450291e+18,-0.2321746051,1.864464641,1.197737575
1614,1.55965450296e+18,-0.8424290419,-0.9626197219,0.092682302
1615,1.55965450301e+18,-0.08251262456,-0.5453988314,0.4256038368
1616,1.55965450306e+18,-0.07823656499,-1.629073739,1.798828959
1617,1.55965450311e+18,1.431211472,-2.111046314,2.927096844
1618,1.55965450317e+18,2.76289773,-0.747595191,3.264905453
1619,1.55965450322e+18,1.577819109,0.2395630181,2.68947053
1620,1.55965450327e+18,0.1471727192,2.137521267,1.72247088
1621,1.55965450332e+18,0.4055686891,-5.509901047,1.145813942
1622,1.55965450337e+18,-0.770957768,-6.197124004,-1.317805529
1623,1.55965450343e+18,-3.328650713,0.6384580135,-2.476616859
1624,1.55965450348e+18,-5.301744938,-1.262554526,-2.39353919
1625,1.55965450353e+18,-5.823424339,4.157042027,-3.491874933
1626,1.55965450358e+18,-7.679843903,4.029371262,-1.010540366
1627,1.55965450363e+18,3.323060989,0.8583695292,3.602102995
1628,1.55965450369e+18,1.687774897,3.436831713,0.5502203703
1629,1.55965450374e+18,1.592479825,1.882790565,-0.6556276083
1630,1.55965450379e+18,2.297418356,-0.7158302069,0.4646992385
1631,1.55965450384e+18,2.00786829,1.742902398,1.929554105
1632,1.55965450389e+18,1.824608684,2.734947443,4.815892696
1633,1.55965450395e+18,-0.1710880846,-2.978475094,5.051075459
1634,1.559654504e+18,3.285187483,-2.69197917,2.911825418
1635,1.55965450405e+18,0.6285345554,-4.895980835,0.5001294017
1636,1.5596545041e+18,-0.9462760687,-2.190459013,-1.511449814
1637,1.55965450415e+18,-3.502747059,1.503443241,-2.527318954
1638,1.55965450421e+18,-3.985941648,-3.53619504,-2.267700911
1639,1.55965450426e+18,-3.034824371,1.799712896,-2.78449297
1640,1.55965450431e+18,-0.547381103,7.718997002,-4.146111965
1641,1.55965450436e+18,0.1905441433,6.767879963,1.102442503
1642,1.55965450441e+18,-1.257206559,-0.4183388352,0.4763056934
1643,1.55965450447e+18,-1.436800957,-1.718870997,-0.1974786818
1644,1.55965450452e+18,0.04882340506,-1.197192073,-0.5878216028
1645,1.55965450457e+18,0.1844354868,-1.779346585,0.6491805315
1646,1.55965450462e+18,0.6120411158,-0.7390431166,2.042564154
1647,1.55965450467e+18,1.925401449,-1.507511616,3.460993052
1648,1.55965450473e+18,1.611416698,-0.07503257692,2.189782619
1649,1.55965450478e+18,0.7812508345,-0.9840000868,1.425590277
1650,1.55965450483e+18,0.0482125394,-1.608304262,0.6516240239
1651,1.55965450488e+18,0.08364272118,-4.85322094,-0.3929555714
1652,1.55965450493e+18,-0.2694373727,-6.04624033,-0.1754875332
1653,1.55965450499e+18,-3.140504122,-0.6260330081,-2.771054029
1654,1.55965450504e+18,-6.32616663,0.9634383321,-2.942707062
1655,1.55965450509e+18,-8.054304123,6.055610657,-3.17483592
1656,1.55965450514e+18,3.283965826,0.05141652748,1.08350575
1657,1.55965450519e+18,0.8869305253,1.814373612,2.317453623
1658,1.55965450525e+18,2.775725842,3.849776506,-0.190148294
1659,1.5596545053e+18,2.509999514,2.059941292,0.8697028756
1660,1.55965450535e+18,2.109882832,-0.798907876,1.16963768
1661,1.5596545054e+18,2.643168211,-0.1794905365,2.558745384
1662,1.55965450545e+18,2.451356411,-0.06892392784,2.239873648
1663,1.55965450551e+18,2.973035336,-10.97164631,2.365101099
1664,1.55965450556e+18,0.2546849847,4.734309673,-0.5859889388
1665,1.55965450561e+18,-3.567498684,0.1271638125,-2.589016199
1666,1.55965450566e+18,-6.715287685,-0.3346503079,-3.741718769
1667,1.55965450571e+18,-4.106893063,2.827188253,-4.026992798
1668,1.55965450577e+18,-2.297509909,-3.334609509,-3.948191404
1669,1.55965450582e+18,2.015198708,0.9597731233,0.6259676218
1670,1.55965450587e+18,0.3090519905,4.319532394,3.851336241
1671,1.55965450592e+18,1.271164775,0.6158559918,0.6785020828
1672,1.55965450597e+18,0.5509546399,0.6769425869,1.872743607
1673,1.55965450603e+18,0.3145497739,-1.821496367,1.948490977
1674,1.55965450608e+18,0.4880355299,-3.3309443,2.941757917
1675,1.55965450613e+18,0.6517473459,-1.838600636,3.677239418
1676,1.55965450618e+18,0.8087397218,-0.5496748686,4.598424435
1677,1.55965450623e+18,-0.2737134397,-1.327917218,2.578903913
1678,1.55965450629e+18,-1.101435781,-5.174535751,1.12626636
1679,1.55965450634e+18,-2.631653309,-0.8202881217,-0.8914216161
1680,1.55965450639e+18,-4.685993195,1.251766682,-2.587794542
1681,1.55965450644e+18,-4.66827774,2.452116966,-2.820533991
1682,1.55965450649e+18,-4.634069443,1.810708404,-4.667179585
1683,1.55965450655e+18,-1.305464864,1.784441233,-0.6983881593
1684,1.5596545066e+18,1.489243627,4.204078674,2.06699872
1685,1.55965450665e+18,1.952890396,3.670182228,1.941771388
1686,1.5596545067e+18,2.181964874,2.524809837,1.870911002
1687,1.55965450675e+18,1.693883538,-0.4336104691,0.9869890213
1688,1.55965450681e+18,2.64744401,-2.435415745,2.20933032
1689,1.55965450686e+18,2.835590601,-1.250948071,2.857458591
1690,1.55965450691e+18,2.349341869,0.5682085156,3.961902857
1691,1.55965450696e+18,0.7500966787,1.041018248,2.172678471
1692,1.55965450701e+18,-1.009806037,-1.511176705,0.07435635477
1693,1.55965450707e+18,-2.277962446,-8.057208061,-2.495553732
1694,1.55965450712e+18,-3.800238609,-2.649218798,-1.598803639
1695,1.55965450717e+18,-5.225387096,4.709875107,-1.267103791
1696,1.55965450722e+18,-5.828921795,-1.364569068,-2.826642513
1697,1.55965450727e+18,-4.722033978,1.664100885,-4.364190578
1698,1.55965450733e+18,-1.150305033,6.251087666,-2.593292236
1699,1.55965450738e+18,3.238150835,3.947515249,5.123157501
1700,1.55965450743e+18,1.565601826,1.614009738,2.770104647
1701,1.55965450748e+18,3.244870424,0.656783998,0.5990896225
1702,1.55965450753e+18,2.003592253,0.8492065668,0.2105793059
1703,1.55965450759e+18,1.70671165,-1.468416214,1.066401482
1704,1.55965450764e+18,2.062235355,-1.683440804,1.56364584
1705,1.55965450769e+18,1.938840508,0.8253828287,2.674809933
1706,1.55965450774e+18,2.753734589,-7.815306187,5.698592663
1707,1.55965450779e+18,-0.4074929059,-2.930827618,0.5147902369
1708,1.55965450785e+18,-5.235161304,1.582855701,-1.881023288
1709,1.5596545079e+18,-7.285224438,3.491198778,-3.647645473
1710,1.55965450795e+18,-5.083055496,2.694630384,-5.04225111
1711,1.559654508e+18,-0.2920393944,-5.348021507,-5.8773036
1712,1.55965450805e+18,3.917433023,1.391654849,4.508626938
1713,1.55965450811e+18,2.101941347,4.49057436,5.938051701
1714,1.55965450816e+18,1.651122928,-0.1953730285,2.138469934
1715,1.55965450821e+18,1.413496375,2.169897318,1.832426548
1716,1.55965450826e+18,0.378079772,3.292667389,0.828164041
1717,1.55965450831e+18,0.0408821553,-2.465959311,2.102428913
1718,1.55965450837e+18,-0.02814561687,-3.754273891,3.34859395
1719,1.55965450842e+18,-0.2010204792,-1.908239126,4.300322056
1720,1.55965450847e+18,-0.2847090065,-2.059122801,5.473183632
1721,1.55965450852e+18,-1.871736884,-2.692589998,2.170845985
1722,1.55965450857e+18,-4.279767513,-2.189848185,-0.7503117323
1723,1.55965450863e+18,-4.588865757,-2.284532309,-1.320859909
1724,1.55965450868e+18,-5.399483681,5.059900761,-2.549309731
1725,1.55965450873e+18,-6.164897919,3.055651903,-4.562721729
1726,1.55965450878e+18,-3.011000395,-0.6089287996,-2.081387281
1727,1.55965450883e+18,0.712833941,5.351283073,-0.2720042467
1728,1.55965450889e+18,0.900980413,4.582203865,3.806132078
1729,1.55965450894e+18,2.51122117,1.949374914,3.672963619
1730,1.55965450899e+18,1.103787661,0.07279681414,2.72245717
1731,1.55965450904e+18,1.38845098,-3.295514107,3.117076159
1732,1.55965450909e+18,2.146534681,-5.487298965,3.470156193
1733,1.55965450915e+18,1.995040059,-0.5875484943,3.705339432
1734,1.5596545092e+18,1.057972789,-3.539860249,5.52022028
1735,1.55965450925e+18,0.5515654683,-1.936339021,2.421911478
1736,1.5596545093e+18,-0.400773406,-2.706640244,3.480540991
1737,1.55965450935e+18,-3.951733112,-1.376786351,-2.017857075
1738,1.55965450941e+18,-4.420877457,8.415383339,-2.288470507
1739,1.55965450946e+18,-4.980430126,3.029384613,-4.223691463
1740,1.55965450951e+18,-5.824035168,-0.8752660751,-4.111292362
1741,1.55965450956e+18,-1.089218497,0.955497086,-2.067337275
1742,1.55965450961e+18,1.279716969,6.070271969,2.819584608
1743,1.55965450966e+18,1.887527823,2.427071571,2.054170609
1744,1.55965450972e+18,1.530782461,0.5437739491,2.156795979
1745,1.55965450977e+18,1.371957541,-2.214893579,2.615555763
1746,1.55965450982e+18,1.461143851,-4.696228027,2.34555316
1747,1.55965450987e+18,2.827649355,-3.861786127,3.531242609
1748,1.55965450992e+18,2.561312199,-0.1752144843,3.482984304
1749,1.55965450998e+18,1.667005539,2.592616081,3.617985487
1750,1.55965451003e+18,0.468487829,-0.02616335824,2.530034781
1751,1.55965451008e+18,-1.606621504,-0.2283597589,1.395046949
1752,1.55965451013e+18,-3.897977114,0.1644266099,-1.651337981
1753,1.55965451018e+18,-4.53510952,3.970727921,-3.579839706
1754,1.55965451024e+18,-6.769043446,3.94446063,-2.98302412
1755,1.55965451029e+18,-6.442230701,-1.111670852,-4.46620512
1756,1.55965451034e+18,-1.110598922,-3.713956833,-4.05325985
1757,1.55965451039e+18,2.563755512,5.518660545,4.267946243
1758,1.55965451044e+18,3.621163368,3.905976295,4.176316261
1759,1.5596545105e+18,2.180132389,4.530280113,0.2539507151
1760,1.55965451055e+18,0.4220620692,-0.5899919868,2.395644188
1761,1.5596545106e+18,-0.03058907762,-4.046878338,2.781100273
1762,1.55965451065e+18,0.291947782,-5.9075737,3.347372293
1763,1.5596545107e+18,0.5869956613,-4.646748066,4.517789841
1764,1.55965451076e+18,-0.2663830519,1.690367937,4.388286591
1765,1.55965451081e+18,0.618760705,-0.1269561201,3.724276066
1766,1.55965451086e+18,-0.2028530687,-2.247269392,1.72919035
1767,1.55965451091e+18,-1.808817744,1.11981988,-0.6232517958
1768,1.55965451096e+18,-3.751369476,3.898645639,-2.564581633
1769,1.55965451102e+18,-3.94928956,-1.03286922,-3.521196604
1770,1.55965451107e+18,-4.026869774,-0.2143098563,-2.643993855
1771,1.55965451112e+18,-4.478298664,0.9151799679,-1.405159354
1772,1.55965451117e+18,2.359115839,3.541289806,2.376707554
1773,1.55965451122e+18,2.167915106,3.642693281,2.784765482
1774,1.55965451128e+18,2.102552176,1.156471848,1.343123436
1775,1.55965451133e+18,2.128208637,0.004990769085,1.883128285
1776,1.55965451138e+18,0.8282874823,-1.841654897,2.047451019
1777,1.55965451143e+18,-0.04586071149,-4.896591663,2.657094717
1778,1.55965451148e+18,1.084850788,-3.539860249,2.928318739
1779,1.55965451154e+18,0.7995767593,-0.4507146776,2.718791962
1780,1.55965451159e+18,-0.1814727932,4.073353291,1.302806377
1781,1.55965451164e+18,0.07081454992,2.50770545,0.3107612133
1782,1.55965451169e+18,-1.994520903,-0.08724988252,-3.144292831
1783,1.55965451174e+18,-4.36040163,-0.6089287996,-4.176043987
1784,1.5596545118e+18,-5.44346571,-3.16845417,-3.696514845
1785,1.55965451185e+18,-5.028688431,-1.140992403,-2.933544159
1786,1.5596545119e+18,1.378066182,-0.08358469605,2.512319565
1787,1.55965451195e+18,1.776350379,4.063579559,2.842186689
1788,1.559654512e+18,0.728716433,3.340314865,2.694968224
1789,1.55965451206e+18,1.870423555,2.045280695,1.267987013
1790,1.55965451211e+18,1.283382058,-1.028593302,1.645501733
1791,1.55965451216e+18,0.7940790057,-3.401804686,1.538600326
1792,1.55965451221e+18,0.5595067739,-5.607639313,1.599076033
1793,1.55965451226e+18,1.028040409,-0.6266438961,1.160474777
1794,1.55965451232e+18,0.9412975311,2.219377279,2.216660738
1795,1.55965451237e+18,0.6890102029,0.5150632262,3.10669136
1796,1.55965451242e+18,-0.3952756226,-0.3749673963,0.7463080883
1797,1.55965451247e+18,-2.01529026,-0.03960239515,-0.6654015183
1798,1.55965451252e+18,-5.017693043,-1.110449195,-4.574327946
1799,1.55965451258e+18,-5.054344654,7.264513016,-6.043458939
1800,1.55965451263e+18,-4.989593029,-0.6248112917,-6.084998131
1801,1.55965451268e+18,0.8771566749,-3.162345409,-1.644618392
1802,1.55965451273e+18,0.3542560339,3.03366065,4.082853794
1803,1.55965451278e+18,-0.09778425843,3.332373857,3.54040575
1804,1.55965451284e+18,1.796508908,-0.7152193785,2.077383518
1805,1.55965451289e+18,1.632186174,-1.607693434,2.872119188
1806,1.55965451294e+18,2.156919479,-5.935062885,0.8825310469
1807,1.55965451299e+18,3.227766037,-3.408524275,-0.4039511383
1808,1.55965451304e+18,3.269304991,5.326848507,0.5587724447
1809,1.5596545131e+18,1.775739551,5.632892132,2.902051449
1810,1.55965451315e+18,1.160598159,-1.724979639,2.723679066
1811,1.5596545132e+18,1.750083089,-0.8031839728,0.5154010653
1812,1.55965451325e+18,-2.901655674,-4.837948799,-2.676369905
1813,1.5596545133e+18,-6.563793182,-0.8099034429,-5.527277946
1814,1.55965451336e+18,-5.401316643,0.8913562894,-5.915788174
1815,1.55965451341e+18,-5.052512169,-7.316839695,-6.318959236
1816,1.55965451346e+18,1.188086987,1.270092607,1.865413189
1817,1.55965451351e+18,-0.1655903012,3.701336384,6.120090008
1818,1.55965451356e+18,0.08730791509,-0.9833891988,1.958875656
1819,1.55965451362e+18,1.729313731,2.165010214,2.151298046
1820,1.55965451367e+18,1.051253319,0.9976468086,2.609447002
1821,1.55965451372e+18,1.232680321,-3.022457361,1.804326773
1822,1.55965451377e+18,2.641946316,-4.29488945,0.863594234
1823,1.55965451382e+18,3.001746178,1.19923234,1.547152519
1824,1.55965451388e+18,1.980379224,2.502207994,2.37182045
1825,1.55965451393e+18,0.7592597008,3.702558041,2.552636623
1826,1.55965451398e+18,-2.014068365,-4.846500874,-1.086287618
1827,1.55965451403e+18,-5.952316761,3.172327042,-3.819298744
1828,1.55965451408e+18,-6.516756535,-0.9064201713,-4.888923645
1829,1.55965451414e+18,-5.389099121,-3.732893467,-5.585309982
1830,1.55965451419e+18,-1.930379987,2.234038115,-2.35077858
1831,1.55965451424e+18,2.101941347,5.927940369,4.018102169
1832,1.55965451429e+18,0.2119244188,-0.8105143309,3.978396177
1833,1.55965451434e+18,1.340803385,0.2267348468,3.352259159
1834,1.5596545144e+18,1.123946309,2.177838326,3.698009014
1835,1.55965451445e+18,0.610819459,-2.426252842,1.386494875
1836,1.5596545145e+18,1.356075048,-3.767102003,1.672379851
1837,1.55965451455e+18,1.456256986,-1.36029315,1.408486128
1838,1.5596545146e+18,1.80567193,0.6903815866,2.227045298
1839,1.55965451466e+18,0.5417916775,1.252988577,2.33211422
1840,1.55965451471e+18,0.5124701262,-0.08663901687,0.5538855791
1841,1.55965451476e+18,-2.376922369,-2.197178364,-3.457666397
1842,1.55965451481e+18,-6.04883337,0.4203791618,-5.190080643
1843,1.55965451486e+18,-5.945597172,0.5382761359,-5.728252411
1844,1.55965451492e+18,-4.144766808,-3.995565653,-4.904195309
1845,1.55965451497e+18,2.099498034,3.336039066,1.907562971
1846,1.55965451502e+18,0.5283526182,3.717829943,4.293602467
1847,1.55965451507e+18,0.6529691219,0.2658302188,2.690081358
1848,1.55965451512e+18,1.842934608,2.307341814,3.147619486
1849,1.55965451518e+18,0.7177208066,1.198621511,2.104872227
1850,1.55965451523e+18,1.681055307,-5.177589893,1.278982639
1851,1.55965451528e+18,1.445872188,-1.754912019,2.763385296
1852,1.55965451533e+18,0.6743494272,0.1167791039,3.727330685
1853,1.55965451538e+18,0.9846689701,-0.2918897271,4.355910778
1854,1.55965451544e+18,0.3011107445,-0.4812579751,2.864177942
1855,1.55965451549e+18,-1.007973433,-4.919804573,0.1775925756
1856,1.55965451554e+18,-4.762351036,-0.1849883199,-3.568233252
1857,1.55965451559e+18,-6.786148071,2.478995085,-5.083789349
1858,1.55965451564e+18,-5.682314396,3.159498692,-6.731293678
1859,1.5596545157e+18,-4.820994377,-2.530710936,-6.286583424
1860,1.55965451575e+18,3.360323906,6.237648964,1.621067166
1861,1.5596545158e+18,0.153892234,4.201634884,6.449956894
1862,1.55965451585e+18,1.402500749,-0.9186374545,3.385856867
1863,1.5596545159e+18,1.737865806,1.659824729,2.704131365
1864,1.55965451595e+18,0.5002527833,-0.6675718427,1.708420873
1865,1.55965451601e+18,-0.2462245077,-2.435415745,1.799439788
1866,1.55965451606e+18,0.8264548182,-4.470818996,1.488509417
1867,1.55965451611e+18,1.205191255,-3.898438215,1.730412006
1868,1.55965451616e+18,1.394559622,0.8724194169,2.30523634
1869,1.55965451621e+18,0.03538436815,1.027579188,0.3089286089
1870,1.55965451627e+18,-0.9004611969,-4.659575939,-2.045346022
1871,1.55965451632e+18,-5.852134705,0.9335058928,-2.737456322
1872,1.55965451637e+18,-5.796545982,5.681150436,-4.607315063
1873,1.55965451642e+18,-6.057385921,2.847957611,-5.447254181
1874,1.55965451647e+18,-2.746495962,2.270689964,-1.710591912
1875,1.55965451653e+18,3.510596752,0.6115799546,2.789041519
1876,1.55965451658e+18,1.584538579,2.227929354,2.338833809
1877,1.55965451663e+18,3.780599117,2.232205629,2.553247452
1878,1.55965451668e+18,2.516719103,1.560864449,1.304028034
1879,1.55965451673e+18,1.62729919,-2.346229553,0.427436471
1880,1.55965451679e+18,1.993207574,-2.237495661,0.2185205519
1881,1.55965451684e+18,0.7219969034,0.5675976276,1.07006669
1882,1.55965451689e+18,2.265653372,2.619493961,1.781724691
1883,1.55965451694e+18,2.26259923,6.529642582,3.880657673
1884,1.55965451699e+18,-0.5235573053,-7.016294479,0.1421623975
1885,1.55965451705e+18,-4.497846603,-5.435375214,-2.537703276
1886,1.5596545171e+18,-6.758048058,3.559004784,-4.843108654
1887,1.55965451715e+18,-7.459932327,0.5840910077,-6.081943512
1888,1.5596545172e+18,-0.4288732409,-1.597919703,-3.666582584
1889,1.55965451725e+18,2.359115839,-2.335233927,2.985129118
1890,1.55965451731e+18,3.502044678,1.60973382,3.687624216
1891,1.55965451736e+18,1.751915693,2.707458496,3.188547373
1892,1.55965451741e+18,0.8942609429,2.390419483,4.136610508
1893,1.55965451746e+18,0.8105723858,-2.371886015,1.672379851
1894,1.55965451751e+18,1.721983314,-3.461058617,-0.05453621596
1895,1.55965451757e+18,2.10743928,-0.7640885711,0.4891338646
1896,1.55965451762e+18,2.062846184,0.5792040825,2.633270741
1897,1.55965451767e+18,1.524062991,-0.6944499612,2.610668898
1898,1.55965451772e+18,1.075687885,1.386767983,4.200139999
1899,1.55965451777e+18,-1.069670916,-5.032204151,0.1629318148
1900,1.55965451783e+18,-5.770889759,1.309798956,-2.532205582
1901,1.55965451788e+18,-7.218029976,3.960954189,-4.623197079
1902,1.55965451793e+18,-6.79042387,-0.5032491088,-6.245044231
1903,1.55965451798e+18,-6.117250443,-4.104300022,-3.815022707
1904,1.55965451803e+18,2.068343878,1.788106441,-1.226175785
1905,1.55965451809e+18,0.7360467911,4.563878059,5.657053947
1906,1.55965451814e+18,2.245494843,1.666544199,4.183647156
1907,1.55965451819e+18,2.930274725,1.03674221,2.680918455
1908,1.55965451824e+18,2.193571329,-0.3505328,2.745059013
1909,1.55965451829e+18,1.502682686,-4.861161709,1.239887238
1910,1.55965451835e+18,1.773906827,-1.946112752,1.49400723
1911,1.5596545184e+18,0.8301200271,0.4955155551,2.948477268
1912,1.55965451845e+18,0.3133280575,-1.434818625,3.39501977
1913,1.5596545185e+18,1.397003055,-1.859980822,1.924056292
1914,1.55965451855e+18,-1.695196867,2.336663246,-0.97633183
1915,1.55965451861e+18,-4.67744112,-1.235676527,-3.452779531
1916,1.55965451866e+18,-4.472801208,4.369623184,-4.640912533
1917,1.55965451871e+18,-3.546118736,0.690992415,-6.420362949
1918,1.55965451876e+18,-4.086123466,1.019027114,-4.022716999
1919,1.55965451881e+18,2.42875433,3.263345957,0.07191288471
1920,1.55965451887e+18,2.28947711,3.778916359,5.423703194
1921,1.55965451892e+18,1.539945483,0.7471920252,3.322937727
1922,1.55965451897e+18,2.063457012,0.8675324917,2.51720643
1923,1.55965451902e+18,1.472139359,-0.8844290376,1.936884522
1924,1.55965451907e+18,1.061637998,-3.03589654,1.144592285
1925,1.55965451913e+18,1.307205796,-3.37065053,1.172081232
1926,1.55965451918e+18,1.484967709,-0.9357417226,1.781724691
1927,1.55965451923e+18,1.493519664,1.297581673,1.639393091
1928,1.55965451928e+18,0.145950973,1.695254922,0.7456972599
1929,1.55965451933e+18,-1.76727891,-6.495225906,-1.923172951
1930,1.55965451939e+18,-4.685382366,2.266413927,-2.221275091
1931,1.55965451944e+18,-5.261428356,1.441135049,-3.968960762
1932,1.55965451949e+18,-6.365261555,5.513773441,-3.565178633
1933,1.55965451954e+18,-5.275477886,3.323821545,-2.847412109
1934,1.55965451959e+18,2.643168211,-2.845917225,0.4714187682
1935,1.55965451965e+18,2.040244102,1.525434375,2.391978979
1936,1.5596545197e+18,2.094611168,4.210797787,3.763371468
1937,1.55965451975e+18,3.530144453,2.019013405,2.733452797
1938,1.5596545198e+18,1.892414689,-2.142200708,1.704144716
1939,1.55965451985e+18,2.227169037,-4.07558918,1.455522656
1940,1.55965451991e+18,1.553384542,-2.421365976,1.686429739
1941,1.55965451996e+18,1.469085097,3.624367476,2.597840548
1942,1.55965452001e+18,-0.08739954233,0.2212370634,2.974744558
1943,1.55965452006e+18,-0.259663552,-3.633322477,-0.9060823917
1944,1.55965452011e+18,-0.1106124297,-0.842890203,-1.981205225
1945,1.55965452017e+18,-2.902877331,-5.079851627,-2.286638021
1946,1.55965452022e+18,-5.375659943,8.701878548,-5.763682842
1947,1.55965452027e+18,-6.930922985,-5.552050114,-4.114346504
1948,1.55965452032e+18,-1.766057253,-10.21234226,-2.876733541
1949,1.55965452037e+18,1.462976456,1.191901922,3.430449963
1950,1.55965452043e+18,-1.613340974,6.105091095,4.119505882
1951,1.55965452048e+18,2.453799725,2.852233648,3.095695734
1952,1.55965452053e+18,0.05248859897,1.739237189,1.955210447
1953,1.55965452058e+18,0.1325119436,-2.767115831,1.721248984
1954,1.55965452063e+18,1.348133802,-7.126860619,1.953988791
1955,1.55965452069e+18,0.5851630569,-2.785441637,2.653429508
1956,1.55965452074e+18,0.02866485156,-1.182531238,5.647890568
1957,1.55965452079e+18,2.561312199,-7.282631874,4.594148636
1958,1.55965452084e+18,-1.25048697,3.996384382,1.390160084
1959,1.55965452089e+18,-6.25408411,1.574303627,-1.266492963
1960,1.55965452095e+18,-7.106852055,2.196775198,-2.276864052
1961,1.559654521e+18,-6.836849689,-1.270495892,-2.34405899
1962,1.55965452105e+18,-2.021399021,-2.393877029,-0.6464646459
1963,1.5596545211e+18,1.112950683,2.916985273,2.105483294
1964,1.55965452115e+18,2.234499216,3.31526947,3.048048258
1965,1.55965452121e+18,2.339568138,1.701363564,1.971092939
1966,1.55965452126e+18,2.302305222,-0.1691058129,1.818987608
1967,1.55965452131e+18,1.738476634,-0.6376394629,2.914268732
1968,1.55965452136e+18,0.8606633544,-2.505054474,3.516582012
1969,1.55965452141e+18,0.3560886085,-6.388935566,2.771326303
1970,1.55965452147e+18,0.1606117338,-5.881306648,2.210551977
1971,1.55965452152e+18,1.721983314,2.229151011,2.952142477
1972,1.55965452157e+18,1.158765554,4.301206112,4.939287186
1973,1.55965452162e+18,0.8765458465,-4.440275192,1.512333155
1974,1.55965452167e+18,-1.613951802,2.006796122,-2.408810854
1975,1.55965452173e+18,-4.960882187,5.952374935,-5.229175568
1976,1.55965452178e+18,-5.22416544,0.2358978242,-5.615242481
1977,1.55965452183e+18,-5.459959507,-4.150114536,-3.48271203
1978,1.55965452188e+18,-0.5834221244,1.830866933,1.288145661
1979,1.55965452193e+18,0.5387372971,2.329333067,2.812865257
1980,1.55965452199e+18,0.03294090554,-0.3920716643,1.476902962
1981,1.55965452204e+18,1.17342627,-0.5612813234,0.8971918225
1982,1.55965452209e+18,1.271164775,1.212671399,1.062125444
1983,1.55965452214e+18,1.404944181,-1.106783986,0.7799056768
1984,1.55965452219e+18,2.265042543,-1.054249525,0.2692223489
1985,1.55965452225e+18,1.983433604,0.7606310844,1.539211154
1986,1.5596545223e+18,2.092167616,5.253544807,2.833634853
1987,1.55965452235e+18,0.3915188015,-2.315686226,4.443875313
1988,1.5596545224e+18,-1.314016938,-7.165345669,1.766453147
1989,1.55965452245e+18,-4.240672588,2.742277861,-0.6146996617
1990,1.55965452251e+18,-6.649313927,0.510176301,-3.987286568
1991,1.55965452256e+18,-8.071408272,-0.1165714115,-5.229175568
