,Time (s),Gyroscope x (rad/s),Gyroscope y (rad/s),Gyroscope z (rad/s)
0,1.55965502105e+18,-2.108141899,0.9335058928,-1.190134764
1,1.5596550211e+18,-1.830198169,-0.4946970046,0.03587184101
2,1.55965502115e+18,-1.249876142,-1.199024677,0.8532095551
3,1.5596550212e+18,-0.5107291341,-2.387768269,1.109162092
4,1.55965502126e+18,-0.02753474936,-4.069480419,1.349843025
5,1.55965502131e+18,1.213743448,-7.458560944,0.4714187682
6,1.55965502136e+18,0.03355177492,-4.449438572,-2.758225918
7,1.55965502141e+18,-0.4331492484,1.678150654,-4.519350052
8,1.55965502146e+18,0.4428314865,-6.85807991,-2.097880363
9,1.55965502151e+18,2.178299665,1.361722589,-2.045346022
10,1.55965502157e+18,1.881419182,4.879084587,3.567894697
11,1.55965502162e+18,1.131276608,3.702558041,3.343096256
12,1.55965502167e+18,-0.2688265145,2.273133516,2.440237522
13,1.55965502172e+18,-0.7611839175,0.4197682738,2.274692774
14,1.55965502177e+18,-1.214445949,0.4759678543,1.173303008
15,1.55965502182e+18,-1.618227959,3.267011166,-0.0575905405
16,1.55965502187e+18,-2.314614296,5.545538425,-1.465634942
17,1.55965502192e+18,-2.229093075,5.900451183,-2.905444384
18,1.55965502198e+18,-0.6316804886,6.397696018,-3.162618637
19,1.55965502203e+18,0.8973152637,5.383048534,-4.314099789
20,1.55965502208e+18,1.581484199,3.081918955,-3.77165103
21,1.55965502213e+18,1.288269043,1.766726255,-3.070377827
22,1.55965502218e+18,1.158154607,1.239549398,-2.023965836
23,1.55965502223e+18,1.12700057,0.7386399508,-0.8199504018
24,1.55965502228e+18,1.359129429,0.7875091434,0.3339740932
25,1.55965502233e+18,1.254671335,0.9359493852,1.734688163
26,1.55965502238e+18,0.9138085842,0.2261239886,3.140899897
27,1.55965502244e+18,0.6126520634,-0.09213680029,4.508626938
28,1.55965502249e+18,0.5613393784,0.02881451324,4.427382469
29,1.55965502254e+18,-0.157038182,-1.765296698,4.462812424
30,1.55965502259e+18,-0.4160450399,-3.117752552,3.595994473
31,1.55965502264e+18,-0.5712048411,-4.709667206,1.761566162
32,1.55965502269e+18,-0.6793279648,-4.995552063,-0.2322980016
33,1.55965502274e+18,-0.8674744964,-1.527059317,-1.023979425
34,1.55965502279e+18,-0.640843451,2.650037289,1.444527149
35,1.55965502284e+18,-1.95909071,2.888885498,2.406639814
36,1.55965502289e+18,-3.105073929,-0.1513907313,-1.121106982
37,1.55965502295e+18,-1.974973202,2.931646347,0.1549905688
38,1.559655023e+18,-1.666486263,1.218169212,0.3015982509
39,1.55965502305e+18,-1.221165419,-0.9650632143,0.6045873761
40,1.5596550231e+18,-0.6066350341,-1.953443289,1.062736273
41,1.55965502315e+18,0.9926102161,-4.73776722,1.05051899
42,1.5596550232e+18,2.202123404,-8.103633881,-0.6409668326
43,1.55965502325e+18,0.7348250747,-4.417674065,-4.874263287
44,1.5596550233e+18,1.177091599,2.508927584,-3.742329597
45,1.55965502335e+18,0.4605465829,-2.787274122,-1.996476769
46,1.5596550234e+18,0.5680588484,-0.8367815614,-1.349570513
47,1.55965502346e+18,0.9223607183,2.724562645,1.432920694
48,1.55965502351e+18,0.0408821553,3.216309309,1.749348879
49,1.55965502356e+18,-1.242545724,2.369650126,1.767674804
50,1.55965502361e+18,-1.417863965,1.98724854,1.359616876
51,1.55965502366e+18,-1.5748564,2.23892498,-0.2377957851
52,1.55965502371e+18,-1.999407768,4.092289925,-1.292149186
53,1.55965502376e+18,-1.373270869,4.96765995,-2.498608112
54,1.55965502382e+18,-1.135644317,4.71231842,-4.215750694
55,1.55965502387e+18,-0.1979661584,3.260902643,-4.672066212
56,1.55965502392e+18,0.2522415221,3.087416649,-4.938403606
57,1.55965502397e+18,0.2052049041,2.7361691,-3.65497613
58,1.55965502402e+18,-0.0928973332,1.952429175,-2.912163734
59,1.55965502407e+18,-0.2700482607,0.3672338426,-2.275642395
60,1.55965502412e+18,0.181381166,0.5700411201,-0.5609434843
61,1.55965502418e+18,0.416564256,0.7661288381,1.105496883
62,1.55965502423e+18,0.4245055318,1.274368763,2.51415205
63,1.55965502428e+18,0.1086882055,0.4344290495,3.533075333
64,1.55965502433e+18,-0.2309528738,0.7484137416,4.371182442
65,1.55965502438e+18,-0.5064530969,-1.65839529,4.486025333
66,1.55965502444e+18,-0.3384651542,-1.431764245,4.439599514
67,1.55965502449e+18,-0.5180595517,-3.569181919,3.728552341
68,1.55965502454e+18,-0.4062712193,-4.591770172,2.581347466
69,1.55965502459e+18,0.09647089243,-2.326681852,1.396268845
70,1.55965502464e+18,0.433057636,0.939003706,1.306471586
71,1.55965502469e+18,-0.05807801336,2.023900509,1.181244135
72,1.55965502474e+18,-2.275518894,0.7490246296,0.5984787345
73,1.5596550248e+18,-6.006072521,-3.619883537,1.706588268
74,1.55965502485e+18,-4.669499397,3.752038002,-1.469300151
75,1.5596550249e+18,-1.979249239,5.758119583,0.08290845901
76,1.55965502495e+18,-1.786215782,-0.9791131616,0.01754588261
77,1.559655025e+18,-1.206504583,-0.216753304,0.7194300294
78,1.55965502505e+18,-1.036073208,-1.434818625,0.9503371119
79,1.5596550251e+18,-0.2663830519,-2.817206621,1.25882411
80,1.55965502515e+18,0.8166810274,-5.551439285,0.5887048841
81,1.5596550252e+18,1.685942292,-9.843379021,-0.874928236
82,1.55965502525e+18,0.9156411886,-8.453660011,-5.255443096
83,1.55965502531e+18,0.07814493775,-1.480633497,-6.865683556
84,1.55965502536e+18,-0.5602092147,-0.6913956404,-4.663514614
85,1.55965502541e+18,-0.1527621299,-4.017556667,-1.447919846
86,1.55965502546e+18,2.324907303,4.076407909,1.188574553
87,1.55965502551e+18,0.6761820316,4.367790699,2.198334694
88,1.55965502556e+18,-0.5889199376,3.140562057,1.591134787
89,1.55965502561e+18,-0.9902583361,2.232816458,1.638171434
90,1.55965502566e+18,-0.7978358269,1.510162711,0.9491153359
91,1.55965502571e+18,-1.096548915,2.311617851,0.1146734506
92,1.55965502576e+18,-1.554697871,3.252961159,-1.007485986
93,1.55965502582e+18,-1.728794456,4.499126434,-2.412476063
94,1.55965502587e+18,-1.499719977,4.637793064,-3.320221901
95,1.55965502592e+18,-0.2511114478,5.864409924,-3.216985703
96,1.55965502597e+18,0.4666552544,4.846708298,-2.865127087
97,1.55965502602e+18,0.7458207011,2.639652491,-2.063672066
98,1.55965502607e+18,1.037203312,1.708083153,-1.629957676
99,1.55965502612e+18,0.1373988688,-0.9070310593,-0.7741354704
100,1.55965502617e+18,-0.1509295404,-2.930827618,-1.149206758
101,1.55965502623e+18,-0.2425593138,-3.140354395,-0.2170263678
102,1.55965502628e+18,-0.2382832617,-0.6993368268,0.1415515244
103,1.55965502633e+18,0.2870608568,0.8608129621,0.521509707
104,1.55965502638e+18,0.6114302874,1.497334599,0.6919410825
105,1.55965502643e+18,0.7079470158,2.544357777,1.270430565
106,1.55965502648e+18,0.3548668921,2.356211185,1.797607183
107,1.55965502653e+18,-0.07823656499,-0.6742913723,2.17939806
108,1.55965502658e+18,-0.2352289259,-1.154431462,2.181841612
109,1.55965502664e+18,-0.2914285362,-0.7824145555,1.457966208
110,1.55965502669e+18,0.1868789494,-0.1477255374,-0.1089032218
111,1.55965502674e+18,0.4434423447,0.7154270411,-0.304380089
112,1.55965502679e+18,-0.5266116261,1.122874141,-0.1223422587
113,1.55965502684e+18,-0.5925850868,0.1063944027,-1.053911686
114,1.55965502689e+18,-0.6555042267,-0.1092410386,-0.7203793526
115,1.55965502694e+18,-0.6078567505,0.6066930294,0.9185721278
116,1.559655027e+18,-0.2999806404,-1.934506297,1.93444109
117,1.55965502705e+18,0.029886581,0.6073039174,2.395644188
118,1.5596550271e+18,0.2913369238,-1.487353086,2.952753305
119,1.55965502715e+18,-0.6041915417,-0.8160121441,2.742004871
120,1.5596550272e+18,-1.543702245,-2.381048918,2.649153233
121,1.55965502725e+18,-1.648160219,-2.146476507,2.935038328
122,1.5596550273e+18,-1.662821054,-3.422574282,4.446318626
123,1.55965502735e+18,-1.103879213,-10.36017132,3.447554111
124,1.5596550274e+18,0.9742842317,-1.796450853,1.32540834
125,1.55965502746e+18,0.1141859889,1.259097219,1.406653404
126,1.55965502751e+18,-0.396497339,-1.716427445,-0.07408390939
127,1.55965502756e+18,-0.5516570807,-0.3505328,0.3742912114
128,1.55965502761e+18,-0.2333963364,0.9719904661,1.14642477
129,1.55965502766e+18,0.224141717,-1.261943698,0.4219386578
130,1.55965502771e+18,0.3536451757,-1.775070548,-0.6140888333
131,1.55965502777e+18,-0.821659565,-1.604028344,-0.8999736905
132,1.55965502782e+18,-1.379990339,0.1680918038,-0.6165322065
133,1.55965502787e+18,-1.552254438,0.2035219669,-0.2652847171
134,1.55965502792e+18,-2.03850317,1.398985267,-0.08141428232
135,1.55965502797e+18,-1.973751426,-0.45315817,-0.182817921
136,1.55965502802e+18,-1.605399609,-0.7317126989,-0.09302072972
137,1.55965502807e+18,-1.052566648,-4.768920898,-0.9237974882
138,1.55965502813e+18,-1.296301842,-6.823260784,-2.487001657
139,1.55965502818e+18,-4.425764561,-1.42015779,-5.864475727
140,1.55965502823e+18,-2.784369707,6.581565857,-4.395344734
141,1.55965502828e+18,0.1196837798,-1.3474648,-1.246945143
142,1.55965502833e+18,1.525895476,1.495501995,0.4976859689
143,1.55965502838e+18,1.938229561,2.500986099,2.142135143
144,1.55965502843e+18,0.8117940426,1.738626361,3.096917391
145,1.55965502848e+18,0.1221272349,1.906614304,2.186728239
146,1.55965502854e+18,-0.9132893682,2.598724604,1.741407633
147,1.55965502859e+18,-1.662210226,3.394071102,0.6705608368
148,1.55965502864e+18,-2.379365921,3.658575773,-0.7930723429
149,1.55965502869e+18,-2.254138708,4.715372562,-2.215166569
150,1.55965502874e+18,-1.146028996,5.568751335,-2.280529022
151,1.55965502879e+18,0.5808870196,6.436180115,-3.162007809
152,1.55965502884e+18,1.377455354,5.018362045,-3.789977312
153,1.5596550289e+18,1.353631616,2.383089066,-3.267687559
154,1.55965502895e+18,0.8954825997,0.9518319368,-2.622613668
155,1.559655029e+18,0.472153008,0.5492717028,-1.731972218
156,1.55965502905e+18,0.07386887819,0.1674809307,-0.6605145335
157,1.5596550291e+18,0.04760167375,-0.3645827174,0.1610992104
158,1.55965502915e+18,0.4074012935,-0.6113722324,0.5459443331
159,1.5596550292e+18,0.6761820316,0.2200153321,0.9295676947
160,1.55965502925e+18,0.3872427344,0.6964902282,1.269819617
161,1.5596550293e+18,-0.3329673707,0.4551984668,1.528826594
162,1.55965502935e+18,-0.6170197129,0.6457883716,1.625343204
163,1.55965502941e+18,-0.3580128551,1.113711238,1.980255842
164,1.55965502946e+18,0.5869956613,0.01537547819,2.196502209
165,1.55965502951e+18,1.364016294,-0.213088125,2.379150867
166,1.55965502956e+18,2.812377691,-0.8459445238,3.612487793
167,1.55965502961e+18,2.888735771,-0.2833376229,2.953364372
168,1.55965502966e+18,2.114769697,-0.5417336226,2.149465561
169,1.55965502971e+18,1.356685877,-4.202038288,-0.002612670651
170,1.55965502976e+18,0.8844870329,-2.340731621,-0.9103583694
171,1.55965502981e+18,1.586982012,3.028162956,-0.7619181275
172,1.55965502987e+18,1.793454647,4.231567383,-0.218248114
173,1.55965502992e+18,1.522230387,2.379424095,1.03036046
174,1.55965502997e+18,14.00587177,2.647593737,5.207457066
175,1.55965503002e+18,0.5033071637,-4.825731277,-3.682464838
176,1.55965503007e+18,2.533212423,-1.038367033,-2.059396029
177,1.55965503012e+18,0.5869956613,-2.990081549,-2.780216932
178,1.55965503017e+18,-0.2346180677,-0.8850399256,-1.311696887
179,1.55965503022e+18,-1.090440273,-2.660825253,0.2490638196
180,1.55965503027e+18,-1.295691013,-1.925954223,1.203846216
181,1.55965503032e+18,-1.215056777,-2.367609978,2.33822298
182,1.55965503037e+18,-0.8332660198,-4.191042423,3.023613691
183,1.55965503043e+18,-0.735527575,-3.939977169,3.133569479
184,1.55965503048e+18,-0.4398688078,-1.332804084,3.151895523
185,1.55965503053e+18,0.8295091987,-0.4733166993,4.074302197
186,1.55965503058e+18,2.023750782,-2.230165243,4.436544895
187,1.55965503063e+18,-0.3121979535,1.554144979,1.133596659
188,1.55965503068e+18,0.378079772,4.073353291,-2.508381844
189,1.55965503073e+18,-4.594363213,-10.88551426,-1.719754934
190,1.55965503078e+18,-2.916316509,-1.635793328,-5.026979446
191,1.55965503083e+18,3.192946672,5.436804771,5.000984192
192,1.55965503089e+18,0.1997071207,5.20650816,7.283177376
193,1.55965503094e+18,-1.538204432,3.503416061,1.913060784
194,1.55965503099e+18,-1.493000507,0.03675575927,2.142135143
195,1.55965503104e+18,-1.4325248,-0.8966463804,1.993694901
196,1.55965503109e+18,-1.351890683,0.4674157798,0.8697028756
197,1.55965503114e+18,-1.54858923,2.824744701,0.4720296264
198,1.55965503119e+18,-1.567525983,5.814929962,-0.3935664296
199,1.55965503124e+18,-1.361664414,7.245576859,-1.350792289
200,1.55965503129e+18,-0.5638744235,7.130123138,-2.437521458
201,1.55965503134e+18,0.4275598526,5.120987415,-2.672093868
202,1.55965503139e+18,0.2907260358,2.882165909,-2.508381844
203,1.55965503144e+18,0.2058157623,1.383102775,-1.683713913
204,1.55965503149e+18,0.02194533311,-1.264998078,-0.9543406963
205,1.55965503155e+18,0.04393647984,-2.048738241,-0.7240445018
206,1.5596550316e+18,0.4361119568,-1.838600636,0.1672078669
207,1.55965503165e+18,0.8374504447,-0.6846761107,0.8092272282
208,1.5596550317e+18,1.065914035,0.06241210178,1.333960414
209,1.55965503175e+18,1.114172339,0.2023002505,1.724303365
210,1.5596550318e+18,0.9046456218,0.7062640786,2.026070833
211,1.55965503185e+18,1.035981655,-0.5802181363,2.225823641
212,1.5596550319e+18,0.9577909112,-1.338912725,2.191615343
213,1.55965503195e+18,0.8160701394,-2.631503582,2.512930393
214,1.559655032e+18,0.5723348856,-2.577747583,2.236208439
215,1.55965503206e+18,0.02194533311,-3.49954319,0.8739789724
216,1.55965503211e+18,-0.3329673707,4.896800041,-0.7161032557
217,1.55965503216e+18,0.1190729067,-0.6639066935,0.8440465927
218,1.55965503221e+18,0.8765458465,-2.405483484,2.14030242
219,1.55965503226e+18,-0.1662011594,0.5480499864,1.453079224
220,1.55965503231e+18,-0.9920910001,2.738002062,1.531270027
221,1.55965503237e+18,-3.937683105,0.7691831589,1.254547954
222,1.55965503242e+18,-4.501511574,1.910890341,2.892277718
223,1.55965503247e+18,-3.03848958,-0.5716660023,0.7224843502
224,1.55965503252e+18,-2.168006659,4.33907938,2.045618534
225,1.55965503257e+18,-1.817980886,4.048307896,0.09879095852
226,1.55965503262e+18,-1.506439447,1.095996141,-0.5181829333
227,1.55965503267e+18,-0.4447557032,1.414256811,-0.6812839508
228,1.55965503273e+18,0.6676298976,0.2114632279,-1.037418365
229,1.55965503278e+18,1.17037189,-1.738418698,-1.182193518
230,1.55965503283e+18,1.373179197,-3.152571678,-1.377670288
231,1.55965503288e+18,1.159376502,-3.706015587,-1.468078375
232,1.55965503293e+18,1.115394115,-4.041380405,-1.041694403
233,1.55965503298e+18,1.242454052,-3.800088882,-0.7930723429
234,1.55965503304e+18,1.125167966,-4.739599705,-0.8981410861
235,1.55965503309e+18,0.9730625153,-7.834243298,-1.443643808
236,1.55965503314e+18,1.470306873,-9.313147545,-3.687351704
237,1.55965503319e+18,-0.6182414293,0.05202739313,-6.662876606
238,1.55965503324e+18,0.1416749209,4.243784904,-3.669636726
239,1.55965503329e+18,-0.04952589795,-2.875238657,-2.28724885
240,1.55965503334e+18,1.109896421,0.3226406872,1.382218838
241,1.5596550334e+18,0.6822906733,2.07338047,1.517830968
242,1.55965503345e+18,-0.1979661584,1.943266273,1.452468395
243,1.5596550335e+18,-1.175961375,0.9170125723,1.131153226
244,1.55965503355e+18,-1.862573981,0.3861706853,0.3095394671
245,1.5596550336e+18,-2.442895889,0.8785280585,-0.2683390379
246,1.55965503365e+18,-3.043987274,2.464945078,-0.8162851334
247,1.5596550337e+18,-2.549186468,4.265775681,-1.56581676
248,1.55965503375e+18,-2.686020374,4.761187553,-2.096658707
249,1.5596550338e+18,-1.230328321,4.830215454,-2.209668636
250,1.55965503385e+18,-0.540050745,4.014710426,-3.454612017
251,1.5596550339e+18,0.2345264405,3.214476824,-2.581685781
252,1.55965503395e+18,0.4904789627,2.572457314,-2.382543802
253,1.559655034e+18,0.814848423,2.745332241,-2.207836151
254,1.55965503406e+18,0.6389192343,2.779540777,-1.550545216
255,1.55965503411e+18,-0.07090618461,2.868726969,-0.6366907954
256,1.55965503416e+18,-1.037295103,0.2304000407,0.5911483765
257,1.55965503421e+18,-1.035462379,-1.455587983,1.451857448
258,1.55965503426e+18,-1.043403745,-0.6248112917,1.818987608
259,1.55965503431e+18,-0.4129907191,-0.5899919868,1.742629409
260,1.55965503436e+18,0.1679421216,-2.384103298,2.768271923
261,1.55965503441e+18,0.3389844,-1.634571552,3.352259159
262,1.55965503446e+18,0.4623791873,2.284128904,3.668687582
263,1.55965503451e+18,-0.1943009645,-0.4910317957,3.280177355
264,1.55965503457e+18,0.1654986739,-3.770156384,2.174510956
265,1.55965503462e+18,-0.2529440224,-3.290016413,1.169026852
266,1.55965503467e+18,-0.2932611406,0.9451123476,0.6583434939
267,1.55965503472e+18,0.5650045276,1.821093082,0.7835709453
268,1.55965503477e+18,-1.865628242,4.33541441,0.4237712622
269,1.55965503482e+18,-2.582173109,-6.12565279,1.398712158
270,1.55965503487e+18,-0.5327203274,3.948736906,-4.157107353
271,1.55965503493e+18,-2.354320526,2.511370897,-2.911552906
272,1.55965503498e+18,-0.4496426284,-0.5655573606,-1.954937935
273,1.55965503503e+18,-0.3769496679,-1.19169426,-0.8272807598
274,1.55965503508e+18,-0.5498245358,0.5498825908,0.3608521521
275,1.55965503513e+18,0.7262729406,-2.231997728,0.4585905671
276,1.55965503518e+18,0.8850979209,-3.277799129,0.8293858171
277,1.55965503523e+18,0.4361119568,-3.546579838,1.049908161
278,1.55965503528e+18,0.2815630436,-1.67488873,1.319910645
279,1.55965503533e+18,-0.1100015566,-1.960773587,1.121990204
280,1.55965503539e+18,-0.5198921561,-1.469027042,1.176968098
281,1.55965503544e+18,-0.3549585342,-3.659589767,0.5825962424
282,1.55965503549e+18,1.042090297,-7.771934509,-0.6501297951
283,1.55965503554e+18,1.629131794,-6.54898262,-3.27440691
284,1.55965503559e+18,0.3664733171,0.8614238501,-4.871208668
285,1.55965503564e+18,-1.14114213,-5.7652421,-3.831516027
286,1.55965503569e+18,0.8429482579,0.6971010566,-5.601192951
287,1.55965503574e+18,1.684720635,7.09347105,4.025433064
288,1.55965503579e+18,1.030483842,4.679942608,5.719973087
289,1.55965503584e+18,-1.466122389,1.409369946,1.562424064
290,1.5596550359e+18,-1.265147686,1.085611343,1.460409522
291,1.55965503595e+18,-1.372660041,1.309188128,0.3694042563
292,1.559655036e+18,-1.813093901,3.718440771,-0.7863527536
293,1.55965503605e+18,-2.670137644,4.524171829,-2.086884737
294,1.5596550361e+18,-2.273075342,4.391003609,-3.024563074
295,1.55965503615e+18,-0.2333963364,5.634725094,-4.171768188
296,1.5596550362e+18,1.094624758,5.518049717,-4.210252285
297,1.55965503625e+18,1.688996553,4.223626137,-3.385584354
298,1.5596550363e+18,1.470306873,1.278033972,-2.357498407
299,1.55965503635e+18,0.6407518387,-0.8270077109,-1.329411983
300,1.55965503641e+18,0.1593900174,-1.502624631,0.03770443797
301,1.55965503646e+18,0.318825841,-1.136716485,1.121379375
302,1.55965503651e+18,0.4904789627,-0.6187026501,1.942993164
303,1.55965503656e+18,0.421451211,-0.04937623441,2.468947887
304,1.55965503661e+18,0.009117163718,0.1479332447,2.793317556
305,1.55965503666e+18,-0.4117689729,-0.3664153218,2.809200048
306,1.55965503671e+18,-0.5235573053,-0.8441119194,2.250869036
307,1.55965503676e+18,-0.5211138725,0.6244081259,1.899621725
308,1.55965503681e+18,-0.4905706048,1.590796947,1.658940792
309,1.55965503686e+18,-0.3293021917,0.8901345134,1.474459529
310,1.55965503691e+18,-0.2443919033,-1.075019002,1.434142351
311,1.55965503696e+18,-0.1124450192,-0.08847161382,1.649777889
312,1.55965503702e+18,0.181381166,-0.5655573606,2.203221798
313,1.55965503707e+18,0.4526053369,-2.158082962,3.413956642
314,1.55965503712e+18,0.9070890546,-3.595448971,3.487871408
315,1.55965503717e+18,1.189308882,-3.881944895,2.509876013
316,1.55965503722e+18,1.122724533,-4.214866161,0.5899266601
317,1.55965503727e+18,1.07752049,-2.626005888,-0.8572131395
318,1.55965503732e+18,1.50451529,-1.531335354,-0.7527551651
319,1.55965503737e+18,1.250395417,-1.081738472,-0.6617362499
320,1.55965503742e+18,0.7830834389,1.643331289,1.515998244
321,1.55965503747e+18,0.8948717713,-1.664503932,3.563007832
322,1.55965503753e+18,0.7134447694,-1.221015692,5.897123814
323,1.55965503758e+18,-1.588906407,-3.961967945,1.267376184
324,1.55965503763e+18,0.07386887819,0.5370543599,-0.2695607841
325,1.55965503768e+18,-0.5260007977,-1.759188056,-0.2048090696
326,1.55965503773e+18,-1.358610153,-0.6266438961,-1.104613543
327,1.55965503778e+18,-2.218708515,-0.08419555426,-1.067961693
328,1.55965503783e+18,-3.463040829,-1.051806211,-0.08996640146
329,1.55965503788e+18,-4.218681335,1.050792098,0.3461913764
330,1.55965503794e+18,-3.568720341,3.185155392,0.3254219592
331,1.55965503799e+18,-2.94624877,2.461280107,0.05541953072
332,1.55965503804e+18,-2.246808052,1.460682631,0.3400827348
333,1.55965503809e+18,-1.801487446,1.413645983,0.5025728941
334,1.55965503814e+18,-1.557141304,0.8834149837,0.9717174172
335,1.55965503819e+18,-0.6952104568,-1.739029527,0.9527806044
336,1.55965503824e+18,0.7672009468,-5.899022102,-0.3391994238
337,1.55965503829e+18,0.9602344036,-6.774391651,-3.023341417
338,1.55965503834e+18,-0.8534245491,0.1070052609,-5.331801414
339,1.5596550384e+18,-0.982927978,3.424003601,-3.526694298
340,1.55965503845e+18,-1.568747759,-0.9931630492,-5.376394272
341,1.5596550385e+18,0.6535800099,5.541873455,-0.1064597592
342,1.55965503855e+18,0.3004998863,5.470402241,4.584985256
343,1.5596550386e+18,-1.72390759,3.214476824,2.79576087
344,1.55965503865e+18,-2.056218147,0.5010133386,0.6626195908
345,1.5596550387e+18,-2.131354809,-0.4213931561,0.3669608235
346,1.55965503875e+18,-2.510091066,1.019027114,-0.07652736455
347,1.5596550388e+18,-2.391583204,3.282893658,-0.7735245824
348,1.55965503885e+18,-2.324999094,4.721481323,-1.538938761
349,1.5596550389e+18,-1.412977219,6.558963776,-2.342837334
350,1.55965503895e+18,-0.1515403837,4.774015427,-2.46928668
351,1.55965503901e+18,0.8087397218,1.4704566,-4.000114918
352,1.55965503906e+18,0.2045940459,0.2365086973,-3.246917963
353,1.55965503911e+18,-0.1839162558,1.26520586,-2.239601374
354,1.55965503916e+18,-0.08556694537,0.9848185778,-1.104613543
355,1.55965503921e+18,0.2052049041,0.08257065713,-0.2946062684
356,1.55965503926e+18,0.5497329235,-0.02677422389,0.8904722929
357,1.55965503931e+18,0.7415446043,0.400831461,1.98758626
358,1.55965503936e+18,0.4990310967,1.220612526,2.582569122
359,1.55965503941e+18,0.06104071066,0.7606310844,2.549582243
360,1.55965503946e+18,0.1282358915,-0.2747855186,3.321105242
361,1.55965503951e+18,1.012768745,-2.106770277,3.530631781
362,1.55965503956e+18,2.138593435,-1.259500265,2.200167418
363,1.55965503962e+18,3.652317286,1.756341457,1.868467569
364,1.55965503967e+18,3.796481609,2.808251381,1.696203589
365,1.55965503972e+18,3.831911802,1.76550436,1.317467213
366,1.55965503977e+18,4.848391533,1.362333417,1.685818791
367,1.55965503982e+18,3.106814861,-0.8025730848,0.6357415318
368,1.55965503987e+18,2.207621098,0.1216660291,0.2429551482
369,1.55965503992e+18,-0.6011372209,0.7478029132,2.36143589
370,1.55965503997e+18,0.5252982974,-4.264957428,-5.957327366
371,1.55965504002e+18,2.174634457,0.7209248543,0.09390404075
372,1.55965504007e+18,2.138593435,-0.5533400774,-4.896865368
373,1.55965504012e+18,1.795287132,-0.201481685,-2.986689568
374,1.55965504018e+18,2.348731041,0.5315566659,-2.163854122
375,1.55965504023e+18,2.03780055,-1.067688584,-1.658057451
376,1.55965504028e+18,1.155711174,0.06913162023,-0.8511044979
377,1.55965504033e+18,-0.3323565125,-2.166635275,0.3144263923
378,1.55965504038e+18,-1.816148162,-2.824537039,0.9087982774
379,1.55965504043e+18,-2.529639006,-2.312021017,1.902675986
380,1.55965504049e+18,-2.61454916,-2.968701124,2.765217781
381,1.55965504054e+18,-2.375089884,-3.156847715,3.290561676
382,1.55965504059e+18,-2.221762657,-2.91311264,3.996722221
383,1.55965504064e+18,-2.140517473,-3.831853867,4.109732151
384,1.55965504069e+18,-1.617006063,-2.390822649,4.147605896
385,1.55965504074e+18,-1.098381519,-2.266206264,4.618583202
386,1.55965504079e+18,-0.736749351,-1.24117434,4.051700115
387,1.55965504084e+18,-0.8057770729,-1.352351785,3.884933949
388,1.5596550409e+18,0.1172403097,-3.864840508,3.691900492
389,1.55965504095e+18,1.856373668,-5.797007561,1.801272392
390,1.559655041e+18,0.7946898937,-1.533778787,-3.343434811
391,1.55965504105e+18,0.2033723146,2.997008801,-3.328163147
392,1.5596550411e+18,-0.6524499059,-5.561824322,-2.955535173
393,1.55965504115e+18,2.177688837,1.812541008,-1.14493072
394,1.5596550412e+18,0.8734915257,5.032411575,4.154935837
395,1.55965504125e+18,-0.2633287311,4.273717403,3.670520067
396,1.5596550413e+18,-1.517435074,2.278020382,2.192837
397,1.55965504136e+18,-1.405035853,0.4643614292,1.388938308
398,1.55965504141e+18,-1.784994006,1.668987632,0.2105793059
399,1.55965504146e+18,-2.100811243,3.850387335,-0.7784115672
400,1.55965504151e+18,-2.314003468,5.401985168,-1.810773849
401,1.55965504156e+18,-1.66098845,5.890066624,-2.544422865
402,1.55965504161e+18,-0.1442100108,6.397696018,-3.356262922
403,1.55965504166e+18,0.42511639,4.585258484,-3.394136429
404,1.55965504171e+18,0.5778326988,2.369039297,-2.474173307
405,1.55965504176e+18,0.5399590731,1.06362021,-1.90667963
406,1.55965504181e+18,-0.07640396804,-0.2320249528,-1.413100481
407,1.55965504187e+18,-0.1326035708,-0.2295814753,-0.2616195381
408,1.55965504192e+18,-0.02203696407,-0.1764362007,0.4127756953
409,1.55965504197e+18,0.05065600201,-0.5020273924,1.086560011
410,1.55965504202e+18,0.468487829,-0.1764362007,1.496450663
411,1.55965504207e+18,0.5008636713,0.510787189,2.037677288
412,1.55965504212e+18,0.2931694984,0.2536129355,1.957043052
413,1.55965504217e+18,0.1141859889,-0.1116844937,2.280190706
414,1.55965504222e+18,0.03660609946,-0.8777095079,2.668090105
415,1.55965504227e+18,0.02622138895,-0.6394720674,2.906938553
416,1.55965504232e+18,0.1801594347,-1.486742139,2.75605464
417,1.55965504237e+18,0.2198656797,-1.548439622,2.318064451
418,1.55965504243e+18,0.4153425694,-0.929022193,1.448803067
419,1.55965504248e+18,0.8606633544,-1.111670852,0.2912135124
420,1.55965504253e+18,1.371346712,0.3024821579,-1.089341879
421,1.55965504258e+18,1.838047743,4.742250919,-1.738691688
422,1.55965504263e+18,-0.4227645695,2.948139429,-0.446100831
423,1.55965504268e+18,-1.029964566,-12.17566204,-2.383765459
424,1.55965504273e+18,3.182562113,6.218711853,-2.298244238
425,1.55965504279e+18,-1.172296286,-2.843473911,-2.782049656
426,1.55965504284e+18,-0.8204378486,1.757563114,-2.530373096
427,1.55965504289e+18,-0.6970430017,-0.4934752882,-0.9066932201
428,1.55965504294e+18,-0.4716337919,-0.2259162962,-0.7124381065
429,1.55965504299e+18,0.2174222171,-1.75430119,0.2191314101
430,1.55965504304e+18,-0.2150703818,-3.355378866,1.168416023
431,1.55965504309e+18,0.2449111491,-1.01943028,2.225212812
432,1.55965504314e+18,0.2962238193,-3.158069611,2.49765873
433,1.5596550432e+18,0.6047107577,-3.892329693,3.472599506
434,1.55965504325e+18,1.069579244,-5.896578312,3.577668428
435,1.5596550433e+18,2.324296474,-9.05841732,1.448803067
436,1.55965504335e+18,2.002981424,-2.8306458,-3.107029676
437,1.5596550434e+18,1.656009912,1.833921313,-4.177876472
438,1.55965504345e+18,-0.4307058156,-6.942379951,-2.339172125
439,1.5596550435e+18,0.7873594761,0.5480499864,-1.293370962
440,1.55965504355e+18,0.2736218274,4.331749439,1.921001911
441,1.5596550436e+18,-0.5052313805,3.594434977,1.859915376
442,1.55965504366e+18,-1.049512386,1.323237896,1.492785454
443,1.55965504371e+18,-1.505828619,0.7025988698,0.6589543819
444,1.55965504376e+18,-1.66770792,1.26520586,-0.2768911719
445,1.55965504381e+18,-2.402578831,2.867505312,-1.040472746
446,1.55965504386e+18,-2.733667612,2.946917772,-2.465621233
447,1.55965504391e+18,-2.547353983,3.121625185,-3.653754234
448,1.55965504396e+18,-1.486281037,5.423976421,-4.455820084
449,1.55965504402e+18,0.6865667105,6.43434763,-3.709342957
450,1.55965504407e+18,1.348133802,3.357419252,-3.891380787
451,1.55965504412e+18,1.247341037,1.237105966,-3.246307135
452,1.55965504417e+18,0.9999406338,1.962203026,-2.220664263
453,1.55965504422e+18,0.6450278759,1.080113649,-0.8773717284
454,1.55965504427e+18,0.2950021029,-0.5130229592,0.0230436679
455,1.55965504432e+18,0.2070375085,-0.2375227362,0.9161286354
456,1.55965504438e+18,-0.2779895067,-0.2155315876,1.732855439
457,1.55965504443e+18,-0.7532426715,-0.2711203396,2.486663103
458,1.55965504448e+18,-1.344560146,0.5779823661,2.492160797
459,1.55965504453e+18,-1.285917163,-0.169716686,2.302792788
460,1.55965504458e+18,-1.096548915,-1.423822999,2.038288116
461,1.55965504463e+18,-0.7752338052,-1.002326012,1.330295324
462,1.55965504468e+18,-0.6652780771,-0.07319997996,0.4677535594
463,1.55965504473e+18,-0.58158952,-0.6303091049,0.3626847565
464,1.55965504478e+18,-1.001253963,-0.3841303885,0.02793059126
465,1.55965504483e+18,-0.8186052442,0.144878909,-0.3355342448
466,1.55965504488e+18,-0.5247790813,0.2584998608,-0.5432283878
467,1.55965504494e+18,-0.2077400088,1.646996617,0.1953076571
468,1.55965504499e+18,0.3896862268,-0.2063686103,1.539211154
469,1.55965504504e+18,0.515524447,-0.05548489094,1.680931926
470,1.55965504509e+18,0.6829015613,0.1289964169,2.481776476
471,1.55965504514e+18,0.5637827516,-0.9571220279,2.67603159
472,1.55965504519e+18,0.1319010705,-2.161137342,2.005912304
473,1.55965504524e+18,0.582108736,-1.577761054,0.01815674827
474,1.55965504529e+18,-1.5553087,8.256558418,-0.9128018618
475,1.55965504534e+18,0.2418568283,-0.1721601635,2.98451829
476,1.55965504539e+18,-1.951760292,1.725798249,1.090836048
477,1.55965504545e+18,-3.043987274,-1.600363016,1.206289649
478,1.5596550455e+18,-1.870515108,-2.396320581,0.8018968701
479,1.55965504555e+18,-1.679314375,-1.64495635,0.9381198287
480,1.5596550456e+18,-1.476507068,-4.717608452,1.077397108
481,1.55965504565e+18,-2.607218742,-7.208106041,1.056627631
482,1.5596550457e+18,-2.582784176,-4.947293758,-1.130880713
483,1.55965504575e+18,-1.045847178,-1.12511003,1.311358571
484,1.5596550458e+18,-0.7031517625,-2.274147511,0.045645684
485,1.55965504586e+18,-0.5052313805,-1.156264067,-0.1803744435
486,1.55965504591e+18,-0.4447557032,-1.04264307,-0.2976605892
487,1.55965504596e+18,-0.4258188903,-0.4042889476,-0.1657136828
488,1.55965504601e+18,-0.3470172584,-1.129385948,0.03892616555
489,1.55965504606e+18,0.284006536,-4.775029659,-0.3086561561
490,1.55965504611e+18,1.390894413,-7.677250385,-1.64522934
491,1.55965504616e+18,-1.322569132,-1.517285347,-4.400231361
492,1.55965504622e+18,-2.199771404,8.00549221,-3.500427008
493,1.55965504627e+18,-0.7043734193,-5.173314095,-2.790601492
494,1.55965504632e+18,0.822789669,-0.9534567595,-1.428982973
495,1.55965504637e+18,1.450148344,2.830853224,2.003468752
496,1.55965504642e+18,0.8850979209,3.408121109,2.605171204
497,1.55965504647e+18,-0.5632635355,1.676318169,1.973536372
498,1.55965504652e+18,-0.9688780904,0.5346109867,1.649166942
499,1.55965504657e+18,-1.397705436,0.8937996626,0.7017149925
500,1.55965504663e+18,-2.009792566,3.296332836,-0.08141428232
501,1.55965504668e+18,-2.695183277,5.070896626,-1.491291285
502,1.55965504673e+18,-3.112404346,5.128317356,-2.947593927
503,1.55965504678e+18,-2.594390631,5.111824036,-3.629319668
504,1.55965504683e+18,-2.150902271,4.071520805,-4.51996088
505,1.55965504688e+18,-1.519267678,4.550438881,-4.483309269
506,1.55965504693e+18,-1.047679663,4.092289925,-3.965295315
507,1.55965504698e+18,-0.7080386281,2.368428469,-2.971417665
508,1.55965504703e+18,-0.5687613487,0.4203791618,-1.945164204
509,1.55965504708e+18,-0.04158465192,-0.9656741619,-0.3239277899
510,1.55965504714e+18,0.484981209,0.4252660573,0.9778260589
511,1.55965504719e+18,0.8215679526,3.055041075,2.340055704
512,1.55965504724e+18,0.4855920374,2.770988464,3.520858049
513,1.55965504729e+18,0.216811344,-0.2821159065,4.363852024
514,1.55965504734e+18,0.1801594347,0.4148813486,5.701035976
515,1.55965504739e+18,0.2943912446,-1.031036735,5.960042953
516,1.55965504744e+18,0.6132628918,-1.18497479,4.717543125
517,1.55965504749e+18,0.9412975311,-0.1917078346,3.277733564
518,1.55965504754e+18,0.8905956745,0.6940467358,1.613736868
519,1.5596550476e+18,0.9174737334,1.348894238,0.03953703493
520,1.55965504765e+18,-0.004321871791,1.048959494,-1.213958502
521,1.5596550477e+18,-1.995742559,-0.1684949696,-1.129659057
522,1.55965504775e+18,-3.128897667,-8.399904251,-1.582921028
523,1.5596550478e+18,-0.9688780904,6.232151031,-4.026381969
524,1.55965504785e+18,-0.3934430182,-3.884999037,-1.854756117
525,1.5596550479e+18,-0.04463897645,1.73557198,-2.226773024
526,1.55965504795e+18,-0.538828969,-0.2723420262,-0.3208734691
527,1.559655048e+18,-0.6976539493,-1.288210988,0.6455153823
528,1.55965504805e+18,-0.6695541143,-2.709694386,1.312580228
529,1.55965504811e+18,-1.24071312,-3.916764259,2.068831205
530,1.55965504816e+18,-0.5461593866,-3.830021143,1.655275583
531,1.55965504821e+18,-0.5394397974,-3.234427691,1.942382336
532,1.55965504826e+18,0.2534632683,-2.941212416,2.158628702
533,1.55965504831e+18,0.4104556143,-2.610123396,2.300349474
534,1.55965504836e+18,1.263834357,-5.021819115,1.591745615
535,1.55965504841e+18,2.048796177,-6.748735428,0.6956063509
536,1.55965504846e+18,1.420826793,-4.617426872,-0.9818296432
537,1.55965504851e+18,-0.7501883507,0.7325312495,-3.822963953
538,1.55965504856e+18,-0.2614961565,1.876071095,-2.728904247
539,1.55965504862e+18,-5.24065876,-10.01747513,-5.109446526
540,1.55965504867e+18,-0.4704120457,1.650050879,-5.22184515
541,1.55965504872e+18,1.255282283,7.223585606,5.596578121
542,1.55965504877e+18,-0.7391927242,5.978031158,5.058405876
543,1.55965504882e+18,-2.380587578,2.867505312,1.238665581
544,1.55965504887e+18,-1.912054062,-0.8129577637,0.6699499488
545,1.55965504893e+18,-2.329274893,-0.6559654474,-0.4577072859
546,1.55965504898e+18,-2.99572897,1.849192977,-0.9848839641
547,1.55965504903e+18,-3.473425627,4.05685997,-1.661111832
548,1.55965504908e+18,-3.021996021,4.650620937,-2.548698902
549,1.55965504913e+18,-1.757505178,4.959107876,-3.699568987
550,1.55965504918e+18,-1.047679663,4.658562183,-3.447281837
551,1.55965504923e+18,-0.2236225009,3.526628971,-2.66170907
552,1.55965504928e+18,0.1172403097,2.51992321,-2.316570282
553,1.55965504933e+18,0.004841106944,1.228553891,-1.35690093
554,1.55965504938e+18,-0.1863597035,-0.1978164911,-0.339810282
555,1.55965504943e+18,-0.1564273238,-0.9259678125,0.2337921709
556,1.55965504948e+18,0.04454734921,-0.9552893639,0.870924592
557,1.55965504953e+18,0.200928852,-0.8080708385,1.83853519
558,1.55965504958e+18,0.2791196108,-0.5954897404,2.363879442
559,1.55965504964e+18,0.381744951,-0.3413698077,2.433517933
560,1.55965504969e+18,0.327377975,-0.299831003,2.819584608
561,1.55965504974e+18,0.2412459552,0.07768373191,2.891666651
562,1.55965504979e+18,0.09341656417,0.2249022573,2.787209034
563,1.55965504984e+18,-0.1283275187,0.5285022855,2.4084723
564,1.55965504989e+18,-0.08312349021,1.381880999,1.976590753
565,1.55965504994e+18,-0.1423774064,2.09659338,1.991862297
566,1.55965504999e+18,-0.09595166147,0.2688845396,1.539821982
567,1.55965505004e+18,0.3389844,-1.598530531,2.033401251
568,1.5596550501e+18,0.86555022,-1.754912019,1.685818791
569,1.55965505015e+18,1.607751489,-0.448882103,1.406042576
570,1.5596550502e+18,1.792232752,-0.9632306695,1.47079432
571,1.55965505025e+18,1.993818402,-1.915569544,0.8440465927
572,1.5596550503e+18,1.940673113,-1.458642364,-0.2512348294
573,1.55965505035e+18,1.979768395,1.603014231,-0.3453080654
574,1.5596550504e+18,3.967523813,2.7618258,0.3614630103
575,1.55965505045e+18,0.8539437652,1.838197351,1.57708478
576,1.5596550505e+18,-1.76361382,3.607263088,4.497020721
577,1.55965505055e+18,-0.931615293,-4.385297775,-2.436299801
578,1.5596550506e+18,2.164860487,-1.210020304,-3.040445566
579,1.55965505065e+18,0.5698914528,-1.957108378,-2.675759077
580,1.55965505071e+18,0.1502270401,-1.25766778,-1.925616503
581,1.55965505076e+18,-1.05501008,-0.9607871771,-0.9164671302
582,1.55965505081e+18,-2.039113998,-1.409162283,0.4805817306
583,1.55965505086e+18,-2.823465109,-2.075005293,1.539211154
584,1.55965505091e+18,-3.804514647,-5.443927288,2.331503391
585,1.55965505096e+18,-3.383628368,-5.797007561,1.948490977
586,1.55965505101e+18,-1.422140121,-0.006615670864,1.786000729
587,1.55965505107e+18,-1.288360596,-3.884999037,1.588080406
588,1.55965505112e+18,-0.4508643746,-4.756703377,1.317467213
589,1.55965505117e+18,0.2119244188,-1.820274591,1.965595126
590,1.55965505122e+18,-0.2114052027,-2.97603178,1.877630472
591,1.55965505127e+18,-0.5082857013,-0.9552893639,2.446346283
592,1.55965505132e+18,-0.4924032092,-1.04264307,2.202610731
593,1.55965505137e+18,-0.1625359654,-0.8386141062,1.780502915
594,1.55965505142e+18,0.284006536,-3.351102829,1.460409522
595,1.55965505148e+18,1.103176713,-6.065788269,0.9747717381
596,1.55965505153e+18,-0.3036458492,-5.428655624,-2.29763341
597,1.55965505158e+18,-3.474647284,-0.1721601635,-5.096007347
598,1.55965505163e+18,-2.097146273,7.379355907,-3.294565439
599,1.55965505168e+18,-0.09595166147,-3.40730238,-3.044110775
600,1.55965505173e+18,0.6218150258,1.110046029,-0.7894071341
601,1.55965505178e+18,1.137385249,2.783205748,2.648542404
602,1.55965505183e+18,0.0421038866,1.96403563,3.044994116
603,1.55965505188e+18,-1.007973433,1.476565242,2.793317556
604,1.55965505194e+18,-0.8577006459,1.533986449,2.681529284
605,1.55965505199e+18,-0.9132893682,2.050778627,1.47751379
606,1.55965505204e+18,-1.231550217,3.734933853,0.6027547717
607,1.55965505209e+18,-1.628612518,5.405650616,-1.036807537
608,1.55965505214e+18,-1.679314375,5.873573303,-2.324511528
609,1.55965505219e+18,-0.4997335672,6.199164391,-3.695904016
610,1.55965505224e+18,-0.1716989428,6.06966114,-4.163215637
611,1.55965505229e+18,0.7073361278,5.376328945,-3.458888292
612,1.55965505234e+18,1.045755506,3.328097582,-3.016011
613,1.55965505239e+18,0.7775856256,0.9945924878,-1.777176142
614,1.55965505245e+18,0.3505908549,-0.3218221366,-1.065518141
615,1.5596550525e+18,0.07020369172,-0.8752660751,-0.2487913668
616,1.55965505255e+18,0.03294090554,-0.8398358822,0.8849745393
617,1.5596550526e+18,-0.08312349021,-0.7133867741,1.932608366
618,1.55965505265e+18,0.05248859897,-0.240577057,2.296073198
619,1.5596550527e+18,0.189322412,0.3886141479,2.776213408
620,1.55965505275e+18,-0.05929974467,1.042850852,3.383413315
621,1.5596550528e+18,-0.4673577249,1.525434375,3.142121553
622,1.55965505285e+18,-0.676273644,1.738015532,2.572184324
623,1.5596550529e+18,-1.002475739,0.7545223832,2.69252491
624,1.55965505296e+18,-0.9682672024,-1.342578053,2.346775055
625,1.55965505301e+18,-1.26698029,-1.624797702,2.643655539
626,1.55965505306e+18,-0.880913496,-3.45006299,2.753611326
627,1.55965505311e+18,-0.1435991526,-2.027968645,1.962540746
628,1.55965505316e+18,0.2809522152,-1.079295039,0.3822324276
629,1.55965505321e+18,0.2950021029,1.017805338,0.01388069056
630,1.55965505326e+18,-0.255387485,0.8864693046,-0.5218481421
631,1.55965505331e+18,-1.551032662,2.594448566,-0.2261893451
632,1.55965505336e+18,-4.959049702,-1.812333345,0.04503481835
633,1.55965505342e+18,2.282757521,1.63294661,-1.852923512
634,1.55965505347e+18,-1.584019423,0.5724845529,-2.751506329
635,1.55965505352e+18,-0.3690084219,2.574290037,-1.375837803
636,1.55965505357e+18,-0.1497077942,0.2035219669,-0.9103583694
637,1.55965505362e+18,0.4434423447,-0.8716008067,-0.1162336022
638,1.55965505367e+18,0.4941441715,-1.571652412,0.3510783017
639,1.55965505372e+18,0.2412459552,-2.114100933,0.3694042563
640,1.55965505377e+18,0.9113650918,-2.214893579,0.7127104998
641,1.55965505382e+18,0.9926102161,-5.49951601,0.6968280673
642,1.55965505387e+18,0.2736218274,-5.524561405,-0.06308832765
643,1.55965505393e+18,0.7519293427,-1.627241254,0.9130743146
644,1.55965505398e+18,0.6431953311,-3.169676065,0.3028199375
645,1.55965505403e+18,0.5295743346,-1.528891802,-0.1999221444
646,1.55965505408e+18,0.5796653032,-1.627852082,-0.5090199709
647,1.55965505413e+18,1.0243752,-3.387754917,0.0444239527
648,1.55965505418e+18,1.662118554,-6.542262554,-1.24144733
649,1.55965505424e+18,-0.4691903293,1.249323249,-3.584115744
650,1.55965505429e+18,0.2119244188,4.141769886,-5.874860287
651,1.55965505434e+18,-1.692753434,-8.255740166,-3.824796677
652,1.55965505439e+18,-0.04097378626,1.974420309,-2.593292236
653,1.55965505444e+18,0.6981731653,3.591991425,6.278914452
654,1.55965505449e+18,-0.9633803368,2.849790335,4.684556007
655,1.55965505454e+18,-2.449615479,0.7245900035,0.8159467578
656,1.55965505459e+18,-2.553462744,0.8253828287,0.2154662162
657,1.55965505464e+18,-3.264509678,2.948139429,-1.281764507
658,1.5596550547e+18,-3.461208344,3.321989059,-1.981205225
659,1.55965505475e+18,-3.636526585,2.813138247,-3.931698084
660,1.5596550548e+18,-3.839944839,2.794201374,-4.643966675
661,1.55965505485e+18,-2.109974384,4.394057751,-4.253013134
662,1.5596550549e+18,-1.071503401,4.826550484,-3.275017738
663,1.55965505495e+18,-0.1478752047,3.242576599,-2.844968796
664,1.559655055e+18,0.327377975,0.8192741871,-2.416141272
665,1.55965505506e+18,0.5692805648,-0.2735637724,-1.138822079
666,1.55965505511e+18,0.6028781533,0.4527550042,0.004717712291
667,1.55965505516e+18,0.4104556143,0.6793859601,0.8752006888
668,1.55965505521e+18,-0.3781713843,-0.4672080576,1.65283215
669,1.55965505526e+18,-0.2816546857,-1.982153893,1.998581886
670,1.55965505531e+18,0.1025795415,-2.076837778,3.167166948
671,1.55965505536e+18,0.5081940889,-0.2149207145,3.705339432
672,1.55965505541e+18,0.4660443664,2.210214376,3.237416506
673,1.55965505546e+18,-0.07640396804,1.402039528,3.289340019
674,1.55965505551e+18,-0.4160450399,-0.8911485672,2.589899302
675,1.55965505557e+18,-0.1338253021,-2.479398251,1.846476436
676,1.55965505562e+18,0.06470590085,-1.465972781,1.061514497
677,1.55965505567e+18,-0.007376197726,0.7093183994,0.1702621877
678,1.55965505572e+18,0.4422205985,3.692173243,-0.1247857213
679,1.55965505577e+18,1.227793336,3.724549294,-0.2390175164
680,1.55965505582e+18,1.09401381,1.877292752,-0.2994931936
681,1.55965505587e+18,0.7836942673,-0.7579799294,0.8904722929
682,1.55965505593e+18,0.8533329368,0.4606962204,1.933830142
683,1.55965505598e+18,0.8606633544,-0.3572523296,2.145189524
684,1.55965505603e+18,0.5625610948,0.5767606497,2.045007706
685,1.55965505608e+18,0.3444821835,-0.3157134652,1.523328781
686,1.55965505613e+18,0.3750254512,-1.732920885,1.070677638
687,1.55965505618e+18,0.4617682993,0.4814656675,1.376721025
688,1.55965505623e+18,0.5845522285,-0.4287235439,1.685818791
689,1.55965505628e+18,-0.3665649593,0.1803091019,2.548360586
690,1.55965505633e+18,0.1819920391,-0.2717311978,2.400531292
691,1.55965505638e+18,-1.580354214,-2.127539873,1.481178999
692,1.55965505644e+18,-0.830211699,-5.877030849,1.082284093
693,1.55965505649e+18,-1.772776723,-4.43355608,0.7200409174
694,1.55965505654e+18,-2.483824015,-4.540457726,0.812281549
695,1.55965505659e+18,-2.14418292,-3.183725834,-0.2756694257
696,1.55965505664e+18,-0.9059590101,-2.280866861,1.16597259
697,1.55965505669e+18,-0.5553223491,-0.8844290376,0.9973737001
698,1.55965505675e+18,-0.1319927126,-1.382284164,0.7347016335
699,1.5596550568e+18,0.3554777503,-1.065245152,1.073731899
700,1.55965505685e+18,-0.1228297278,-0.9846109152,0.828164041
701,1.5596550569e+18,-3.232744694,0.656783998,-1.254886508
702,1.55965505695e+18,-4.586421967,3.461266279,-4.549282551
703,1.559655057e+18,-5.478285313,-8.360198021,-1.79428041
704,1.55965505705e+18,-8.574150085,-7.583787918,-5.831488609
705,1.5596550571e+18,3.420188665,7.358586311,1.286312938
706,1.55965505716e+18,-0.4545295835,8.943170547,8.009495735
707,1.55965505721e+18,-0.4374253154,8.105064392,3.123184919
708,1.55965505726e+18,-1.831419826,1.68242681,-0.9054715037
709,1.55965505731e+18,-1.382433891,-2.247269392,-0.9103583694
710,1.55965505736e+18,-1.373270869,-1.268663168,-1.642175078
711,1.55965505741e+18,-1.119761825,1.822314858,-1.753352404
712,1.55965505746e+18,-0.6988756657,4.100842476,-1.235949636
713,1.55965505751e+18,-0.1026711762,4.621910095,-1.325746775
714,1.55965505757e+18,0.008506298065,3.346423626,-1.406991839
715,1.55965505762e+18,0.2858391106,1.441135049,-1.381946445
716,1.55965505767e+18,0.6425843835,0.06607729197,-0.9751101732
717,1.55965505772e+18,0.6541908383,0.157096222,-0.540174067
718,1.55965505777e+18,0.6548017859,1.254210234,0.2496746778
719,1.55965505782e+18,0.5460677147,1.990913749,0.8764224052
720,1.55965505787e+18,0.2369698882,1.68242681,1.087781787
721,1.55965505793e+18,-0.3610671759,0.5645433068,1.486065865
722,1.55965505798e+18,-0.8631983995,-0.7763059139,1.64611268
723,1.55965505803e+18,-1.026910305,-1.641291022,1.622288942
724,1.55965505808e+18,-0.8589223623,-1.521561503,1.321132302
725,1.55965505813e+18,-0.6017481089,-0.5203533173,1.119546771
726,1.55965505818e+18,-0.49545753,1.080724478,0.9863781929
727,1.55965505823e+18,-0.3628997803,1.70258534,0.7469190359
728,1.55965505828e+18,-0.2242333591,1.188236713,0.4530928135
729,1.55965505833e+18,-0.1057255045,0.3000386953,0.2734984159
730,1.55965505839e+18,0.1306793541,-0.4623211324,0.4976859689
731,1.55965505844e+18,0.4348902404,0.08684670925,0.6687282324
732,1.55965505849e+18,0.5381264687,0.7917852402,0.6137503386
733,1.55965505854e+18,0.5607284307,0.3965553939,0.2563942075
734,1.55965505859e+18,0.5362938643,-0.07625430822,-0.3306473196
735,1.55965505864e+18,0.6859558821,-0.4391082823,-0.3569145203
736,1.55965505869e+18,0.6877884269,-0.4311670363,-0.4008968174
737,1.55965505874e+18,0.7262729406,0.2542237937,-0.5560565591
738,1.55965505879e+18,0.7659791708,0.7282552719,-0.4552638233
739,1.55965505884e+18,0.9046456218,0.7410833836,-0.2048090696
740,1.5596550589e+18,0.7299381495,1.408759117,0.7017149925
741,1.55965505895e+18,0.5045288801,0.2407847643,1.194072366
742,1.559655059e+18,0.5735566616,0.1473223716,1.877630472
743,1.55965505905e+18,0.8447808027,-0.3199895322,2.367544413
744,1.5596550591e+18,0.6150954366,-0.2613464594,2.60333848
745,1.55965505915e+18,0.754372716,-1.214296222,2.33822298
746,1.5596550592e+18,-1.576078176,-2.540484667,1.034025669
747,1.55965505925e+18,-0.9591042399,-2.750011444,-1.868195057
748,1.5596550593e+18,1.789789319,0.4606962204,1.431698918
749,1.55965505935e+18,-0.9297826886,-3.988235235,0.5783202052
750,1.5596550594e+18,-0.8412072659,-4.842835903,1.840978622
751,1.55965505946e+18,-0.3885561228,-3.385922194,2.22887826
752,1.55965505951e+18,-0.7165907621,-1.255224228,1.946047544
753,1.55965505956e+18,-0.5186704397,-1.108005762,1.800661445
754,1.55965505961e+18,-0.2443919033,-1.539887428,1.710864425
755,1.55965505966e+18,0.02805398591,-3.306509733,1.773172617
756,1.55965505971e+18,1.203358769,-6.399320126,1.605795503
757,1.55965505976e+18,0.1887115538,-0.8581618071,-1.763126373
758,1.55965505981e+18,-1.841193557,2.603000641,-5.594473362
759,1.55965505986e+18,-1.863795638,-6.952153206,-2.354443789
760,1.55965505991e+18,1.386007428,0.04042095318,-3.912150145
761,1.55965505996e+18,1.720150709,6.243757248,3.181827784
762,1.55965506002e+18,0.8527220488,5.657938004,5.015034676
763,1.55965506007e+18,-0.4337601364,1.570638418,2.456730604
764,1.55965506012e+18,-0.6451194882,0.4258769155,2.056613922
765,1.55965506017e+18,-1.069670916,1.439302325,0.9564457536
766,1.55965506022e+18,-1.785604954,3.839391947,-0.6324147582
767,1.55965506027e+18,-2.162508726,5.966424942,-2.373380661
768,1.55965506033e+18,-1.267591238,6.508872986,-3.623210907
769,1.55965506038e+18,0.8001877069,7.069647312,-3.351986885
770,1.55965506043e+18,2.022529125,4.609082222,-4.337923527
771,1.55965506048e+18,1.551551938,1.881568789,-3.67513442
772,1.55965506053e+18,0.6975623369,-0.4079541266,-2.683700085
773,1.55965506058e+18,0.1221272349,-1.329749703,-1.100948334
774,1.55965506063e+18,0.1911550164,-1.437872887,-0.2286328077
775,1.55965506068e+18,0.6890102029,-0.9210809469,0.5245640278
776,1.55965506073e+18,1.254060507,-0.2497400343,0.9949303269
777,1.55965506079e+18,1.563158274,0.3629578054,1.386494875
778,1.55965506084e+18,1.312092781,1.098439574,1.726135969
779,1.55965506089e+18,0.4037361145,1.701363564,1.928332448
780,1.55965506094e+18,-0.8149400353,2.252974749,1.696203589
781,1.55965506099e+18,-1.375714302,0.7691831589,1.855639458
782,1.55965506104e+18,-1.300577879,-1.486742139,2.943590403
783,1.55965506109e+18,-0.5779243112,-1.530724525,2.972301006
784,1.55965506114e+18,-0.3861126304,-1.456198812,3.005898714
785,1.55965506119e+18,-0.1344361752,-2.604014635,2.470780849
786,1.55965506125e+18,0.09647089243,-2.33095789,1.790887713
787,1.5596550613e+18,0.2461328804,-2.853247881,0.6974388957
788,1.55965506135e+18,0.1606117338,-1.902130485,-0.2555108666
789,1.5596550614e+18,0.07264714688,-0.2234728336,-0.7558094859
790,1.55965506145e+18,-0.6616128683,3.32504344,-0.1925917715
791,1.5596550615e+18,-1.552865267,0.5938648582,0.2001945972
792,1.55965506155e+18,-5.188124657,4.937116623,2.935649157
793,1.5596550616e+18,-2.720228672,-2.9729774,-0.2268002182
794,1.55965506166e+18,-1.423972607,2.158901691,-2.380100012
795,1.55965506171e+18,-0.982927978,-0.6052635908,-0.6745644808
796,1.55965506176e+18,-0.6719975471,-2.35050559,-0.2970497012
797,1.55965506181e+18,-0.4588055909,-0.6736805439,0.5306726694
798,1.55965506186e+18,0.07264714688,-2.111046314,0.6785020828
799,1.55965506191e+18,0.2216982692,-2.277201891,0.4329342246
800,1.55965506196e+18,0.4532161951,-2.274147511,0.7347016335
801,1.55965506201e+18,1.116615891,-3.89721632,0.6772803068
802,1.55965506206e+18,1.988931417,-8.847057343,-0.4283857346
803,1.55965506211e+18,0.4605465829,-4.730436325,-2.562137842
804,1.55965506216e+18,-1.627390862,0.9139582515,-5.31042099
805,1.55965506221e+18,-0.6866583228,-0.1355082393,-2.626278877
806,1.55965506227e+18,-2.077598572,-5.081073284,-3.253026724
807,1.55965506232e+18,-0.1759750098,2.164399385,0.2759419084
808,1.55965506237e+18,0.06714936346,4.604805946,2.36143589
809,1.55965506242e+18,-1.077001214,2.855288029,2.054781437
810,1.55965506247e+18,-1.449629068,0.6683904529,1.804937601
811,1.55965506252e+18,-1.72696197,0.9090713263,1.057238579
812,1.55965506257e+18,-2.340270519,2.608498573,0.1036778763
813,1.55965506262e+18,-3.142947435,3.628643274,-0.9757210016
814,1.55965506268e+18,-3.136228085,4.124666214,-2.375213385
815,1.55965506273e+18,-2.966407537,3.290834904,-3.571287394
816,1.55965506278e+18,-2.855840921,3.784414053,-4.281112671
817,1.55965506283e+18,-2.102643967,4.536389351,-3.804637909
818,1.55965506288e+18,-1.555919528,4.546773911,-3.314724207
819,1.55965506293e+18,-0.9358913302,3.584661245,-3.088093042
820,1.55965506299e+18,-0.2792112529,1.273757935,-2.45645833
821,1.55965506304e+18,-0.3745062053,-0.2417987883,-1.471132636
822,1.55965506309e+18,-0.03303254023,0.0752402693,-0.3428646326
823,1.55965506314e+18,0.7311599255,1.769780517,0.9332329035
824,1.55965506319e+18,0.6370866299,3.087416649,2.585623264
825,1.55965506324e+18,0.2424676865,2.303676844,4.055975914
826,1.55965506329e+18,-0.3763388097,0.6366254091,4.691886902
827,1.55965506334e+18,-0.1790293306,0.9756556153,6.032124996
828,1.55965506339e+18,-0.9572716951,-0.2741746604,5.963707924
829,1.55965506344e+18,-1.343949318,-2.186793804,5.257547855
830,1.5596550635e+18,-1.285917163,-1.600363016,4.555052757
831,1.55965506355e+18,-0.9419999719,-2.201454639,3.181216955
832,1.5596550636e+18,-0.4667468667,-1.941836834,1.561202407
833,1.55965506365e+18,0.9076999426,2.022678614,0.2533398867
834,1.5596550637e+18,1.814834833,6.339052677,0.6137503386
835,1.55965506375e+18,-0.1393230855,2.391641378,-0.2329088748
836,1.5596550638e+18,-3.463651896,0.6598383188,-0.7063294053
837,1.55965506385e+18,-1.430692315,-0.2356901467,-2.354443789
838,1.55965506391e+18,-1.303021312,0.117389977,-3.497372866
839,1.55965506396e+18,-1.549200058,-0.4812579751,-2.90666604
840,1.55965506401e+18,-0.9090133309,-0.9992716908,-1.662333488
841,1.55965506406e+18,-1.188789606,-1.44642508,-0.6513515711
842,1.55965506411e+18,-0.3176957369,-1.798283458,-0.02887987718
843,1.55965506416e+18,-0.436203599,-2.360890388,0.564881146
844,1.55965506421e+18,-0.3592346013,-3.470832586,0.683999896
845,1.55965506427e+18,0.3548668921,-1.941836834,1.317467213
846,1.55965506432e+18,0.5582850575,-2.927773237,1.929554105
847,1.55965506437e+18,0.900980413,-3.72800684,2.184895754
848,1.55965506442e+18,1.172204614,-5.329084396,2.012631655
849,1.55965506447e+18,1.674946666,-8.035218239,0.683999896
850,1.55965506452e+18,1.585149527,-3.580788374,-1.725863576
851,1.55965506457e+18,0.06959282607,-1.916791201,-4.934127808
852,1.55965506462e+18,-1.101435781,-2.474511147,-3.264022112
853,1.55965506467e+18,-4.362845421,-6.265541077,-5.10639143
854,1.55965506472e+18,1.643181682,4.9114604,-0.6403559446
855,1.55965506477e+18,0.8924282789,6.833242893,4.366906166
856,1.55965506482e+18,-1.228495836,3.834504843,2.136637449
857,1.55965506488e+18,-2.302397013,-0.1220691949,0.1482710391
858,1.55965506493e+18,-2.163119555,-1.680997372,-0.166935429
859,1.55965506498e+18,-2.855840921,1.406315684,-1.003209949
860,1.55965506503e+18,-3.146001816,3.449048996,-1.015427232
861,1.55965506508e+18,-3.880261898,3.839391947,-2.043513536
862,1.55965506513e+18,-3.836279631,2.822912216,-3.461942673
863,1.55965506519e+18,-3.815510273,1.902949095,-3.698958158
864,1.55965506524e+18,-3.086137056,4.151544094,-2.766166925
865,1.55965506529e+18,-1.255984783,5.840586662,-1.592694998
866,1.55965506534e+18,0.5497329235,5.689702511,-1.650727034
867,1.55965506539e+18,0.8954825997,3.832672358,-1.845593095
868,1.55965506544e+18,1.002994895,2.227929354,-1.096672416
869,1.55965506549e+18,0.390297085,0.6103582382,-0.2158046365
870,1.55965506554e+18,-0.624960959,0.7759026885,1.931386709
871,1.5596550656e+18,-1.142363787,0.03553403169,2.8849473
872,1.55965506565e+18,-1.224830747,-0.6846761107,4.35529995
873,1.5596550657e+18,-1.118540049,-0.5350140929,5.003428459
874,1.55965506575e+18,-1.01224947,-0.6523002386,5.498839855
875,1.5596550658e+18,-0.9084023833,-1.477579236,5.762733459
876,1.55965506585e+18,-0.5974720716,-2.856302023,4.89530468
877,1.5596550659e+18,0.3377626538,-3.32361412,3.655248642
878,1.55965506595e+18,0.6230367422,-1.217350602,2.015686274
879,1.559655066e+18,0.5417916775,1.67937243,1.221561313
880,1.55965506605e+18,0.574778378,-0.4647646248,0.1794251651
881,1.55965506611e+18,2.309635639,0.6213538051,-0.8621001244
882,1.55965506616e+18,0.2369698882,5.917555809,1.493396401
883,1.55965506621e+18,-3.33353734,-9.103010178,1.79210937
884,1.55965506626e+18,-1.978638291,-0.6468024254,-4.089301109
885,1.55965506631e+18,-1.034240723,-0.7805818915,-3.088093042
886,1.55965506636e+18,-1.130146503,0.1406028569,-2.912774563
887,1.55965506641e+18,-1.469787598,0.4472571909,-1.704483271
888,1.55965506646e+18,-1.295691013,-1.905184865,-0.02216035873
889,1.55965506651e+18,-0.9591042399,-4.042602062,1.023640871
890,1.55965506657e+18,-0.7373601794,-5.355962276,1.946047544
891,1.55965506662e+18,-1.100824952,-6.258210659,2.018129587
892,1.55965506667e+18,0.05737552047,-3.938144207,0.3034308255
893,1.55965506672e+18,-0.01715004072,-0.6730696559,1.548985124
894,1.55965506677e+18,0.3768580258,-2.799491405,0.8159467578
895,1.55965506682e+18,0.7549836636,-4.123847485,0.5770984292
896,1.55965506687e+18,1.63707304,-6.007144928,-0.6098127365
897,1.55965506692e+18,1.877753854,-5.375510216,-2.008083344
898,1.55965506697e+18,-1.058064461,0.4820765257,-3.496151209
899,1.55965506702e+18,-2.251695156,3.204092026,-3.430788279
900,1.55965506707e+18,-3.772749424,-6.434750557,-3.570676565
901,1.55965506712e+18,-6.832573891,-2.235662937,-7.701347351
902,1.55965506718e+18,2.291309834,10.46666908,4.897137642
903,1.55965506723e+18,-0.9609368443,9.722634315,8.688166618
904,1.55965506728e+18,-2.146626234,3.543122292,1.75545752
905,1.55965506733e+18,-2.157621861,-1.600363016,-0.008721322753
906,1.55965506738e+18,-2.053774595,-2.610734224,0.7548602223
907,1.55965506743e+18,-2.878442764,-0.02677422389,-0.3172082901
908,1.55965506748e+18,-3.908972502,5.006144524,-1.912177324
909,1.55965506753e+18,-3.389126301,5.536986351,-2.997074127
910,1.55965506758e+18,-1.659766674,5.190626144,-4.138170242
911,1.55965506764e+18,-0.6664997935,5.438637257,-3.893213272
912,1.55965506769e+18,-0.03119994141,4.632295132,-2.373991489
913,1.55965506774e+18,0.1404531896,2.90476799,-1.65500319
914,1.55965506779e+18,0.5112484097,0.5260588527,-0.9769427776
915,1.55965506784e+18,0.3133280575,-0.6339743137,0.05114347115
916,1.55965506789e+18,0.4263381362,-0.7414865494,1.033414841
917,1.55965506794e+18,0.5527872443,0.117389977,1.8122679
918,1.55965506799e+18,0.318825841,0.5590455532,1.873354435
919,1.55965506804e+18,-0.006765332539,-0.08602815121,2.297905684
920,1.55965506809e+18,-0.4807967544,-0.2387444675,2.321729422
921,1.55965506815e+18,-0.7648491263,-0.7616451383,2.562410355
922,1.5596550682e+18,-1.003086567,-0.8783203959,2.763385296
923,1.55965506825e+18,-0.779509902,-0.4995839298,2.552636623
924,1.5596550683e+18,-0.3763388097,-0.1281778514,1.963762522
925,1.55965506835e+18,0.1386205852,0.3208081126,2.043174982
926,1.5596550684e+18,0.2785087228,0.8760845661,1.676655889
927,1.55965506846e+18,0.04027128965,1.016583562,1.661384225
928,1.55965506851e+18,0.7690334916,-0.7964644432,1.789666057
929,1.55965506856e+18,1.096457243,-1.929008603,1.157420397
930,1.55965506861e+18,0.9858906865,0.1375485212,0.7640231848
931,1.55965506866e+18,0.9101433754,1.786273837,-0.4705354571
932,1.55965506871e+18,0.6645755768,1.14975214,-0.4796984196
933,1.55965506877e+18,0.8288983107,0.6989337206,-1.242669106
934,1.55965506882e+18,1.300486326,0.9933707118,-1.249999523
935,1.55965506887e+18,1.83254993,0.7331421375,-1.521223664
936,1.55965506892e+18,0.1233489588,1.694644094,-1.304366469
937,1.55965506897e+18,-1.747731328,-0.1794905365,-1.708148479
938,1.55965506902e+18,-2.307894707,-4.519688129,-1.398439646
939,1.55965506908e+18,-1.466733217,4.434374332,-5.030033588
940,1.55965506913e+18,1.272386432,-1.550883055,-2.778995037
941,1.55965506918e+18,-1.392207742,-1.661449552,-4.419779301
942,1.55965506923e+18,-0.530276835,4.062968731,-0.4961917996
943,1.55965506928e+18,-0.8680853248,-3.18128252,-0.1150118783
944,1.55965506933e+18,0.2351372987,-1.809889913,0.6223024726
945,1.55965506939e+18,-0.6157979965,0.5633215904,1.765231371
946,1.55965506944e+18,-0.1075581014,0.5401086807,1.269208789
947,1.55965506949e+18,-0.01409571525,-0.5765529275,2.094487906
948,1.55965506954e+18,-0.05258022621,-1.081738472,2.161682844
949,1.55965506959e+18,-0.09411906451,-1.03286922,1.878852248
950,1.55965506964e+18,-0.03975205496,-1.351130128,1.682153702
951,1.55965506969e+18,0.02072360367,-3.51298213,1.498283148
952,1.55965506974e+18,-0.01348484959,-3.674250603,1.456133604
953,1.55965506979e+18,-0.196133554,-3.269857883,1.555704594
954,1.55965506984e+18,-0.01287398487,-3.824523449,1.729801178
955,1.55965506989e+18,-0.3702301681,-3.790925741,0.8788658977
956,1.55965506994e+18,0.08914051205,0.117389977,1.82509625
957,1.55965507e+18,0.5393481851,-2.392044544,1.005314946
958,1.55965507005e+18,0.5680588484,-2.220391273,0.9759934545
959,1.5596550701e+18,0.07570147514,-2.262541056,0.9356763363
960,1.55965507015e+18,-0.09717338532,-4.093304157,0.9595000744
961,1.5596550702e+18,0.8386721611,-7.100593567,-0.08080342412
962,1.55965507025e+18,-0.08862127364,-1.737807751,-1.608577371
963,1.5596550703e+18,-1.226663232,-0.1666623652,-5.4759655
964,1.55965507035e+18,-0.7306406498,-2.257043123,-4.450933456
965,1.55965507041e+18,-0.1405448169,-2.418922663,-5.348294258
966,1.55965507046e+18,1.126389623,6.106924057,2.272860289
967,1.55965507051e+18,0.5210222006,5.9120574,3.140899897
968,1.55965507056e+18,-1.039127588,2.187612295,1.970482111
969,1.55965507061e+18,-1.403203249,0.6732773185,1.359005928
970,1.55965507066e+18,-1.615784407,1.479008555,0.2295161337
971,1.55965507071e+18,-2.500317335,2.726395607,-1.039861798
972,1.55965507076e+18,-2.751382828,3.458822727,-2.127201796
973,1.55965507081e+18,-1.937710285,4.912071228,-2.219442606
974,1.55965507087e+18,-0.736749351,4.164982796,-0.9989339113
975,1.55965507092e+18,-0.6701650023,0.117389977,-0.7582529783
976,1.55965507097e+18,-0.4368144572,-1.328528047,0.02365453541
977,1.55965507102e+18,0.1196837798,-0.4629320204,-0.2188589573
978,1.55965507107e+18,0.318825841,0.4949046969,0.02731972747
979,1.55965507112e+18,0.4245055318,0.6812185645,-0.1699897498
980,1.55965507117e+18,0.5839413404,-0.01150259282,-0.3446972072
981,1.55965507122e+18,0.4183968902,0.6011952758,-0.1284509152
982,1.55965507127e+18,0.5106375217,0.7862874269,0.5392248034
983,1.55965507133e+18,0.7830834389,0.3427992463,0.958889246
984,1.55965507138e+18,0.5692805648,0.4930721223,1.443305373
985,1.55965507143e+18,0.9028130174,1.663489819,1.743851066
986,1.55965507148e+18,0.8844870329,1.060565948,2.265530109
987,1.55965507153e+18,0.3725819588,-1.162372708,2.194669724
988,1.55965507158e+18,-0.06479752809,-1.375564694,2.324173212
989,1.55965507164e+18,0.00972802937,-1.482466102,2.005912304
990,1.55965507169e+18,0.3151606321,-0.7506495118,0.9814912081
991,1.55965507174e+18,0.369527638,0.2749931812,0.3834541738
992,1.55965507179e+18,0.3444821835,-1.464140177,-0.3618014157
993,1.55965507184e+18,-0.479575038,0.1778656244,-0.4357161224
994,1.55965507189e+18,-0.4288732409,4.838767529,0.8978026509
995,1.55965507194e+18,-1.287138939,1.882790565,1.154976964
996,1.559655072e+18,-2.301175356,0.8455412984,0.4347668588
997,1.55965507205e+18,-1.40625751,-1.506900787,-0.8437740803
998,1.5596550721e+18,-0.6084675789,-0.2766180933,-1.703872442
999,1.55965507215e+18,-0.7098712325,0.9182342887,-2.210279703
1000,1.5596550722e+18,-0.5376072526,-1.944280267,-1.452806711
1001,1.55965507225e+18,-0.6402326226,-1.555159092,-0.2903302014
1002,1.5596550723e+18,-0.5620418787,-2.992524862,-0.4583181441
1003,1.55965507235e+18,0.1044121385,-3.119585037,-0.1748766601
1004,1.55965507241e+18,0.4452749491,-1.574095964,-0.09546418488
1005,1.55965507246e+18,0.4874246418,-2.156250477,-0.01971689798
1006,1.55965507251e+18,0.4611574411,-0.9418503642,0.3767346442
1007,1.55965507256e+18,0.1178511828,-1.503846407,0.2728875279
1008,1.55965507261e+18,0.09280569851,-3.282075167,0.1995837241
1009,1.55965507266e+18,0.7959116101,-6.75423336,-0.4363270104
1010,1.55965507271e+18,0.5766109824,-1.819052815,-3.921313286
1011,1.55965507276e+18,-0.07579310238,1.646385789,-6.398982525
1012,1.55965507281e+18,-1.08127737,-3.390198231,-3.485766411
1013,1.55965507286e+18,-0.1246623248,-1.375564694,-2.315959454
1014,1.55965507291e+18,1.871645212,3.638417244,4.251452923
1015,1.55965507297e+18,0.7158882618,4.168037415,4.863540173
1016,1.55965507302e+18,-1.073946953,1.785663009,2.058446884
1017,1.55965507307e+18,-1.062951326,0.4191574156,1.966816902
1018,1.55965507312e+18,-1.791102648,2.003130913,0.1226147115
1019,1.55965507317e+18,-2.348212004,4.640847206,-1.076513767
1020,1.55965507322e+18,-2.398913622,4.796617508,-2.384987116
1021,1.55965507327e+18,-1.654879808,3.639028072,-3.036780357
1022,1.55965507332e+18,-0.7477448583,3.714164495,-3.788144588
1023,1.55965507338e+18,0.4446640909,3.522963524,-3.702012777
1024,1.55965507343e+18,0.8508894444,3.045877934,-3.028228283
1025,1.55965507348e+18,0.86555022,1.603014231,-2.3672719
1026,1.55965507353e+18,0.6376975179,0.1143356487,-1.323303342
1027,1.55965507358e+18,0.6462496519,-0.3688587546,-0.6654015183
1028,1.55965507363e+18,0.7849160433,-0.2937223315,-0.1211205274
1029,1.55965507368e+18,0.8307309151,-0.1190148741,0.8098381162
1030,1.55965507374e+18,0.7537618876,0.144878909,1.246606827
1031,1.55965507379e+18,0.4715421498,1.324459672,1.486065865
1032,1.55965507384e+18,0.4092338979,1.764282703,1.903897762
1033,1.55965507389e+18,0.4519944787,1.103326559,2.698633432
1034,1.55965507394e+18,0.275454402,0.2102414817,2.67603159
1035,1.55965507399e+18,-0.04586071149,-0.791577518,3.270403385
1036,1.55965507404e+18,-0.2816546857,-1.13854897,2.720013618
1037,1.55965507409e+18,-0.09045387059,-0.1306213289,2.091433287
1038,1.55965507414e+18,-0.2205681652,-1.139159799,1.814100623
1039,1.55965507419e+18,0.0530994609,-1.539887428,1.796385527
1040,1.55965507425e+18,0.3285996914,-1.996814728,1.743240237
1041,1.5596550743e+18,0.5949369669,-1.994982004,1.364503741
1042,1.55965507435e+18,0.7836942673,-3.660811424,0.8623725176
1043,1.5596550744e+18,0.3218801618,-2.126929045,0.136053741
1044,1.55965507445e+18,-1.42275095,-0.3798543513,1.382829666
1045,1.5596550745e+18,-2.895547152,4.558991432,4.946006775
1046,1.55965507455e+18,-3.315822363,-6.95704031,-2.280529022
1047,1.5596550746e+18,-2.484434843,5.55286932,0.3871193528
1048,1.55965507466e+18,-1.606621504,2.605444193,-1.9628793
1049,1.55965507471e+18,-1.029353738,-0.4207823277,-1.182193518
1050,1.55965507476e+18,-0.4728555381,0.2927083075,-0.07286217809
1051,1.55965507481e+18,-0.06907358766,-1.305315137,0.06580423564
1052,1.55965507486e+18,0.2644588351,-1.462307453,0.4011692405
1053,1.55965507491e+18,0.1807702929,-1.818441987,0.4512601793
1054,1.55965507496e+18,0.1844354868,-1.71154058,0.6235242486
1055,1.55965507502e+18,0.1147968546,-2.412203074,0.812892437
1056,1.55965507507e+18,0.7794182301,-6.12198782,0.3523000479
1057,1.55965507512e+18,1.696326971,-6.426809788,-1.58902967
1058,1.55965507517e+18,-0.397108227,0.4692483544,-5.275601387
1059,1.55965507522e+18,-0.6799388528,5.163747787,-4.28538847
1060,1.55965507527e+18,-0.8326551318,-3.758550167,-3.356262922
1061,1.55965507532e+18,0.9370214939,1.479008555,-0.8144525886
1062,1.55965507537e+18,0.5466786027,4.325640678,2.432296038
1063,1.55965507542e+18,-0.6280152798,3.486922503,2.03034687
1064,1.55965507548e+18,-1.157024503,1.623783708,1.315023661
1065,1.55965507553e+18,-1.029964566,1.25543189,0.3871193528
1066,1.55965507558e+18,-1.4325248,3.331152201,-0.4155575931
1067,1.55965507563e+18,-1.799043894,4.473470211,-1.427761197
1068,1.55965507568e+18,-1.631666899,3.653078079,-2.637885332
1069,1.55965507573e+18,-0.9169545174,4.043420792,-3.475992441
1070,1.55965507578e+18,0.03355177492,3.62986517,-3.601830721
1071,1.55965507583e+18,0.5375156403,2.478995085,-2.904222727
1072,1.55965507588e+18,0.7073361278,1.474732518,-2.132699728
1073,1.55965507593e+18,0.5973803997,0.7441377044,-1.56215167
1074,1.55965507598e+18,0.2229200006,0.01048855577,-0.7631399035
1075,1.55965507604e+18,0.05065600201,-0.5710551739,0.1268907636
1076,1.55965507609e+18,0.03843869269,-0.7494277954,0.7127104998
1077,1.55965507614e+18,0.07936666906,-0.3541980088,0.9912650585
1078,1.55965507619e+18,-0.009819659404,-0.16177544,1.278371692
1079,1.55965507624e+18,-0.03303254023,0.05691431463,1.649777889
1080,1.55965507629e+18,-0.05135849491,0.6231864095,1.818376541
1081,1.55965507634e+18,-0.2346180677,2.148516893,1.850141644
1082,1.5596550764e+18,-0.6884909868,1.017805338,2.091433287
1083,1.55965507645e+18,-0.8418180943,0.7392507792,2.334557772
1084,1.5596550765e+18,-0.7721794844,-0.7439299822,2.721235275
1085,1.55965507655e+18,-0.6347348094,-0.05976094678,2.852571487
1086,1.5596550766e+18,-0.5162269473,-1.169703126,2.772548199
1087,1.55965507665e+18,-0.4013842642,-0.7072781324,2.542862892
1088,1.5596550767e+18,-0.4832402468,-1.728644729,1.92161274
1089,1.55965507675e+18,-0.3598454595,-3.713956833,0.9478936791
1090,1.5596550768e+18,-0.3427412212,0.2071871608,0.09756922722
1091,1.55965507685e+18,0.5204113722,3.395903826,-0.8260590434
1092,1.5596550769e+18,-0.3769496679,4.427044392,-2.020911455
1093,1.55965507695e+18,-4.693934441,2.643928766,-0.08752293885
1094,1.55965507701e+18,-2.847288847,-2.159915686,-2.28724885
1095,1.55965507706e+18,-3.119734526,-0.06648045778,-4.113124847
1096,1.55965507711e+18,-0.1154993474,3.783803225,-1.712424397
1097,1.55965507716e+18,0.2656805813,0.11555738,-2.590237856
1098,1.55965507721e+18,0.8979260921,-0.7213280201,-0.8419415355
1099,1.55965507726e+18,0.8460025787,-1.041421413,-0.4125032425
1100,1.55965507731e+18,0.8796001673,-1.765296698,0.9680522084
1101,1.55965507736e+18,0.9241933227,-2.56247592,1.235000372
1102,1.55965507741e+18,1.01765573,-3.39386344,1.854417682
1103,1.55965507746e+18,0.4941441715,-4.369414806,1.470183492
1104,1.55965507752e+18,-0.2749351859,-4.239300728,0.9961519837
1105,1.55965507757e+18,0.4324467778,-1.217961431,1.510500431
1106,1.55965507762e+18,0.5332395434,-3.272301197,1.008980155
1107,1.55965507767e+18,0.5979912877,-3.730450153,0.6198589802
1108,1.55965507772e+18,0.9254150391,-4.855664253,0.2063032389
1109,1.55965507777e+18,1.185643673,-5.176368237,-1.432648182
1110,1.55965507783e+18,-1.175350547,-0.4458277822,-5.044694424
1111,1.55965507788e+18,-0.4429231286,2.819857836,-4.308601379
1112,1.55965507793e+18,-1.323790789,-6.727355003,-3.050830364
1113,1.55965507798e+18,1.771463394,1.201675773,-1.907290578
1114,1.55965507803e+18,0.2229200006,5.723911285,2.849517107
1115,1.55965507808e+18,-1.288360596,4.537611008,2.158628702
1116,1.55965507813e+18,-1.908999801,0.08745758235,1.380386233
1117,1.55965507818e+18,-1.784383178,-1.103729606,0.4103322327
1118,1.55965507824e+18,-1.869293451,1.722743869,-0.3605796993
1119,1.55965507829e+18,-1.801487446,5.022027016,-1.129659057
1120,1.55965507834e+18,-1.130146503,5.929772854,-1.752741575
1121,1.55965507839e+18,-0.2376723886,4.744083405,-2.503494978
1122,1.55965507844e+18,0.3750254512,2.887663841,-3.356262922
1123,1.55965507849e+18,0.66029948,2.219988108,-3.301285028
1124,1.55965507854e+18,0.5912717581,2.036728621,-2.780827999
1125,1.5596550786e+18,0.1935984641,1.01047492,-2.042291641
1126,1.55965507865e+18,-0.09106473625,0.06852075458,-0.9891600609
1127,1.5596550787e+18,0.0530994609,-0.1251235306,0.1665969938
1128,1.55965507875e+18,0.2082592249,-1.197192073,1.021197557
1129,1.5596550788e+18,0.4025143683,-0.4030672014,1.438418508
1130,1.55965507885e+18,0.2265851945,0.3782294393,1.753014088
1131,1.5596550789e+18,-0.2462245077,0.1833634228,1.652221322
1132,1.55965507895e+18,-0.6536716223,-0.2833376229,1.661384225
1133,1.55965507901e+18,-0.9450542927,-0.4067323804,1.869078517
1134,1.55965507906e+18,-0.736749351,-0.02249816619,1.656497359
1135,1.55965507911e+18,-0.4032168984,0.562099874,1.549595952
1136,1.55965507916e+18,-0.01898263767,0.2163501382,1.909395456
1137,1.55965507921e+18,0.3285996914,-0.928411305,2.391978979
1138,1.55965507926e+18,0.4886463881,-0.6510784626,2.578903913
1139,1.55965507931e+18,0.5845522285,-2.231997728,2.754832983
1140,1.55965507937e+18,1.160598159,-2.395098925,2.367544413
1141,1.55965507942e+18,1.305984139,-1.204522491,1.595410824
1142,1.55965507947e+18,1.632797003,-1.950999737,0.7725753188
1143,1.55965507952e+18,1.146548271,-1.761631489,-0.5737716556
1144,1.55965507957e+18,0.7329924703,-0.3829086721,-1.145541549
1145,1.55965507962e+18,0.2565175891,1.747789264,-1.63850975
1146,1.55965507967e+18,-0.3115870953,1.53704083,1.097555637
1147,1.55965507972e+18,-1.563249946,-0.6883413196,0.4127756953
1148,1.55965507977e+18,-1.923660517,-1.359682083,-4.64213419
1149,1.55965507982e+18,-0.6548933983,1.916998982,-4.052649021
1150,1.55965507987e+18,-1.259649873,-1.917402148,-2.26403594
1151,1.55965507992e+18,-1.10815537,0.08318151534,-1.262827635
1152,1.55965507998e+18,-0.7117037773,-2.621729851,0.3510783017
1153,1.55965508003e+18,-0.4417013824,-2.206952333,1.459187865
1154,1.55965508008e+18,-0.2529440224,-2.381048918,1.686429739
1155,1.55965508013e+18,0.1257924289,-2.040185928,1.882517457
1156,1.55965508018e+18,0.754372716,-1.990095139,1.453079224
1157,1.55965508023e+18,1.043311954,-2.101272821,1.828761339
1158,1.55965508028e+18,1.342635989,-2.731685638,2.548360586
1159,1.55965508034e+18,1.930899143,-4.139729977,2.685194254
1160,1.55965508039e+18,1.060416222,-1.84715271,0.6894977093
1161,1.55965508044e+18,-0.5614309907,2.000687599,-3.260356903
1162,1.55965508049e+18,-0.7520209551,-0.550896585,-2.835194826
1163,1.55965508054e+18,-0.7886728644,-6.675431728,-3.380697489
1164,1.55965508059e+18,0.7391011119,5.695811749,2.482387304
1165,1.55965508064e+18,-0.1484860629,7.086751461,3.723665237
1166,1.55965508069e+18,0.3292105496,1.913944721,4.172040462
1167,1.55965508075e+18,1.633407831,1.492447615,2.173900127
1168,1.5596550808e+18,2.159973621,1.407537341,1.728579521
1169,1.55965508085e+18,1.767798185,1.278033972,-1.135767698
1170,1.5596550809e+18,-1.33661902,-0.7243823409,-3.749049425
1171,1.55965508095e+18,-3.564444542,1.653716087,-5.428318024
1172,1.559655081e+18,-2.668305159,3.606041431,-4.521183014
1173,1.55965508105e+18,-0.2853198946,4.732477188,-0.6776188016
1174,1.5596550811e+18,-0.1045037657,-1.626630306,-0.5872107148
1175,1.55965508115e+18,-0.2511114478,-2.32057333,0.4671427011
1176,1.55965508121e+18,-0.5162269473,-1.013321638,-0.2280219495
1177,1.55965508126e+18,-1.114264011,0.9860403538,-1.194410801
1178,1.55965508131e+18,-0.9627694488,1.555977702,-0.9854948521
1179,1.55965508136e+18,-0.5919742584,0.08623585105,-0.281167239
1180,1.55965508141e+18,-0.2614961565,0.05569258332,0.2008054554
1181,1.55965508146e+18,0.1312902123,0.1906937957,-0.1834287941
1182,1.55965508151e+18,0.1422857791,2.006796122,-0.4173901677
1183,1.55965508156e+18,0.1948202103,2.164399385,-1.017870784
1184,1.55965508161e+18,0.2015397251,1.100272059,-0.009332188405
1185,1.55965508166e+18,0.0005650503444,0.7722374797,0.8495443463
1186,1.55965508171e+18,-0.1203862652,-0.009059132077,1.268597841
1187,1.55965508176e+18,-0.04219551757,-0.5692225099,1.91794765
1188,1.55965508181e+18,0.06592763215,-0.559448719,2.151298046
1189,1.55965508187e+18,0.2943912446,-0.3572523296,2.678474903
1190,1.55965508192e+18,0.4116773605,-1.768961906,2.379150867
1191,1.55965508197e+18,0.3536451757,-1.285767436,2.300349474
1192,1.55965508202e+18,0.5772218704,-2.233830214,1.965595126
1193,1.55965508207e+18,0.7672009468,-2.928384066,1.513554811
1194,1.55965508212e+18,0.677403748,-3.540471077,0.4873012602
1195,1.55965508217e+18,0.4037361145,-2.931438446,-0.7307640314
1196,1.55965508222e+18,-0.0501367636,-0.9980499744,-1.89018631
1197,1.55965508227e+18,-0.1167210788,3.364138603,-2.240212202
1198,1.55965508232e+18,0.3457039297,4.202857018,-0.9836622477
1199,1.55965508237e+18,3.871007442,-1.822718024,0.7304255962
1200,1.55965508242e+18,5.112896442,-1.084792852,-2.777162552
1201,1.55965508248e+18,-0.3891669512,-1.021873713,-3.840068102
1202,1.55965508253e+18,-1.1478616,1.577968717,-3.5163095
1203,1.55965508258e+18,-1.216278553,-0.3022744358,-1.848647475
1204,1.55965508263e+18,-1.089218497,-1.869143844,-0.8743174076
1205,1.55965508268e+18,-1.42947042,-4.846500874,0.5770984292
1206,1.55965508273e+18,-1.876623869,-3.087820053,0.9882107377
1207,1.55965508278e+18,-0.4074929059,-1.935117364,2.03034687
1208,1.55965508284e+18,0.2675131559,-3.504430294,1.511722326
1209,1.55965508289e+18,0.4037361145,-3.275355816,1.292421579
1210,1.55965508294e+18,1.103787661,-4.25151825,1.274095654
1211,1.55965508299e+18,1.871645212,-6.186739445,0.8141141534
1212,1.55965508304e+18,1.225349903,-3.746332645,-0.4406030476
1213,1.55965508309e+18,-1.22727406,-0.9577328563,-4.059979916
1214,1.55965508314e+18,-0.6707758904,3.377577782,-3.458888292
1215,1.55965508319e+18,-2.029951096,-7.583787918,-4.168714046
1216,1.55965508324e+18,2.845975399,2.730060577,-1.983648658
1217,1.55965508329e+18,0.9199172258,5.729409218,4.296656609
1218,1.55965508335e+18,-0.02509128861,4.059303284,3.354702711
1219,1.5596550834e+18,-1.101435781,0.846152246,1.88496089
1220,1.55965508345e+18,-0.7972249985,-0.3798543513,1.462242246
1221,1.5596550835e+18,-0.8161618114,2.102701902,0.2704440951
1222,1.55965508355e+18,-0.7361384034,4.515008926,-0.8205612302
1223,1.5596550836e+18,-0.2370615304,5.197345257,-2.256094456
1224,1.55965508366e+18,0.2186439335,4.767907143,-3.289067745
1225,1.55965508371e+18,0.5301852226,4.207132816,-3.889548302
1226,1.55965508376e+18,0.3854101598,2.890718222,-3.6586411
1227,1.55965508381e+18,-0.1894140542,1.424030781,-3.05571723
1228,1.55965508386e+18,-0.7300297618,1.314074993,-2.343448162
1229,1.55965508391e+18,-1.103268385,0.3696773052,-1.452806711
1230,1.55965508396e+18,-1.298745394,-1.170924783,-0.2842215598
1231,1.55965508401e+18,-1.019579887,-0.9113071561,0.5887048841
1232,1.55965508406e+18,-0.7966140509,-0.1080192998,0.9692739248
1233,1.55965508411e+18,-0.6096893549,-0.3749673963,1.441472769
1234,1.55965508416e+18,-0.4869054258,-0.5820507407,1.547152519
1235,1.55965508422e+18,-0.255387485,-0.3725239635,1.534935236
1236,1.55965508427e+18,-0.1020603105,-0.1904861182,1.286923885
1237,1.55965508432e+18,-0.006765332539,-0.1220691949,1.16291821
1238,1.55965508437e+18,0.003008511383,-0.0701456517,0.7401994467
1239,1.55965508442e+18,0.1367879957,0.05447085574,0.3816215694
1240,1.55965508447e+18,0.2950021029,0.1534310281,0.07924327254
1241,1.55965508452e+18,0.5479003191,0.1778656244,-0.1779309958
1242,1.55965508457e+18,0.7329924703,0.3030930161,-0.3691318035
1243,1.55965508463e+18,0.8783783913,0.9457232952,-0.532232821
1244,1.55965508468e+18,0.8692154288,1.406315684,-0.03498852998
1245,1.55965508473e+18,0.4190077484,0.3562382758,0.616193831
1246,1.55965508478e+18,0.0005650503444,-0.1868209243,1.304028034
1247,1.55965508483e+18,-0.02814561687,-0.2234728336,1.800661445
1248,1.55965508488e+18,0.3102737367,-1.169703126,2.307679653
1249,1.55965508493e+18,0.5973803997,-1.26805234,2.409694195
1250,1.55965508498e+18,0.2650696933,-1.60891521,2.833023787
1251,1.55965508503e+18,0.2534632683,-3.153182507,2.786598206
1252,1.55965508509e+18,0.6578561068,-4.434166908,2.252091169
1253,1.55965508514e+18,0.6279236674,-2.950375319,1.222172141
1254,1.55965508519e+18,0.9632887244,-2.268649578,0.1213929728
1255,1.55965508524e+18,1.05430758,-3.02612257,-0.9305169582
1256,1.55965508529e+18,0.6077650785,1.684870243,-1.201130271
1257,1.55965508534e+18,0.5998238325,3.381853819,1.402377486
1258,1.55965508539e+18,3.979130268,11.40679073,5.373612404
1259,1.55965508544e+18,-2.116693735,-6.070064068,-0.8077331185
1260,1.5596550855e+18,-1.381212115,1.288418651,-3.281126499
1261,1.55965508555e+18,-1.305464864,0.9072387218,-3.034336805
1262,1.5596550856e+18,-2.182667255,-3.511760473,-1.756406784
1263,1.55965508565e+18,-1.605399609,-1.081738472,-0.9164671302
1264,1.5596550857e+18,-1.25048697,-0.1318430454,0.09756922722
1265,1.55965508575e+18,-0.8961851001,-1.299206495,0.3162589669
1266,1.5596550858e+18,-0.5162269473,-0.5869376659,0.6296328902
1267,1.55965508585e+18,-0.1710880846,-0.4708732665,0.8342726827
1268,1.55965508591e+18,-0.08923213929,-0.4006237388,0.8110598326
1269,1.55965508596e+18,-0.05319108814,-0.417727977,0.9680522084
1270,1.55965508601e+18,0.6144846082,-1.516674519,1.49400723
1271,1.55965508606e+18,1.14043963,-3.980905056,1.745072722
1272,1.55965508611e+18,1.813002229,-4.016945839,0.1934750676
1273,1.55965508616e+18,0.2968346775,1.323237896,-2.536481619
1274,1.55965508622e+18,2.485564947,3.508302927,-2.024576664
1275,1.55965508627e+18,-0.5449376106,-7.919764042,-1.264049411
1276,1.55965508632e+18,-1.26698029,-3.797034502,-2.967752695
1277,1.55965508637e+18,0.2052049041,4.675055504,1.291199923
1278,1.55965508642e+18,0.1532813609,5.386713505,2.818362951
1279,1.55965508647e+18,-1.017747283,0.7355856299,1.534324288
1280,1.55965508652e+18,-1.270034671,0.2847670615,1.574030519
1281,1.55965508657e+18,-1.511937261,1.038574696,0.8379379511
1282,1.55965508662e+18,-1.924271345,3.475316048,-0.2487913668
1283,1.55965508668e+18,-2.24069953,4.113670349,-1.357511878
1284,1.55965508673e+18,-2.493597746,4.714150906,-2.454014778
1285,1.55965508678e+18,-1.029353738,6.118530273,-2.403312922
1286,1.55965508683e+18,0.1117425263,5.299970627,-3.335493326
1287,1.55965508688e+18,0.8789892793,3.150336027,-3.50653553
1288,1.55965508693e+18,0.5020854473,1.690367937,-2.521821022
1289,1.55965508698e+18,-0.1234406009,1.218169212,-1.834597588
1290,1.55965508703e+18,-0.3335782588,1.584688187,-0.4613724649
1291,1.55965508708e+18,-1.083720684,-1.225291848,0.4756948352
1292,1.55965508714e+18,-0.6164088845,-3.078656912,1.175135493
1293,1.55965508719e+18,-0.08434522152,-1.907628298,1.304028034
1294,1.55965508724e+18,0.2094809562,0.01537547819,1.348621249
1295,1.55965508729e+18,0.1117425263,0.2084088922,1.402377486
1296,1.55965508734e+18,-0.07823656499,-0.1556667984,1.343734384
1297,1.55965508739e+18,-0.3012023866,-0.1116844937,0.9240698814
1298,1.55965508744e+18,-0.4710229039,0.4295421243,0.5856505632
1299,1.55965508749e+18,-0.6524499059,0.5382761359,0.3858976066
1300,1.55965508754e+18,-0.6298478842,0.5223936439,0.1116191298
1301,1.5596550876e+18,-0.4270406067,0.8687542081,-0.3581362367
1302,1.55965508765e+18,-0.1820836663,0.8632563949,-0.2549000382
1303,1.5596550877e+18,0.1606117338,-0.02371989749,0.02609799616
1304,1.55965508775e+18,0.467876941,0.01293201745,0.392006278
1305,1.5596550878e+18,0.5112484097,1.042850852,0.8599290848
1306,1.55965508785e+18,0.3664733171,0.4075509608,1.419481516
1307,1.5596550879e+18,0.3176041245,-0.8770986199,1.818987608
1308,1.55965508795e+18,0.3585320711,-1.026760578,1.914282441
1309,1.559655088e+18,0.3182149529,-0.4134519398,1.790887713
1310,1.55965508805e+18,0.3964057267,0.3263058662,1.376721025
1311,1.5596550881e+18,0.4403880239,-0.4360539317,0.7884578109
1312,1.55965508816e+18,0.5582850575,0.8266045451,0.005939442664
1313,1.55965508821e+18,0.6425843835,1.546203732,-0.1974786818
1314,1.55965508826e+18,0.8325635195,-0.1281778514,-0.5371197462
1315,1.55965508831e+18,0.6883993149,0.8082785606,-0.2200807035
1316,1.55965508836e+18,0.6633538008,0.6751099229,-0.2506239712
1317,1.55965508841e+18,-0.1387122124,3.304273844,0.2001945972
1318,1.55965508846e+18,0.06042984501,2.455171347,0.05419779569
1319,1.55965508851e+18,-1.451461673,1.677539825,-0.135781303
1320,1.55965508856e+18,0.02255620062,6.847292423,-3.55540514
1321,1.55965508861e+18,-0.03119994141,-3.404859066,-4.000725746
1322,1.55965508866e+18,2.294974804,0.357460022,-3.63176322
1323,1.55965508872e+18,0.2082592249,-0.5753312111,-2.490666866
1324,1.55965508877e+18,-0.4410905242,-0.5460097194,-1.276266694
1325,1.55965508882e+18,-1.464900613,-0.319378674,0.5581616163
1326,1.55965508887e+18,-1.078833818,-0.8887050748,2.097542048
1327,1.55965508892e+18,-1.31340611,-4.115906239,3.138456345
1328,1.55965508897e+18,-1.610897422,-5.533724785,3.219090462
1329,1.55965508902e+18,-1.758726835,-9.677223206,3.51047349
1330,1.55965508907e+18,-2.327442408,-12.46826649,2.35838151
1331,1.55965508912e+18,1.346301198,-0.5967115164,-0.5859889388
1332,1.55965508917e+18,-0.001267545391,2.186390638,0.6577326655
1333,1.55965508923e+18,0.3713602722,-3.30773139,-0.2622303963
1334,1.55965508928e+18,0.6664081216,-1.259500265,0.3632956147
1335,1.55965508933e+18,0.6541908383,-3.238092661,-0.08996640146
1336,1.55965508938e+18,1.561325788,-6.178798199,-1.064907312
1337,1.55965508943e+18,-0.4087146521,-3.235038519,-3.59572196
1338,1.55965508948e+18,-2.109363556,4.003103733,-3.060604095
1339,1.55965508953e+18,-2.016511917,-4.935076714,-3.583504677
1340,1.55965508958e+18,-3.252292395,-1.690771103,-5.469245434
1341,1.55965508963e+18,1.77940464,8.158820152,2.26919508
1342,1.55965508968e+18,0.08486445248,8.037258148,5.2954216
1343,1.55965508973e+18,-1.430692315,3.698282003,2.161682844
1344,1.55965508979e+18,-1.642662525,-0.5973224044,0.3962823451
1345,1.55965508984e+18,-1.741011739,0.452144146,0.1323885471
1346,1.55965508989e+18,-1.873569608,3.526628971,-0.7503117323
1347,1.55965508994e+18,-1.273088932,6.32500267,-1.855977774
1348,1.55965508999e+18,0.566837132,7.408677578,-2.571911812
1349,1.55965509004e+18,2.197847366,8.006714821,-3.165672779
1350,1.55965509009e+18,2.455021381,4.273717403,-2.606731176
1351,1.55965509015e+18,0.9626777768,0.4435920119,-2.3239007
1352,1.5596550902e+18,-0.1906357706,-0.7616451383,-1.433869958
1353,1.55965509025e+18,-0.540050745,-2.040796995,-0.6214191914
1354,1.5596550903e+18,-0.2682156563,-0.9198591709,0.4976859689
1355,1.55965509035e+18,0.09402743727,-0.1477255374,1.456744432
1356,1.5596550904e+18,0.1276250184,-0.3541980088,1.839756966
1357,1.55965509045e+18,-0.2285094112,-0.05915008113,1.996138453
1358,1.5596550905e+18,-0.6157979965,0.3470753133,1.410318613
1359,1.55965509055e+18,-1.153359413,0.6518970132,1.401155591
1360,1.5596550906e+18,-1.509493947,0.3806728721,1.617401958
1361,1.55965509065e+18,-1.113653183,-0.3358720541,1.690094948
1362,1.5596550907e+18,-0.6005263925,-1.354184389,1.572197914
1363,1.55965509076e+18,-0.4392579198,-3.055444002,1.393214345
1364,1.55965509081e+18,-0.5944177508,-2.54903698,1.355340838
1365,1.55965509086e+18,-0.2517222762,-0.3352611661,1.360838532
1366,1.55965509091e+18,-0.1191645339,0.4918503761,1.513554811
1367,1.55965509096e+18,0.130068481,-0.1733818799,1.786611557
1368,1.55965509101e+18,0.4355010986,-2.83431077,2.264308453
1369,1.55965509106e+18,0.626091063,-1.655951738,2.004690647
1370,1.55965509111e+18,0.5949369669,-3.296124935,1.740796804
1371,1.55965509116e+18,0.2027614415,-4.105521679,1.289978147
1372,1.55965509122e+18,0.3328757286,-3.485493183,1.223393917
1373,1.55965509127e+18,0.5020854473,-5.159264088,0.7133213878
1374,1.55965509132e+18,0.4862029254,-1.611969471,0.4964642227
1375,1.55965509137e+18,1.364627242,12.15815544,10.52626133
1376,1.55965509142e+18,-1.244989157,-14.99419403,3.244136095
1377,1.55965509147e+18,-0.1692554951,6.502764225,-3.241420269
1378,1.55965509152e+18,-1.610897422,4.713540077,1.4048208
1379,1.55965509157e+18,-0.7807316184,-3.305898905,-1.550545216
1380,1.55965509162e+18,-1.056231856,-1.835546255,0.1843120903
1381,1.55965509168e+18,-1.480172396,1.181517243,0.4512601793
1382,1.55965509173e+18,-1.709246874,1.564529777,0.1629318148
1383,1.55965509178e+18,-1.542480588,1.964646459,0.09879095852
1384,1.55965509183e+18,-1.361053586,1.427085042,-0.1602158993
1385,1.55965509188e+18,-1.254152179,0.8956323266,-0.1241748556
1386,1.55965509193e+18,-0.9077915549,0.9591622949,-0.253678292
1387,1.55965509198e+18,-0.7239211202,0.8669216037,-0.0465949662
1388,1.55965509203e+18,-0.7642382383,0.2304000407,-0.02093862742
1389,1.55965509208e+18,-0.7850076556,-0.8911485672,0.07069116086
1390,1.55965509214e+18,-0.07151705027,-3.587507725,-0.04109717906
1391,1.55965509219e+18,0.6883993149,-7.564851761,-1.955548882
1392,1.55965509224e+18,-1.243156672,-2.153807163,-5.428318024
1393,1.55965509229e+18,-0.9077915549,5.489949703,-4.88709116
1394,1.55965509234e+18,-0.5394397974,-1.866089463,-4.027603626
1395,1.55965509239e+18,1.033538222,3.046488762,0.3474131227
1396,1.55965509244e+18,0.8496677279,3.108186245,3.445721626
1397,1.55965509249e+18,-0.4783532917,2.01046133,2.299127579
1398,1.55965509254e+18,-1.28041935,1.296970725,1.236222029
1399,1.55965509259e+18,-1.53515017,2.473497391,0.3553543687
1400,1.55965509265e+18,-1.827143788,4.128331184,-0.7820767164
1401,1.5596550927e+18,-2.288958073,5.954818249,-1.695320368
1402,1.55965509275e+18,-1.43924439,6.886998653,-2.397204399
1403,1.5596550928e+18,0.1984854043,5.33479023,-3.317167521
1404,1.55965509285e+18,0.8551655412,2.392252207,-3.359927893
1405,1.5596550929e+18,0.9370214939,1.626837969,-2.848633766
1406,1.55965509295e+18,0.7458207011,1.397152662,-2.110708714
1407,1.559655093e+18,0.5106375217,0.6274624467,-1.201130271
1408,1.55965509305e+18,0.318825841,-0.51607728,-0.3294255733
1409,1.5596550931e+18,0.2546849847,-1.012099862,0.5783202052
1410,1.55965509315e+18,0.2296395153,-0.9021440744,1.234389424
1411,1.5596550932e+18,0.2497980595,-0.6828435063,1.699868798
1412,1.55965509325e+18,0.1752725095,-0.4635428786,1.795163751
1413,1.55965509331e+18,0.118462041,-0.3725239635,1.723692536
1414,1.55965509336e+18,0.0359952338,-0.06831305474,1.790887713
1415,1.55965509341e+18,-0.1289383918,0.1461006403,1.456133604
1416,1.55965509346e+18,-0.2950937152,0.2340652347,1.158642173
1417,1.55965509351e+18,-0.2602744102,0.07585113496,0.6351306438
1418,1.55965509356e+18,-0.4710229039,0.2719388604,0.2612811327
1419,1.55965509361e+18,-0.6878800392,0.5449956656,-0.1186770722
1420,1.55965509366e+18,-0.7214776874,0.314088583,-0.3593579829
1421,1.55965509372e+18,-0.4203211069,0.1338833272,-0.4900831282
1422,1.55965509377e+18,0.02622138895,0.1479332447,-0.3391994238
1423,1.55965509382e+18,0.4196186364,0.1259420812,-0.1345595717
1424,1.55965509387e+18,0.6493039727,0.2835453153,0.2105793059
1425,1.55965509392e+18,0.7097796202,0.1717569828,0.718819201
1426,1.55965509397e+18,1.056751132,-0.3377046287,1.969871163
1427,1.55965509402e+18,1.192973971,-0.5020273924,2.895942926
1428,1.55965509407e+18,1.119059324,-2.388990164,3.639365911
1429,1.55965509412e+18,1.119059324,-2.557588816,3.368752718
1430,1.55965509418e+18,0.7018383741,-3.305288076,2.568519115
1431,1.55965509423e+18,0.5381264687,-3.192277908,1.26554358
1432,1.55965509428e+18,0.5900499821,-5.158653259,0.5532746911
1433,1.55965509433e+18,0.4617682993,-5.377342701,-0.5670521855
1434,1.55965509438e+18,0.01400408521,-0.01455691922,-1.312918544
1435,1.55965509443e+18,0.7739204764,2.231594563,1.378553629
1436,1.55965509449e+18,-2.442895889,3.323210716,4.82872057
1437,1.55965509454e+18,-3.779469013,-3.419519663,-0.4436573684
1438,1.55965509459e+18,-2.465497971,1.448465347,-1.504730344
1439,1.55965509464e+18,-3.07819581,3.186987877,-2.731347561
1440,1.55965509469e+18,-2.435565472,0.6402906775,-1.472354531
1441,1.55965509474e+18,-1.308519125,0.511398077,-0.6690666676
1442,1.55965509479e+18,-0.7569078207,-0.6132048368,-0.105848901
1443,1.55965509484e+18,-0.7226994038,-0.6712370515,0.6088634729
1444,1.5596550949e+18,-0.43253842,-0.6168700457,0.7762405276
1445,1.55965509495e+18,-0.1051146388,-1.097620964,0.8440465927
1446,1.559655095e+18,0.02072360367,-0.7708081007,0.8238880038
1447,1.55965509505e+18,-0.03303254023,-0.5221859217,0.7401994467
1448,1.5596550951e+18,-0.2437810451,-0.654743731,0.6467370391
1449,1.55965509515e+18,-0.3714518845,-0.5063034296,0.6345197558
1450,1.5596550952e+18,-0.353736788,0.2420064807,0.5019620657
1451,1.55965509526e+18,-0.2663830519,0.03675575927,0.375512898
1452,1.55965509531e+18,-0.2297311425,-0.3328177333,0.6858324409
1453,1.55965509536e+18,-0.07090618461,-0.8764877915,0.906965673
1454,1.55965509541e+18,0.8997586966,-2.930216789,0.6504023075
1455,1.55965509546e+18,2.148977995,-5.578317165,0.1818686426
1456,1.55965509551e+18,0.4159534276,-2.031023026,-1.774732828
1457,1.55965509556e+18,-0.8100531101,1.316518426,-6.024522305
1458,1.55965509561e+18,-1.155192018,-2.769559145,-4.634192944
1459,1.55965509566e+18,-0.1063363627,1.460682631,-1.325746775
1460,1.55965509571e+18,0.6676298976,4.95361042,1.827539563
1461,1.55965509577e+18,-0.2132377923,2.270079136,2.134804964
1462,1.55965509582e+18,-0.9432217479,0.7361964583,1.680931926
1463,1.55965509587e+18,-1.244989157,1.37149632,0.7982316613
1464,1.55965509592e+18,-1.511937261,3.587715387,-0.1699897498
1465,1.55965509597e+18,-1.706803322,4.576095104,-1.245723367
1466,1.55965509602e+18,-2.104476452,4.284101963,-2.599400997
1467,1.55965509607e+18,-1.539426327,3.353754044,-3.289678574
1468,1.55965509612e+18,-0.7813424468,3.559004784,-3.474770784
1469,1.55965509617e+18,-0.2236225009,3.527850628,-3.235311508
1470,1.55965509623e+18,0.1001360863,3.525407314,-2.838860035
1471,1.55965509628e+18,-0.02753474936,0.4350398779,-0.5212372541
1472,1.55965509633e+18,0.05737552047,-1.293708682,-0.3227060437
1473,1.55965509638e+18,0.2406350821,-1.14221406,0.616193831
1474,1.55965509643e+18,0.433668524,-0.8923702836,0.9087982774
1475,1.55965509648e+18,0.6315888762,-0.6577980518,1.470183492
1476,1.55965509653e+18,0.7995767593,-0.2485183179,1.826317906
1477,1.55965509659e+18,0.7891920805,0.4093835652,2.018129587
1478,1.55965509664e+18,0.5277417898,0.9164017439,1.742018461
1479,1.55965509669e+18,0.02133446932,1.085000515,1.576473951
1480,1.55965509674e+18,-0.4667468667,0.7539115548,1.296697736
1481,1.55965509679e+18,-0.7172015905,0.2493368685,0.9930976629
1482,1.55965509684e+18,-0.6359565258,-0.1122953594,0.490355581
1483,1.55965509689e+18,-0.4368144572,0.27865839,0.234403044
1484,1.55965509695e+18,0.1215163693,1.088054776,-0.03437766433
1485,1.559655097e+18,0.2962238193,0.4209899902,0.2588376403
1486,1.55965509705e+18,0.1636660695,-0.02982855029,0.6962171793
1487,1.5596550971e+18,-0.08801040798,-1.483077049,1.636338711
1488,1.55965509715e+18,-0.21568124,-0.5667791367,1.95765388
1489,1.5596550972e+18,-0.05319108814,-2.488561392,2.376707554
1490,1.55965509725e+18,0.4788725376,-2.403039932,1.308304191
1491,1.5596550973e+18,0.07203628868,1.328124881,0.6045873761
1492,1.55965509735e+18,-0.1118341535,-1.913126111,0.6974388957
1493,1.55965509741e+18,-0.4435339868,-5.955221176,-0.06919698417
1494,1.55965509746e+18,-1.027521133,-1.603417516,-1.264049411
1495,1.55965509751e+18,-0.7507991791,8.438596725,-3.058160543
1496,1.55965509756e+18,0.08303186297,6.569348812,-0.2268002182
1497,1.55965509761e+18,-1.368383884,0.1833634228,0.8446574211
1498,1.55965509766e+18,2.847807884,2.195553541,-4.182152748
1499,1.55965509771e+18,-2.00857091,2.711123705,-3.720338583
1500,1.55965509776e+18,0.7299381495,0.6934359074,-2.064893723
1501,1.55965509782e+18,-1.18756783,-1.614413023,-0.08202515543
1502,1.55965509787e+18,-1.877845526,-0.7708081007,0.226461798
1503,1.55965509792e+18,-1.575467229,-3.527642727,1.498283148
1504,1.55965509797e+18,-1.185735226,-4.87460041,1.67299068
1505,1.55965509802e+18,-0.6823822856,-5.700490952,1.687651515
1506,1.55965509807e+18,0.07814493775,-5.059082031,0.8086163998
1507,1.55965509812e+18,0.7110013366,-3.073159218,1.32540834
1508,1.55965509817e+18,0.4776508212,-2.205730438,0.7731862068
1509,1.55965509822e+18,0.3402061164,-1.467194438,0.5068489313
1510,1.55965509828e+18,0.2388024926,-1.553326368,0.5044054985
1511,1.55965509833e+18,0.754372716,-4.447606087,0.06152817979
1512,1.55965509838e+18,1.583316922,-6.382827282,-1.193799973
1513,1.55965509843e+18,-0.2309528738,-0.4867557585,-4.919466972
1514,1.55965509848e+18,-0.08923213929,4.461863995,-3.472327232
1515,1.55965509853e+18,-1.780717969,-6.48361969,-2.71485424
1516,1.55965509858e+18,0.5136918426,-1.178866148,-1.628125072
1517,1.55965509863e+18,0.00117591559,3.809459448,1.826317906
1518,1.55965509869e+18,-0.9731541872,4.147879124,1.502559304
1519,1.55965509874e+18,-1.609064817,1.756341457,1.30219543
1520,1.55965509879e+18,-1.700083733,1.452741504,0.5624376535
1521,1.55965509884e+18,-1.973751426,3.100855827,0.02609799616
1522,1.55965509889e+18,-2.034227133,4.891301632,-0.7692485452
1523,1.55965509894e+18,-1.284695387,5.189404488,-1.576201558
1524,1.55965509899e+18,-0.3329673707,5.241327763,-2.560916185
1525,1.55965509904e+18,0.1746616513,4.977434158,-2.826642513
1526,1.55965509909e+18,0.3603646755,2.808862209,-2.207836151
1527,1.55965509914e+18,1.211299896,1.951207399,-2.166297436
1528,1.55965509919e+18,0.05187772959,-0.4751493335,0.2594485283
1529,1.55965509925e+18,-0.08434522152,-2.082946539,-0.131505236
1530,1.5596550993e+18,0.3059976697,-1.99620378,1.244774222
1531,1.55965509935e+18,0.429392457,-1.077462435,1.198348403
1532,1.5596550994e+18,0.8313418031,-0.5136338472,1.796385527
1533,1.55965509945e+18,0.9309128523,-0.07686517388,1.623510599
1534,1.5596550995e+18,0.8826544881,0.4478680789,1.741407633
1535,1.55965509955e+18,0.574778378,1.281088233,1.638782263
1536,1.5596550996e+18,0.1294576079,1.208395243,1.252715468
1537,1.55965509965e+18,-0.5156160593,1.060565948,0.490966469
1538,1.5596550997e+18,-0.9713215232,0.6525079608,-0.03193420172
1539,1.55965509976e+18,-1.163744092,0.4142704904,-0.4143358469
1540,1.55965509981e+18,-0.916343689,0.5046785474,-0.6397451162
1541,1.55965509986e+18,-0.5797569752,0.3281385005,-0.7454248071
1542,1.55965509991e+18,-0.2755460441,-0.1825448573,-0.3813491166
1543,1.55965509996e+18,0.2864499688,0.1589288116,-0.2054199427
1544,1.55965510001e+18,0.6517473459,0.4564201832,0.1574340165
1545,1.55965510006e+18,0.8490568995,1.06362021,0.5141793489
1546,1.55965510011e+18,0.5375156403,0.01293201745,1.215452671
1547,1.55965510017e+18,0.3078302741,-1.202078938,2.066387892
1548,1.55965510022e+18,0.382355839,-1.997425556,2.979020596
1549,1.55965510027e+18,1.128222346,-2.750011444,3.140289068
1550,1.55965510032e+18,1.619357944,-2.356614351,2.363268375
1551,1.55965510037e+18,1.981601119,-2.469013453,1.521496058
1552,1.55965510042e+18,1.988931417,-0.02433076315,-0.1021837071
1553,1.55965510047e+18,1.924179673,-0.8874833584,-0.4937483072
1554,1.55965510053e+18,2.326740026,-1.652286649,-0.3563036621
1555,1.55965510058e+18,1.866147518,0.5144523978,1.029749632
1556,1.55965510063e+18,0.01278235577,-0.645580709,0.6198589802
1557,1.55965510068e+18,1.769019842,-0.1862100512,2.128696203
1558,1.55965510073e+18,-0.1417665631,-2.162359238,-5.122274399
1559,1.55965510078e+18,0.9486279488,-2.473900318,-2.628722429
1560,1.55965510083e+18,-0.2663830519,-1.418936133,-2.726460695
1561,1.55965510088e+18,-1.153970242,-0.7726407051,-1.945164204
1562,1.55965510093e+18,-1.879678249,-2.402429104,-0.4100597799
1563,1.55965510098e+18,-1.664042711,-2.766504765,0.3962823451
1564,1.55965510104e+18,-1.22421968,-2.813541412,1.064568996
1565,1.55965510109e+18,-0.5724265575,-2.218558788,1.512333155
1566,1.55965510114e+18,-0.1362687647,-1.776292205,1.895956516
1567,1.55965510119e+18,0.1416749209,-0.1807122678,1.910617352
1568,1.55965510124e+18,0.006062837783,-0.04387845099,2.09021163
1569,1.55965510129e+18,0.01278235577,-0.1904861182,2.804313183
1570,1.55965510134e+18,0.5185787678,-0.9699501395,3.390743732
1571,1.55965510139e+18,1.226571679,-2.485506773,3.544070959
1572,1.55965510144e+18,0.7800291181,-2.362722874,2.120754957
1573,1.55965510149e+18,-1.683590412,3.509524584,-2.025187492
1574,1.55965510155e+18,-1.053177476,2.493655682,-1.4595263
1575,1.5596551016e+18,-4.114833832,-9.992429733,-1.852312565
1576,1.55965510165e+18,1.433044076,1.483284712,-2.052065611
1577,1.5596551017e+18,0.8264548182,7.653634071,3.866607904
1578,1.55965510175e+18,-0.6964321733,6.582787514,3.646085501
1579,1.5596551018e+18,-2.048887968,2.108810902,1.708420873
1580,1.55965510185e+18,-2.182667255,0.06485556066,0.6516240239
1581,1.5596551019e+18,-2.067824602,1.720300436,-0.2005330026
1582,1.55965510195e+18,-2.013457537,3.352532148,-0.2506239712
1583,1.55965510201e+18,-1.777663708,3.838170052,-1.097894073
1584,1.55965510206e+18,-1.065394759,3.741042614,-2.205392838
1585,1.55965510211e+18,-0.4233754277,4.714761734,-2.762501955
1586,1.55965510216e+18,0.1062447354,5.427030563,-2.315348387
1587,1.55965510221e+18,0.2736218274,3.213865995,-2.045346022
1588,1.55965510226e+18,-0.05135849491,0.8644781709,-1.206017256
1589,1.55965510231e+18,-0.2297311425,-0.7958535552,-0.8205612302
1590,1.55965510237e+18,-0.1985770315,-1.919234753,0.04808914661
1591,1.55965510242e+18,0.5625610948,-1.850817919,0.4732513428
1592,1.55965510247e+18,1.518565178,-0.3664153218,0.6265785694
1593,1.55965510252e+18,2.132484913,1.466791272,1.205678821
1594,1.55965510257e+18,1.790400267,2.052611113,1.594799876
1595,1.55965510262e+18,1.138607025,1.573081851,1.886182666
1596,1.55965510267e+18,0.3011107445,0.6366254091,1.82509625
1597,1.55965510272e+18,0.1044121385,0.1632048637,1.254547954
1598,1.55965510278e+18,-0.002489275998,0.2169610113,0.7939556241
1599,1.55965510283e+18,0.08303186297,0.1913046688,0.7511950731
1600,1.55965510288e+18,0.006062837783,-0.3303742409,1.399323106
1601,1.55965510293e+18,0.03782783076,-0.7317126989,1.751792312
1602,1.55965510298e+18,-0.1637577116,-0.4220040143,2.260643005
1603,1.55965510303e+18,-0.1301601082,-1.24117434,2.671755314
1604,1.55965510308e+18,-0.03608686477,-2.048127413,2.304014444
1605,1.55965510314e+18,0.2571284473,-0.9840000868,1.291199923
1606,1.55965510319e+18,0.4025143683,0.3947228193,0.01143722981
1607,1.55965510324e+18,0.3603646755,0.7777352929,-0.1247857213
1608,1.55965510329e+18,0.6975623369,-0.2973875105,-0.4448791146
1609,1.55965510334e+18,0.3182149529,0.9188451767,-0.1479986012
1610,1.55965510339e+18,0.805685401,1.581023097,-0.1125684157
1611,1.55965510344e+18,-0.4887380004,2.025122166,1.016310573
1612,1.5596551035e+18,-1.36960566,-0.9852218032,0.5636594296
1613,1.55965510355e+18,-2.106920242,-0.2008708119,-0.7631399035
1614,1.5596551036e+18,-1.086775184,-1.597308755,-2.702026129
1615,1.55965510365e+18,-1.431913972,-0.6474133134,-1.92011869
1616,1.5596551037e+18,-0.6371783018,-1.718260169,-1.10522449
1617,1.55965510375e+18,-1.203450322,-4.256405354,1.103053451
1618,1.5596551038e+18,-1.70069468,0.004990769085,0.8745898604
1619,1.55965510385e+18,-1.135644317,-1.683440804,1.007147551
1620,1.5596551039e+18,-0.3567911088,-2.016973257,1.198348403
1621,1.55965510395e+18,0.04576907679,-2.263151884,1.065790653
1622,1.55965510401e+18,0.2351372987,-2.141589642,0.9289568663
1623,1.55965510406e+18,0.1654986739,-3.278409958,0.7682992816
1624,1.55965510411e+18,0.5112484097,-5.720649242,0.5905374885
1625,1.55965510416e+18,0.8105723858,-6.646720886,-1.461358905
1626,1.55965510421e+18,-1.148472548,-0.8697682619,-5.613409996
1627,1.55965510426e+18,0.4556596577,2.964021921,-3.730112314
1628,1.55965510431e+18,-2.212599754,-8.324156761,-4.28538847
1629,1.55965510436e+18,1.305373192,2.660421848,-0.4363270104
1630,1.55965510441e+18,1.097679019,5.359835625,3.650972366
1631,1.55965510446e+18,-0.3604562879,2.726395607,2.81897378
1632,1.55965510451e+18,-1.46551156,0.2701062858,1.974758148
1633,1.55965510457e+18,-1.349447131,0.4778004885,1.300973773
1634,1.55965510462e+18,-1.476507068,2.4710536,0.5245640278
1635,1.55965510467e+18,-1.463678956,4.459419727,-0.4186119139
1636,1.55965510472e+18,-1.228495836,5.179019451,-1.17180872
1637,1.55965510477e+18,-1.22727406,5.105715275,-2.244488001
1638,1.55965510482e+18,-0.4355927408,3.959732533,-2.680645943
1639,1.55965510487e+18,0.134344548,3.54373312,-3.153455496
1640,1.55965510492e+18,0.4128990769,2.907822609,-2.57252264
1641,1.55965510498e+18,0.4177860022,1.642109632,-2.08566308
1642,1.55965510503e+18,0.09280569851,0.4448137581,-1.407602787
1643,1.55965510508e+18,-0.2608852983,-0.3737457097,-0.4699245989
1644,1.55965510513e+18,-0.3958865106,-0.8544966578,0.3498565555
1645,1.55965510518e+18,-0.1301601082,-0.8978680372,1.06029284
1646,1.55965510523e+18,0.2656805813,-0.5796073079,1.482400775
1647,1.55965510528e+18,0.5405699611,-0.2515726388,1.624732256
1648,1.55965510533e+18,0.4898681045,-0.2008708119,1.734077215
1649,1.55965510538e+18,0.3127171993,-0.2961657941,1.713307858
1650,1.55965510544e+18,0.07814493775,-0.1764362007,1.546541572
1651,1.55965510549e+18,-0.1949118376,0.008045095019,1.096944809
1652,1.55965510554e+18,-0.4117689729,0.2407847643,0.7072127461
1653,1.55965510559e+18,-0.4221536815,0.562099874,-0.06431005895
1654,1.55965510564e+18,-0.3415195048,0.9970359206,-0.6092018485
1655,1.55965510569e+18,-0.1417665631,1.286586046,-0.7203793526
1656,1.55965510574e+18,-0.01531744562,1.229775667,-0.6000388861
1657,1.55965510579e+18,0.1092990637,0.8033916354,-0.233519733
1658,1.55965510585e+18,0.1099099293,0.6812185645,0.5074598193
1659,1.5596551059e+18,0.4434423447,-0.9357417226,1.702312231
1660,1.55965510595e+18,0.9089217186,-1.597308755,2.591732025
1661,1.559655106e+18,1.488632798,-0.5576161742,2.936870813
1662,1.55965510605e+18,1.576597452,-1.999868989,3.378526449
1663,1.5596551061e+18,1.097679019,-3.015126944,2.944812298
1664,1.55965510615e+18,0.5265200138,-3.659589767,2.070053339
1665,1.55965510621e+18,0.1648878008,-3.533751726,0.6870542169
1666,1.55965510626e+18,0.2632370889,-3.60522294,-0.8859238029
1667,1.55965510631e+18,-0.01104138978,1.505886674,-1.772900105
1668,1.55965510636e+18,1.17037189,4.775237083,1.197737575
1669,1.55965510641e+18,-2.433732986,-1.379229903,0.8251097202
1670,1.55965510646e+18,5.250951767,-0.6797891855,-0.5297893882
1671,1.55965510652e+18,-0.9084023833,-0.4690406621,-3.758822918
1672,1.55965510657e+18,-1.367773056,-1.826994181,-3.144292831
1673,1.55965510662e+18,-2.450837135,-2.909447193,-0.6739535332
1674,1.55965510667e+18,-1.481394053,-0.7390431166,-0.4693137109
1675,1.55965510672e+18,-0.6695541143,-2.687703133,0.1055104733
1676,1.55965510677e+18,-0.5650961995,-2.494058847,0.572822392
1677,1.55965510682e+18,-0.3415195048,-1.798283458,0.812281549
1678,1.55965510687e+18,-0.07396051288,-1.171535611,1.037690759
1679,1.55965510692e+18,0.09708175808,-1.119001389,1.017532229
1680,1.55965510697e+18,0.331043154,-1.89052403,1.123822927
1681,1.55965510702e+18,1.08057487,-3.783595562,1.635727882
1682,1.55965510707e+18,1.690829277,-5.008380413,1.047464728
1683,1.55965510713e+18,-1.113653183,1.266427517,-3.117414474
1684,1.55965510718e+18,-1.149694204,5.331735611,-4.433218479
1685,1.55965510723e+18,-2.2938447,-8.445108414,-3.059993267
1686,1.55965510728e+18,2.715861082,0.5297240019,-1.07223773
1687,1.55965510733e+18,1.571710467,4.610303879,4.807340145
1688,1.55965510738e+18,-0.1148884818,3.74592948,3.71572423
1689,1.55965510743e+18,-1.002475739,1.243825436,3.02422452
1690,1.55965510748e+18,-1.018358111,0.2230696529,1.630840898
1691,1.55965510753e+18,-1.522932887,3.022665024,0.3144263923
1692,1.55965510758e+18,-1.905334473,5.481397629,-0.5194046497
1693,1.55965510763e+18,-1.955425382,5.587077141,-1.455861092
1694,1.55965510769e+18,-1.523543715,4.95361042,-1.81749332
1695,1.55965510774e+18,-0.8595331907,4.386116028,-2.77777338
1696,1.55965510779e+18,-0.3036458492,3.234635353,-2.576798916
1697,1.55965510784e+18,0.208870098,2.092317343,-2.364828587
1698,1.55965510789e+18,0.4880355299,1.095996141,-1.834597588
1699,1.55965510794e+18,0.6486930251,0.4906286299,-1.111333132
1700,1.55965510799e+18,0.6120411158,0.2982060909,-0.2897193432
1701,1.55965510804e+18,0.6083759665,-0.4617102742,0.6143612266
1702,1.55965510809e+18,0.9357997179,-0.6345851421,1.379164577
1703,1.55965510814e+18,1.18991971,-0.2375227362,1.817765713
1704,1.5596551082e+18,1.262001872,0.2859887779,1.882517457
1705,1.55965510825e+18,0.9687864184,0.3220298588,1.650999546
1706,1.5596551083e+18,0.4403880239,0.001936442801,1.465296507
1707,1.55965510835e+18,-0.03730859235,0.04469700903,0.8452683091
1708,1.5596551084e+18,-0.3555693924,0.2163501382,0.4298799038
1709,1.55965510845e+18,-0.3848909438,0.6347928643,0.1708730608
1710,1.55965510851e+18,-0.3176957369,0.9396146536,0.1391080618
1711,1.55965510856e+18,0.1465618461,0.4729135334,0.4097213745
1712,1.55965510861e+18,0.4519944787,0.6280732751,0.8147250414
1713,1.55965510866e+18,0.4752073288,-0.3664153218,1.401155591
1714,1.55965510871e+18,0.2528524101,-0.4238366485,1.83853519
1715,1.55965510876e+18,0.437944591,-1.038367033,2.691303015
1716,1.55965510881e+18,0.4941441715,-1.107394934,2.688859701
1717,1.55965510886e+18,0.4574922621,-2.174576521,2.678474903
1718,1.55965510891e+18,0.5479003191,-2.324849367,2.363268375
1719,1.55965510896e+18,0.9101433754,-3.11591959,1.625954151
1720,1.55965510901e+18,1.121502757,-4.399958611,0.2478420883
1721,1.55965510907e+18,1.265056133,-3.566127539,-1.273212433
1722,1.55965510912e+18,1.078742146,1.330568314,-1.551156163
1723,1.55965510917e+18,1.874699593,0.3788402975,1.327851772
1724,1.55965510922e+18,-2.762989283,-5.971104145,1.327240944
1725,1.55965510927e+18,3.516094446,-7.680304527,-0.1974786818
1726,1.55965510932e+18,-1.372660041,-1.169703126,-2.615894318
1727,1.55965510937e+18,-1.809428692,0.4613071084,-2.755782127
1728,1.55965510942e+18,-1.984136105,-2.381659746,-1.602468729
1729,1.55965510948e+18,-1.265758514,1.019027114,-0.4687028527
1730,1.55965510953e+18,-0.6811605692,-1.404275417,-0.6843382716
1731,1.55965510958e+18,-0.538828969,-0.3572523296,-0.1907591671
1732,1.55965510963e+18,-0.3720627427,-0.018832976,-0.03559939563
1733,1.55965510968e+18,-0.1484860629,-0.02066557109,0.2930461168
1734,1.55965510973e+18,0.04393647984,-0.2363010049,0.4555362463
1735,1.55965510978e+18,0.5802761912,-1.374953866,0.7872360945
1736,1.55965510983e+18,1.618747115,-1.958330035,2.052948952
1737,1.55965510988e+18,2.252214432,-2.843473911,2.644877195
1738,1.55965510993e+18,-0.2132377923,1.832088709,0.2991547585
1739,1.55965510999e+18,-0.6958213449,2.44112134,-3.330606461
1740,1.55965511004e+18,-1.994520903,-6.723690033,0.4445406795
1741,1.55965511009e+18,-2.704957008,-3.447619677,-2.11193037
1742,1.55965511014e+18,1.354853272,4.144213676,2.088989973
1743,1.55965511019e+18,-1.00858438,5.162525654,5.000984192
1744,1.55965511024e+18,-2.12463522,3.638417244,1.913060784
1745,1.55965511029e+18,-2.477104425,0.5346109867,1.057238579
1746,1.55965511034e+18,-2.430067778,0.7337529659,0.4891338646
1747,1.55965511039e+18,-2.530860662,2.970130682,-0.1791527271
1748,1.55965511044e+18,-2.518643379,3.985388756,-1.023368478
1749,1.55965511049e+18,-2.084318161,4.053805828,-1.881023288
1750,1.55965511055e+18,-0.9774302244,4.350686073,-2.878566265
1751,1.5596551106e+18,0.2803413272,4.010434151,-2.679424047
1752,1.55965511065e+18,1.002994895,3.929800034,-2.763723612
1753,1.5596551107e+18,1.175258875,2.545579433,-1.824212909
1754,1.55965511075e+18,1.09095943,0.9347276688,-1.401494145
1755,1.5596551108e+18,0.9736734033,0.05324912444,-1.038029313
1756,1.55965511085e+18,0.7604814172,-0.1684949696,-0.4234988093
1757,1.5596551109e+18,0.4409989119,-0.4012346268,0.5019620657
1758,1.55965511096e+18,0.2473546118,-0.4830905795,1.081062198
1759,1.55965511101e+18,0.1233489588,-0.7084997892,1.572197914
1760,1.55965511106e+18,0.06348416954,-0.7353779078,1.985753655
1761,1.55965511111e+18,-0.01104138978,-0.4091758728,2.165958881
1762,1.55965511116e+18,-0.05441282317,-0.05120883137,2.136026621
1763,1.55965511121e+18,-0.1118341535,0.2346761078,1.913060784
1764,1.55965511126e+18,-0.2260659486,0.4759678543,1.479957223
1765,1.55965511131e+18,-0.2883742154,0.7551332712,0.9277350903
1766,1.55965511136e+18,-0.08373434842,0.7337529659,0.4420972168
1767,1.55965511142e+18,0.2137570232,0.6891598701,0.1806468964
1768,1.55965511147e+18,0.5307961106,0.5639324784,0.01693501696
1769,1.55965511152e+18,0.661521256,0.3055364788,-0.1223422587
1770,1.55965511157e+18,0.8832653165,-0.1049649715,0.1891990155
1771,1.55965511162e+18,0.8331743479,-0.5301271677,0.5001294017
1772,1.55965511167e+18,0.9254150391,-0.03715893254,1.049908161
1773,1.55965511172e+18,0.626091063,-1.214296222,1.850752473
1774,1.55965511177e+18,0.5381264687,-1.955275774,2.149465561
1775,1.55965511182e+18,0.7360467911,-1.302871704,1.766453147
1776,1.55965511187e+18,0.5466786027,-0.034104608,0.7365342975
1777,1.55965511192e+18,0.8258439898,1.046515942,-0.08446861058
1778,1.55965511197e+18,1.153878689,0.9609948993,-0.4125032425
1779,1.55965511203e+18,1.283992887,2.737390995,-0.8535479903
1780,1.55965511208e+18,1.197860956,4.556547642,0.2136336267
1781,1.55965511213e+18,-0.397108227,-0.7133867741,-0.6140888333
1782,1.55965511218e+18,-3.037267923,-1.550272107,0.6436827183
1783,1.55965511223e+18,-3.228468657,-1.070132136,-5.306144714
1784,1.55965511228e+18,-0.1710880846,-0.850831449,-2.530373096
1785,1.55965511233e+18,0.008506298065,-0.9473481178,-1.910955667
1786,1.55965511239e+18,-0.5406615734,-1.191083431,-0.2225241512
1787,1.55965511244e+18,-0.7624056339,-1.028593302,0.529450953
1788,1.55965511249e+18,-0.4465883076,-2.855080366,1.409096956
1789,1.55965511254e+18,-0.9029046893,-5.777459621,2.272860289
1790,1.55965511259e+18,-1.22421968,-7.123195648,2.441459179
1791,1.55965511264e+18,-0.6982647777,-3.553299427,-0.1980895549
1792,1.55965511269e+18,0.5808870196,-0.8642704487,1.822041869
1793,1.55965511274e+18,0.8838762045,-2.031023026,0.7230952382
1794,1.55965511279e+18,0.7684226632,-1.607082605,0.5954243541
1795,1.55965511284e+18,0.2888934314,-1.364569068,0.8147250414
1796,1.55965511289e+18,0.07936666906,-1.696879745,1.089003563
1797,1.55965511295e+18,0.9364106059,-2.674875021,1.381608009
1798,1.559655113e+18,1.60714066,-4.659575939,1.238054633
1799,1.55965511305e+18,-0.1771967262,-2.207563162,-0.7362618446
1800,1.5596551131e+18,-1.540037155,1.845527768,-3.51936388
1801,1.55965511315e+18,-0.719645083,-0.5533400774,-2.574355364
1802,1.5596551132e+18,-3.921190023,-10.572752,-3.865113497
1803,1.55965511325e+18,0.3176041245,3.384297371,-1.862697363
1804,1.5596551133e+18,-0.2034639418,6.786206245,3.27223587
1805,1.55965511335e+18,-1.182070017,4.819219589,3.11646533
1806,1.55965511341e+18,-2.298120737,0.5120089054,1.085949183
1807,1.55965511346e+18,-2.153345585,-0.6480241418,0.8324401379
1808,1.55965511351e+18,-2.455724239,0.8999083042,-0.02887987718
1809,1.55965511356e+18,-2.573621035,3.942017317,-0.6421886086
1810,1.55965511361e+18,-2.593168736,5.536986351,-1.655614018
1811,1.55965511366e+18,-1.174739599,6.744056225,-2.288470507
1812,1.55965511371e+18,0.6914536357,7.49786377,-2.241433859
1813,1.55965511377e+18,0.9632887244,5.16924572,-2.179125547
1814,1.55965511382e+18,0.4135099351,1.303690314,-1.270158052
1815,1.55965511387e+18,0.2607936263,1.394709229,-0.7332075238
1816,1.55965511392e+18,-0.1222188622,-0.5350140929,0.778073132
1817,1.55965511397e+18,-0.4508643746,-2.206341267,0.8947483301
1818,1.55965511402e+18,-0.582200408,-1.690160275,1.129320621
1819,1.55965511407e+18,-0.7214776874,-0.9705610275,1.375499249
1820,1.55965511412e+18,-0.7391927242,-1.200246334,1.902065158
1821,1.55965511417e+18,-0.6390108466,-1.493461728,1.918558478
1822,1.55965511423e+18,-0.3732844889,-1.387171149,1.936884522
1823,1.55965511428e+18,0.08058839291,-0.7885231972,1.889847875
1824,1.55965511433e+18,0.2149787396,0.04714047164,1.771340013
1825,1.55965511438e+18,0.1673312634,0.7343639135,1.478124619
1826,1.55965511443e+18,0.1636660695,1.089276552,1.057849407
1827,1.55965511448e+18,0.3628081381,1.224888682,0.5111250281
1828,1.55965511453e+18,0.4397771657,1.376994133,0.1891990155
1829,1.55965511458e+18,0.6389192343,1.170521617,0.08657365292
1830,1.55965511463e+18,0.5876065493,0.562710762,0.175759986
1831,1.55965511469e+18,0.5405699611,0.05141652748,0.5447226167
1832,1.55965511474e+18,0.4788725376,0.1656483263,0.6626195908
1833,1.55965511479e+18,0.216811344,-0.2723420262,1.202013493
1834,1.55965511484e+18,-0.0550236851,-0.8618270159,1.759122729
1835,1.55965511489e+18,-0.235839799,-0.9980499744,2.189171791
1836,1.55965511494e+18,-0.3665649593,-1.573485017,2.392589808
1837,1.55965511499e+18,-0.08129089326,-2.418922663,2.076161861
1838,1.55965511504e+18,-0.05624542013,-2.384103298,1.828150511
1839,1.5596551151e+18,0.3059976697,-1.994982004,1.190407157
1840,1.55965511515e+18,0.5430133939,-2.28392148,0.05358693376
1841,1.5596551152e+18,0.464211762,-2.134870052,-1.339796782
1842,1.55965511525e+18,0.3505908549,-0.02310903184,-0.6525732875
1843,1.5596551153e+18,-0.9077915549,0.9286190271,0.3388609886
1844,1.55965511535e+18,-2.047055244,3.074588537,3.137234688
1845,1.5596551154e+18,-0.9853714705,-3.272301197,-2.647048235
1846,1.55965511545e+18,-1.357388377,0.7649071217,-1.155315399
1847,1.5596551155e+18,-1.18756783,0.1699243933,-0.8126199841
1848,1.55965511555e+18,-0.7569078207,-0.4549907446,-0.5010787249
1849,1.5596551156e+18,-0.6225175261,-0.6669610143,0.0505326055
1850,1.55965511566e+18,-0.5119509101,-0.6125940084,0.5129575729
1851,1.55965511571e+18,-0.3323565125,-1.632128,0.5825962424
1852,1.55965511576e+18,-0.1405448169,-1.669390917,0.6620087028
1853,1.55965511581e+18,-0.1802510619,-2.076837778,0.5825962424
1854,1.55965511586e+18,-0.2419484556,-0.4806470871,0.8354944587
1855,1.55965511591e+18,-0.1765858829,-1.431153417,0.9454501867
1856,1.55965511596e+18,0.3658624589,-3.597281456,0.9857672453
1857,1.55965511601e+18,1.230847597,-5.208133221,0.1446058452
1858,1.55965511606e+18,-0.6994864941,-0.7066672444,-2.990965366
1859,1.55965511611e+18,-0.8607549667,3.82228756,-5.063631535
1860,1.55965511616e+18,-0.8503702283,-2.935714483,-3.089925528
1861,1.55965511622e+18,0.01766927727,-0.4195605814,0.4811925888
1862,1.55965511627e+18,0.1826028973,0.5211718678,2.909381866
1863,1.55965511632e+18,-0.3806148767,2.259694338,3.09019804
1864,1.55965511637e+18,-1.039127588,2.598724604,2.815919638
1865,1.55965511642e+18,-1.115485668,1.82536912,1.395657778
1866,1.55965511647e+18,-1.525987148,3.645747662,0.4146082997
1867,1.55965511652e+18,-1.726350904,4.393446922,-0.6580711007
1868,1.55965511657e+18,-1.344560146,4.526004314,-1.858421206
1869,1.55965511663e+18,-0.494846642,4.714761734,-2.477838516
1870,1.55965511668e+18,0.5613393784,4.63290596,-2.868792534
1871,1.55965511673e+18,1.194195628,3.98111248,-3.002571821
1872,1.55965511678e+18,1.11722672,2.657978535,-2.591459513
1873,1.55965511683e+18,0.5863848329,0.8815823793,-1.973874807
1874,1.55965511688e+18,0.08608618379,-0.6504676342,-0.9005845785
1875,1.55965511693e+18,-0.06296493858,-1.16542697,0.1720947921
1876,1.55965511699e+18,0.01705841348,-0.8990897536,0.915517807
1877,1.55965511704e+18,0.2076483667,-0.417727977,1.607017159
1878,1.55965511709e+18,0.1740507782,-0.1843774617,2.005912304
1879,1.55965511714e+18,-0.04097378626,-0.2674551308,2.249036551
1880,1.55965511719e+18,-0.2676047981,-0.2784507275,2.190393448
1881,1.55965511724e+18,-0.5443267226,-0.2332466692,2.065166235
1882,1.55965511729e+18,-0.5528788567,-0.461099416,2.135415792
1883,1.55965511734e+18,-0.3690084219,-0.6132048368,1.98758626
1884,1.5596551174e+18,0.0653167665,-0.2558487058,1.641836524
1885,1.55965511745e+18,0.4929224253,0.4093835652,1.170248628
1886,1.5596551175e+18,0.4464966655,0.4619179666,1.014477968
1887,1.55965511755e+18,0.4776508212,-1.182531238,1.169026852
1888,1.5596551176e+18,0.7152774334,-2.236884832,0.6125286222
1889,1.55965511765e+18,0.96817559,-2.15502882,-0.3563036621
1890,1.5596551177e+18,1.142883062,1.225499511,-1.563984275
1891,1.55965511775e+18,1.360961914,6.588285446,-1.352624893
1892,1.5596551178e+18,2.21006465,2.424017191,-0.1730440706
1893,1.55965511785e+18,0.2528524101,0.6195212007,-0.07164043933
1894,1.5596551179e+18,0.08364272118,-0.2277488858,-0.1339486986
1895,1.55965511796e+18,-3.158830166,-3.971741915,-0.5749934316
1896,1.55965511801e+18,3.542972565,6.675639153,-3.636649847
1897,1.55965511806e+18,-0.3897778392,-1.272328496,-3.86022687
1898,1.55965511811e+18,0.08547531813,1.237716794,-2.835194826
1899,1.55965511816e+18,-0.006765332539,-0.3639718294,-1.366674781
1900,1.55965511821e+18,-0.08923213929,-0.4745384455,-0.4485443234
1901,1.55965511826e+18,-0.1613142341,-1.348075747,0.6003113389
1902,1.55965511831e+18,-0.1448208839,-1.503846407,1.354119062
1903,1.55965511836e+18,-0.2230116278,-3.213047266,2.212384701
1904,1.55965511841e+18,-0.2950937152,-4.543511868,2.839743376
1905,1.55965511847e+18,-0.4270406067,-5.088403702,2.762163401
1906,1.55965511852e+18,-0.4288732409,-3.99984169,2.014464378
1907,1.55965511857e+18,0.04576907679,-1.649843097,1.341290951
1908,1.55965511862e+18,0.2436894178,-1.434207797,1.031582117
1909,1.55965511867e+18,0.2815630436,-1.874641657,0.8214445114
1910,1.55965511872e+18,0.1881006807,-1.56920898,0.486079514
1911,1.55965511877e+18,-0.07640396804,-1.247282982,0.5270075202
1912,1.55965511882e+18,-0.2963154614,-0.7775275707,0.5844288468
1913,1.55965511887e+18,-0.3109762371,-0.6718478799,0.6638413072
1914,1.55965511893e+18,-0.3757279217,-1.148322701,0.435377717
1915,1.55965511898e+18,-0.3726736009,-3.460447788,0.5117358565
1916,1.55965511903e+18,0.7775856256,-6.842197895,-0.7533660531
1917,1.55965511908e+18,-0.6127436757,-1.399388433,-4.248736858
1918,1.55965511913e+18,-0.6884909868,4.857093334,-3.819298744
1919,1.55965511919e+18,-1.464900613,-7.511095047,-3.134518862
1920,1.55965511924e+18,0.1141859889,-0.8117361069,-2.558472872
1921,1.55965511929e+18,1.568045259,3.913917542,3.384024143
1922,1.55965511934e+18,-0.006154467352,4.969492912,3.491536617
1923,1.55965511939e+18,-1.241323948,2.230372906,2.222769499
1924,1.55965511944e+18,-1.361664414,0.5682085156,1.665049434
1925,1.55965511949e+18,-1.516824245,1.570638418,0.4359885752
1926,1.55965511954e+18,-1.559584856,4.408107281,-0.6092018485
1927,1.5596551196e+18,-1.533317685,5.694589615,-1.957992315
1928,1.55965511965e+18,-0.6384000182,5.83508873,-2.292135477
1929,1.5596551197e+18,0.2339155674,4.279825687,-2.700193644
1930,1.55965511975e+18,0.67007339,2.702571869,-2.766166925
1931,1.5596551198e+18,0.6419735551,1.399596095,-2.137586594
1932,1.55965511985e+18,0.6657972932,1.20900619,-1.552988648
1933,1.5596551199e+18,0.5179678798,-0.04693277925,-0.6989990473
1934,1.55965511995e+18,0.3841884136,-0.7439299822,-0.07774908841
1935,1.55965512e+18,0.3108845949,-0.8318945765,0.6589543819
1936,1.55965512006e+18,0.3121063113,-0.6290873289,1.249661088
1937,1.55965512011e+18,0.3683059514,-0.6559654474,1.715751171
1938,1.55965512016e+18,0.3811340928,-0.01822211035,1.850141644
1939,1.55965512021e+18,0.3628081381,0.4429811537,1.644890904
1940,1.55965512026e+18,0.1899332702,1.065452933,1.482400775
1941,1.55965512031e+18,0.02866485156,2.039783001,1.045632124
1942,1.55965512036e+18,-0.06601926684,2.077656507,0.2594485283
1943,1.55965512042e+18,-0.4936249256,0.3690664768,0.7011040449
1944,1.55965512047e+18,-0.5076748133,-1.222237587,1.508667946
1945,1.55965512052e+18,0.3689167798,-1.585091472,2.079216003
1946,1.55965512057e+18,1.523452163,-1.660227895,1.799439788
1947,1.55965512062e+18,2.461741209,-1.577761054,1.100610018
1948,1.55965512067e+18,2.605905294,-0.9931630492,-0.007499592844
1949,1.55965512072e+18,1.968161941,0.09295536578,-0.2158046365
1950,1.55965512078e+18,1.801395774,-1.689549446,-0.882258594
1951,1.55965512083e+18,1.271775603,0.8547043204,-1.064296484
1952,1.55965512088e+18,1.506347895,3.015945673,-0.9604493976
1953,1.55965512093e+18,2.062846184,1.934714079,-0.8486610055
1954,1.55965512098e+18,0.2045940459,2.503429651,-0.2396283895
1955,1.55965512103e+18,1.914405942,1.072172403,-1.967766166
1956,1.55965512108e+18,0.005451972596,-1.717038274,-4.892589092
1957,1.55965512113e+18,1.796508908,-0.1562776417,-2.738678217
1958,1.55965512119e+18,0.9186955094,-0.3743565381,-1.518780112
1959,1.55965512124e+18,0.1355662644,-1.598530531,-0.4332726598
1960,1.55965512129e+18,-0.838152945,-1.966882229,1.58685863
1961,1.55965512134e+18,-1.081888199,-2.61562109,2.420689583
1962,1.55965512139e+18,-1.079444647,-3.29429245,3.415789366
1963,1.55965512144e+18,-0.8155509233,-4.542290211,3.884933949
1964,1.55965512149e+18,-0.1881923079,-4.700504303,3.635700703
1965,1.55965512154e+18,0.5185787678,-1.94672358,2.548360586
