,Time (s),Gyroscope x (rad/s),Gyroscope y (rad/s),Gyroscope z (rad/s)
0,1.55965532205e+18,-0.09595166147,0.1381593943,-0.1290617883
1,1.5596553221e+18,-0.03547599912,-0.06586959958,-0.02032776177
2,1.55965532216e+18,-0.04952589795,-0.03105027974,-0.1712114662
3,1.55965532221e+18,-0.1045037657,0.1265529543,-0.3275929987
4,1.55965532226e+18,-0.1655903012,0.1613722742,-0.3813491166
5,1.55965532231e+18,-0.2535548806,0.4264878035,-0.5707173347
6,1.55965532236e+18,-0.1185536757,1.418532968,-0.9121910334
7,1.55965532242e+18,-0.1020603105,1.445410967,-1.071015954
8,1.55965532247e+18,-0.08739954233,3.785024881,-1.202962875
9,1.55965532252e+18,0.1227381006,3.132620811,-1.218234539
10,1.55965532257e+18,0.1716073155,2.674471855,-1.622627378
11,1.55965532262e+18,0.3793015182,0.1693135202,-1.573758006
12,1.55965532268e+18,0.0592081137,1.405704856,-1.477852345
13,1.55965532273e+18,0.0421038866,2.3782022,-0.9341821671
14,1.55965532278e+18,-0.06357580423,3.334817171,-0.2463479042
15,1.55965532283e+18,-0.1258840561,2.677526236,1.029749632
16,1.55965532288e+18,-0.3280804455,1.220612526,0.7347016335
17,1.55965532294e+18,0.1349553913,-1.98642993,0.3077068925
18,1.55965532299e+18,0.1917658746,-3.191056252,0.009604634717
19,1.55965532304e+18,0.6157063842,-3.021846533,-0.4296074808
20,1.55965532309e+18,1.390283465,-1.655951738,-1.326357722
21,1.55965532314e+18,1.011547089,-0.5484531522,-0.5749934316
22,1.5596553232e+18,0.815459311,-3.589340448,-1.104613543
23,1.55965532325e+18,1.072633505,-1.496515989,-1.114998341
24,1.5596553233e+18,0.7769747972,-1.990705967,-0.532232821
25,1.55965532335e+18,0.6028781533,-2.451909065,-0.3300364316
26,1.5596553234e+18,0.4611574411,-1.333415031,-0.206030786
27,1.55965532346e+18,0.369527638,-1.619910717,-0.1577724516
28,1.55965532351e+18,0.1563356966,-0.9271895885,-0.1082923561
29,1.55965532356e+18,0.1282358915,-0.2753964067,-0.3544710279
30,1.55965532361e+18,0.05065600201,-0.6724588275,-0.07958168536
31,1.55965532366e+18,-0.1069472358,-0.1251235306,-0.1027945727
32,1.55965532372e+18,-0.2144595236,0.1491549611,-0.07530563325
33,1.55965532377e+18,-0.03119994141,0.1314398795,-0.2439044565
34,1.55965532382e+18,0.1276250184,0.981764257,-0.3892903626
35,1.55965532387e+18,0.3041650653,0.5315566659,-0.3153756857
36,1.55965532392e+18,0.08181012422,-0.3713022172,-0.1852613837
37,1.55965532398e+18,0.0115606254,-0.04387845099,-0.2170263678
38,1.55965532403e+18,0.2039831728,0.3751751184,-0.5163503289
39,1.55965532408e+18,-0.2101834565,0.125331223,-0.5927084684
40,1.55965532413e+18,-0.742247045,1.12653935,-0.8541588187
41,1.55965532418e+18,-0.9407783151,0.9762665033,-1.00931859
42,1.55965532424e+18,-1.294469237,0.8797498345,-0.5688847899
43,1.55965532429e+18,-1.232771873,0.8253828287,-0.5285676122
44,1.55965532434e+18,-0.983538866,0.4729135334,-0.3660774827
45,1.55965532439e+18,-0.7398036718,0.3800620437,-0.2243567556
46,1.55965532444e+18,-0.397108227,0.5132306814,-0.2671173215
47,1.5596553245e+18,-0.2889850736,0.1503766924,-0.2799454927
48,1.55965532455e+18,-0.1778075993,-0.1807122678,-0.1278400421
49,1.5596553246e+18,-0.003711006371,0.09234450012,-0.09790764749
50,1.55965532465e+18,0.3212693036,0.2010785043,-0.1541072577
51,1.5596553247e+18,0.4581031203,0.2059654444,0.03648270294
52,1.55965532476e+18,0.5033071637,0.005601634271,0.1085648015
53,1.55965532481e+18,0.3640298843,0.02026239969,0.3309197426
54,1.55965532486e+18,0.1752725095,-0.3493110538,0.4567579925
55,1.55965532491e+18,-0.117331937,0.5004025102,-0.006277862005
56,1.55965532496e+18,-0.3958865106,0.1314398795,0.5202879906
57,1.55965532501e+18,-0.4129907191,-0.04998710379,0.7066018581
58,1.55965532507e+18,-0.1881923079,0.1076161265,0.7127104998
59,1.55965532512e+18,-0.1869705766,-0.7317126989,0.7224843502
60,1.55965532517e+18,-0.2627178729,-0.3053287566,0.906354785
61,1.55965532522e+18,-0.1075581014,-1.5392766,0.8580964208
62,1.55965532527e+18,0.3438712955,-0.7683646083,0.5850396752
63,1.55965532533e+18,0.2540741265,-0.6003767252,0.5062380433
64,1.55965532538e+18,0.4458858073,-0.6840652227,0.3321414888
65,1.55965532543e+18,0.5845522285,-1.112892628,0.3174807131
66,1.55965532548e+18,0.8838762045,-0.7683646083,-0.1760984063
67,1.55965532553e+18,0.9614560604,-1.356627822,-0.1076814979
68,1.55965532559e+18,0.4574922621,-1.112892628,-0.3263712525
69,1.55965532564e+18,-0.04097378626,-0.6388611794,-0.9592276812
70,1.55965532569e+18,-0.2468353659,-0.1434494853,-1.421041727
71,1.55965532574e+18,-0.4313166738,-0.9302439094,-1.6782161
72,1.55965532579e+18,-0.8094422817,-0.7078889608,-1.650116205
73,1.55965532585e+18,-1.12464869,-0.8147904277,-1.555432081
74,1.5596553259e+18,-1.109987974,-0.4354430735,-1.18463695
75,1.55965532595e+18,-1.062340498,-0.5832724571,-0.9445669055
76,1.559655326e+18,-0.8259356022,-0.03838066384,-0.5676630139
77,1.55965532605e+18,-0.5687613487,-0.4006237388,-0.446100831
78,1.55965532611e+18,-0.2767677605,-0.2118663937,-0.352027595
79,1.55965532616e+18,-0.1607033759,0.3085907996,-0.2768911719
80,1.55965532621e+18,0.0482125394,0.7697940469,0.0932931751
81,1.55965532626e+18,0.3078302741,0.690992415,0.5044054985
82,1.55965532631e+18,0.5613393784,0.1687026471,0.8813093305
83,1.55965532637e+18,0.7244403958,0.2090197653,1.120157599
84,1.55965532642e+18,0.8789892793,0.2114632279,1.278371692
85,1.55965532647e+18,1.141050458,-0.01150259282,1.380997062
86,1.55965532652e+18,1.350577235,-0.4861449003,1.329684496
87,1.55965532657e+18,1.359129429,-0.7396540046,1.108551264
88,1.55965532663e+18,1.268721342,-1.068910241,0.8898614645
89,1.55965532668e+18,0.9455736279,-1.279658794,0.6290220022
90,1.55965532673e+18,0.8771566749,-1.716427445,0.6284111142
91,1.55965532678e+18,0.4263381362,-1.199024677,0.3865084946
92,1.55965532683e+18,0.4086230397,-1.395723224,0.6015330553
93,1.55965532689e+18,0.07203628868,-1.044475675,0.4897447228
94,1.55965532694e+18,0.02866485156,-0.7427083254,0.3015982509
95,1.55965532699e+18,-0.2731025815,-0.4140627682,0.1861446798
96,1.55965532704e+18,-0.2370615304,-0.03593720123,0.2618919611
97,1.55965532709e+18,-0.2700482607,0.0563034527,0.3168698549
98,1.55965532715e+18,-0.259052664,0.09662055224,0.3376392722
99,1.5596553272e+18,-0.1680337489,-0.2057577372,0.1061213464
100,1.55965532725e+18,-0.1362687647,0.1137247831,0.005939442664
101,1.5596553273e+18,-0.1191645339,-0.2973875105,-0.1150118783
102,1.55965532735e+18,-0.2437810451,-0.3499219418,-0.1455551386
103,1.55965532741e+18,-0.2193464339,-0.406121552,-0.08507947624
104,1.55965532746e+18,-0.2321746051,-0.6162591577,0.1568231732
105,1.55965532751e+18,-0.1637577116,-2.793382883,0.226461798
106,1.55965532756e+18,0.5075832009,-6.259432316,-1.20784986
107,1.55965532761e+18,-2.376311541,-3.786649942,-3.841289759
108,1.55965532767e+18,-5.161857128,4.218128204,-5.355625153
109,1.55965532772e+18,-2.069046497,3.909030437,-6.802153587
110,1.55965532777e+18,1.024986029,3.78563571,-1.55604291
111,1.55965532782e+18,0.3994600475,-1.873419762,1.366947293
112,1.55965532787e+18,0.1099099293,0.5559912324,0.159877494
113,1.55965532793e+18,-0.8332660198,2.570624828,-0.3508058488
114,1.55965532798e+18,-1.532706618,1.940822721,-0.2243567556
115,1.55965532803e+18,-2.543077946,-0.1593319923,0.5154010653
116,1.55965532808e+18,-2.989009619,-0.5667791367,0.7444755435
117,1.55965532813e+18,-2.912040472,-0.4904209673,2.382205248
118,1.55965532819e+18,-2.030561924,0.4692483544,2.493993759
119,1.55965532824e+18,-1.585241079,2.26580286,2.109148502
120,1.55965532829e+18,-1.493000507,4.429487705,1.307082415
121,1.55965532834e+18,-1.533928514,5.694589615,0.09023884684
122,1.55965532839e+18,-0.4447557032,7.963953972,-0.7423704863
123,1.55965532845e+18,1.028651237,7.36164093,-1.383168101
124,1.5596553285e+18,1.541167259,4.260889053,-2.314737558
125,1.55965532855e+18,1.854541063,2.013515711,-1.162645698
126,1.5596553286e+18,0.7977442145,1.069118023,-0.7826875448
127,1.55965532865e+18,-0.09167559445,-0.06098267809,0.08718451858
128,1.55965532871e+18,-0.9969779253,-1.077462435,0.7487515807
129,1.55965532876e+18,-0.923674047,-1.282102346,0.675447762
130,1.55965532881e+18,-0.9468869567,-1.028593302,0.7347016335
131,1.55965532886e+18,-0.6048024297,-1.76102066,0.68277812
132,1.55965532891e+18,-0.2847090065,-0.8746551871,0.8580964208
133,1.55965532897e+18,0.1135751158,-0.01150259282,0.4665318429
134,1.55965532902e+18,0.3909079432,0.998868525,0.3046525717
135,1.55965532907e+18,0.5387372971,0.5810366869,0.1604883373
136,1.55965532912e+18,0.6590777636,0.4967373013,-0.113790147
137,1.55965532917e+18,1.148991704,0.01293201745,-0.1046271697
138,1.55965532923e+18,1.500239253,-0.0701456517,0.4188843369
139,1.55965532928e+18,1.632797003,0.004379903898,1.072510123
140,1.55965532933e+18,1.539334536,-0.3260982037,1.74873805
141,1.55965532938e+18,0.5295743346,-0.3768000305,2.100596428
142,1.55965532943e+18,0.3634189963,-1.10556221,2.289353848
143,1.55965532949e+18,0.4300033152,-1.642512798,2.264308453
144,1.55965532954e+18,0.4855920374,-2.315686226,2.132361412
145,1.55965532959e+18,0.5778326988,-1.875252485,1.622899771
146,1.55965532964e+18,0.8545547128,0.006212499458,0.9711065292
147,1.55965532969e+18,0.7421554327,-0.1012997851,0.6467370391
148,1.55965532975e+18,1.087905169,-0.7628667951,0.660176158
149,1.5596553298e+18,1.511845708,-0.6577980518,0.6962171793
150,1.55965532985e+18,1.29621017,-0.7769167423,0.5758767128
151,1.5596553299e+18,1.381120443,-0.551507473,0.9375089407
152,1.55965532995e+18,1.457478642,-2.034077406,0.7970099449
153,1.55965533001e+18,1.44159615,-2.048738241,0.2056923807
154,1.55965533006e+18,1.337749004,-0.9626197219,-0.5530022383
155,1.55965533011e+18,1.221073866,-0.1306213289,-0.8175069094
156,1.55965533016e+18,1.006660104,-0.1813231409,-0.5945410728
157,1.55965533021e+18,0.5986021161,1.011085868,-0.6745644808
158,1.55965533027e+18,-1.610897422,-7.142132759,-0.670288384
159,1.55965533032e+18,-0.2798220813,0.8699759245,-3.772262096
160,1.55965533037e+18,0.3640298843,-1.947945476,-2.199894905
161,1.55965533042e+18,-0.3329673707,-0.1330647767,-3.289678574
162,1.55965533047e+18,-0.4649142623,-0.6052635908,-2.799153805
163,1.55965533053e+18,-1.491167903,0.1735895723,-3.083817005
164,1.55965533058e+18,-2.007959843,-0.213088125,-2.756393194
165,1.55965533063e+18,-3.053150415,0.3965553939,-2.385597944
166,1.55965533068e+18,-3.149667025,-0.05670661852,-1.509006381
167,1.55965533073e+18,-3.723269463,-0.3224330246,-0.5591108799
168,1.55965533079e+18,-3.488086462,-0.8624378443,0.2252400666
169,1.55965533084e+18,-3.121567249,-1.159929156,1.322353959
170,1.55965533089e+18,-2.220541,-1.235065699,2.038898945
171,1.55965533094e+18,-1.992688179,-1.473913908,2.366933584
172,1.55965533099e+18,-1.565693498,-0.6156483293,2.307068825
173,1.55965533105e+18,-1.320736408,-0.9064201713,2.239873648
174,1.5596553311e+18,-0.9377239347,-1.364569068,2.045618534
175,1.55965533115e+18,-0.9682672024,-1.423212171,1.992473245
176,1.5596553312e+18,-0.8595331907,-1.991927743,1.947269201
177,1.55965533125e+18,-0.7025408149,-2.979085922,1.749348879
178,1.55965533131e+18,-0.5583766699,-3.092095852,1.133596659
179,1.55965533136e+18,-0.3842800558,-3.508706093,1.53065908
180,1.55965533141e+18,-0.5846438408,-4.475705624,0.04075876251
181,1.55965533146e+18,0.4300033152,-3.39691782,1.148257494
182,1.55965533151e+18,-0.09839511663,-3.48304987,0.6247459054
183,1.55965533157e+18,0.2204765379,-1.699934125,0.3950605989
184,1.55965533162e+18,-0.1808619201,-1.277826309,0.8477117419
185,1.55965533167e+18,-0.1600925177,-0.6712370515,0.3345849216
186,1.55965533172e+18,-0.2578309774,-0.9180266261,0.04136962444
187,1.55965533177e+18,-0.3763388097,0.2780475318,0.1946968138
188,1.55965533183e+18,-0.3225826621,0.4955155551,0.2808288038
189,1.55965533188e+18,-0.5272225142,0.3299710751,0.3516891897
190,1.55965533193e+18,-0.830211699,0.613412559,0.3913954198
191,1.55965533198e+18,-0.8204378486,0.665336132,0.2136336267
192,1.55965533203e+18,-0.5748699903,0.31836465,0.1488819122
193,1.55965533209e+18,-0.3671758473,0.2969843447,0.04381308705
194,1.55965533214e+18,-0.2792112529,0.001936442801,-0.06125573441
195,1.55965533219e+18,-0.2578309774,-0.2417987883,-0.03010160662
196,1.55965533224e+18,-0.2046856731,-0.7653102875,-0.009332188405
197,1.55965533229e+18,0.05554292351,-1.912515283,-0.07469476759
198,1.55965533235e+18,0.4177860022,-6.641222954,-1.037418365
199,1.5596553324e+18,-0.8522028327,-4.928967953,-2.412476063
200,1.55965533245e+18,-5.13803339,-1.874641657,-5.398995876
201,1.5596553325e+18,-3.334759235,5.062954903,-6.437467098
202,1.55965533255e+18,0.1465618461,3.718440771,-3.705677748
203,1.55965533261e+18,1.287047267,3.631697655,-0.3660774827
204,1.55965533266e+18,0.3108845949,-0.9754479527,1.002871513
205,1.55965533271e+18,-0.3690084219,-0.07442171127,0.2606702447
206,1.55965533276e+18,-1.229717493,1.617064238,0.2460094839
207,1.55965533281e+18,-1.738568306,-0.2295814753,1.122601032
208,1.55965533287e+18,-1.874791265,-2.539873838,2.832412958
209,1.55965533292e+18,-0.7385818958,-2.25826478,3.008342028
210,1.55965533297e+18,-0.353736788,1.645163894,2.731620073
211,1.55965533302e+18,-0.8088313937,5.841808319,1.814100623
212,1.55965533307e+18,-1.458791971,5.19245863,0.4622557759
213,1.55965533313e+18,-1.734903097,4.590756416,-0.9213539958
214,1.55965533318e+18,-1.286528111,4.641458035,-1.975707412
215,1.55965533323e+18,-0.9927018285,4.802726746,-2.110708714
216,1.55965533328e+18,-0.1472643465,3.246241808,-1.508395553
217,1.55965533333e+18,-0.2468353659,0.8864693046,-0.9702231884
218,1.55965533339e+18,0.03110831231,0.6861055493,-0.2463479042
219,1.55965533344e+18,-0.448420912,1.250545025,0.07008029521
220,1.55965533349e+18,-0.3464064002,0.3922793269,0.8147250414
221,1.55965533354e+18,-0.3482390046,-0.5319597721,0.7438646555
222,1.55965533359e+18,-0.3702301681,-0.3639718294,0.9979846478
223,1.55965533365e+18,-0.4966792464,-0.3731348217,0.9631652832
224,1.5596553337e+18,-0.3800039887,-0.5325706005,1.059682012
225,1.55965533375e+18,-0.2871524692,-0.3108265698,0.9869890213
226,1.5596553338e+18,-0.1820836663,0.413048774,0.7670775056
227,1.55965533385e+18,-0.2468353659,1.19251287,0.3492456973
228,1.55965533391e+18,-0.3958865106,0.9035735726,0.06824769825
229,1.55965533396e+18,-0.4508643746,0.9035735726,-0.2933845222
230,1.55965533401e+18,-0.4722446501,1.35500288,-0.3776839375
231,1.55965533406e+18,-0.5950285792,1.303690314,-0.1938134879
232,1.55965533411e+18,-0.6524499059,0.3592925966,0.2270726562
233,1.55965533417e+18,-0.5192812681,-0.4006237388,0.5239531994
234,1.55965533422e+18,-0.2413375825,-0.3566414416,0.7597471476
235,1.55965533427e+18,-0.1209971309,-0.1929295659,0.7004932165
236,1.55965533432e+18,-0.1723098159,-0.04632190987,0.3535217643
237,1.55965533437e+18,-0.3714518845,-0.1862100512,0.2130227685
238,1.55965533443e+18,-0.4734663665,-0.4898100793,0.3645173311
239,1.55965533448e+18,-0.4068820775,-1.051195145,0.5997004509
240,1.55965533453e+18,-0.3360216916,-2.015751362,0.9448392987
241,1.55965533458e+18,-0.3916104436,-2.803767681,1.0437994
242,1.55965533463e+18,-0.7648491263,-2.991303205,1.187963724
243,1.55965533468e+18,-0.9310044646,-2.644942522,1.115881562
244,1.55965533474e+18,-0.7880619764,-1.666947365,0.9875999093
245,1.55965533479e+18,-0.4386470616,-0.6339743137,0.683999896
246,1.55965533484e+18,-0.06296493858,0.1491549611,0.2618919611
247,1.55965533489e+18,0.1661095321,1.268260121,-0.2518456876
248,1.55965533494e+18,0.1874898225,1.513217092,-0.5420066714
249,1.559655335e+18,0.1508379132,1.088665724,-0.781465888
250,1.55965533505e+18,0.1160185859,0.518728435,-0.7698594332
251,1.5596553351e+18,0.1911550164,0.3110342622,-0.7014424801
252,1.55965533515e+18,0.177105099,0.4118270278,-0.4638159275
253,1.5596553352e+18,0.1752725095,0.5706519485,-0.5065764785
254,1.55965533526e+18,0.1716073155,1.151584864,-0.5933193564
255,1.55965533531e+18,0.09830348939,1.938379288,-0.4326618016
256,1.55965533536e+18,-0.02631301992,1.032466054,-0.12356399
257,1.55965533541e+18,-0.06052147225,0.2200153321,0.1617100835
258,1.55965533546e+18,-0.07396051288,0.0135428831,0.2307378501
259,1.55965533552e+18,-0.1203862652,0.2218479365,0.3975040615
260,1.55965533557e+18,-0.1472643465,0.0196515359,0.4897447228
261,1.55965533562e+18,-0.1472643465,0.1705352515,0.5966461301
262,1.55965533567e+18,-0.05441282317,0.7276443243,0.6064199805
263,1.55965533572e+18,0.1398423314,0.7850656509,0.4146082997
264,1.55965533578e+18,0.1514487565,0.6292950511,0.2967112958
265,1.55965533583e+18,0.04943427071,0.1125030518,0.5361704826
266,1.55965533588e+18,-0.09778425843,0.06790988892,0.7823491693
267,1.55965533593e+18,-0.02875648066,-0.2747855186,0.8269423246
268,1.55965533598e+18,-0.001267545391,-0.5783855319,0.9307894111
269,1.55965533604e+18,0.05004513636,-0.5576161742,0.9167395234
270,1.55965533609e+18,0.07203628868,-0.6907847524,0.9197938442
271,1.55965533614e+18,0.09586003423,-0.9894978404,0.8617616296
272,1.55965533619e+18,0.08608618379,-0.8044056892,0.6632304788
273,1.55965533624e+18,0.05493205786,-0.4421626031,0.2924352288
274,1.5596553363e+18,-0.1142776161,-0.4916426837,-0.20969598
275,1.55965533635e+18,-0.3311347663,-0.2204184979,-0.7106054425
276,1.5596553364e+18,-0.3635106385,-0.1006889194,-1.030088067
277,1.55965533645e+18,-0.1435991526,-0.696893394,-1.221899629
278,1.5596553365e+18,0.1092990637,0.3000386953,-1.136989355
279,1.55965533656e+18,0.2235308737,0.3953336477,-0.8004027009
280,1.55965533661e+18,0.1679421216,-0.003561344463,-1.008096814
281,1.55965533666e+18,-0.3152522743,0.1241094917,-0.6654015183
282,1.55965533671e+18,-0.121608004,-0.7396540046,-0.5029113293
283,1.55965533676e+18,0.1068556085,-0.704223752,0.06641510129
284,1.55965533682e+18,-0.2731025815,1.517493129,0.8183901906
285,1.55965533687e+18,-0.03547599912,-2.053625107,0.4506493509
286,1.55965533692e+18,-0.1796402037,-0.9235244393,0.5099032521
287,1.55965533697e+18,-0.1790293306,-0.8832072616,0.2600593865
288,1.55965533702e+18,0.334708333,-1.097620964,0.1867555529
289,1.55965533708e+18,0.5637827516,-1.543552637,0.4811925888
290,1.55965533713e+18,0.6230367422,-1.805002928,0.423160404
291,1.55965533718e+18,0.704892695,-2.184961081,0.4677535594
292,1.55965533723e+18,0.6841232181,-2.721911669,0.3144263923
293,1.55965533728e+18,0.6951188445,-3.633322477,0.2906026542
294,1.55965533734e+18,0.5252982974,-3.992511511,0.3675716519
295,1.55965533739e+18,0.05187772959,-2.981529236,0.5404465199
296,1.55965533744e+18,-0.2407267094,-0.97972399,0.2056923807
297,1.55965533749e+18,-0.3079219162,-1.066466928,-0.1266183108
298,1.55965533754e+18,-0.3708409965,-0.980334878,-0.1455551386
299,1.5596553376e+18,-0.3696192801,-0.3450350165,-0.06614265591
300,1.55965533765e+18,-0.2700482607,-0.2729529142,-0.05087102577
301,1.5596553377e+18,-0.2676047981,-0.1544450521,0.01204809546
302,1.55965533775e+18,-0.3164739907,-0.1953730285,-0.01177564915
303,1.5596553378e+18,-0.1881923079,-0.4048998058,-0.06186660007
304,1.55965533786e+18,-0.09961685538,-0.5930463076,-0.04720583186
305,1.55965533791e+18,-0.1313818395,-1.516674519,0.1189495176
306,1.55965533796e+18,0.4324467778,-5.719427109,-0.6220300198
307,1.55965533801e+18,-0.5052313805,-4.66201973,-1.854756117
308,1.55965533806e+18,-4.381782055,-0.6675718427,-6.056287289
309,1.55965533812e+18,-4.938280106,1.098439574,-7.149735928
310,1.55965533817e+18,-1.099603295,6.879668236,-8.027549744
311,1.55965533822e+18,1.687774897,4.023873329,5.54709816
312,1.55965533827e+18,1.089737773,-4.677291393,5.275263309
313,1.55965533832e+18,0.2235308737,-0.944904685,-1.324524999
314,1.55965533838e+18,-0.7960032225,2.074602365,1.676655889
315,1.55965533843e+18,-1.146639943,-0.307772249,0.6479588151
316,1.55965533848e+18,-0.9377239347,-2.02919054,1.484844208
317,1.55965533853e+18,-0.9102350473,-1.528280973,1.533713341
318,1.55965533858e+18,-0.2761569023,1.086833119,1.57341969
319,1.55965533864e+18,-0.4704120457,3.41484046,1.758511782
320,1.55965533869e+18,-0.3470172584,5.46062851,1.016310573
321,1.55965533874e+18,-0.7966140509,5.77216959,0.3529108763
322,1.55965533879e+18,-1.033629775,4.886415005,-0.5731608272
323,1.55965533884e+18,-0.5479919314,3.77219677,-1.324524999
324,1.5596553389e+18,-1.110598922,3.670793295,-1.276266694
325,1.55965533895e+18,-0.6481738091,4.491796017,-1.355068326
326,1.559655339e+18,-0.9853714705,3.985388756,-1.077735424
327,1.55965533905e+18,-0.2645504773,2.747164726,-0.6122561693
328,1.5596553391e+18,-0.5333311558,2.023900509,-0.5560565591
329,1.55965533916e+18,-0.3848909438,0.4674157798,0.3187024593
330,1.55965533921e+18,-0.3317456245,-0.1385625601,0.8141141534
331,1.55965533926e+18,-0.2144595236,0.004990769085,0.7518059015
332,1.55965533931e+18,-0.0806800276,0.2872105241,0.5147902369
333,1.55965533936e+18,0.0579863824,0.2774366736,0.1592666209
334,1.55965533942e+18,0.02133446932,0.3495187759,-0.02949074097
335,1.55965533947e+18,-0.1930792332,1.075837493,-0.2988823354
336,1.55965533952e+18,-0.2749351859,1.353170395,-0.3691318035
337,1.55965533957e+18,-0.3189174831,0.562099874,-0.3385885656
338,1.55965533962e+18,-0.3665649593,-0.06648045778,-0.2610086799
339,1.55965533968e+18,-0.4899597466,-0.1721601635,-0.03437766433
340,1.55965533973e+18,-0.5339420438,-0.3816869259,0.03770443797
341,1.55965533978e+18,-0.3567911088,-0.2509617507,0.06336077303
342,1.55965533983e+18,-0.1161102131,-0.2454639673,0.4298799038
343,1.55965533988e+18,-0.01959350146,-0.3633609712,0.6265785694
344,1.55965533994e+18,0.01950187236,-0.2552378178,0.4616449177
345,1.55965533999e+18,-0.06907358766,0.2090197653,-0.06614265591
346,1.55965534004e+18,-0.01715004072,0.2780475318,-0.1528855264
347,1.55965534009e+18,0.1013578176,0.01659720764,0.04381308705
348,1.55965534014e+18,0.1092990637,-0.01028086152,-0.09302072972
349,1.5596553402e+18,0.1764942408,-0.3028853238,-0.09668592364
350,1.55965534025e+18,0.1850463599,-0.5221859217,0.01326982584
351,1.5596553403e+18,0.1899332702,-0.252183497,-0.08141428232
352,1.55965534035e+18,0.3279888332,0.01048855577,-0.2268002182
353,1.5596553404e+18,0.3011107445,0.3702881634,-0.2897193432
354,1.55965534046e+18,0.2644588351,0.3037038743,-0.07897082716
355,1.55965534051e+18,0.1196837798,-0.1550559253,0.08290845901
356,1.55965534056e+18,0.06409504265,-0.6486350894,0.3455805182
357,1.55965534061e+18,0.06714936346,-0.4030672014,0.5997004509
358,1.55965534066e+18,0.05248859897,-0.2509617507,0.9533914328
359,1.55965534072e+18,0.02072360367,-0.9204701185,0.718208313
360,1.55965534077e+18,-0.03608686477,-1.033480048,0.3095394671
361,1.55965534082e+18,-0.1545947194,-0.1733818799,-0.135781303
362,1.55965534087e+18,-0.117331937,0.08440325409,-0.6159213781
363,1.55965534092e+18,-0.2492788434,-0.9907196164,-0.7167141438
364,1.55965534098e+18,0.0359952338,-1.503846407,-0.3404211402
365,1.55965534103e+18,-0.04952589795,-0.4220040143,0.2289052606
366,1.55965534108e+18,0.07936666906,0.08867930621,0.1855338216
367,1.55965534113e+18,0.1025795415,0.125331223,-0.158994168
368,1.55965534118e+18,-0.06968445331,-0.2075903267,-0.3801273704
369,1.55965534124e+18,-0.3299130499,-0.7726407051,-0.3263712525
370,1.55965534129e+18,-0.4459774494,-0.8465553522,-0.2750585675
371,1.55965534134e+18,-0.2737134397,-0.2295814753,-0.2316871285
372,1.55965534139e+18,-0.2346180677,0.1399919838,-0.3141539395
373,1.55965534144e+18,0.1410640627,0.1363268048,0.02121107467
374,1.5596553415e+18,0.197263658,-0.2515726388,0.718819201
375,1.55965534155e+18,0.27606529,-2.419533491,2.031568527
376,1.5596553416e+18,-0.887632966,-2.324849367,0.4017801285
377,1.55965534165e+18,-0.3207500577,0.8430979252,1.644890904
378,1.5596553417e+18,-0.2828764319,-1.705431938,1.209344029
379,1.55965534176e+18,-0.07029531896,-2.508108854,1.280815244
380,1.55965534181e+18,-0.03119994141,-2.047516584,0.9857672453
381,1.55965534186e+18,0.1233489588,-3.276577473,1.024251819
382,1.55965534191e+18,0.2546849847,-3.363931179,0.3309197426
383,1.55965534196e+18,0.5198005438,-3.053000689,0.3889519572
384,1.55965534202e+18,0.6890102029,-3.00290966,0.5343378782
385,1.55965534207e+18,0.4507727325,-1.594865322,0.4585905671
386,1.55965534212e+18,0.2418568283,-1.086014509,0.2582267821
387,1.55965534217e+18,0.1099099293,-1.792174816,0.3584086895
388,1.55965534222e+18,-0.1826945245,-0.4684298038,0.3162589669
389,1.55965534228e+18,-0.436203599,-0.409786731,0.2576159239
390,1.55965534233e+18,-0.5522680283,-0.1318430454,0.2625028491
391,1.55965534238e+18,-0.4655251503,-0.3480893672,0.09390404075
392,1.55965534243e+18,-0.1100015566,-0.4207823277,0.003495981684
393,1.55965534248e+18,-0.03181080893,-0.1953730285,-0.1266183108
394,1.55965534254e+18,-0.1930792332,-0.01150259282,-0.0636991933
395,1.55965534259e+18,-0.1185536757,-0.2228619754,-0.09974024445
396,1.55965534264e+18,-0.1466534734,-0.3499219418,-0.04231891409
397,1.55965534269e+18,-0.3433520794,-1.659006119,0.4256038368
398,1.55965534274e+18,0.4617682993,-6.922832012,-0.7594747543
399,1.5596553428e+18,-1.420918345,-5.114059925,-2.732569218
400,1.55965534285e+18,-5.48561573,-0.02433076315,-6.276198864
401,1.5596553429e+18,-3.404397726,0.9072387218,-6.803375721
402,1.55965534295e+18,0.06714936346,7.925469875,-6.051400185
403,1.559655343e+18,2.083615541,2.336663246,4.262448311
404,1.55965534306e+18,0.6535800099,-4.280229092,1.899010897
405,1.55965534311e+18,-0.2712699771,-0.4311670363,0.9998171926
406,1.55965534316e+18,-0.7550752759,1.338509679,1.116492391
407,1.55965534321e+18,-0.8784700036,-0.851442337,0.9784368873
408,1.55965534326e+18,-0.8888547421,-1.509344101,1.582582593
409,1.55965534332e+18,-0.6072458625,-0.9559002519,2.343109846
410,1.55965534337e+18,-0.624350071,0.4466463327,2.003468752
411,1.55965534342e+18,-0.9022937417,3.424614429,1.553261161
412,1.55965534347e+18,-1.014082074,3.989664793,0.7169865966
413,1.55965534352e+18,-1.367162228,4.924899578,-0.7558094859
414,1.55965534358e+18,-0.7440797091,5.103271961,-1.953716278
415,1.55965534363e+18,-1.307297468,5.965814114,-2.510214567
416,1.55965534368e+18,-0.4117689729,5.169856548,-1.810163021
417,1.55965534373e+18,-0.6585585475,4.143602848,-1.887131929
418,1.55965534378e+18,-0.3555693924,2.584674835,-1.179749966
419,1.55965534384e+18,-1.125259638,1.386767983,-0.6690666676
420,1.55965534389e+18,-0.9988104701,0.1289964169,0.4213278294
421,1.55965534394e+18,-0.9059590101,-0.514855504,0.7066018581
422,1.55965534399e+18,-0.3855017722,-0.1752144843,0.9515588284
423,1.55965534404e+18,0.02499966137,0.1558744758,0.9210155606
424,1.5596553441e+18,0.1654986739,0.4729135334,0.710877955
425,1.55965534415e+18,-0.01531744562,0.8192741871,0.5166227818
426,1.5596553442e+18,-0.1387122124,0.5523260236,0.4469841719
427,1.55965534425e+18,-0.1093906909,0.3037038743,0.1898098737
428,1.5596553443e+18,0.1520596296,0.7923960686,0.06091731787
429,1.55965534436e+18,0.6645755768,2.955470085,0.4445406795
430,1.55965534441e+18,0.4416097701,1.92799449,1.617401958
431,1.55965534446e+18,0.1483944356,-1.698712349,3.300335646
432,1.55965534451e+18,0.1642769277,-1.904573917,3.304611921
433,1.55965534456e+18,-0.1179428101,0.5688194036,3.409680605
434,1.55965534462e+18,-0.3793931305,-1.718870997,3.753597736
435,1.55965534467e+18,-0.2077400088,-2.904560328,3.296059608
436,1.55965534472e+18,0.03049744852,-2.41037035,2.267362595
437,1.55965534477e+18,-0.068462722,-0.952235043,0.7224843502
438,1.55965534482e+18,-0.4746881127,0.990316391,-0.4021185338
439,1.55965534488e+18,-0.7446905375,2.091706514,-1.480295658
440,1.55965534493e+18,-0.6829931736,3.009836912,-2.885896683
441,1.55965534498e+18,0.06165157259,3.601154566,-4.162604809
442,1.55965534503e+18,0.6010456085,4.684829712,-4.204144001
443,1.55965534508e+18,1.411052823,4.983542442,-2.938431263
444,1.55965534514e+18,1.535669446,1.546203732,-1.642785907
445,1.55965534519e+18,1.219241261,-1.487963915,-0.5823237896
446,1.55965534524e+18,0.9364106059,-1.560656905,0.1085648015
447,1.55965534529e+18,0.6731277108,-0.7304909825,0.4201060832
448,1.55965534534e+18,0.4116773605,-0.4562124908,0.5227314234
449,1.5596553454e+18,-0.196133554,-0.8832072616,0.3749020398
450,1.55965534545e+18,-0.4313166738,-0.4213931561,0.03587184101
451,1.5596553455e+18,-0.4215428531,-0.2729529142,-0.4900831282
452,1.55965534555e+18,-0.4557512701,-0.8874833584,-0.3923446834
453,1.5596553456e+18,-0.4087146521,-2.174576521,0.004106846638
454,1.55965534566e+18,-0.2816546857,-0.004783074837,-0.08691207319
455,1.55965534571e+18,-0.1888031811,-0.02921768464,0.3083177507
456,1.55965534576e+18,0.1135751158,-0.1025215164,0.4695861638
457,1.55965534581e+18,0.1428966522,0.09662055224,0.3132046461
458,1.55965534586e+18,0.1337336749,-0.1196257398,0.198972851
459,1.55965534592e+18,0.05065600201,-0.2839484811,0.159877494
460,1.55965534597e+18,0.08669704944,-0.4501038492,-0.08263601363
461,1.55965534602e+18,0.1874898225,-0.645580709,-0.1736549437
462,1.55965534607e+18,0.287671715,-0.1171822846,-0.166935429
463,1.55965534612e+18,0.2595719099,-0.5777746439,-0.02399295382
464,1.55965534618e+18,0.1850463599,-0.7646994591,0.0334283784
465,1.55965534623e+18,0.09891435504,-0.5783855319,-0.04720583186
466,1.55965534628e+18,-0.01409571525,-0.1202366054,-0.3288146853
467,1.55965534633e+18,-0.1820836663,-0.3071613908,-0.4564855397
468,1.55965534638e+18,-0.1423774064,-0.1611645818,-0.7154924273
469,1.55965534644e+18,0.02438879572,0.7820113301,-0.8382763267
470,1.55965534649e+18,0.2039831728,-0.3462567329,-0.4864179492
471,1.55965534654e+18,0.07509060949,-0.00172874867,-0.1877048314
472,1.55965534659e+18,0.1783268452,-0.3945150971,0.2099684328
473,1.55965534664e+18,-0.2682156563,-0.3212112784,0.0688585639
474,1.5596553467e+18,-0.294482857,-0.7909666896,-0.1363921613
475,1.55965534675e+18,-0.1362687647,-1.154431462,-0.1260074526
476,1.5596553468e+18,-0.974986732,1.707472205,0.7438646555
477,1.55965534685e+18,-0.1820836663,-1.737807751,0.906965673
478,1.5596553469e+18,-0.6658889055,-1.889913201,1.186741948
479,1.55965534695e+18,-0.3690084219,0.01171028707,1.376110196
480,1.55965534701e+18,-0.4093255401,-2.832478285,1.974758148
481,1.55965534706e+18,-0.5583766699,-2.82392621,1.922223806
482,1.55965534711e+18,-0.1148884818,-2.318129539,1.592356443
483,1.55965534716e+18,0.09647089243,-3.066439629,1.677266717
484,1.55965534721e+18,0.3133280575,-3.88011241,1.049908161
485,1.55965534727e+18,0.7146664858,-3.490990877,1.29547596
486,1.55965534732e+18,0.7537618876,-3.328500986,1.110994577
487,1.55965534737e+18,0.4886463881,-1.845320106,1.16963768
488,1.55965534742e+18,0.1862680763,-1.261943698,0.9625544548
489,1.55965534747e+18,-0.01959350146,-0.6779565811,0.6131395102
490,1.55965534753e+18,-0.2871524692,-1.014543295,0.5392248034
491,1.55965534758e+18,-0.5571548939,-0.2503508925,0.5862613916
492,1.55965534763e+18,-0.6677215695,-0.05365229398,0.5141793489
493,1.55965534768e+18,-0.8008901477,0.6372363567,0.7169865966
494,1.55965534773e+18,-0.8118857145,0.4545875788,0.6589543819
495,1.55965534779e+18,-0.8186052442,0.7062640786,0.6455153823
496,1.55965534784e+18,-0.5797569752,0.2462825477,0.3468022346
497,1.55965534789e+18,-0.4026060104,0.06363382936,0.08840624988
498,1.55965534794e+18,-0.2633287311,-0.2271380275,-0.2213024348
499,1.55965534799e+18,0.03171917796,-0.4586559534,-0.5175721049
500,1.55965534805e+18,0.1948202103,-0.7445408702,-0.591486752
501,1.5596553481e+18,0.1233489588,-1.513620257,-0.3825708628
502,1.55965534815e+18,0.2962238193,-5.001049995,-0.6409668326
503,1.5596553482e+18,0.3725819588,-6.063955784,-2.067337275
504,1.55965534825e+18,-2.956633568,-3.864229679,-4.852882862
505,1.55965534831e+18,-4.690268993,4.290210247,-6.127147675
506,1.55965534836e+18,-1.202228665,0.9328950644,-4.682451248
507,1.55965534841e+18,2.566199064,3.319545746,-1.965933561
508,1.55965534846e+18,1.537501931,0.5059002638,3.132347584
509,1.55965534851e+18,0.1545030922,-1.597919703,1.220339656
510,1.55965534857e+18,-0.7966140509,0.7135944963,0.8654268384
511,1.55965534862e+18,-1.207115531,0.8119437695,0.7548602223
512,1.55965534867e+18,-0.8106639981,-0.1067975685,1.42131424
513,1.55965534872e+18,-0.6212957501,-0.4030672014,2.1195333
514,1.55965534877e+18,-0.4966792464,0.8217176199,2.114646196
515,1.55965534883e+18,-0.6469520926,3.323821545,1.962540746
516,1.55965534888e+18,-0.8509810567,4.848541737,1.220339656
517,1.55965534893e+18,-1.481394053,5.959704876,-0.02704728208
518,1.55965534898e+18,-0.2132377923,7.042768955,-1.664166093
519,1.55965534903e+18,-0.184527114,9.290143013,-3.386195421
520,1.55965534909e+18,1.940062284,9.907115936,-1.849869132
521,1.55965534914e+18,1.965107679,5.344563961,-2.829697132
522,1.55965534919e+18,0.8356178403,-0.02494162694,-0.737483561
523,1.55965534924e+18,-0.7000974417,-2.056068659,0.1824794859
524,1.55965534929e+18,-1.249265313,-1.283324003,1.375499249
525,1.55965534935e+18,-1.139309406,-0.688952148,1.011423588
526,1.5596553494e+18,-0.9884257913,-0.7225497365,0.710877955
527,1.55965534945e+18,-0.6530607939,-1.40366447,0.6418501735
528,1.5596553495e+18,-0.1912466437,-0.6761239767,0.4280473292
529,1.55965534955e+18,0.1086882055,0.227956593,0.1055104733
530,1.55965534961e+18,0.1355662644,0.9860403538,-0.2377957851
531,1.55965534966e+18,0.07570147514,1.154028296,-0.4607616067
532,1.55965534971e+18,-0.02570215613,0.7557441592,-0.4351052642
533,1.55965534976e+18,0.01033889409,-2.330347061,1.77867043
534,1.55965534981e+18,0.4715421498,-4.085362911,3.264905453
535,1.55965534987e+18,0.8179027438,-1.991316915,2.341277361
536,1.55965534992e+18,1.191141367,-2.647997141,1.120768547
537,1.55965534997e+18,1.371957541,-7.489103794,0.08779538423
538,1.55965535002e+18,0.5741675496,-4.307106972,-0.7136597633
539,1.55965535007e+18,0.3255453408,1.484506369,-0.7649724483
540,1.55965535013e+18,-0.2205681652,3.009836912,0.3626847565
541,1.55965535018e+18,-0.4368144572,0.8082785606,0.1275016218
542,1.55965535023e+18,-0.5369963646,0.5205610394,0.5129575729
543,1.55965535028e+18,-0.4545295835,1.054457307,0.8648159504
544,1.55965535033e+18,-0.2676047981,1.948153019,0.9008570313
545,1.55965535039e+18,0.3835775554,3.390405893,0.2783853412
546,1.55965535044e+18,0.5295743346,3.563280821,-1.418598294
547,1.55965535049e+18,1.026207805,4.221793652,-3.559680939
548,1.55965535054e+18,0.9840580821,4.774015427,-4.480865955
549,1.55965535059e+18,-0.8186052442,0.9225103855,-2.689808846
550,1.55965535065e+18,-1.687866449,-0.8056274652,-0.6116453409
551,1.5596553507e+18,-1.885786891,-4.68217802,-0.2982714474
552,1.55965535075e+18,-1.160078883,-3.349270344,0.7591363192
553,1.5596553508e+18,0.07142541558,-1.57898283,0.1195603758
554,1.55965535085e+18,0.901591301,-0.2656225264,0.4463732839
555,1.55965535091e+18,1.186254501,0.412437886,0.06641510129
556,1.55965535096e+18,1.224738955,0.9884838462,-0.5065764785
557,1.55965535101e+18,0.8160701394,0.8730302453,-0.9879382849
558,1.55965535106e+18,0.3805232346,0.4161030948,-0.5413957834
559,1.55965535111e+18,-0.1900248975,-0.1495581418,-0.1437225491
560,1.55965535117e+18,-0.3726736009,-0.2698985934,0.03587184101
561,1.55965535122e+18,-0.337854296,-0.3761891425,0.2215748727
562,1.55965535127e+18,-0.2566092312,-0.2124772668,0.1849229634
563,1.55965535132e+18,-0.1839162558,-0.1287887245,-0.1095140949
564,1.55965535137e+18,-0.1930792332,-0.3346503079,-0.5872107148
565,1.55965535142e+18,-0.1118341535,-0.2790615857,-0.9488429427
566,1.55965535148e+18,-0.2688265145,-0.9180266261,-0.5902650356
567,1.55965535153e+18,-0.404438585,-1.093955755,-0.2213024348
568,1.55965535158e+18,-0.2902068198,-0.7023911476,-0.1113466844
569,1.55965535163e+18,-0.1161102131,1.170521617,-0.0991293788
570,1.55965535168e+18,-0.02081523277,1.422809005,-0.007499592844
571,1.55965535174e+18,0.07997753471,0.8223285079,0.05236519873
572,1.55965535179e+18,-0.02753474936,-0.256459564,0.07374548167
573,1.55965535184e+18,-0.1802510619,-1.038977861,0.2130227685
574,1.55965535189e+18,-0.2895959616,-0.4647646248,0.07008029521
575,1.55965535194e+18,-0.2071291357,0.0746294111,0.008382904343
576,1.559655352e+18,0.1062447354,0.4802439213,0.2429551482
577,1.55965535205e+18,0.386631906,0.7410833836,0.3504674435
578,1.5596553521e+18,0.4599356949,0.02087326534,0.6986606717
579,1.55965535215e+18,0.24796547,-0.5637248158,0.6461262107
580,1.5596553522e+18,0.216811344,-0.9638414979,0.5777093172
581,1.55965535226e+18,0.3872427344,-0.550896585,0.2063032389
582,1.55965535231e+18,0.3756363094,0.4942938089,-0.1412790865
583,1.55965535236e+18,0.370138526,1.072783232,-0.1192879304
584,1.55965535241e+18,0.2430785596,-0.5399010181,0.02854145691
585,1.55965535246e+18,0.2015397251,-1.208798409,-0.06553179026
586,1.55965535252e+18,0.2406350821,-0.8062382936,-0.1052380279
587,1.55965535257e+18,0.1422857791,-0.6584088802,-0.2432935834
588,1.55965535262e+18,0.04454734921,-0.04082412273,-0.4503768981
589,1.55965535267e+18,-0.5253899693,0.2536129355,-0.2591760755
590,1.55965535272e+18,-0.7672925591,2.880944252,0.294267863
591,1.55965535278e+18,0.08914051205,0.3989988267,0.7145431638
592,1.55965535283e+18,-0.4581947625,-1.091512322,1.029138684
593,1.55965535288e+18,-0.4209319651,0.1906937957,1.200791836
594,1.55965535293e+18,-0.6671106815,-1.375564694,1.697425246
595,1.55965535298e+18,-0.4111581147,-0.9858326316,1.580749989
596,1.55965535304e+18,-0.3097544909,-1.673056006,1.387716651
597,1.55965535309e+18,-0.5033987761,-2.068285942,1.293032527
598,1.55965535314e+18,-0.546770215,-2.62906003,1.271041393
599,1.55965535319e+18,-0.2608852983,-2.799491405,1.197126746
600,1.55965535324e+18,0.02499966137,-2.858745575,0.769520998
601,1.5596553533e+18,0.3982383013,-1.588145733,0.8037294149
602,1.55965535335e+18,0.1636660695,-1.14221406,0.9924868345
603,1.5596553534e+18,0.3475365043,-2.288197279,0.2716658413
604,1.55965535345e+18,-0.1503186673,-1.459253192,0.3394718766
605,1.5596553535e+18,-0.009208793752,-0.2045360059,0.2399008274
606,1.55965535356e+18,-0.8051661849,-0.8825964332,0.5581616163
607,1.55965535361e+18,-0.9841496944,-0.7219388485,0.1507145017
608,1.55965535366e+18,-0.6982647777,-0.8410575986,0.4640883803
609,1.55965535371e+18,0.03721696511,-1.19169426,0.2973221838
610,1.55965535376e+18,0.1667204052,-1.369456053,0.2906026542
611,1.55965535382e+18,0.1862680763,-1.278437138,0.2539507151
612,1.55965535387e+18,0.1661095321,-0.559448719,0.3138155341
613,1.55965535392e+18,0.04332561791,-0.4244475067,0.281439662
614,1.55965535397e+18,-0.1759750098,0.1552636325,0.2032489181
615,1.55965535402e+18,-0.1997987479,0.5566021204,0.1085648015
616,1.55965535408e+18,-0.1936900914,0.5938648582,-0.01849516667
617,1.55965535413e+18,-0.02814561687,0.664114356,0.004717712291
618,1.55965535418e+18,-0.07334964722,0.07279681414,-0.1284509152
619,1.55965535423e+18,-0.06357580423,-0.08114122599,-0.1089032218
620,1.55965535428e+18,-0.0501367636,-0.4782036543,-0.1730440706
621,1.55965535434e+18,-0.1503186673,-0.4751493335,-0.01849516667
622,1.55965535439e+18,-0.2633287311,-1.454366326,0.2179096788
623,1.55965535444e+18,0.1380097419,-5.147047043,-0.218248114
624,1.55965535449e+18,-0.9187871814,-4.824509621,-2.125980139
625,1.55965535454e+18,-4.233952522,-1.760409832,-5.870584011
626,1.5596553546e+18,-1.985968709,2.559018373,-7.083762646
627,1.55965535465e+18,0.4715421498,3.832672358,-4.642745018
628,1.5596553547e+18,1.838658571,2.430736542,1.976590753
629,1.55965535475e+18,0.7507075667,-1.589978337,2.962527275
630,1.5596553548e+18,-0.1723098159,-0.7897449136,1.981477618
631,1.55965535486e+18,-0.6157979965,1.592018723,1.839146018
632,1.55965535491e+18,-1.097770572,2.197386265,2.836688995
633,1.55965535496e+18,-0.6200740337,1.182739019,2.494604588
634,1.55965535501e+18,-0.2804329395,0.6250189543,2.194058895
635,1.55965535506e+18,-0.2535548806,1.367220163,1.131153226
636,1.55965535512e+18,-0.7752338052,3.084362507,-0.2689499259
637,1.55965535517e+18,-0.873583138,5.219947338,-1.737469912
638,1.55965535522e+18,-0.8699179292,6.758105755,-3.008680344
639,1.55965535527e+18,0.06837109476,7.753205776,-3.042278051
640,1.55965535532e+18,0.4049578607,4.124055386,-2.1516366
641,1.55965535538e+18,0.32249102,0.8046134114,-1.822380304
642,1.55965535543e+18,-0.1362687647,0.007434229832,-0.6250843406
643,1.55965535548e+18,-0.736749351,0.3037038743,0.03281751275
644,1.55965535553e+18,-1.011638641,0.3928901851,0.6510131359
645,1.55965535558e+18,-0.873583138,-0.1868209243,0.9326220155
646,1.55965535564e+18,-0.4557512701,-0.6229786873,1.041966915
647,1.55965535569e+18,0.02927571721,0.007434229832,0.9228482246
648,1.55965535574e+18,0.2278069109,0.5089545846,0.8190010786
649,1.55965535579e+18,0.339595288,0.4081618488,0.5123467445
650,1.55965535584e+18,0.1911550164,0.1595396698,0.2521181405
651,1.5596553559e+18,-0.01653917693,0.2713280022,0.02365453541
652,1.55965535595e+18,-0.1607033759,0.4942938089,-0.4320509434
653,1.559655356e+18,-0.1283275187,0.6457883716,-0.8370545506
654,1.55965535605e+18,-0.1368796229,1.101493955,-1.315362096
655,1.5596553561e+18,0.130068481,1.151584864,-1.183415174
656,1.55965535616e+18,0.1532813609,0.8907453418,-0.6941121221
657,1.55965535621e+18,-0.05258022621,0.6738882065,-0.3508058488
658,1.55965535626e+18,-0.08862127364,0.1180008426,0.02548713051
659,1.55965535631e+18,0.2785087228,-0.1410060227,0.09023884684
660,1.55965535636e+18,0.484981209,-0.06831305474,0.4298799038
661,1.55965535642e+18,0.2705674767,0.1112813205,0.4408755004
662,1.55965535647e+18,-0.01837177202,0.3311928213,0.6180264354
663,1.55965535652e+18,-0.08434522152,-0.1239017919,0.7230952382
664,1.55965535657e+18,-0.119775407,-0.02066557109,0.6088634729
665,1.55965535662e+18,-0.1429882795,0.6036387086,0.3156481385
666,1.55965535668e+18,-0.2401158661,0.3898358643,0.1806468964
667,1.55965535673e+18,-0.2101834565,0.1858068854,0.06397163868
668,1.55965535678e+18,-0.08556694537,0.2896539569,-0.190148294
669,1.55965535683e+18,0.004230241757,0.5938648582,-0.2268002182
670,1.55965535688e+18,-0.1564273238,0.5211718678,-0.1021837071
671,1.55965535694e+18,-0.2010204792,-0.2845593691,0.05236519873
672,1.55965535699e+18,-0.05074762926,-0.5832724571,0.0816867277
673,1.55965535704e+18,0.1752725095,-0.4519364238,-0.006277862005
674,1.55965535709e+18,0.3072193861,-0.2234728336,-0.04109717906
675,1.55965535714e+18,0.3621972799,-0.1074084416,-0.05636881292
676,1.5596553572e+18,0.3939622939,-0.1849883199,0.1055104733
677,1.55965535725e+18,0.3664733171,-0.1636080295,0.187366426
678,1.5596553573e+18,0.3389844,-0.500805676,0.1983619928
679,1.55965535735e+18,0.224141717,-0.4342213571,-0.2384066582
680,1.5596553574e+18,0.3023324907,0.4857417345,-0.3086561561
681,1.55965535746e+18,0.3896862268,-0.3364829123,-0.4528203309
682,1.55965535751e+18,0.4739856124,0.3959445059,-0.2420718521
683,1.55965535756e+18,0.5362938643,0.3751751184,-0.2805563807
684,1.55965535761e+18,0.5491220951,0.001936442801,-0.4015076756
685,1.55965535766e+18,0.2730109692,-0.1636080295,-0.4515986443
686,1.55965535772e+18,0.2669022679,-1.527059317,0.008382904343
687,1.55965535777e+18,0.4690986872,0.3165320456,0.008993769065
688,1.55965535782e+18,0.5564524531,0.810111165,-0.09485332668
689,1.55965535787e+18,-0.3549585342,0.7795678973,1.426201224
690,1.55965535792e+18,-0.976208508,-3.886220932,0.1586557478
691,1.55965535798e+18,-1.114264011,-0.6504676342,0.294267863
692,1.55965535803e+18,-0.4630816579,0.1289964169,0.3003765047
693,1.55965535808e+18,-0.6848257184,-0.9870544076,0.9442284703
694,1.55965535813e+18,-0.2529440224,-1.021262765,1.196515799
695,1.55965535818e+18,0.03966042772,-1.765907645,1.920391083
696,1.55965535824e+18,0.03538436815,-2.677318573,2.306457996
697,1.55965535829e+18,0.4232838154,-2.180074215,2.205054522
698,1.55965535834e+18,0.244300276,-2.585077763,2.187339067
699,1.55965535839e+18,0.1490053087,-3.049946308,1.790276885
700,1.55965535844e+18,-0.1154993474,-3.786039114,1.790276885
701,1.5596553585e+18,-0.1991878748,-3.816582203,1.010812759
702,1.55965535855e+18,-0.4563621581,-2.246047497,0.06030644849
703,1.5596553586e+18,-0.2303420156,-1.670612574,1.055405855
704,1.55965535865e+18,-0.2291202843,-0.9638414979,0.813503325
705,1.5596553587e+18,-0.3983299434,-0.5863267779,0.4573688805
706,1.55965535876e+18,-0.3366325796,0.5065111518,0.5569398999
707,1.55965535881e+18,-0.2767677605,0.6402906775,0.4646992385
708,1.55965535886e+18,-0.529665947,0.5254479647,0.5709897876
709,1.55965535891e+18,-0.3690084219,0.1430463046,0.4408755004
710,1.55965535896e+18,-0.3390760124,0.4057183862,-0.00139094016
711,1.55965535902e+18,-0.3855017722,0.3684555888,-0.05026016012
712,1.55965535907e+18,-0.3702301681,-0.1287887245,-0.08630120754
713,1.55965535912e+18,-0.1716989428,-0.7152193785,-0.1003511101
714,1.55965535917e+18,-0.1472643465,-0.757369101,-0.06308832765
715,1.55965535922e+18,-0.1234406009,-0.8520531654,-0.006277862005
716,1.55965535928e+18,0.0005650503444,-3.217323542,-0.2469587773
717,1.55965535933e+18,0.1172403097,-6.131761551,-1.86025393
718,1.55965535938e+18,-2.986565828,-3.931424856,-4.701388359
719,1.55965535943e+18,-4.632847786,2.494877338,-6.576133728
720,1.55965535948e+18,-1.718409777,3.433166504,-5.141211033
721,1.55965535954e+18,1.769019842,4.063579559,-0.8022353053
722,1.55965535959e+18,1.280938625,-0.3719130754,2.522093534
723,1.55965535964e+18,0.6169281006,-1.316310763,2.49765873
724,1.55965535969e+18,0.3524234295,0.5364435315,2.556301832
725,1.55965535974e+18,-0.3091436028,0.9243429303,2.625940323
726,1.5596553598e+18,-0.09228646755,0.6018061042,2.630827427
727,1.55965535985e+18,-0.14115569,2.219988108,2.791484833
728,1.5596553599e+18,0.06653849781,3.712942839,1.931386709
729,1.55965535995e+18,0.04271475226,4.381229401,0.7285929918
730,1.55965536e+18,-0.01226312015,5.182684422,-1.044748783
731,1.55965536006e+18,0.2473546118,5.822871685,-2.665374279
732,1.55965536011e+18,0.6792363524,7.682956219,-3.548074484
733,1.55965536016e+18,0.851500392,6.024456978,-2.914607286
734,1.55965536021e+18,0.8991478086,1.281088233,-2.416141272
735,1.55965536026e+18,-0.09595166147,0.8632563949,-1.714867949
736,1.55965536032e+18,-0.7226994038,1.226110339,-0.7497008443
737,1.55965536037e+18,-1.17107451,-0.4134519398,0.3584086895
738,1.55965536042e+18,-1.130757332,-0.653521955,0.5099032521
739,1.55965536047e+18,-0.8173834682,-0.7152193785,0.8244988918
740,1.55965536052e+18,-0.5180595517,-0.2271380275,0.4958533645
741,1.55965536058e+18,-0.3952756226,0.5278913975,0.3785672188
742,1.55965536063e+18,-0.05624542013,0.455809325,0.02976318821
743,1.55965536068e+18,0.09769262373,0.5358326435,-0.1724332124
744,1.55965536073e+18,0.005451972596,0.7087075114,-0.104016304
745,1.55965536078e+18,-0.3372434378,1.100883007,-0.07835996151
746,1.55965536084e+18,-0.5980829,0.5346109867,-0.02032776177
747,1.55965536089e+18,-0.4331492484,-0.08908247948,0.2093575746
748,1.55965536094e+18,-0.117331937,-0.5667791367,0.003495981684
749,1.55965536099e+18,0.09891435504,-0.1202366054,0.1684295982
750,1.55965536104e+18,-0.02936734632,0.5663759112,-0.03376679868
751,1.5596553611e+18,-0.1649794281,0.8186632395,-0.02093862742
752,1.55965536115e+18,-0.168644622,0.2646085024,0.2056923807
753,1.5596553612e+18,-0.07334964722,-0.3853521049,0.2331813276
754,1.55965536125e+18,0.08730791509,-0.169716686,0.1165060475
755,1.5596553613e+18,0.1532813609,0.02026239969,0.00227425131
756,1.55965536136e+18,0.1887115538,0.1167791039,-0.02765814587
757,1.55965536141e+18,0.1911550164,-0.05976094678,-0.02154949307
758,1.55965536146e+18,0.1428966522,0.03431230038,-0.05148189142
759,1.55965536151e+18,0.09036224335,0.05141652748,0.01265896019
760,1.55965536156e+18,0.06348416954,0.05569258332,0.03220665082
761,1.55965536161e+18,0.09402743727,-0.01455691922,0.05969558284
762,1.55965536167e+18,0.09708175808,0.09906401485,0.04870000854
763,1.55965536172e+18,0.1038012803,0.1595396698,-0.01055391878
764,1.55965536177e+18,0.1245706975,0.1210551709,-0.02582555078
765,1.55965536182e+18,0.1312902123,0.02820364758,-0.0575905405
766,1.55965536187e+18,0.1526705027,-0.009059132077,-0.104016304
767,1.55965536193e+18,0.1465618461,0.08379238844,-0.1034054309
768,1.55965536198e+18,0.1239598319,0.02026239969,-0.147387743
769,1.55965536203e+18,0.08730791509,-0.0402132608,-0.08752293885
770,1.55965536208e+18,0.09341656417,-0.06648045778,-0.1064597592
771,1.55965536213e+18,0.1019686833,-0.09396939725,-0.05209275335
772,1.55965536219e+18,0.1044121385,-0.1581102461,-0.05453621596
773,1.55965536224e+18,0.1044121385,-0.1208474711,-0.05881227553
774,1.55965536229e+18,0.09769262373,-0.0157786496,-0.0392645821
775,1.55965536234e+18,0.08119926602,0.0001038470946,-0.0001692096703
776,1.55965536239e+18,0.05493205786,-0.007226535585,0.002885116497
777,1.55965536245e+18,0.02072360367,0.07646200806,-0.02399295382
778,1.5596553625e+18,-0.05929974467,0.1082269996,0.005328577477
779,1.55965536255e+18,-0.1765858829,0.06424469501,0.005939442664
780,1.5596553626e+18,-0.247446239,0.009877691045,-0.0001692096703
781,1.55965536265e+18,-0.1997987479,0.006823364645,0.06397163868
782,1.55965536271e+18,-0.1381013691,-0.0823629573,0.06336077303
783,1.55965536276e+18,-0.06052147225,-0.09946718812,0.04503481835
784,1.55965536281e+18,-0.003711006371,-0.1287887245,-0.0081104571
785,1.55965536286e+18,0.006673702504,-0.1587211192,-0.04537323862
786,1.55965536291e+18,0.0115606254,-0.1214583367,-0.06186660007
787,1.55965536297e+18,0.02683225647,-0.01455691922,-0.05697967857
788,1.55965536302e+18,0.0421038866,0.0379774943,-0.04292977601
789,1.55965536307e+18,0.0482125394,0.08929017931,-0.04964929447
790,1.55965536312e+18,0.09830348939,0.1167791039,-0.05270362273
791,1.55965536317e+18,0.1257924289,0.1479332447,-0.04476236925
792,1.55965536323e+18,0.1325119436,0.0453078784,-0.0081104571
793,1.55965536328e+18,0.1490053087,0.02942537889,0.02060020901
794,1.55965536333e+18,0.1679421216,-0.02860681899,0.05358693376
795,1.55965536338e+18,0.1807702929,-0.06403700262,0.07130202651
796,1.55965536343e+18,0.1716073155,-0.04632190987,0.03465010971
797,1.55965536349e+18,0.1062447354,-0.04998710379,0.04992173985
798,1.55965536354e+18,0.03538436815,-0.07564344257,0.03953703493
799,1.55965536359e+18,0.07203628868,-0.1391734332,0.09084970504
800,1.55965536364e+18,0.02133446932,-0.1458929479,0.0517543368
801,1.55965536369e+18,-0.02325869352,-0.1330647767,-0.01421911083
802,1.55965536375e+18,-0.02753474936,-0.1568885148,-0.05575794727
803,1.5596553638e+18,-0.02203696407,-0.02555249445,-0.09974024445
804,1.55965536385e+18,0.02133446932,0.06974248588,-0.1699897498
805,1.5596553639e+18,0.0421038866,0.1693135202,-0.1950352192
806,1.55965536395e+18,0.0359952338,0.1943589896,-0.1883157045
807,1.55965536401e+18,0.01400408521,0.1192225739,-0.1394464821
808,1.55965536406e+18,-0.03303254023,0.07768373191,-0.1125684157
809,1.55965536411e+18,-0.068462722,0.04347528145,-0.07530563325
810,1.55965536416e+18,-0.1069472358,0.02392759174,-0.04598410428
811,1.55965536421e+18,-0.0611323379,-0.01822211035,-0.104016304
812,1.55965536427e+18,0.01583668217,0.1595396698,-0.2726151049
813,1.55965536432e+18,-0.0428063795,0.1289964169,-0.3068235815
814,1.55965536437e+18,-0.06663012505,0.008045095019,-0.09668592364
815,1.55965536442e+18,0.02744312026,-0.6089287996,0.1641535312
816,1.55965536447e+18,0.1990962476,-0.7592016459,0.2765527368
817,1.55965536453e+18,0.1923767328,-0.6755131483,0.006550308317
818,1.55965536458e+18,0.173439905,0.0563034527,-0.06308832765
819,1.55965536463e+18,0.1392314583,0.1894720793,-0.0081104571
820,1.55965536468e+18,0.1709964573,-0.2534052134,0.04931087419
821,1.55965536473e+18,0.1752725095,-1.029814959,0.2539507151
822,1.55965536479e+18,0.2015397251,-1.232622147,0.183090359
823,1.55965536484e+18,0.2204765379,-1.032258391,0.00227425131
824,1.55965536489e+18,0.2149787396,-0.5050817132,-0.2799454927
825,1.55965536494e+18,0.1764942408,-0.2454639673,-0.3391994238
826,1.55965536499e+18,0.1887115538,0.1668700576,-0.3697426617
827,1.55965536505e+18,0.2485763431,0.2566672266,-0.5077981949
828,1.5596553651e+18,0.2100918293,0.196191594,-0.6403559446
829,1.55965536515e+18,0.1367879957,0.125331223,-0.6763970256
830,1.5596553652e+18,0.02011273801,0.1399919838,-0.7839093208
831,1.55965536525e+18,-0.05685628206,0.05324912444,-0.6818948388
832,1.55965536531e+18,-0.172920689,0.2035219669,-0.6513515711
833,1.55965536536e+18,-0.2321746051,0.2499477416,-0.5310111046
834,1.55965536541e+18,-0.2889850736,0.1748113036,-0.4063946009
835,1.55965536546e+18,-0.259052664,0.263386786,-0.3330907524
836,1.55965536551e+18,-0.1387122124,0.2615541816,-0.3117104769
837,1.55965536557e+18,-0.0928973332,0.01659720764,-0.2225241512
838,1.55965536562e+18,-0.06357580423,0.04103181884,-0.07652736455
839,1.55965536567e+18,-0.05746714771,0.04958393052,-0.02826900966
840,1.55965536572e+18,-0.0794582963,-0.1642189026,0.05908472091
841,1.55965536577e+18,-0.1051146388,-0.2222511023,0.1354428679
842,1.55965536583e+18,-0.03181080893,-0.2472965717,0.2020271868
843,1.55965536588e+18,0.1178511828,-0.2857810855,0.222796604
844,1.55965536593e+18,0.197263658,-0.1098518968,0.1861446798
845,1.55965536598e+18,0.1667204052,-0.1385625601,0.2741092741
846,1.55965536603e+18,0.1141859889,-0.201481685,0.289991796
847,1.55965536609e+18,0.09036224335,-0.173992753,0.2399008274
848,1.55965536614e+18,0.03782783076,-0.0200547073,0.1116191298
849,1.55965536619e+18,0.005451972596,0.1118921861,-0.0081104571
850,1.55965536624e+18,-0.01287398487,0.3049255908,-0.03071247041
851,1.55965536629e+18,0.08181012422,0.6830512285,-0.002612670651
852,1.55965536635e+18,0.1514487565,0.7496355176,0.06641510129
853,1.5596553664e+18,0.08425358683,0.1509875655,0.1293342263
854,1.55965536645e+18,0.04332561791,-0.3389263749,0.2130227685
855,1.5596553665e+18,0.04637994245,-0.1471146643,0.2221857458
856,1.55965536655e+18,-0.02264782973,-0.07625430822,0.1097865403
857,1.55965536661e+18,-0.1063363627,-0.1807122678,0.005939442664
858,1.55965536666e+18,-0.1344361752,-0.07747603953,-0.08507947624
859,1.55965536671e+18,-0.1191645339,0.07707286626,-0.182817921
860,1.55965536676e+18,-0.0794582963,-0.09396939725,0.02121107467
861,1.55965536681e+18,0.04027128965,-0.1067975685,0.1012344211
862,1.55965536687e+18,0.2186439335,-0.006004805677,0.1134517267
863,1.55965536692e+18,0.3047759533,0.03125797585,0.1183386445
864,1.55965536697e+18,0.3066085577,0.05813604221,0.08718451858
865,1.55965536702e+18,0.2809522152,-0.3670261502,0.0920714438
866,1.55965536707e+18,0.2772870064,-0.9504024386,0.1073430702
867,1.55965536713e+18,0.3243236244,-0.6095396876,0.1690404713
868,1.55965536718e+18,0.3151606321,-0.2790615857,0.124447301
869,1.55965536723e+18,0.2675131559,-0.4085650146,0.03281751275
870,1.55965536728e+18,0.2271960676,-0.01700037904,-0.1718223393
871,1.55965536733e+18,0.3359300792,0.3770076931,-0.3850143254
872,1.55965536739e+18,0.523465693,0.2065762877,-0.06736438721
873,1.55965536744e+18,0.5271309018,0.3959445059,0.04992173985
874,1.55965536749e+18,0.3878535926,-0.09152594209,0.2130227685
875,1.55965536754e+18,0.1917658746,0.1406028569,0.07741067559
876,1.55965536759e+18,-0.0006566801458,0.06241210178,0.1128408611
877,1.55965536765e+18,-0.06357580423,-0.3083830774,0.155601427
878,1.5596553677e+18,-0.06052147225,-0.2491291612,0.206914112
879,1.55965536775e+18,0.04515821487,-0.2515726388,0.3730694652
880,1.5596553678e+18,0.169774726,-0.5032491088,0.4488167465
881,1.55965536785e+18,0.4605465829,0.03431230038,0.4048344493
882,1.55965536791e+18,0.8405047655,0.6940467358,0.4549253881
883,1.55965536796e+18,0.5986021161,0.6598383188,0.1843120903
884,1.55965536801e+18,-0.2407267094,-0.2045360059,-0.006888727192
885,1.55965536806e+18,-1.131979108,0.5901996493,0.6467370391
886,1.55965536811e+18,-1.185735226,-3.210603714,0.6332980394
887,1.55965536817e+18,-0.9377239347,-0.1403951496,1.092057824
888,1.55965536822e+18,-0.7239211202,-0.4818688333,1.227059126
889,1.55965536827e+18,-0.6915453076,-0.6944499612,1.415205598
890,1.55965536832e+18,-0.5974720716,-0.445216924,1.462853074
891,1.55965536837e+18,-0.4869054258,-0.7500386834,1.516609311
892,1.55965536843e+18,-0.1075581014,-1.036534429,1.74873805
893,1.55965536848e+18,-0.04891503602,-1.874030709,1.811657071
894,1.55965536853e+18,0.02133446932,-2.384714127,1.892902255
895,1.55965536858e+18,-0.2437810451,-3.451284647,1.63328445
896,1.55965536863e+18,-0.4099363983,-4.136675835,1.418259859
897,1.55965536869e+18,-0.5852547288,-3.949139833,0.7206518054
898,1.55965536874e+18,-0.3323565125,-2.836754322,0.9094091058
899,1.55965536879e+18,-0.4899597466,-1.040199757,0.572822392
900,1.55965536884e+18,-0.2932611406,-1.092734098,0.3003765047
901,1.55965536889e+18,-0.1784184724,-0.6504676342,0.2582267821
902,1.55965536894e+18,-0.2346180677,-0.5331815481,0.3156481385
903,1.559655369e+18,-0.4215428531,-0.4818688333,0.4408755004
904,1.55965536905e+18,-0.4942358136,0.1015074775,0.4127756953
905,1.5596553691e+18,-0.3335782588,0.1100595966,0.2637245655
906,1.55965536915e+18,-0.1979661584,-0.1520016044,0.02060020901
907,1.5596553692e+18,-0.1063363627,0.1790873557,-0.1394464821
908,1.55965536926e+18,-0.3115870953,0.3757859766,-0.2420718521
909,1.55965536931e+18,-0.3121979535,0.1882503331,-0.1577724516
910,1.55965536936e+18,-0.2840981483,-0.2876136899,-0.1015728414
911,1.55965536941e+18,-0.1429882795,-0.1978164911,-0.1504420638
912,1.55965536946e+18,-0.04708243906,0.04469700903,-0.1651028246
913,1.55965536952e+18,0.076923199,-0.4946970046,-0.1455551386
914,1.55965536957e+18,-0.08556694537,-1.034701943,0.1659861356
915,1.55965536962e+18,0.16183348,-5.753635883,-0.6708992124
916,1.55965536967e+18,-0.6066350341,-5.392004013,-1.97631824
917,1.55965536972e+18,-4.381171227,-1.130607724,-5.155871868
918,1.55965536978e+18,-3.71410656,3.210200787,-7.512589931
919,1.55965536983e+18,0.01766927727,4.2132411,-4.512630939
920,1.55965536988e+18,2.49778223,3.078864813,1.952767015
921,1.55965536993e+18,1.228404164,-1.04264307,3.612487793
922,1.55965536998e+18,0.7580379844,-1.913126111,3.41151309
923,1.55965537004e+18,0.7403228879,1.04346168,2.684583426
924,1.55965537009e+18,0.1911550164,0.6470101476,2.47444582
925,1.55965537014e+18,0.0359952338,0.2902648449,2.031568527
926,1.55965537019e+18,-0.235839799,1.781386852,1.753624916
927,1.55965537024e+18,-0.1338253021,2.77831912,0.8550421
928,1.5596553703e+18,-0.6151871085,5.16558075,0.05480866134
929,1.55965537035e+18,-0.5150051713,6.034231186,-0.9470103383
930,1.5596553704e+18,-0.4893488884,6.456338406,-1.89690578
931,1.55965537045e+18,0.05248859897,7.723883629,-2.59207058
932,1.5596553705e+18,1.195417523,5.262097359,-1.108889699
933,1.55965537056e+18,1.50818038,2.22243166,-1.908512235
934,1.55965537061e+18,0.6804580688,0.9799317122,-1.620794654
935,1.55965537066e+18,-0.3164739907,-0.5111903548,-0.4748114944
936,1.55965537071e+18,-0.9206197262,-0.5789964199,0.5948135257
937,1.55965537076e+18,-0.5162269473,-0.240577057,1.040745139
938,1.55965537082e+18,-0.1649794281,-0.6632958651,0.9277350903
939,1.55965537087e+18,0.07570147514,-0.6730696559,0.7310364842
940,1.55965537092e+18,0.2559067309,-0.2265271544,0.5856505632
941,1.55965537097e+18,0.2278069109,0.5871453285,0.2924352288
942,1.55965537102e+18,0.2626262605,0.7032096982,0.2001945972
943,1.55965537108e+18,-0.01287398487,0.6763316393,-0.1229531243
944,1.55965537113e+18,-0.2517222762,1.077670217,-0.2860541344
945,1.55965537118e+18,-0.3702301681,1.094163418,-0.3159865439
946,1.55965537123e+18,-0.4117689729,0.8388218284,-0.2842215598
947,1.55965537128e+18,-0.3848909438,0.6268515587,-0.1449442804
948,1.55965537134e+18,-0.3763388097,0.5315566659,-0.05697967857
949,1.55965537139e+18,-0.3366325796,0.06668815762,0.0810758695
950,1.55965537144e+18,-0.1949118376,-0.1574993879,0.1617100835
951,1.55965537149e+18,-0.06174320728,0.1980241835,0.1446058452
952,1.55965537154e+18,-0.002489275998,0.1271638125,0.1287233531
953,1.5596553716e+18,0.006673702504,-0.02616335824,0.1891990155
954,1.55965537165e+18,-0.02814561687,0.08806844056,0.2179096788
955,1.5596553717e+18,-0.05441282317,0.2334543765,0.1409406513
956,1.55965537175e+18,-0.03364340216,0.2224587947,0.02548713051
957,1.5596553718e+18,0.003008511383,0.3311928213,-0.06858611852
958,1.55965537186e+18,-0.007987063378,0.3678447306,-0.1534963846
959,1.55965537191e+18,-0.04524984211,0.4234334826,-0.1021837071
960,1.55965537196e+18,-0.04708243906,0.2285674512,0.01021549944
961,1.55965537201e+18,-0.03853032738,-0.193540439,0.1177277863
962,1.55965537206e+18,0.001786780776,-0.6132048368,0.1659861356
963,1.55965537212e+18,-0.03975205496,-1.12205565,0.1207821146
964,1.55965537217e+18,-0.06540839374,-1.064634323,-0.1730440706
965,1.55965537222e+18,-0.2908176482,-1.404886246,-0.5102416873
966,1.55965537227e+18,-0.3085327744,-0.2741746604,-0.7606964111
967,1.55965537232e+18,-0.06663012505,3.683621407,-1.056355238
968,1.55965537238e+18,0.5931043029,4.277382374,0.2808288038
969,1.55965537243e+18,0.3939622939,-0.5918245912,-0.3868469298
970,1.55965537248e+18,0.03843869269,-2.935103655,0.163542673
971,1.55965537253e+18,-0.133214429,-0.8777095079,0.3022090793
972,1.55965537258e+18,-0.05929974467,0.5071219802,0.1867555529
973,1.55965537264e+18,0.02866485156,0.4955155551,0.1061213464
974,1.55965537269e+18,-0.0116522545,0.1406028569,0.08596279472
975,1.55965537274e+18,-0.1668120325,-0.1593319923,0.005328577477
976,1.55965537279e+18,-0.2908176482,0.1632048637,-0.08935553581
977,1.55965537284e+18,-0.3836691976,-0.1355082393,-0.1394464821
978,1.5596553729e+18,-0.2584418058,-0.3908499181,-0.04415150732
979,1.55965537295e+18,-0.1833053827,-0.01822211035,0.06458250433
980,1.559655373e+18,-0.05991061032,-0.1917078346,0.1843120903
981,1.55965537305e+18,0.004841106944,-0.2417987883,0.2142444849
982,1.5596553731e+18,0.03660609946,-0.1318430454,0.1916424781
983,1.55965537316e+18,0.02133446932,-0.3157134652,0.1250581592
984,1.55965537321e+18,0.01339322049,0.08806844056,0.01815674827
985,1.55965537326e+18,-0.003100140952,-0.2931114733,0.01021549944
986,1.55965537331e+18,0.08791878074,-0.2149207145,-0.09302072972
987,1.55965537336e+18,0.1233489588,-0.6339743137,-0.4241096675
988,1.55965537342e+18,0.1025795415,-0.6694045067,-0.6311929822
989,1.55965537347e+18,0.2186439335,-0.3755782843,-0.6892251968
990,1.55965537352e+18,0.134344548,0.6671686769,-0.531621933
991,1.55965537357e+18,-0.1301601082,0.596919179,-0.3184300065
992,1.55965537362e+18,-0.3219718039,0.7001553774,0.01998934336
993,1.55965537368e+18,-0.2877633274,0.07646200806,0.7560819983
994,1.55965537373e+18,-0.4508643746,-0.9265787601,0.7194300294
995,1.55965537378e+18,-0.3152522743,-0.2063686103,0.8580964208
996,1.55965537383e+18,-0.1393230855,0.2804909945,1.137872815
997,1.55965537388e+18,0.1551139504,0.2096306235,1.034025669
998,1.55965537394e+18,0.1453401148,0.1277746856,1.089614391
999,1.55965537399e+18,0.3933514059,0.08134892583,0.813503325
1000,1.55965537404e+18,0.02316706441,-0.5618921518,0.4451515377
1001,1.55965537409e+18,0.03294090554,-0.6944499612,0.2527289987
1002,1.55965537414e+18,0.01766927727,-1.159929156,0.03098491952
1003,1.5596553742e+18,0.04576907679,-0.8404467106,0.1012344211
1004,1.55965537425e+18,0.02011273801,-0.7824145555,0.2447877526
1005,1.5596553743e+18,-0.1191645339,-1.12511003,0.5361704826
1006,1.55965537435e+18,-0.3134196699,-1.709707975,0.5569398999
1007,1.5596553744e+18,-0.192468375,-0.5130229592,0.7285929918
1008,1.55965537446e+18,-0.2773786187,-1.710318804,0.4836360812
1009,1.55965537451e+18,-0.2932611406,-2.156250477,0.5392248034
1010,1.55965537456e+18,-0.6005263925,-2.779943943,0.529450953
1011,1.55965537461e+18,-0.639621675,-3.482439041,0.3681825399
1012,1.55965537466e+18,-0.4740772545,-3.39386344,0.01326982584
1013,1.55965537472e+18,0.08364272118,-2.914945126,0.1299450845
1014,1.55965537477e+18,0.4513836205,-2.664490223,0.1085648015
1015,1.55965537482e+18,0.6737385392,-2.201454639,0.6094743013
1016,1.55965537487e+18,0.07142541558,-2.37066412,0.3125938177
1017,1.55965537492e+18,-0.1594816446,-0.9852218032,0.02487626486
1018,1.55965537498e+18,-0.4258188903,-0.1782688051,0.04625654966
1019,1.55965537503e+18,-0.4746881127,-0.5832724571,0.1220038384
1020,1.55965537508e+18,-0.4435339868,-0.7824145555,0.136053741
1021,1.55965537513e+18,-0.5461593866,-0.70483464,0.238679111
1022,1.55965537518e+18,-0.5241681933,-0.3224330246,0.2838831246
1023,1.55965537524e+18,-0.6041915417,-0.2198076546,0.4109431207
1024,1.55965537529e+18,-0.4979009926,0.7105401158,0.5709897876
1025,1.55965537534e+18,-0.4184885025,-0.2222511023,0.3498565555
1026,1.55965537539e+18,-0.2773786187,0.2059654444,0.3150372505
1027,1.55965537544e+18,-0.2767677605,0.3623469174,0.2295161337
1028,1.5596553755e+18,-0.3213609457,0.09051190317,-0.05820140988
1029,1.55965537555e+18,-0.2016313523,-0.1849883199,-0.2292436808
1030,1.5596553756e+18,-0.2022422254,-0.2338575423,-0.2713933587
1031,1.55965537565e+18,-0.2645504773,-0.3896281719,-0.1211205274
1032,1.5596553757e+18,-0.3818365932,-0.406121552,0.007772038691
1033,1.55965537576e+18,-0.4893488884,-1.657784462,-0.002612670651
1034,1.55965537581e+18,0.02866485156,-7.570960045,-1.373394251
1035,1.55965537586e+18,-1.924882174,-4.680345535,-2.948815584
1036,1.55965537591e+18,-5.610843182,1.352559447,-5.356235981
1037,1.55965537596e+18,-3.542453289,2.582231283,-7.412408352
1038,1.55965537602e+18,-1.236436963,6.102036476,-5.731917858
1039,1.55965537607e+18,2.194182158,0.3446318507,2.804924011
1040,1.55965537612e+18,0.1929876059,-4.219142437,4.440821171
1041,1.55965537617e+18,-0.4716337919,1.214503884,0.5514420867
1042,1.55965537622e+18,-1.577910781,4.001271248,0.8697028756
1043,1.55965537628e+18,-1.830808997,2.589561462,0.3932279944
1044,1.55965537633e+18,-2.20404768,1.298192501,2.003468752
1045,1.55965537638e+18,-2.769708633,0.9066278934,3.27223587
1046,1.55965537643e+18,-2.863171101,1.130204558,3.74565649
1047,1.55965537648e+18,-2.454502344,3.317101955,3.577668428
1048,1.55965537654e+18,-1.638386369,5.646942616,2.979020596
1049,1.55965537659e+18,-0.6805496812,7.591937065,0.6473479867
1050,1.55965537664e+18,1.199693441,11.0304985,-2.273809671
1051,1.55965537669e+18,3.075049877,10.29623699,-2.599400997
1052,1.55965537674e+18,3.301069975,6.38547802,-2.964087486
1053,1.5596553768e+18,1.880808234,0.1986350566,-0.5468935966
1054,1.55965537685e+18,-0.2871524692,-2.91066885,0.5740441084
1055,1.5596553769e+18,-1.623114705,-2.015140533,1.390771031
1056,1.55965537695e+18,-1.268202066,-1.611969471,1.679099321
1057,1.559655377e+18,0.3591429591,-2.246658564,2.068831205
1058,1.55965537706e+18,1.105620265,-2.799491405,1.784779072
1059,1.55965537711e+18,1.15693295,-3.200219154,1.431087971
1060,1.55965537716e+18,1.021931767,-2.121431112,1.06334722
1061,1.55965537721e+18,0.8624958992,0.125331223,0.7401994467
1062,1.55965537726e+18,0.3292105496,0.7783461809,0.5709897876
1063,1.55965537732e+18,0.1276250184,0.7111510038,0.1268907636
1064,1.55965537737e+18,-0.1283275187,0.7557441592,-0.1852613837
1065,1.55965537742e+18,-0.2853198946,1.116154671,-0.7051077485
1066,1.55965537747e+18,-0.5412724018,1.150363207,-0.6806731224
1067,1.55965537752e+18,-0.6799388528,1.61339891,-0.9274626374
1068,1.55965537758e+18,-0.8247138858,0.7801787853,-0.5927084684
1069,1.55965537763e+18,-0.9499412775,-0.4348322153,-0.0081104571
1070,1.55965537768e+18,-0.9108458757,-0.5478422642,0.4384320378
1071,1.55965537773e+18,-0.68421489,-0.02127643675,0.3907845318
1072,1.55965537778e+18,-0.3867235184,-0.1434494853,0.7090453506
1073,1.55965537784e+18,-0.06785185635,-1.361514807,0.8758115172
1074,1.55965537789e+18,0.1514487565,-1.394501448,0.9692739248
1075,1.55965537794e+18,0.08425358683,-0.8129577637,0.8611507416
1076,1.55965537799e+18,-0.2126269192,0.2261239886,0.6125286222
1077,1.55965537804e+18,-0.5876981616,0.3476861715,0.4201060832
1078,1.5596553781e+18,-0.9218415022,-0.3260982037,0.528840065
1079,1.55965537815e+18,-0.743468821,-0.5576161742,0.2606702447
1080,1.5596553782e+18,-0.2761569023,-0.4989730418,0.08046500385
1081,1.55965537825e+18,0.08242098987,0.006823364645,-0.07774908841
1082,1.5596553783e+18,0.2766761482,0.6213538051,-0.1742658019
1083,1.55965537836e+18,0.3689167798,0.4478680789,-0.3446972072
1084,1.55965537841e+18,0.390297085,0.003769038711,-0.2988823354
1085,1.55965537846e+18,0.4037361145,-0.03166114539,-0.2463479042
1086,1.55965537851e+18,0.4275598526,-0.2509617507,-0.1583832949
1087,1.55965537856e+18,0.437333703,-0.3456458747,-0.08874467015
1088,1.55965537862e+18,0.4196186364,-0.2295814753,-0.1534963846
1089,1.55965537867e+18,0.3615863919,-0.02982855029,-0.1883157045
1090,1.55965537872e+18,0.2815630436,0.1161682457,-0.1003511101
1091,1.55965537877e+18,0.181381166,0.2291783094,0.08474105597
1092,1.55965537882e+18,0.01705841348,0.2566672266,0.06152817979
1093,1.55965537888e+18,-0.1148884818,0.2694954276,-0.1101249531
1094,1.55965537893e+18,-0.2828764319,-0.2534052134,-0.5120742917
1095,1.55965537898e+18,-0.2847090065,-0.5875484943,-0.6165322065
1096,1.55965537903e+18,-0.396497339,-0.8990897536,-1.013594627
1097,1.55965537908e+18,-0.4594164789,-0.08663901687,-1.554210424
1098,1.55965537914e+18,-0.6506173015,0.759409368,-2.477227688
1099,1.55965537919e+18,-0.7911163568,1.256042838,-3.759433746
1100,1.55965537924e+18,-0.8613657951,0.353794843,-4.405729294
1101,1.55965537929e+18,-0.3671758473,-1.594865322,-4.05325985
1102,1.55965537934e+18,-0.3109762371,-1.749414206,-3.199881315
1103,1.5596553794e+18,-0.03058907762,-0.2033142895,-1.431426525
1104,1.55965537945e+18,0.1520596296,1.599349022,-0.2939953804
1105,1.5596553795e+18,0.4868137836,3.055041075,-0.241460979
1106,1.55965537955e+18,0.5698914528,2.473497391,-0.4033402801
1107,1.5596553796e+18,0.5033071637,1.013529301,-0.4711463153
1108,1.55965537966e+18,0.4055686891,0.2963735163,-0.2872758806
1109,1.55965537971e+18,0.2216982692,0.3006495237,0.1183386445
1110,1.55965537976e+18,0.01644754596,0.3586817384,0.486079514
1111,1.55965537981e+18,-0.1533729881,-0.07930862904,0.6278002262
1112,1.55965537986e+18,-0.2016313523,-0.5484531522,0.8251097202
1113,1.55965537992e+18,-0.2144595236,-0.6309199333,1.176357269
1114,1.55965537997e+18,-0.247446239,-0.1568885148,1.26554358
1115,1.55965538002e+18,-0.337854296,-0.04082412273,1.063958049
1116,1.55965538007e+18,-0.4930140674,-0.5747203231,0.6870542169
1117,1.55965538012e+18,-0.5993046165,-1.157485843,0.2521181405
1118,1.55965538018e+18,-0.6029697657,-1.412827492,-0.1479986012
1119,1.55965538023e+18,-0.4997335672,-1.227124333,-0.3868469298
1120,1.55965538028e+18,-0.2749351859,-0.5325706005,-0.4076163471
1121,1.55965538033e+18,0.01339322049,0.4551984668,-0.2787237465
1122,1.55965538038e+18,0.2497980595,1.133869767,-0.3642449081
1123,1.55965538044e+18,0.3487582505,1.30185771,-0.4204444885
1124,1.55965538049e+18,0.3945731223,1.313464165,-0.3935664296
1125,1.55965538054e+18,0.3493691087,0.8870801926,-0.2402392626
1126,1.55965538059e+18,0.2956129909,0.4393159449,-0.04231891409
1127,1.55965538064e+18,0.2210873961,0.125331223,0.3162589669
1128,1.5596553807e+18,0.1752725095,0.2468934059,0.5551072955
1129,1.55965538075e+18,0.1606117338,0.4014423192,0.7206518054
1130,1.5596553808e+18,0.1227381006,0.3525730968,0.8196119666
1131,1.55965538085e+18,0.04882340506,0.2377304286,0.9020787477
1132,1.5596553809e+18,-0.02631301992,0.157096222,0.9863781929
1133,1.55965538096e+18,-0.0928973332,-0.01333518792,1.132375002
1134,1.55965538101e+18,-0.1350470334,-0.06159354374,1.244774222
1135,1.55965538106e+18,-0.1539838612,-0.09274767339,1.272873878
1136,1.55965538111e+18,-0.1912466437,-0.1788796633,1.231335044
1137,1.55965538116e+18,-0.1808619201,-0.09519112855,1.141537905
1138,1.55965538122e+18,-0.1655903012,-0.04998710379,0.9906542301
1139,1.55965538127e+18,-0.1289383918,0.006823364645,0.8501552343
1140,1.55965538132e+18,-0.1081689596,0.03858835623,0.6271893978
1141,1.55965538137e+18,-0.08801040798,0.01293201745,0.3901736736
1142,1.55965538142e+18,-0.06052147225,0.06180123612,0.1617100835
1143,1.55965538148e+18,-0.03547599912,0.01232115179,0.0383152999
1144,1.55965538153e+18,-0.03608686477,0.03858835623,-0.07774908841
1145,1.55965538158e+18,-0.01592831127,0.1234986261,-0.08630120754
1146,1.55965538163e+18,0.01583668217,0.1888612062,-0.06675352156
1147,1.55965538168e+18,0.1227381006,0.2694954276,0.03465010971
1148,1.55965538174e+18,0.2045940459,0.1735895723,0.140329808
1149,1.55965538179e+18,0.2394133657,-0.005393940024,0.2570050657
1150,1.55965538184e+18,0.2656805813,-0.1006889194,0.294267863
1151,1.55965538189e+18,0.1428966522,-0.1300104558,0.2191314101
1152,1.55965538194e+18,-0.003100140952,0.1705352515,0.1397189349
1153,1.559655382e+18,-0.004321871791,1.17296505,0.2661680281
1154,1.55965538205e+18,0.4055686891,1.204119205,0.6271893978
1155,1.5596553821e+18,0.2766761482,0.04591874033,0.8428248167
1156,1.55965538215e+18,0.1514487565,-0.4427734613,1.150090098
1157,1.5596553822e+18,-0.02264782973,-1.461696625,1.357173324
1158,1.55965538226e+18,-0.01653917693,-1.144657612,1.224004745
1159,1.55965538231e+18,0.05371032655,-0.4989730418,0.7805166245
1160,1.55965538236e+18,0.07020369172,-0.9687284827,0.4805817306
1161,1.55965538241e+18,0.2314721048,-0.4439951777,0.3309197426
1162,1.55965538246e+18,0.2552958429,-0.02066557109,0.3626847565
1163,1.55965538252e+18,0.6236475706,-0.01638951525,0.2350139171
1164,1.55965538257e+18,0.7830834389,0.4729135334,0.0444239527
1165,1.55965538262e+18,0.8246222734,-0.4507146776,-0.3019366562
1166,1.55965538267e+18,0.6786254644,-1.024317145,-0.4063946009
1167,1.55965538272e+18,0.2247525901,-1.400610089,-0.2597869337
1168,1.55965538278e+18,0.0653167665,-0.6174808741,-0.04598410428
1169,1.55965538283e+18,-0.1045037657,0.2756040692,-0.02704728208
1170,1.55965538288e+18,-0.09595166147,0.7410833836,-0.121731393
1171,1.55965538293e+18,-0.1234406009,-0.1507798582,-0.05697967857
1172,1.55965538298e+18,0.271789223,0.6842729449,0.06763683259
1173,1.55965538304e+18,-0.3189174831,0.7099292874,-0.1663245559
1174,1.55965538309e+18,-0.494846642,-0.4995839298,0.00105252082
1175,1.55965538314e+18,-1.035462379,-0.1440603435,0.9387306571
1176,1.55965538319e+18,-0.7758446932,-2.29736042,0.3736803234
1177,1.55965538324e+18,-0.5797569752,0.3745642304,1.029138684
1178,1.5596553833e+18,-0.8186052442,-0.1012997851,1.176357269
1179,1.55965538335e+18,-0.5162269473,-0.704223752,1.402377486
1180,1.5596553834e+18,-0.3751170635,-0.8386141062,1.480568171
1181,1.55965538345e+18,-0.491181463,-1.495294333,1.337014794
1182,1.5596553835e+18,-0.639621675,-1.88685894,1.181854963
1183,1.55965538356e+18,-0.3879452646,-1.738418698,1.311969399
1184,1.55965538361e+18,-0.2132377923,-1.908239126,1.200181007
1185,1.55965538366e+18,-0.001878410578,-1.742694736,1.15619874
1186,1.55965538371e+18,-0.3054784238,-2.558810472,1.16291821
1187,1.55965538376e+18,-0.2236225009,-2.971755505,0.5789310336
1188,1.55965538382e+18,-0.08129089326,-1.97299087,0.6198589802
1189,1.55965538387e+18,-0.3347999454,-2.214893579,0.7939556241
1190,1.55965538392e+18,-0.3983299434,-2.075005293,-0.01849516667
1191,1.55965538397e+18,0.1001360863,-2.027968645,0.3003765047
1192,1.55965538402e+18,-0.02203696407,-1.831880927,0.1012344211
1193,1.55965538408e+18,-0.1710880846,-1.873419762,0.07802154869
1194,1.55965538413e+18,-0.133214429,-1.34379971,0.3052634299
1195,1.55965538418e+18,-0.09472993016,-0.8325054646,0.3187024593
1196,1.55965538423e+18,-0.02570215613,-0.70483464,0.4256038368
1197,1.55965538428e+18,-0.04524984211,0.03003624268,0.4604232013
1198,1.55965538433e+18,-0.2737134397,-0.1611645818,0.426825583
1199,1.55965538439e+18,-0.4032168984,0.5052893758,0.710877955
1200,1.55965538444e+18,-0.4594164789,0.8950214386,0.3645173311
1201,1.55965538449e+18,-0.3720627427,0.7142053246,0.1397189349
1202,1.55965538454e+18,-0.3665649593,0.5743172169,0.08413019776
1203,1.55965538459e+18,-0.2883742154,0.3861706853,0.214855358
1204,1.55965538465e+18,-0.2920393944,0.06180123612,0.07435635477
1205,1.5596553847e+18,-0.2297311425,0.0453078784,-0.08385775238
1206,1.55965538475e+18,-0.1338253021,-0.5325706005,-0.241460979
1207,1.5596553848e+18,-0.06968445331,-0.7103324533,-0.1559398472
1208,1.55965538485e+18,-0.2217898965,-2.233219385,-0.03071247041
1209,1.55965538491e+18,0.326767087,-6.708418369,-1.036807537
1210,1.55965538496e+18,-2.004905462,-5.181866169,-3.680021524
1211,1.55965538501e+18,-6.894881725,0.2328435034,-7.610939503
1212,1.55965538506e+18,-2.570566654,6.591340065,-9.66222477
1213,1.55965538511e+18,1.506347895,6.616996288,0.4592014551
1214,1.55965538517e+18,1.755580902,-5.585037231,4.927069664
1215,1.55965538522e+18,1.200915337,-2.522769451,3.66685462
1216,1.55965538527e+18,1.365848899,1.877903581,3.03766346
1217,1.55965538532e+18,0.7623140216,4.20591116,3.572781563
1218,1.55965538537e+18,-0.1918575019,3.080697298,3.309498787
1219,1.55965538543e+18,-0.4166559279,1.744124174,2.586234093
1220,1.55965538548e+18,-0.3042567074,2.576122522,0.8892506361
1221,1.55965538553e+18,0.6859558821,7.35919714,-0.642799437
1222,1.55965538558e+18,1.410441995,8.237010956,-1.349570513
1223,1.55965538563e+18,1.418994188,9.811210632,-2.389263153
1224,1.55965538569e+18,1.80567193,5.877849102,-0.7521443367
1225,1.55965538574e+18,1.975492477,4.882749557,-0.7338183522
1226,1.55965538579e+18,0.8533329368,1.746567607,-1.352624893
1227,1.55965538584e+18,-0.8069987893,0.07890546322,-0.9580059052
1228,1.55965538589e+18,-1.670762181,-0.9461264014,0.1299450845
1229,1.55965538595e+18,-1.370827436,-1.473913908,0.537392199
1230,1.559655386e+18,-0.7721794844,-1.442149043,0.8904722929
1231,1.55965538605e+18,-0.479575038,-1.056082129,0.7909013033
1232,1.5596553861e+18,-0.1545947194,-0.4720950127,0.4836360812
1233,1.55965538615e+18,0.06592763215,-0.30410707,0.6082525849
1234,1.55965538621e+18,0.2937803566,-0.2198076546,0.4146082997
1235,1.55965538626e+18,0.4409989119,-0.2173641771,0.1788143069
1236,1.55965538631e+18,0.2943912446,0.223680526,-0.2176372409
1237,1.55965538636e+18,-0.006765332539,1.115543842,-0.5499479175
1238,1.55965538641e+18,-0.05258022621,1.482673883,-1.110722184
1239,1.55965538647e+18,-0.007376197726,1.45090878,-1.510838985
1240,1.55965538652e+18,-0.01287398487,0.998868525,-1.469300151
1241,1.55965538657e+18,-0.1081689596,1.01047492,-1.090563774
1242,1.55965538662e+18,-0.05135849491,0.1662591994,-0.5694956183
1243,1.55965538667e+18,0.1111316606,-0.8349488974,-0.08385775238
1244,1.55965538673e+18,0.3206584454,-0.3102157116,-0.1015728414
1245,1.55965538678e+18,0.3536451757,0.3501296341,-0.1950352192
1246,1.55965538683e+18,0.1349553913,-0.1929295659,0.1293342263
1247,1.55965538688e+18,-0.1423774064,-0.2973875105,0.4488167465
1248,1.55965538693e+18,-0.3671758473,-0.3755782843,0.5703788996
1249,1.55965538699e+18,-0.3824474514,-0.3438133001,0.5410573483
1250,1.55965538704e+18,-0.4313166738,-0.2271380275,0.4384320378
1251,1.55965538709e+18,-0.4569730163,-0.2485183179,0.4329342246
1252,1.55965538714e+18,-0.4746881127,-0.4910317957,0.2496746778
1253,1.55965538719e+18,-0.3653432429,-0.3315959871,-0.131505236
1254,1.55965538725e+18,-0.172920689,0.04775133356,-0.6110345125
1255,1.5596553873e+18,0.1123533919,0.5511043072,-0.7038859725
1256,1.55965538735e+18,0.2381916344,0.1131139174,-0.686781764
1257,1.5596553874e+18,0.3157715201,0.2853779197,-0.0881338045
1258,1.55965538745e+18,0.331043154,-0.2870028019,0.2502855361
1259,1.55965538751e+18,0.4116773605,-0.06892392784,0.2991547585
1260,1.55965538756e+18,0.3854101598,0.06241210178,0.2796070874
1261,1.55965538761e+18,0.1294576079,-0.04754364118,0.06824769825
1262,1.55965538766e+18,-0.02509128861,0.4411485493,0.02915232256
1263,1.55965538771e+18,-0.1582599133,0.4319855571,-0.09851851314
1264,1.55965538777e+18,-0.1808619201,0.08073806018,-0.02460381947
1265,1.55965538782e+18,-0.1607033759,-0.370691359,-0.006277862005
1266,1.55965538787e+18,-0.1295492351,-0.1287887245,0.04747828096
1267,1.55965538792e+18,-0.2456136495,-0.2515726388,0.09023884684
1268,1.55965538797e+18,-0.3958865106,-0.3395372331,-0.03010160662
1269,1.55965538803e+18,-0.4166559279,-0.4708732665,-0.131505236
1270,1.55965538808e+18,-0.2187355608,-0.6113722324,-0.2133611739
1271,1.55965538813e+18,0.09586003423,-0.610761404,0.01326982584
1272,1.55965538818e+18,0.3200475872,-0.2912788689,0.1690404713
1273,1.55965538823e+18,0.4501618743,-0.4800362289,0.4011692405
1274,1.55965538829e+18,0.3957948685,-0.09335853904,0.07374548167
1275,1.55965538834e+18,0.3982383013,0.1980241835,-0.3703535497
1276,1.55965538839e+18,0.4104556143,0.4887960553,0.1904207468
1277,1.55965538844e+18,0.2589610517,0.20413284,0.4769165218
1278,1.55965538849e+18,-0.1313818395,-0.6284765005,0.4066670537
1279,1.55965538855e+18,-0.07212791592,-2.83431077,0.0242653992
1280,1.5596553886e+18,0.05126686394,-0.8367815614,0.2722766995
1281,1.55965538865e+18,0.1868789494,-0.8703791499,0.7719644904
1282,1.5596553887e+18,0.3121063113,-1.948556304,0.97416085
1283,1.55965538875e+18,0.433057636,-2.100661516,1.16963768
1284,1.55965538881e+18,0.1661095321,-3.301012039,1.190407157
1285,1.55965538886e+18,0.6957296729,-1.748192549,1.142148852
1286,1.55965538891e+18,0.08058839291,-4.13850832,1.103053451
1287,1.55965538896e+18,-0.068462722,-3.943642139,0.8764224052
1288,1.55965538901e+18,-0.3525150716,-3.405469894,0.1794251651
1289,1.55965538907e+18,-0.6628345847,-2.85752368,0.2918243706
1290,1.55965538912e+18,-0.9139001966,-2.482452393,0.1220038384
1291,1.55965538917e+18,-0.2034639418,-1.260111213,0.2050815076
1292,1.55965538922e+18,-0.07518224418,-1.297373891,-0.1553289741
1293,1.55965538927e+18,-0.2639396191,-0.5063034296,-0.09302072972
1294,1.55965538933e+18,-0.2303420156,-0.3285416663,0.2533398867
1295,1.55965538938e+18,-0.4710229039,-0.1458929479,0.3015982509
1296,1.55965538943e+18,-0.547381103,0.09234450012,0.2954895496
1297,1.55965538948e+18,-0.3977190852,0.03309056908,0.2863265872
1298,1.55965538953e+18,-0.4038277268,0.1729787141,0.4084996283
1299,1.55965538959e+18,-0.3732844889,0.1809199452,0.2221857458
1300,1.55965538964e+18,-0.1472643465,-0.3022744358,-0.1394464821
1301,1.55965538969e+18,-0.004321871791,-0.3248764575,-0.2176372409
1302,1.55965538974e+18,-0.01776090637,-0.4641537368,0.03403924406
1303,1.55965538979e+18,-0.3335782588,-0.2491291612,0.2851048708
1304,1.55965538985e+18,0.2204765379,-4.136675835,-0.5456718802
1305,1.5596553899e+18,0.5900499821,-5.389560223,-1.319638133
1306,1.55965538995e+18,-3.568720341,-2.911890984,-4.229189396
1307,1.55965539e+18,-5.439800739,1.008031487,-8.001893044
1308,1.55965539005e+18,-0.5064530969,7.687842846,-6.779551983
1309,1.55965539011e+18,2.412261009,3.031217337,4.123782158
1310,1.55965539016e+18,1.80567193,-6.306468964,3.466490984
1311,1.55965539021e+18,2.385383129,-1.156874895,2.429852724
1312,1.55965539026e+18,1.148380876,4.880306244,1.733466268
1313,1.55965539031e+18,-0.1503186673,2.653702497,2.297905684
1314,1.55965539037e+18,-0.5284442902,1.620729327,1.923445463
1315,1.55965539042e+18,-0.4698011875,2.329943895,1.589302182
1316,1.55965539047e+18,-0.7147581577,5.231553555,-0.03987545148
1317,1.55965539052e+18,-0.6567259431,8.59986496,-1.577423215
1318,1.55965539057e+18,-0.1191645339,10.64076519,-2.743564844
1319,1.55965539062e+18,1.564380169,9.12948513,-2.273809671
1320,1.55965539068e+18,1.668227196,3.38857317,-3.060604095
1321,1.55965539073e+18,0.6853449941,0.3159211874,-1.978761673
1322,1.55965539078e+18,0.1923767328,0.2383412868,-1.136989355
1323,1.55965539083e+18,-0.4636925459,0.1949698627,-0.2500130832
1324,1.55965539088e+18,-0.9810953736,-0.6553545594,0.3681825399
1325,1.55965539094e+18,-1.052566648,-1.11228168,0.4488167465
1326,1.55965539099e+18,-0.7019299865,-0.7091107368,0.5007402897
1327,1.55965539104e+18,-0.4093255401,-0.30410707,0.1647644043
1328,1.55965539109e+18,-0.2834872603,0.3489078879,0.002885116497
1329,1.55965539114e+18,-0.3201391995,0.7178704739,-0.01116478443
1330,1.5596553912e+18,-0.3922213018,0.7282552719,0.06763683259
1331,1.55965539125e+18,-0.4142124653,0.4729135334,-0.0636991933
1332,1.5596553913e+18,-0.3103653491,0.7642962933,0.005328577477
1333,1.55965539135e+18,-0.3909995854,0.9225103855,0.08351932466
1334,1.5596553914e+18,-0.4710229039,0.3434101343,0.2038597912
1335,1.55965539146e+18,-0.4667468667,-0.4378865361,0.1488819122
1336,1.55965539151e+18,-0.4789641798,-0.7634777427,0.1574340165
1337,1.55965539156e+18,-0.5351637602,-1.12205565,0.4072779119
1338,1.55965539161e+18,-0.3958865106,-0.9418503642,0.379788965
1339,1.55965539166e+18,-0.1448208839,0.07890546322,0.28205055
1340,1.55965539172e+18,0.1129642576,0.06485556066,0.1439950019
1341,1.55965539177e+18,0.2998889983,0.3910576105,0.07069116086
1342,1.55965539182e+18,0.2155896127,0.357460022,-0.04231891409
1343,1.55965539187e+18,0.09158396721,0.4417594373,-0.01299738046
1344,1.55965539192e+18,-0.09167559445,0.09478796273,-0.02521468513
1345,1.55965539198e+18,-0.2511114478,0.07035334408,0.0230436679
1346,1.55965539203e+18,-0.3372434378,0.2132958174,0.02976318821
1347,1.55965539208e+18,-0.3262478709,-0.02677422389,0.02243280411
1348,1.55965539213e+18,-0.2865416408,0.007434229832,-0.005056131631
1349,1.55965539218e+18,-0.2224007547,0.1283855438,-0.02277122252
1350,1.55965539224e+18,-0.1863597035,-0.1257343888,0.001663386123
1351,1.55965539229e+18,-0.1833053827,-0.1862100512,0.02609799616
1352,1.55965539234e+18,-0.1967444271,-0.2344684154,-0.02093862742
1353,1.55965539239e+18,-0.2602744102,-0.552118361,-0.1895374358
1354,1.55965539244e+18,-0.2443919033,-0.4665971994,-0.2805563807
1355,1.5596553925e+18,-0.1295492351,0.2823235691,-0.3172082901
1356,1.55965539255e+18,0.09524916112,0.1876394749,-0.1767092645
1357,1.5596553926e+18,0.1600008905,0.01537547819,0.1323885471
1358,1.55965539265e+18,0.2314721048,-0.05792835355,0.2637245655
1359,1.5596553927e+18,0.2467437387,-0.216753304,0.4848577976
1360,1.55965539276e+18,0.1764942408,-0.5484531522,0.490355581
1361,1.55965539281e+18,0.07997753471,-0.3395372331,0.470197022
1362,1.55965539286e+18,0.01889100857,0.1143356487,0.3217567801
1363,1.55965539291e+18,0.04515821487,-0.2020925432,0.0932931751
1364,1.55965539296e+18,0.1545030922,-0.1293995827,-0.08996640146
1365,1.55965539302e+18,0.1545030922,0.02881451324,-0.1162336022
1366,1.55965539307e+18,0.1001360863,0.02392759174,-0.4296074808
1367,1.55965539312e+18,-0.1118341535,0.3941119313,-0.7124381065
1368,1.55965539317e+18,-0.1826945245,0.3476861715,-0.8779825568
1369,1.55965539322e+18,-0.04463897645,-0.654743731,-0.4613724649
1370,1.55965539328e+18,0.1881006807,-2.04934907,-0.2151937783
1371,1.55965539333e+18,0.3664733171,-0.9571220279,-0.06553179026
1372,1.55965539338e+18,0.7452097535,0.1619831324,-0.04231891409
1373,1.55965539343e+18,1.206413031,0.4069401026,-0.02704728208
1374,1.55965539348e+18,0.7818617225,0.3727316558,0.09512577206
1375,1.55965539354e+18,1.228404164,-0.5319597721,0.04075876251
1376,1.55965539359e+18,-1.565693498,-2.341953516,0.5404465199
1377,1.55965539364e+18,-0.8540353775,-3.236871004,0.1794251651
1378,1.55965539369e+18,0.08730791509,0.3446318507,0.6632304788
1379,1.55965539374e+18,0.04027128965,-1.515452862,1.234389424
1380,1.5596553938e+18,0.3426496089,-2.25826478,1.462853074
1381,1.55965539385e+18,0.7653683424,-1.626630306,1.468961716
1382,1.5596553939e+18,0.7140556574,-2.580190897,1.419481516
1383,1.55965539395e+18,0.5283526182,-3.632100821,1.18613112
1384,1.559655394e+18,-0.117331937,-3.98945713,0.9039113522
1385,1.55965539406e+18,-0.3244152665,-3.898438215,0.1183386445
1386,1.55965539411e+18,-0.3464064002,-3.163567066,-0.6409668326
1387,1.55965539416e+18,-0.5064530969,-2.335844994,0.2832722664
1388,1.55965539421e+18,-0.7300297618,-1.554548264,0.1482710391
1389,1.55965539426e+18,-0.6903235316,-0.4470494986,0.202638045
1390,1.55965539432e+18,-0.5675396323,-0.8337272406,0.2753310204
1391,1.55965539437e+18,-0.6713867188,-0.5747203231,0.4365994334
1392,1.55965539442e+18,-0.5046204925,-0.1599428356,0.4873012602
1393,1.55965539447e+18,-0.4850728214,-0.3743565381,0.5483877659
1394,1.55965539452e+18,-0.4068820775,-0.1746036112,0.5135684609
1395,1.55965539458e+18,-0.119775407,-0.3120482862,0.3828432858
1396,1.55965539463e+18,-0.2175138444,-0.401845485,0.3162589669
1397,1.55965539468e+18,-0.1020603105,0.1008966118,0.2056923807
1398,1.55965539473e+18,-0.08434522152,0.1057835296,0.0004416555748
1399,1.55965539478e+18,-0.14115569,0.1699243933,-0.1486094594
1400,1.55965539484e+18,-0.04158465192,-0.0701456517,-0.11195755
1401,1.55965539489e+18,-0.09717338532,-0.09641286731,-0.01116478443
1402,1.55965539494e+18,-0.07029531896,-0.3957368433,-0.02887987718
1403,1.55965539499e+18,-0.1545947194,-0.7378213406,-0.04170804471
1404,1.55965539504e+18,0.08975137025,-6.657716274,-1.187080264
1405,1.5596553951e+18,-1.340895057,-5.500126839,-2.6323874
1406,1.55965539515e+18,-6.542412758,-0.9259678125,-5.807664871
1407,1.5596553952e+18,-4.548548222,4.568154335,-7.92370224
1408,1.55965539525e+18,1.494130611,11.26140404,-5.097839832
1409,1.5596553953e+18,2.182575703,-0.7854688764,5.805494308
1410,1.55965539536e+18,1.195417523,-6.996135712,3.269792557
1411,1.55965539541e+18,0.9846689701,-0.09946718812,2.178176165
1412,1.55965539546e+18,0.02255620062,4.392836094,1.749348879
1413,1.55965539551e+18,-0.7147581577,1.412424326,1.877019644
1414,1.55965539556e+18,-0.8558680415,-0.6199243665,1.684597135
1415,1.55965539562e+18,-0.8350986242,1.459460974,2.172678471
1416,1.55965539567e+18,-0.7416362166,3.147892237,1.620456338
1417,1.55965539572e+18,-1.019579887,4.960940361,0.5770984292
1418,1.55965539577e+18,-0.9603260159,4.993927479,-0.533454597
1419,1.55965539582e+18,-0.982927978,4.075797081,-1.33735323
1420,1.55965539588e+18,-1.064783931,2.788092852,-1.420430899
1421,1.55965539593e+18,-0.5510462523,2.515036106,-1.971431375
1422,1.55965539598e+18,-0.2840981483,2.56024003,-1.802221656
1423,1.55965539603e+18,0.03782783076,3.051375628,-1.709370136
1424,1.55965539608e+18,-0.03730859235,2.49060154,-1.011151195
1425,1.55965539614e+18,0.05493205786,1.155860782,-0.5157395005
1426,1.55965539619e+18,-0.03486513346,0.5517151356,-0.02643641457
1427,1.55965539624e+18,-0.2095725983,0.648231864,0.3938388526
1428,1.55965539629e+18,-0.3115870953,0.6274624467,0.6345197558
1429,1.55965539634e+18,-0.404438585,0.5975300074,0.1458275914
1430,1.5596553964e+18,-0.444144845,0.2187936157,-0.08080342412
1431,1.55965539645e+18,-0.4099363983,0.5236153603,-0.3391994238
1432,1.5596553965e+18,-0.2132377923,0.4979590178,-0.304990977
1433,1.55965539655e+18,-0.005543602165,0.3470753133,-0.213972047
1434,1.5596553966e+18,0.09830348939,0.2658302188,-0.04903842881
1435,1.55965539666e+18,0.08058839291,0.1070052609,-0.05087102577
1436,1.55965539671e+18,0.2516306639,0.06668815762,0.04992173985
1437,1.55965539676e+18,0.5106375217,0.2804909945,0.0230436679
1438,1.55965539681e+18,0.5338504314,0.3776185513,0.2270726562
1439,1.55965539686e+18,0.4141208231,0.1008966118,0.4989076853
1440,1.55965539692e+18,0.2772870064,-0.1006889194,0.6186372638
1441,1.55965539697e+18,0.2571284473,0.07768373191,0.486079514
1442,1.55965539702e+18,0.3285996914,0.2267348468,0.3009873629
1443,1.55965539707e+18,0.2901151776,0.2835453153,0.1916424781
1444,1.55965539712e+18,0.2247525901,0.3904467523,0.1226147115
1445,1.55965539718e+18,0.08975137025,0.4136596024,0.001663386123
1446,1.55965539723e+18,-0.07823656499,0.4020531774,-0.05697967857
1447,1.55965539728e+18,-0.1967444271,0.2084088922,-0.03865372017
1448,1.55965539733e+18,-0.3097544909,-0.1574993879,-0.09790764749
1449,1.55965539738e+18,-0.2950937152,-0.3560305834,-0.07835996151
1450,1.55965539744e+18,-0.2547766268,-0.1477255374,0.0517543368
1451,1.55965539749e+18,-0.2578309774,0.003769038711,0.1311668307
1452,1.55965539754e+18,-0.2407267094,-0.02310903184,0.07008029521
1453,1.55965539759e+18,-0.2205681652,0.01048855577,-0.01238651481
1454,1.55965539764e+18,-0.1301601082,-0.01638951525,0.03220665082
1455,1.5596553977e+18,-0.08129089326,0.02820364758,0.07191288471
1456,1.55965539775e+18,-0.04647157341,0.09478796273,0.04136962444
1457,1.5596553978e+18,0.06653849781,0.03858835623,-0.006277862005
1458,1.55965539785e+18,0.1752725095,-0.1239017919,-0.002612670651
1459,1.5596553979e+18,0.1703855842,-0.2949440479,0.06580423564
1460,1.55965539795e+18,0.1508379132,-0.1220691949,0.05297606811
1461,1.55965539801e+18,0.1600008905,-0.1257343888,-0.00322353607
1462,1.55965539806e+18,0.1764942408,0.3006495237,-0.03437766433
1463,1.55965539811e+18,0.244300276,0.6433449984,-0.08874467015
1464,1.55965539816e+18,0.3059976697,-0.3474784791,0.06213904545
1465,1.55965539821e+18,0.07875579596,-3.368206978,0.2289052606
1466,1.55965539827e+18,0.03110831231,-2.286364794,0.1959185302
1467,1.55965539832e+18,-0.1405448169,0.1454897821,-0.0575905405
1468,1.55965539837e+18,-0.07212791592,1.486949801,-0.2322980016
1469,1.55965539842e+18,0.1441183835,1.548036337,-0.2750585675
1470,1.55965539847e+18,0.2632370889,0.6470101476,-0.3202626109
1471,1.55965539853e+18,0.2565175891,0.7545223832,-0.3837925792
1472,1.55965539858e+18,0.1838246286,1.30857718,-0.4063946009
1473,1.55965539863e+18,0.06409504265,1.123484969,-0.3202626109
1474,1.55965539868e+18,-0.1038929075,0.2499477416,-0.3892903626
1475,1.55965539873e+18,-0.2572200894,-0.07564344257,-0.3575253785
1476,1.55965539879e+18,-0.1716989428,0.02698191814,-0.3337016404
1477,1.55965539884e+18,0.07020369172,0.1796982288,-0.3251495063
1478,1.55965539889e+18,0.2491872162,0.3482970297,-0.296438843
1479,1.55965539894e+18,0.2455220222,1.13264811,-0.115622744
1480,1.55965539899e+18,0.2076483667,0.904184401,0.3639064729
1481,1.55965539905e+18,0.1844354868,-0.6284765005,0.1995837241
1482,1.5596553991e+18,0.1960419267,-1.104340553,0.2588376403
1483,1.55965539915e+18,0.2253634632,-0.4904209673,0.2405117005
1484,1.5596553992e+18,0.2070375085,-0.1025215164,0.1256690323
1485,1.55965539925e+18,0.06470590085,-0.04448931664,0.07618895173
1486,1.55965539931e+18,-0.1497077942,-0.2149207145,0.1513253748
1487,1.55965539936e+18,-0.2767677605,-0.3377046287,0.2209639996
1488,1.55965539941e+18,-0.07457137108,-0.3309850991,0.4298799038
1489,1.55965539946e+18,-0.07640396804,-0.1782688051,0.5679354668
1490,1.55965539951e+18,-0.08923213929,-0.1721601635,0.7487515807
1491,1.55965539957e+18,-0.1533729881,-0.6187026501,0.8507660627
1492,1.55965539962e+18,-0.08739954233,-0.5240185261,0.8788658977
1493,1.55965539967e+18,-0.02509128861,-0.8263968229,0.6577326655
1494,1.55965539972e+18,-0.0501367636,-0.5050817132,0.08962798119
1495,1.55965539977e+18,-0.1081689596,0.3580708802,-0.2689499259
1496,1.55965539983e+18,-0.07151705027,1.207173586,0.1513253748
1497,1.55965539988e+18,0.3334866166,0.06057950482,-0.1577724516
1498,1.55965539993e+18,0.3878535926,0.896243155,-0.2109177262
1499,1.55965539998e+18,0.1257924289,1.40814817,0.140329808
1500,1.55965540003e+18,-0.4380362034,-0.1006889194,0.02182194032
1501,1.55965540009e+18,-0.5211138725,-0.7378213406,-0.1339486986
1502,1.55965540014e+18,-1.175350547,-0.6443589926,-0.1437225491
1503,1.55965540019e+18,-1.484448314,-1.808057308,0.4286582172
1504,1.55965540024e+18,-1.235826135,-1.242396116,0.6882759333
1505,1.55965540029e+18,-0.4172667861,-1.006602049,1.128098845
1506,1.55965540035e+18,-0.3018132448,-0.4391082823,1.337625742
1507,1.5596554004e+18,-0.2676047981,-0.1171822846,1.159863949
1508,1.55965540045e+18,-0.3134196699,-0.5313489437,1.12321198
1509,1.5596554005e+18,-0.5608201027,-2.417089939,1.490342021
1510,1.55965540055e+18,-0.5272225142,-3.07560277,1.544708967
1511,1.55965540061e+18,0.01339322049,-2.684648991,1.416427255
1512,1.55965540066e+18,0.6022673249,-3.116530418,0.8342726827
1513,1.55965540071e+18,0.66029948,-3.132413149,0.7603580356
1514,1.55965540076e+18,-0.1185536757,-5.237454414,0.3132046461
1515,1.55965540081e+18,0.3041650653,-3.062163591,0.6888867617
1516,1.55965540087e+18,0.1709964573,-1.601584792,0.3852867782
1517,1.55965540092e+18,0.2155896127,-2.238717318,0.1788143069
1518,1.55965540097e+18,0.1392314583,-1.200246334,0.538613975
1519,1.55965540102e+18,-0.4624707997,-1.454977155,0.6644521356
1520,1.55965540107e+18,-0.6805496812,-0.3395372331,0.8086163998
1521,1.55965540113e+18,-0.5767026544,-0.5197424889,0.7011040449
1522,1.55965540118e+18,-0.6884909868,-0.4195605814,0.4500384927
1523,1.55965540123e+18,-0.6945996284,-0.30410707,0.3217567801
1524,1.55965540128e+18,-0.6732193232,0.4442028701,0.3321414888
1525,1.55965540133e+18,-0.4643034041,0.3818946183,0.2020271868
1526,1.55965540139e+18,-0.4129907191,0.6793859601,0.1079539433
1527,1.55965540144e+18,-0.1888031811,0.2481151372,0.02060020901
1528,1.55965540149e+18,-0.1478752047,-0.01700037904,-0.1351704299
1529,1.55965540154e+18,0.02316706441,-0.4171171188,-0.2347414643
1530,1.55965540159e+18,-0.0550236851,-0.8282294273,-0.162659362
1531,1.55965540165e+18,-0.1814727932,-5.680943012,-1.100948334
1532,1.5596554017e+18,-1.549200058,-3.959524632,-1.818715096
1533,1.55965540175e+18,-5.952927589,-1.826383233,-5.589586258
1534,1.5596554018e+18,-3.576050997,6.560796261,-8.529068947
1535,1.55965540185e+18,0.6450278759,11.10685539,-4.23163271
1536,1.5596554019e+18,1.018266559,-1.756133795,2.946033955
1537,1.55965540196e+18,0.02683225647,-6.045018673,2.406028986
1538,1.55965540201e+18,-0.3409086168,1.911501169,1.060903668
1539,1.55965540206e+18,-1.393429399,4.387337685,0.0242653992
1540,1.55965540211e+18,-2.189386845,1.493669271,0.222796604
1541,1.55965540216e+18,-2.664029121,-1.517285347,1.770118237
1542,1.55965540222e+18,-2.099589586,-2.067064285,2.880671501
1543,1.55965540227e+18,-1.722074986,0.8803606629,4.195864201
1544,1.55965540232e+18,-0.8234921694,2.009850502,3.913033485
1545,1.55965540237e+18,-1.270034671,2.750219345,2.326616526
1546,1.55965540242e+18,-1.630445242,4.433763504,-0.1009619758
1547,1.55965540248e+18,-1.029964566,5.830812454,-1.816271663
1548,1.55965540253e+18,-0.6585585475,7.855831146,-2.757615089
1549,1.55965540258e+18,0.1905441433,6.930370331,-2.066115379
1550,1.55965540263e+18,0.1612226069,3.656132221,-1.463802338
1551,1.55965540268e+18,-0.5644853115,-1.062190771,-0.1003511101
1552,1.55965540274e+18,-0.8534245491,-3.229540825,1.011423588
1553,1.55965540279e+18,-0.58158952,-1.730477452,1.459798694
1554,1.55965540284e+18,0.1551139504,1.014751077,1.614347696
1555,1.55965540289e+18,0.5625610948,1.051402926,1.476902962
1556,1.55965540294e+18,0.6902319193,-0.00417220965,1.159253001
1557,1.559655403e+18,0.6334214211,-0.4727058411,1.065179825
1558,1.55965540305e+18,0.5375156403,-0.05487402529,0.9943193793
1559,1.5596554031e+18,0.4611574411,0.2768258154,0.7823491693
1560,1.55965540315e+18,0.3597538173,0.3018712699,0.6387958527
1561,1.5596554032e+18,0.3243236244,0.1467114985,0.387730211
1562,1.55965540326e+18,0.2320829779,0.2548346519,0.206914112
1563,1.55965540331e+18,0.1013578176,0.3568491638,0.1384972036
1564,1.55965540336e+18,-0.06357580423,0.6848837733,0.2973221838
1565,1.55965540341e+18,-0.2297311425,0.3409666419,0.3626847565
1566,1.55965540346e+18,-0.192468375,0.176643908,0.5154010653
1567,1.55965540352e+18,-0.30670017,0.9664926529,0.03709357232
1568,1.55965540357e+18,-0.259663552,1.564529777,-0.2597869337
1569,1.55965540362e+18,-0.2749351859,1.060565948,-0.4485443234
1570,1.55965540367e+18,-0.357401967,0.9280081987,-0.3679100871
1571,1.55965540372e+18,-0.3861126304,0.8693650961,-0.3789056838
1572,1.55965540378e+18,-0.2871524692,0.3208081126,-0.1070706248
1573,1.55965540383e+18,-0.192468375,0.005601634271,0.1672078669
1574,1.55965540388e+18,-0.1796402037,0.01904067025,0.3871193528
1575,1.55965540393e+18,-0.1246623248,-0.03288287669,0.4720296264
1576,1.55965540398e+18,-0.03791946173,-0.1574993879,0.5337269902
1577,1.55965540404e+18,0.01644754596,-0.07319997996,0.4084996283
1578,1.55965540409e+18,-0.1680337489,-0.2118663937,0.5838180184
1579,1.55965540414e+18,-0.43253842,0.2902648449,0.3663499355
1580,1.55965540419e+18,-0.5907524824,-0.005393940024,0.1946968138
1581,1.55965540424e+18,-0.4594164789,-0.6217569709,0.3541326225
1582,1.5596554043e+18,-0.2382832617,-0.1587211192,0.297933042
1583,1.55965540435e+18,-0.08678868413,0.2261239886,0.1763708442
1584,1.5596554044e+18,-0.03853032738,0.3275276124,0.1354428679
1585,1.55965540445e+18,0.02133446932,0.4778004885,0.05786298588
1586,1.5596554045e+18,0.01522581559,0.2493368685,0.06336077303
1587,1.55965540456e+18,-0.0006566801458,0.07951632887,0.02670885995
1588,1.55965540461e+18,0.01522581559,-0.3694696426,0.008993769065
1589,1.55965540466e+18,0.07509060949,-0.4458277822,-0.06919698417
1590,1.55965540471e+18,0.1441183835,-0.5264619589,-0.1596050411
1591,1.55965540476e+18,0.1832137555,-0.1373408288,-0.2756694257
1592,1.55965540482e+18,0.1514487565,0.2255131155,-0.3062126935
1593,1.55965540487e+18,0.05737552047,0.1338833272,-0.3172082901
1594,1.55965540492e+18,-0.04524984211,0.1479332447,-0.3324798942
1595,1.55965540497e+18,-0.1319927126,0.06180123612,-0.2781128883
1596,1.55965540502e+18,-0.1674228907,-0.03593720123,-0.2652847171
1597,1.55965540508e+18,-0.1564273238,-0.2631790638,-0.2805563807
1598,1.55965540513e+18,-0.1289383918,-0.5551726818,-0.3343124986
1599,1.55965540518e+18,-0.1326035708,-0.299831003,-0.4656485319
1600,1.55965540523e+18,-0.1106124297,-0.005393940024,-0.5120742917
1601,1.55965540528e+18,-0.04341724887,0.4277095199,-0.4094489217
1602,1.55965540534e+18,0.01094975974,0.3232515454,-0.3184300065
1603,1.55965540539e+18,0.0421038866,0.2291783094,-0.2720042467
1604,1.55965540544e+18,0.06409504265,-0.02860681899,-0.1913700253
1605,1.55965540549e+18,0.1062447354,-0.09091507643,-0.08691207319
1606,1.55965540554e+18,0.09769262373,-0.1574993879,-0.05148189142
1607,1.5596554056e+18,0.1056338698,-0.06586959958,-0.03743198887
1608,1.55965540565e+18,0.1007469445,-0.006615670864,-0.03743198887
1609,1.5596554057e+18,0.05065600201,0.04225354642,-0.04781670123
1610,1.55965540575e+18,-0.008597928099,0.1564853489,-0.05636881292
1611,1.5596554058e+18,-0.07762569934,0.1509875655,-0.01421911083
1612,1.55965540586e+18,-0.1069472358,0.05691431463,0.02609799616
1613,1.55965540591e+18,-0.1185536757,-0.08786074817,0.05236519873
1614,1.55965540596e+18,-0.08190175891,-0.09396939725,0.04198049009
1615,1.55965540601e+18,-0.0006566801458,-0.0127243232,0.02487626486
1616,1.55965540606e+18,0.04882340506,0.04286441579,-0.006277862005
1617,1.55965540612e+18,0.06714936346,0.09112276882,-0.01116478443
1618,1.55965540617e+18,0.05615378916,0.1412137151,-0.04170804471
1619,1.55965540622e+18,0.01522581559,0.2902648449,-0.03621025756
1620,1.55965540627e+18,-0.04524984211,0.4277095199,-0.04109717906
1621,1.55965540632e+18,-0.09595166147,0.3275276124,-0.03559939563
1622,1.55965540638e+18,-0.168644622,0.1387702674,0.0230436679
1623,1.55965540643e+18,-0.1955226958,-0.2100338042,-0.04231891409
1624,1.55965540648e+18,-0.1759750098,-0.1031323746,0.005328577477
1625,1.55965540653e+18,-0.1765858829,-0.06892392784,-0.02216035873
1626,1.55965540658e+18,-0.1863597035,-0.0823629573,0.004106846638
1627,1.55965540664e+18,-0.1472643465,0.02392759174,0.01632415131
1628,1.55965540669e+18,-0.1564273238,-0.08053036779,0.07618895173
1629,1.55965540674e+18,-0.149096936,0.003158173291,0.1207821146
1630,1.55965540679e+18,-0.2205681652,-0.1049649715,0.1397189349
1631,1.55965540684e+18,-0.184527114,-0.3761891425,0.2759419084
1632,1.5596554069e+18,-0.1271057874,-0.6089287996,0.3901736736
1633,1.55965540695e+18,-0.1264949143,-0.7598124743,0.4995185435
1634,1.559655407e+18,-0.0806800276,-0.3651935756,0.5447226167
1635,1.55965540705e+18,-0.07640396804,-0.2912788689,0.6516240239
1636,1.5596554071e+18,-0.004321871791,-0.5154664516,0.6949954033
1637,1.55965540716e+18,0.02744312026,-0.2234728336,0.6736151576
1638,1.55965540721e+18,0.189322412,0.1833634228,0.6510131359
1639,1.55965540726e+18,0.08486445248,0.3544057012,0.6937736869
1640,1.55965540731e+18,-0.02875648066,-0.944904685,0.6919410825
1641,1.55965540736e+18,0.06348416954,-1.390836358,0.5917592049
1642,1.55965540742e+18,0.1294576079,-0.8367815614,0.1965294033
1643,1.55965540747e+18,0.1526705027,-1.032258391,-0.2158046365
1644,1.55965540752e+18,0.24796547,-0.2857810855,-0.5041330457
1645,1.55965540757e+18,0.5112484097,0.4295421243,-0.3660774827
1646,1.55965540762e+18,0.2632370889,1.011696696,0.09879095852
1647,1.55965540768e+18,-0.5052313805,0.4912394881,0.6723934412
1648,1.55965540773e+18,-0.8558680415,-2.136702776,0.4659209549
1649,1.55965540778e+18,-0.2731025815,-0.5924354196,0.6699499488
1650,1.55965540783e+18,-0.2639396191,-0.3358720541,0.6644521356
1651,1.55965540788e+18,-0.2175138444,-1.393890619,0.8776441813
1652,1.55965540794e+18,0.1086882055,-1.770183563,0.8825310469
1653,1.55965540799e+18,0.2449111491,-2.517882824,0.9173504114
1654,1.55965540804e+18,0.6413626671,-2.225889206,0.7805166245
1655,1.55965540809e+18,0.472153008,-4.501362324,0.8171685338
1656,1.55965540814e+18,0.3505908549,-3.507484436,0.3602412641
1657,1.5596554082e+18,0.2516306639,-2.988859892,0.3174807131
1658,1.55965540825e+18,-0.2407267094,-3.475719452,0.07679980993
1659,1.5596554083e+18,-0.5284442902,-3.361487627,-0.5743825436
1660,1.55965540835e+18,-0.4453665912,-2.043240309,0.1739273816
1661,1.5596554084e+18,-0.9621585608,-1.941226006,0.05419779569
1662,1.55965540846e+18,-0.9285609722,-1.800116062,-0.1449442804
1663,1.55965540851e+18,-0.2468353659,-1.409162283,0.2130227685
1664,1.55965540856e+18,-0.4600273371,-1.083571076,0.3382501304
1665,1.55965540861e+18,-0.3286913037,-0.4250583351,0.2765527368
1666,1.55965540866e+18,-0.3250261247,-0.3560305834,0.3571869433
1667,1.55965540872e+18,-0.3775605559,0.2255131155,0.5758767128
1668,1.55965540877e+18,-0.3262478709,0.3305819333,0.4433189631
1669,1.55965540882e+18,-0.3274695873,0.405107528,0.3632956147
1670,1.55965540887e+18,-0.168644622,0.2206262052,0.1537688226
1671,1.55965540892e+18,-0.1283275187,0.09112276882,0.07557807863
1672,1.55965540898e+18,-0.1973552853,-0.03288287669,0.0383152999
1673,1.55965540903e+18,-0.2578309774,-0.08663901687,0.1226147115
1674,1.55965540908e+18,-0.3012023866,-0.260735631,0.1293342263
1675,1.55965540913e+18,-0.2303420156,-0.6095396876,0.02793059126
1676,1.55965540918e+18,-0.1784184724,-3.910655499,-0.347751528
1677,1.55965540924e+18,-0.09717338532,-4.589937687,-1.36362052
1678,1.55965540929e+18,-3.441049814,-4.71455431,-4.18520689
1679,1.55965540934e+18,-6.513701916,2.142408133,-6.796655655
1680,1.55965540939e+18,-1.898615003,6.696408749,-9.832655907
1681,1.55965540944e+18,0.4495509863,5.769726276,-0.3789056838
1682,1.5596554095e+18,1.582095265,-7.32783556,4.231294632
1683,1.55965540955e+18,1.175258875,1.111267686,-0.1449442804
1684,1.5596554096e+18,-0.4545295835,6.610276699,1.280204296
1685,1.55965540965e+18,-1.263315201,2.578566074,1.832426548
1686,1.5596554097e+18,-1.307908297,-1.639458537,2.672976971
1687,1.55965540976e+18,-0.6744410396,-1.85692656,2.672976971
1688,1.55965540981e+18,-0.9132893682,0.8937996626,2.259421349
1689,1.55965540986e+18,-0.7526317835,1.922496796,1.493396401
1690,1.55965540991e+18,-0.4404796362,2.79175806,0.4640883803
1691,1.55965540996e+18,-0.7935597301,3.838781118,-0.06858611852
1692,1.55965541002e+18,-0.9810953736,4.618245125,-1.223121405
1693,1.55965541007e+18,-0.7257537246,6.588285446,-2.133921623
1694,1.55965541012e+18,-0.4722446501,6.388532639,-2.313515902
1695,1.55965541017e+18,0.5222439766,4.438040257,-1.427150369
1696,1.55965541022e+18,0.1661095321,1.860188484,-1.612242579
1697,1.55965541028e+18,-0.8595331907,0.690992415,-0.2658956051
1698,1.55965541033e+18,-1.475285411,0.5413304567,0.6607869864
1699,1.55965541038e+18,-1.208337307,-0.6694045067,0.8855853677
1700,1.55965541043e+18,-0.6634454727,-1.081127644,1.03036046
1701,1.55965541048e+18,-0.1668120325,-0.05487402529,0.9039113522
1702,1.55965541054e+18,0.05859724805,1.080113649,0.710267067
1703,1.55965541059e+18,0.1471727192,1.187015057,0.5819853544
1704,1.55965541064e+18,0.1031904146,0.144878909,0.1085648015
1705,1.55965541069e+18,0.02683225647,-0.4727058411,-0.532232821
1706,1.55965541074e+18,0.04882340506,-0.07747603953,-0.9665580392
1707,1.5596554108e+18,0.1135751158,1.383102775,-1.629346848
1708,1.55965541085e+18,0.3573103547,1.646385789,-1.920729518
1709,1.5596554109e+18,0.5588958859,-0.2246945649,-1.395385385
1710,1.55965541095e+18,0.3218801618,-1.358460426,-1.028866291
1711,1.559655411e+18,0.2497980595,-1.659006119,-0.3141539395
1712,1.55965541106e+18,0.4012926519,-1.283934951,0.1158951893
1713,1.55965541111e+18,0.5607284307,-0.3187678158,0.3523000479
1714,1.55965541116e+18,0.5124701262,0.009266825393,0.3834541738
1715,1.55965541121e+18,0.2846173942,0.1289964169,0.5862613916
1716,1.55965541126e+18,-0.02448042482,0.2982060909,0.711488843
1717,1.55965541132e+18,-0.2712699771,0.353794843,0.9204047322
1718,1.55965541137e+18,-0.5284442902,-0.7237715125,0.97416085
1719,1.55965541142e+18,-0.742247045,-1.706042767,0.6986606717
1720,1.55965541147e+18,-0.7306406498,-1.811722398,0.9314002395
1721,1.55965541152e+18,-0.6811605692,-1.428709984,0.8342726827
1722,1.55965541158e+18,-0.4013842642,-0.9088636637,0.3388609886
1723,1.55965541163e+18,0.01217149012,0.04408614337,-0.2316871285
1724,1.55965541168e+18,0.4263381362,0.3971662521,-0.4131141007
1725,1.55965541173e+18,0.6883993149,0.5150632262,-0.5187938213
1726,1.55965541178e+18,0.8276765943,0.4503115118,-0.5413957834
1727,1.55965541184e+18,0.8374504447,0.4264878035,-0.4998570085
1728,1.55965541189e+18,0.7006166577,0.4631397128,-0.3801273704
1729,1.55965541194e+18,0.4886463881,0.2920974493,-0.1651028246
1730,1.55965541199e+18,0.3505908549,0.4216008484,-0.06614265591
1731,1.55965541204e+18,0.185657233,0.4961264431,0.05786298588
1732,1.5596554121e+18,0.2027614415,0.02759278379,-0.3104887307
1733,1.55965541215e+18,0.416564256,0.5285022855,-0.5432283878
1734,1.5596554122e+18,0.4446640909,1.24199295,-0.7069402933
1735,1.55965541225e+18,0.208870098,0.7679615021,-0.6006497145
1736,1.5596554123e+18,-0.04708243906,0.2426173538,-0.5395632386
1737,1.55965541236e+18,-0.1167210788,-0.2753964067,-0.5023004413
1738,1.55965541241e+18,-0.02509128861,-0.2570704222,-0.3636340201
1739,1.55965541246e+18,0.1233489588,0.08440325409,-0.1999221444
1740,1.55965541251e+18,0.1850463599,-0.3377046287,-0.1394464821
1741,1.55965541256e+18,0.291947782,-0.3884064555,-0.4711463153
1742,1.55965541262e+18,0.390297085,-0.1562776417,-0.30071491
1743,1.55965541267e+18,0.1209055036,0.7197031379,-0.4131141007
1744,1.55965541272e+18,-0.1857488602,1.045294285,-0.3575253785
1745,1.55965541277e+18,-0.2669939399,0.5767606497,-0.3709644079
1746,1.55965541282e+18,-0.01837177202,-0.3352611661,-0.1638810933
1747,1.55965541288e+18,0.08181012422,-0.4543798864,-0.2347414643
1748,1.55965541293e+18,0.2571284473,-0.4055106938,-0.08630120754
1749,1.55965541298e+18,0.326767087,0.05752518028,-0.08874467015
1750,1.55965541303e+18,0.3475365043,0.1827525496,-0.3147647977
1751,1.55965541308e+18,0.5784435272,0.4295421243,-0.4430465102
1752,1.55965541314e+18,0.7207751274,1.016583562,-0.5743825436
1753,1.55965541319e+18,1.105009437,-0.08786074817,-0.634247303
1754,1.55965541324e+18,1.426935434,-0.5826616287,-0.8303350806
1755,1.55965541329e+18,1.701824665,-0.6217569709,-0.8785934448
1756,1.55965541334e+18,1.800784945,0.2023002505,-0.7686377168
1757,1.5596554134e+18,1.861871481,0.0001038470946,-0.584156394
1758,1.55965541345e+18,1.757413507,-0.5838832855,-0.4638159275
1759,1.5596554135e+18,1.651122928,-0.6718478799,-0.4063946009
1760,1.55965541355e+18,1.44831562,-0.6681827307,-0.2268002182
1761,1.5596554136e+18,1.114783168,-0.2112555206,0.09879095852
1762,1.55965541366e+18,0.610208571,-0.3529762626,0.214855358
1763,1.55965541371e+18,0.1154077128,0.03981008753,0.3168698549
1764,1.55965541376e+18,-0.1423774064,0.1998567879,0.3810107112
1765,1.55965541381e+18,-0.2908176482,0.2835453153,0.4341559708
1766,1.55965541386e+18,-0.7153690457,1.105769873,0.3174807131
1767,1.55965541392e+18,-0.8228812814,0.004990769085,0.4683644474
1768,1.55965541397e+18,-0.4178776443,-0.1049649715,0.9894325137
1769,1.55965541402e+18,-0.9096241593,-1.292487025,1.049297214
1770,1.55965541407e+18,-1.212002397,-1.36029315,0.9643869996
1771,1.55965541412e+18,-1.035462379,0.02087326534,1.555093765
1772,1.55965541418e+18,-0.8082205057,-0.4287235439,1.770729184
1773,1.55965541423e+18,-0.7361384034,-0.1306213289,1.985142827
1774,1.55965541428e+18,-0.8680853248,0.7985047102,2.072496653
1775,1.55965541433e+18,-0.6872692108,-0.30410707,2.158628702
1776,1.55965541438e+18,-0.545548439,0.1234986261,2.28202343
1777,1.55965541444e+18,-0.6316804886,-0.5392901897,2.210551977
1778,1.55965541449e+18,-0.4545295835,0.5792040825,2.275914907
1779,1.55965541454e+18,-0.6475629807,-0.3651935756,2.175121784
1780,1.55965541459e+18,-0.6261826754,-0.06098267809,1.907562971
1781,1.55965541464e+18,-0.4905706048,-0.593657136,1.597854257
1782,1.5596554147e+18,-0.1020603105,-1.916791201,1.578917503
1783,1.55965541475e+18,0.06226243824,-2.566751957,1.197737575
1784,1.5596554148e+18,-0.007987063378,-3.035285711,1.048075557
1785,1.55965541485e+18,0.1691638678,-2.277201891,0.6039764881
1786,1.5596554149e+18,0.4458858073,-1.737807751,0.5746549964
1787,1.55965541496e+18,0.3939622939,-2.295527935,0.2612811327
1788,1.55965541501e+18,0.2778978646,-1.178866148,0.2625028491
1789,1.55965541506e+18,0.2766761482,-1.151377201,0.3468022346
1790,1.55965541511e+18,0.2247525901,-0.9998825788,0.1525471061
1791,1.55965541516e+18,-0.2718808651,-0.4036780596,0.2136336267
1792,1.55965541522e+18,-0.7446905375,-0.5203533173,0.6296328902
1793,1.55965541527e+18,-1.017136455,-0.5172989964,0.7676883936
1794,1.55965541532e+18,-0.9682672024,-0.2112555206,0.709656179
1795,1.55965541537e+18,-0.8320442438,-0.3407589793,0.7805166245
1796,1.55965541542e+18,-0.6561151147,0.2126849592,0.8354944587
1797,1.55965541548e+18,-0.404438585,0.1344942003,0.7408102751
1798,1.55965541553e+18,-0.3421303332,0.1577070802,0.5795419216
1799,1.55965541558e+18,-0.2077400088,0.5663759112,0.4084996283
1800,1.55965541563e+18,-0.2034639418,0.5456064939,0.1727056652
1801,1.55965541568e+18,-0.212016046,0.1381593943,-0.06125573441
1802,1.55965541574e+18,-0.1527621299,0.06913162023,-0.1608267725
1803,1.55965541579e+18,-0.1497077942,-0.2808941603,-0.1987004131
1804,1.55965541584e+18,-0.08312349021,-0.4158953726,-0.1620484889
1805,1.55965541589e+18,-0.2523331642,-0.944904685,0.02731972747
1806,1.55965541594e+18,-0.05441282317,-5.548385143,-0.7558094859
1807,1.559655416e+18,-0.4203211069,-5.69865799,-1.608577371
1808,1.55965541605e+18,-4.37322998,-3.468389034,-5.158926487
1809,1.5596554161e+18,-5.068394661,3.840613604,-7.306728363
1810,1.55965541615e+18,-1.748952985,8.402555466,-7.434399605
1811,1.5596554162e+18,0.6737385392,3.433166504,0.5422791243
1812,1.55965541626e+18,0.381744951,-7.917931557,4.081632137
1813,1.55965541631e+18,0.09952522069,1.640277028,-0.6403559446
1814,1.55965541636e+18,-1.044625401,5.66710043,0.5514420867
1815,1.55965541641e+18,-1.948705912,0.9231212139,0.3162589669
1816,1.55965541646e+18,-2.064770222,-4.246020317,1.958264828
1817,1.55965541652e+18,-1.358610153,-4.95951128,2.311344862
1818,1.55965541657e+18,-0.2798220813,-2.679761887,2.357770681
1819,1.55965541662e+18,0.618760705,0.7569658756,2.995513916
1820,1.55965541667e+18,0.3176041245,3.339704037,2.552025795
1821,1.55965541672e+18,0.07570147514,2.495488167,1.5966326
1822,1.55965541678e+18,-0.8815243244,2.808862209,0.4769165218
1823,1.55965541683e+18,-0.6585585475,2.754495144,-0.7668051124
1824,1.55965541688e+18,-1.255984783,2.862618446,-1.161424041
1825,1.55965541693e+18,-1.120372653,3.797242165,-1.978761673
1826,1.55965541698e+18,-0.8961851001,3.400179625,-1.590862274
1827,1.55965541704e+18,-0.2914285362,3.923691511,-1.333688021
1828,1.55965541709e+18,-0.2217898965,2.770988464,-0.8651544452
1829,1.55965541714e+18,0.03660609946,2.055054426,-0.01116478443
1830,1.55965541719e+18,-0.2181247175,0.9897055626,-0.09118813276
1831,1.55965541724e+18,-0.3231935501,1.024524927,0.2118010223
1832,1.5596554173e+18,-0.3323565125,0.6531187892,0.529450953
1833,1.55965541735e+18,-0.349460721,0.6164668798,0.2863265872
1834,1.5596554174e+18,-0.2963154614,0.2872105241,0.3657390773
1835,1.55965541745e+18,-0.3665649593,0.1534310281,0.2417334318
1836,1.5596554175e+18,-0.05868887529,0.27865839,0.2649463117
1837,1.55965541756e+18,0.05187772959,0.5901996493,0.3461913764
1838,1.55965541761e+18,0.1587791443,0.3837272227,0.2838831246
1839,1.55965541766e+18,-0.04219551757,0.708096683,0.07496721298
1840,1.55965541771e+18,-0.3714518845,-0.01761124469,0.3229785264
1841,1.55965541776e+18,-0.7532426715,-0.5197424889,0.7011040449
1842,1.55965541782e+18,-1.016525626,-0.6351959705,0.9020787477
1843,1.55965541787e+18,-0.8577006459,-0.1489472687,0.6449044943
1844,1.55965541792e+18,-0.545548439,0.6580057144,0.1940859407
1845,1.55965541797e+18,-0.2627178729,0.9377819896,-0.005056131631
1846,1.55965541802e+18,0.03294090554,0.2004676461,-0.04903842881
1847,1.55965541808e+18,0.3841884136,-0.4623211324,-0.1718223393
1848,1.55965541813e+18,0.6609104276,-0.2411879301,-0.4412139356
1849,1.55965541818e+18,0.8380612731,0.3177537918,-0.5639978051
1850,1.55965541823e+18,0.7433772087,0.5840910077,-0.6403559446
1851,1.55965541828e+18,0.5680588484,0.6158559918,-0.4913048744
1852,1.55965541833e+18,0.4788725376,0.4252660573,-0.4821418822
1853,1.55965541839e+18,0.7238295078,-0.1959839016,-0.5487262011
1854,1.55965541844e+18,1.246730089,-0.1953730285,-1.100948334
1855,1.55965541849e+18,1.641349077,0.306147337,-1.271990657
1856,1.55965541854e+18,1.722594142,0.3208081126,-1.379502892
1857,1.55965541859e+18,1.615081906,0.04408614337,-1.363009572
1858,1.55965541865e+18,1.383563995,-0.2271380275,-1.293981791
1859,1.5596554187e+18,1.252227902,-0.2650116682,-0.9928252697
1860,1.55965541875e+18,1.188698053,0.2768258154,-0.9018063545
1861,1.5596554188e+18,1.155711174,0.6268515587,-0.9085258245
1862,1.55965541885e+18,1.052474976,0.6024169922,-0.9977121353
1863,1.55965541891e+18,0.8380612731,0.6305167675,-1.012983799
1864,1.55965541896e+18,0.6486930251,0.5150632262,-0.9427342415
1865,1.55965541901e+18,0.5265200138,0.4784113467,-0.8743174076
1866,1.55965541906e+18,0.6065434217,0.3586817384,-0.9005845785
1867,1.55965541911e+18,0.6706842184,0.3165320456,-0.8993628621
1868,1.55965541917e+18,0.6248693466,0.3085907996,-0.7484791279
1869,1.55965541922e+18,0.416564256,0.2090197653,-0.5432283878
1870,1.55965541927e+18,0.1325119436,0.03675575927,-0.2878867388
1871,1.55965541932e+18,-0.06540839374,-0.1587211192,0.3339740932
1872,1.55965541937e+18,-0.1295492351,0.05141652748,0.6027547717
1873,1.55965541943e+18,-0.1136667505,0.2023002505,0.5447226167
1874,1.55965541948e+18,0.1612226069,0.005601634271,0.5031837225
1875,1.55965541953e+18,0.3298214078,-0.004783074837,0.4555362463
1876,1.55965541958e+18,0.2943912446,0.2371195704,0.234403044
1877,1.55965541963e+18,0.291947782,0.1033400744,0.07496721298
1878,1.55965541969e+18,0.2687349021,-0.1410060227,-0.07286217809
1879,1.55965541974e+18,0.2485763431,-0.001117883483,-0.3465298116
1880,1.55965541979e+18,0.2455220222,-0.1605537087,-0.583545506
1881,1.55965541984e+18,0.3108845949,-0.1611645818,-0.6311929822
1882,1.55965541989e+18,0.5295743346,0.08684670925,-0.6226408482
1883,1.55965541995e+18,0.7781965137,0.2872105241,-0.6110345125
1884,1.55965542e+18,0.8380612731,0.4191574156,-0.6684558392
1885,1.55965542005e+18,0.6987839937,0.1021183431,-0.4467116892
1886,1.5596554201e+18,0.4690986872,-0.08908247948,-0.2903302014
1887,1.55965542015e+18,0.4367228448,0.06790988892,-0.162659362
1888,1.55965542021e+18,0.4752073288,0.1247203574,-0.166935429
1889,1.55965542026e+18,0.5802761912,0.1454897821,-0.2194698304
1890,1.55965542031e+18,0.6590777636,0.1418245882,-0.1168444753
1891,1.55965542036e+18,0.5692805648,0.3727316558,-0.06431005895
1892,1.55965542041e+18,0.5332395434,-0.08480641991,0.04808914661
1893,1.55965542047e+18,0.437944591,-0.323043853,0.1562123001
1894,1.55965542052e+18,0.3047759533,-0.6773456931,0.2789962292
1895,1.55965542057e+18,0.1233489588,-0.3792434633,0.6638413072
1896,1.55965542062e+18,0.2198656797,-0.406121552,0.7542493939
1897,1.55965542067e+18,0.3957948685,-0.5252402425,0.5758767128
1898,1.55965542073e+18,0.4599356949,1.006198883,0.155601427
1899,1.55965542078e+18,0.5625610948,1.481451988,0.3083177507
1900,1.55965542083e+18,0.3646407425,-0.1666623652,0.0505326055
1901,1.55965542088e+18,0.1832137555,-0.5667791367,0.3058742583
1902,1.55965542093e+18,-0.2938719988,0.5046785474,0.5923700333
1903,1.55965542099e+18,-0.6945996284,0.2615541816,0.5581616163
1904,1.55965542104e+18,-1.244989157,2.015348196,1.046853781
1905,1.55965542109e+18,-2.384863853,0.02392759174,1.305249929
1906,1.55965542114e+18,-1.53209579,-1.740862012,1.406653404
1907,1.55965542119e+18,-1.188789606,0.08806844056,1.781724691
1908,1.55965542125e+18,-1.359831929,-0.5215750933,1.993084073
1909,1.5596554213e+18,-1.202228665,-0.3493110538,2.263086319
1910,1.55965542135e+18,-1.053177476,0.04836220294,2.191004276
1911,1.5596554214e+18,-0.7972249985,0.231621787,2.316842794
1912,1.55965542145e+18,-1.002475739,0.001325577614,2.506211042
1913,1.55965542151e+18,-0.8680853248,-0.2986092567,2.705353022
1914,1.55965542156e+18,-0.9187871814,-0.3749673963,2.81897378
1915,1.55965542161e+18,-0.8271573782,0.4002205729,2.875173569
1916,1.55965542166e+18,-0.5620418787,-0.7072781324,2.713905096
1917,1.55965542171e+18,-0.3818365932,-0.6425263882,2.528202057
1918,1.55965542177e+18,-0.1051146388,-0.6608523726,2.296684027
1919,1.55965542182e+18,-0.1521512568,-1.093344927,2.041953325
1920,1.55965542187e+18,0.1038012803,-2.366998911,1.649166942
1921,1.55965542192e+18,0.1789377034,-1.895411015,1.624732256
1922,1.55965542197e+18,0.0885296464,-1.875863314,1.348621249
