,Time (s),Gyroscope x (rad/s),Gyroscope y (rad/s),Gyroscope z (rad/s)
0,1.55965472005e+18,-1.971918821,0.9151799679,2.079826832
1,1.5596547201e+18,-1.734292269,-1.129996777,2.117089748
2,1.55965472016e+18,-1.014693022,-1.167870522,2.48421979
3,1.55965472021e+18,-0.5339420438,0.1876394749,2.128085136
4,1.55965472026e+18,-0.5339420438,1.21572566,1.154976964
5,1.55965472031e+18,-0.2932611406,0.7087075114,0.6247459054
6,1.55965472036e+18,-0.03730859235,0.3678447306,0.02243280411
7,1.55965472042e+18,0.7433772087,2.361708879,0.1769817024
8,1.55965472047e+18,0.1868789494,-0.791577518,0.9185721278
9,1.55965472052e+18,-0.4056603312,-3.164178133,0.9026896358
10,1.55965472057e+18,-1.511326432,-3.608887911,0.2460094839
11,1.55965472062e+18,-4.698210239,0.9029626846,-1.499232531
12,1.55965472068e+18,-5.90650177,1.988470197,-1.4864043
13,1.55965472073e+18,-4.943778515,0.03492316604,-2.355665445
14,1.55965472078e+18,-2.376311541,2.365374088,0.5722115636
15,1.55965472083e+18,0.7763639092,2.72273016,-0.331869036
16,1.55965472088e+18,1.304762363,1.690367937,0.2118010223
17,1.55965472094e+18,1.953501225,1.057511568,0.8330509663
18,1.55965472099e+18,2.470904112,0.4313747287,1.263710976
19,1.55965472104e+18,2.626674891,0.4344290495,2.12686348
20,1.55965472109e+18,2.602240324,-0.7378213406,1.687040687
21,1.55965472114e+18,2.478845358,-1.22468102,0.6956063509
22,1.5596547212e+18,1.293766737,-1.253391623,-0.05392535031
23,1.55965472125e+18,1.029262066,-0.0402132608,-0.09607505053
24,1.5596547213e+18,0.6523582935,-1.075019002,0.8012859821
25,1.55965472135e+18,-2.299953461,-4.864827156,0.8532095551
26,1.5596547214e+18,-4.315197945,-0.05976094678,-1.347737908
27,1.55965472146e+18,-5.388488293,2.696463108,-2.139419079
28,1.55965472151e+18,-4.947443485,-3.660200596,-1.259773374
29,1.55965472156e+18,-0.8858004212,2.678137064,-0.3092670143
30,1.55965472161e+18,-0.3427412212,3.921247721,2.694357395
31,1.55965472166e+18,0.9290801883,0.07890546322,1.472015977
32,1.55965472172e+18,1.126389623,1.375161529,2.312566757
33,1.55965472177e+18,1.720761538,-0.02555249445,2.917934179
34,1.55965472182e+18,2.499003887,1.234051585,2.909992933
35,1.55965472187e+18,1.63035357,-1.442759871,3.931970358
36,1.55965472192e+18,0.7097796202,-2.905782223,3.688235044
37,1.55965472198e+18,0.3927405477,0.3446318507,3.361422062
38,1.55965472203e+18,0.3762471676,-1.938171625,3.220923424
39,1.55965472208e+18,-1.402592421,-4.167218685,1.687040687
40,1.55965472213e+18,-3.029326677,4.578538895,-0.2432935834
41,1.55965472218e+18,-3.79718399,0.7264226079,-1.1284374
42,1.55965472224e+18,-5.551589489,-1.033480048,-1.882244945
43,1.55965472229e+18,-5.573580265,2.56024003,-3.110084295
44,1.55965472234e+18,-1.417253137,3.262735128,-0.9702231884
45,1.55965472239e+18,1.112950683,3.718440771,0.1849229634
46,1.55965472244e+18,1.32919693,-0.02738508955,1.382829666
47,1.5596547225e+18,1.708544254,-1.26805234,1.688262343
48,1.55965472255e+18,1.819721818,-0.2570704222,1.790276885
49,1.5596547226e+18,1.370124936,-0.3254873455,1.633895278
50,1.55965472265e+18,0.9700081944,-0.3370937705,1.779892087
51,1.5596547227e+18,0.8264548182,-2.528878212,2.147633076
52,1.55965472276e+18,0.2131461501,-3.090263367,1.516609311
53,1.55965472281e+18,1.343246818,-1.789731264,1.067623258
54,1.55965472286e+18,0.4886463881,0.4606962204,1.966206074
55,1.55965472291e+18,-2.367759466,-2.798880577,-0.03071247041
56,1.55965472296e+18,-4.852759361,0.9964250326,-0.9231866002
57,1.55965472302e+18,-6.738500595,0.6586166024,-1.680659533
58,1.55965472307e+18,-6.050665855,0.5932540298,-1.824823737
59,1.55965472312e+18,-1.24071312,3.675679922,0.1476601809
60,1.55965472317e+18,1.207023978,5.167413235,0.2270726562
61,1.55965472322e+18,2.867966652,3.157666206,1.907562971
62,1.55965472327e+18,3.19661212,1.780165195,3.012618065
63,1.55965472333e+18,2.91866827,-1.354795337,4.046813011
64,1.55965472338e+18,2.444026232,-3.600946665,3.621650934
65,1.55965472343e+18,2.181354046,-2.327903509,2.879449368
66,1.55965472348e+18,2.07078743,-1.552104712,1.430477142
67,1.55965472353e+18,0.7366576791,-2.626005888,-0.1449442804
68,1.55965472359e+18,0.6089867949,-1.622965097,-1.633622885
69,1.55965472364e+18,-4.483797073,-3.452506542,-4.031879902
70,1.55965472369e+18,-4.523502827,1.083778858,-5.204130173
71,1.55965472374e+18,-5.827700138,3.273119926,-4.475978851
72,1.55965472379e+18,-5.502109051,2.246866226,-4.625640392
73,1.55965472385e+18,-2.01223588,3.885206699,-3.727058172
74,1.5596547239e+18,2.466627836,5.456352234,-0.009332188405
75,1.55965472395e+18,1.827662945,2.19616437,3.183660507
76,1.559654724e+18,2.502669096,-0.9638414979,2.128085136
77,1.55965472405e+18,3.235707283,-0.5875484943,2.88800168
78,1.55965472411e+18,3.164846897,-1.621132612,2.641823053
79,1.55965472416e+18,2.593077183,-1.222848415,2.101818085
80,1.55965472421e+18,2.18685174,-0.2332466692,1.55020678
81,1.55965472426e+18,1.546054125,-0.7879123092,1.695592642
82,1.55965472431e+18,1.988931417,-2.0395751,1.230724216
83,1.55965472437e+18,-0.5712048411,0.6378471851,0.9912650585
84,1.55965472442e+18,-3.477701664,-2.762839556,-1.06246388
85,1.55965472447e+18,-6.366483212,2.610331059,-2.891394615
86,1.55965472452e+18,-6.968185425,-0.8441119194,-2.847412109
87,1.55965472457e+18,-3.553448915,1.49061501,-3.166894436
88,1.55965472463e+18,0.4709312618,6.340885162,1.622288942
89,1.55965472468e+18,1.216797709,2.838794708,1.289367318
90,1.55965472473e+18,2.134928226,-0.8764877915,2.110370159
91,1.55965472478e+18,2.523438454,0.1827525496,2.875173569
92,1.55965472483e+18,2.564366341,-1.299206495,2.64304471
93,1.55965472489e+18,2.668824434,-0.4146736562,2.161682844
94,1.55965472494e+18,2.061624289,-1.120833874,1.760344505
95,1.55965472499e+18,1.404333353,-0.150169,2.071274996
96,1.55965472504e+18,0.5259091854,-0.8276185393,2.429852724
97,1.55965472509e+18,0.582108736,-6.391990185,1.016310573
98,1.55965472515e+18,-0.7318623662,2.191888332,-1.031309724
99,1.5596547252e+18,-5.205228329,0.9377819896,-3.334271669
100,1.55965472525e+18,-6.870447159,-0.09030420333,-3.910928488
101,1.5596547253e+18,-7.818510056,-2.494058847,-4.658016682
102,1.55965472535e+18,-0.4740772545,6.207716465,-1.312918544
103,1.55965472541e+18,2.046963692,8.491130829,2.473834991
104,1.55965472546e+18,1.642570853,-0.4635428786,1.739574909
105,1.55965472551e+18,2.440971613,-1.31753242,2.760941744
106,1.55965472556e+18,2.456854343,1.114932895,3.330268145
107,1.55965472561e+18,1.87531054,-1.432986021,3.076148272
108,1.55965472567e+18,1.789178491,-2.978475094,2.060279369
109,1.55965472572e+18,1.36890316,-2.103716135,1.002871513
110,1.55965472577e+18,2.087891579,0.4393159449,1.021197557
111,1.55965472582e+18,1.639516473,-1.604028344,1.644280076
112,1.55965472587e+18,-1.754450798,-3.996176481,-0.304380089
113,1.55965472593e+18,-3.448380232,1.283531785,-1.516947627
114,1.55965472598e+18,-6.296233654,0.09784228355,-2.620170116
115,1.55965472603e+18,-7.885094166,-2.94976449,-3.417349339
116,1.55965472608e+18,-2.601721048,3.261513472,-1.468689203
117,1.55965472613e+18,1.111118078,5.478343487,0.7151539922
118,1.55965472619e+18,1.214965224,1.620729327,1.698036075
119,1.55965472624e+18,2.00481391,-0.5380684137,2.476278543
120,1.55965472629e+18,2.579027414,-0.9070310593,2.622886181
121,1.55965472634e+18,2.155086756,-0.1312321723,2.7426157
122,1.55965472639e+18,1.775128484,-2.079281569,2.074329138
123,1.55965472645e+18,2.043298483,-1.784844398,1.178189874
124,1.5596547265e+18,1.775739551,-0.4794253707,0.9686630964
125,1.55965472655e+18,1.806893587,-1.941836834,1.388938308
126,1.5596547266e+18,0.6731277108,-1.884415388,0.4750839472
127,1.55965472665e+18,-1.755672455,-0.04815450683,-1.283596992
128,1.55965472671e+18,-4.052525997,0.8253828287,-2.202949286
129,1.55965472676e+18,-6.913818836,0.5285022855,-3.268909216
130,1.55965472681e+18,-6.387252808,-0.6620740891,-3.2017138
131,1.55965472686e+18,-1.5553087,1.852247357,-3.114971161
132,1.55965472691e+18,0.7959116101,5.588299274,1.413983941
133,1.55965472697e+18,1.391505241,0.7013771534,1.968649507
134,1.55965472702e+18,2.582692385,0.4350398779,2.106094122
135,1.55965472707e+18,2.995637417,0.1051726714,3.490925789
136,1.55965472712e+18,3.314508915,-1.815387726,2.673587799
137,1.55965472717e+18,2.842309952,-0.4158953726,2.917934179
138,1.55965472723e+18,2.396989584,-0.4110084474,2.195280552
139,1.55965472728e+18,1.772074223,-0.8373923898,2.162293673
140,1.55965472733e+18,1.445261359,-2.83736515,1.409096956
141,1.55965472738e+18,-1.014082074,-2.030412197,-0.9635037184
142,1.55965472743e+18,-3.160662651,2.27863121,-2.97935915
143,1.55965472749e+18,-6.462388992,1.61645329,-4.360525608
144,1.55965472754e+18,-7.266899109,-0.4470494986,-3.63542819
145,1.55965472759e+18,-5.95903635,-0.602820158,-4.362358093
146,1.55965472764e+18,0.4416097701,5.648164272,-0.8553805351
147,1.55965472769e+18,1.148991704,4.551049709,2.228267193
148,1.55965472775e+18,1.773295999,-1.270495892,2.515373707
149,1.5596547278e+18,2.486786604,-0.842279315,2.70596385
150,1.55965472785e+18,2.577194691,-0.4000128806,3.267348766
151,1.5596547279e+18,2.379274368,-0.4226149023,3.379748344
152,1.55965472795e+18,1.679833651,-0.5667791367,3.010174751
153,1.55965472801e+18,1.263834357,-2.0395751,2.711461782
154,1.55965472806e+18,0.7384902835,-1.46963799,1.993694901
155,1.55965472811e+18,0.01339322049,-2.219169617,1.498894095
156,1.55965472816e+18,-0.4606382251,-1.071353793,-0.05453621596
157,1.55965472821e+18,-3.172879934,1.175408602,-1.612853527
158,1.55965472827e+18,-5.404981613,0.6463993192,-2.328176737
159,1.55965472832e+18,-5.721409798,0.2920974493,-1.896294951
160,1.55965472837e+18,-4.238839626,2.598724604,-3.552961349
161,1.55965472842e+18,-0.1405448169,4.262721539,0.3138155341
162,1.55965472847e+18,1.106231213,1.857134104,0.5184553862
163,1.55965472853e+18,2.031692028,-1.37373209,1.731022954
164,1.55965472858e+18,2.329794168,0.4930721223,2.230710745
165,1.55965472863e+18,1.811780572,-1.015154123,2.443902493
166,1.55965472868e+18,1.477026343,-1.493461728,1.678488493
167,1.55965472873e+18,0.8753240705,0.2945408821,1.590523958
168,1.55965472879e+18,0.6315888762,-0.4812579751,1.390771031
169,1.55965472884e+18,0.2669022679,-1.569819808,1.348621249
170,1.55965472889e+18,1.690829277,-0.9155831337,1.737131596
171,1.55965472894e+18,-1.359831929,-2.9234972,1.16597259
172,1.55965472899e+18,-3.610259533,-0.2363010049,-0.831556797
173,1.55965472905e+18,-5.496611118,2.821690321,-1.097283244
174,1.5596547291e+18,-7.874098778,-0.8618270159,-3.231646299
175,1.55965472915e+18,-5.036018848,1.706250429,-4.383738518
176,1.5596547292e+18,0.2198656797,6.572402954,0.5972570181
177,1.55965472925e+18,1.194195628,3.118571043,1.499505043
178,1.55965472931e+18,2.082393885,-0.8312837481,1.289978147
179,1.55965472936e+18,2.59735322,0.9994793534,2.466504574
180,1.55965472941e+18,2.562533855,-0.3389263749,2.663203478
181,1.55965472946e+18,2.554592609,-1.723757982,2.216660738
182,1.55965472951e+18,2.535044909,-0.3725239635,2.0999856
183,1.55965472957e+18,2.007257223,-0.842890203,2.346775055
184,1.55965472962e+18,1.394559622,-1.528280973,1.861137152
185,1.55965472967e+18,0.5943260789,-1.705431938,1.753624916
186,1.55965472972e+18,-0.4062712193,-1.700545073,0.5001294017
187,1.55965472977e+18,-2.710454941,-0.8325054646,-1.443643808
188,1.55965472983e+18,-5.017082214,2.53091836,-2.759447575
189,1.55965472988e+18,-6.320668221,0.887691021,-2.805262566
190,1.55965472993e+18,-5.001199722,2.835129499,-3.043499708
191,1.55965472998e+18,0.01461495087,2.802753687,-0.8211721182
192,1.55965473003e+18,0.9638995528,1.98724854,0.0505326055
193,1.55965473009e+18,1.569266915,-0.5301271677,1.239887238
194,1.55965473014e+18,2.064067841,0.1167791039,1.916725993
195,1.55965473019e+18,1.88874948,-0.1440603435,2.506211042
196,1.55965473024e+18,2.012755156,-1.613802075,2.39503336
197,1.55965473029e+18,2.168525934,-1.843487382,2.353494644
198,1.55965473035e+18,1.957166433,-2.363333702,1.604573727
199,1.5596547304e+18,1.1471591,-2.071340084,1.61007154
200,1.55965473045e+18,0.2210873961,-1.779957533,0.4341559708
201,1.5596547305e+18,-2.623712063,-0.5796073079,-1.959214091
202,1.55965473055e+18,-4.579702854,3.741042614,-2.187066793
203,1.55965473061e+18,-3.864990234,4.502791405,-1.954327106
204,1.55965473066e+18,-2.69090724,0.9145690799,-2.273809671
205,1.55965473071e+18,-0.5797569752,0.9811534286,-1.571314573
206,1.55965473076e+18,0.8014093637,0.9652709365,-0.02582555078
207,1.55965473081e+18,1.55766058,0.3690664768,0.7921229601
208,1.55965473087e+18,2.012144327,0.3751751184,1.558148026
209,1.55965473092e+18,2.040244102,0.3403557837,1.938106179
210,1.55965473097e+18,1.813002229,-0.3682478964,1.773783445
211,1.55965473102e+18,1.373790145,-0.9852218032,1.615569353
212,1.55965473107e+18,0.7879703641,-0.8227316141,0.8471009135
213,1.55965473113e+18,0.5106375217,-0.6632958651,0.3443588018
214,1.55965473118e+18,-0.2217898965,-1.98642993,0.8361052871
215,1.55965473123e+18,-1.8399719,-2.949153662,0.2490638196
216,1.55965473128e+18,-2.98229003,0.8327131867,-0.8052896261
217,1.55965473133e+18,-5.887565136,0.3043147326,-2.446684599
218,1.55965473139e+18,-6.642594814,-0.8465553522,-3.641536951
219,1.55965473144e+18,0.2522415221,4.215074062,-0.8761499524
220,1.55965473149e+18,0.995664537,4.967049122,0.5966461301
221,1.55965473154e+18,1.141661406,2.133245468,1.473237753
222,1.55965473159e+18,2.324907303,0.9182342887,1.797607183
223,1.55965473165e+18,2.409206867,1.205340981,2.903273106
224,1.5596547317e+18,2.527714491,-1.381062508,3.035830975
225,1.55965473175e+18,2.155697823,-1.994371176,2.706574678
226,1.5596547318e+18,1.745196223,-1.630295515,2.608836174
227,1.55965473185e+18,0.67679286,-2.28392148,2.699244499
228,1.55965473191e+18,0.9858906865,-1.524004936,1.423757672
229,1.55965473196e+18,0.173439905,-0.3071613908,0.1091756672
230,1.55965473201e+18,-4.205242157,-0.9675067067,-2.479060411
231,1.55965473206e+18,-6.191775799,2.300011396,-3.557848454
232,1.55965473211e+18,-5.965145111,-3.045670271,-3.014789343
233,1.55965473217e+18,-1.908388853,2.674471855,-2.097269535
234,1.55965473222e+18,1.075687885,4.655508041,0.8318293095
235,1.55965473227e+18,1.290101528,3.329930305,0.6394066811
236,1.55965473232e+18,1.874699593,0.6720556021,2.039509773
237,1.55965473237e+18,2.300472736,0.05935777724,1.863580704
238,1.55965473243e+18,2.588190079,-1.290654421,2.252091169
239,1.55965473248e+18,2.310246468,-0.8129577637,2.373653173
240,1.55965473253e+18,1.962664127,-1.484298706,1.814711452
241,1.55965473258e+18,2.384161234,-3.084154844,1.766453147
242,1.55965473263e+18,1.339581609,-0.7530930042,0.7682992816
243,1.55965473269e+18,-2.28346014,-0.9076418877,-1.425928712
244,1.55965473274e+18,-4.718979836,0.8895236254,-3.288456678
245,1.55965473279e+18,-6.116639614,1.555977702,-3.19804883
246,1.55965473284e+18,-6.222319126,-0.7097215652,-3.185220718
247,1.55965473289e+18,-0.6811605692,3.572443962,-3.086871386
248,1.55965473295e+18,1.01765573,5.381216049,1.471405149
249,1.559654733e+18,1.758024454,1.342785597,2.316842794
250,1.55965473305e+18,2.320020437,-1.42015779,2.277747393
251,1.5596547331e+18,2.625453234,0.3892250061,3.077980757
252,1.55965473315e+18,2.304748774,-0.2802833021,4.214190006
253,1.55965473321e+18,0.4464966655,-2.007810116,4.709601879
254,1.55965473326e+18,0.04149302468,-0.8380032778,4.487857819
255,1.55965473331e+18,-0.2529440224,-1.122666478,4.217244625
256,1.55965473336e+18,-0.7581295967,-3.327889919,3.752986908
257,1.55965473341e+18,-0.8326551318,-1.56920898,0.8971918225
258,1.55965473346e+18,-3.546118736,2.598724604,-1.511449814
259,1.55965473352e+18,-5.753174782,1.858966827,-4.090522766
260,1.55965473357e+18,-5.733016014,0.6586166024,-3.796085835
261,1.55965473362e+18,-5.198509216,0.7752918601,-4.554169655
262,1.55965473367e+18,-0.4056603312,6.994510651,-0.6452429295
263,1.55965473372e+18,2.434863091,4.855260849,0.0517543368
264,1.55965473378e+18,2.835590601,0.3757859766,0.6894977093
265,1.55965473383e+18,3.459284067,0.4869634509,1.935051918
266,1.55965473388e+18,3.155683994,0.7453594208,2.626551151
267,1.55965473393e+18,2.70975256,-1.87708509,1.906952024
268,1.55965473398e+18,2.439749956,-3.090263367,0.8715355396
269,1.55965473404e+18,1.985266209,-1.242396116,0.3706260026
270,1.55965473409e+18,2.91866827,-1.404275417,0.7041584253
271,1.55965473414e+18,0.8020202518,1.522990823,0.3278654218
272,1.55965473419e+18,-2.196106434,-2.516660929,-1.3440727
273,1.55965473424e+18,-4.439814568,1.541927695,-2.977526426
274,1.5596547343e+18,-5.497832775,3.120403528,-3.270741701
275,1.55965473435e+18,-4.946832657,2.223653316,-3.416127682
276,1.5596547344e+18,-0.4221536815,2.47777319,-3.28784585
277,1.55965473445e+18,0.4190077484,4.013488293,0.3162589669
278,1.5596547345e+18,1.321255684,-0.1251235306,1.810435414
279,1.55965473456e+18,2.379885197,-1.124499083,2.134193897
280,1.55965473461e+18,2.216784239,1.26215148,3.654026508
281,1.55965473466e+18,1.521008611,-0.78424716,3.982672215
282,1.55965473471e+18,0.8484460115,-0.688952148,3.838508129
283,1.55965473476e+18,0.6816797853,-1.668780088,3.524523258
284,1.55965473482e+18,0.9645104408,-3.928981543,2.870286703
285,1.55965473487e+18,1.109285474,-1.637625813,1.629619241
286,1.55965473492e+18,-0.6475629807,0.3415775001,0.7120996714
287,1.55965473497e+18,-3.887592316,0.2340652347,-3.077708244
288,1.55965473502e+18,-4.97248888,1.706250429,-2.089328289
289,1.55965473508e+18,-6.534471035,0.9249538779,-2.960422039
290,1.55965473513e+18,-7.804460049,-0.05670661852,-4.359303474
291,1.55965473518e+18,-0.2450027764,2.880333424,-1.946996689
292,1.55965473523e+18,2.156308651,4.725146294,0.4646992385
293,1.55965473528e+18,2.401876211,3.268843651,2.90816021
294,1.55965473534e+18,2.774504185,0.5596564412,2.78537631
295,1.55965473539e+18,2.31269002,-0.6828435063,3.741380453
296,1.55965473544e+18,1.883251667,-1.574706793,3.825068951
297,1.55965473549e+18,1.414718151,-0.8685464859,3.817127705
298,1.55965473554e+18,0.916862905,-1.12877512,3.724886894
299,1.5596547356e+18,-0.0623540692,-2.709083557,3.515360355
300,1.55965473565e+18,-0.1142776161,-2.954040527,2.21604991
301,1.5596547357e+18,-3.453267097,0.7471920252,-2.172405958
302,1.55965473575e+18,-5.285252094,2.194331884,-2.039237499
303,1.5596547358e+18,-6.262025356,0.9084604383,-3.67513442
304,1.55965473586e+18,-5.271202087,0.03186883777,-2.152858496
305,1.55965473591e+18,-1.490556955,3.515633345,-1.763737202
306,1.55965473596e+18,1.940673113,2.53091836,0.9906542301
307,1.55965473601e+18,2.481899738,0.8198850155,0.6949954033
308,1.55965473606e+18,2.508167028,1.300025105,1.897789121
309,1.55965473612e+18,1.999316216,1.180295587,2.489717484
310,1.55965473617e+18,1.734811544,-2.379827261,2.588066816
311,1.55965473622e+18,1.973048925,-4.671182632,1.715140343
312,1.55965473627e+18,2.073230743,-1.78789866,0.7072127461
313,1.55965473632e+18,2.202123404,-1.940614939,-0.02582555078
314,1.55965473638e+18,0.4361119568,2.631100416,-0.9476212263
315,1.55965473643e+18,-3.334759235,-1.527670145,-3.110695124
316,1.55965473648e+18,-5.097105503,0.8559260368,-3.108862638
317,1.55965473653e+18,-4.453253269,6.751386642,-3.585948229
318,1.55965473658e+18,-2.456335068,4.30853653,-3.868778706
319,1.55965473664e+18,1.831939101,-0.1446712166,-0.830945909
320,1.55965473669e+18,1.560714841,0.5352218151,1.107940316
321,1.55965473674e+18,2.40554142,0.5572129488,2.763996124
322,1.55965473679e+18,2.651720285,-1.233844042,2.539808512
323,1.55965473684e+18,2.101941347,-0.1874317825,3.184271336
324,1.5596547369e+18,1.09401381,-1.581426263,3.018115997
325,1.55965473695e+18,0.7696443796,-0.9815565944,2.710239887
326,1.559654737e+18,0.421451211,-1.524615884,2.181230545
327,1.55965473705e+18,0.6627429724,-3.059109449,1.359005928
328,1.5596547371e+18,-0.2511114478,-1.233844042,1.184298515
329,1.55965473716e+18,-4.99570179,-1.517896295,-2.326954842
330,1.55965473721e+18,-6.389696121,1.687313557,-1.760682821
331,1.55965473726e+18,-4.898574352,3.836337566,-2.983634949
332,1.55965473731e+18,-4.540607452,1.142421842,-2.643993855
333,1.55965473736e+18,0.8362287283,3.974393129,-1.600636125
334,1.55965473742e+18,1.756802559,2.282296419,1.776226878
335,1.55965473747e+18,1.3853966,-0.6492459178,1.875187159
336,1.55965473752e+18,1.822776079,-1.44642508,2.456119776
337,1.55965473757e+18,2.071398258,-0.558837831,2.500102282
338,1.55965473762e+18,3.134303808,-2.242993355,1.754846692
339,1.55965473768e+18,3.18683815,-0.0218873024,2.02729249
340,1.55965473773e+18,2.780001879,2.917596102,3.308276892
341,1.55965473778e+18,0.3359300792,-4.762812614,2.579514742
342,1.55965473783e+18,-3.403176069,-4.315048218,-0.8474393487
343,1.55965473788e+18,-4.312754631,3.574276447,-1.909123063
344,1.55965473794e+18,-5.781274319,0.2975952029,-2.579853058
345,1.55965473799e+18,-4.812442303,-0.8141794801,-1.44303298
346,1.55965473804e+18,-3.249848843,1.539484262,-2.997684956
347,1.55965473809e+18,1.634629607,5.111824036,1.019364834
348,1.55965473814e+18,1.856984496,2.813138247,1.913671613
349,1.5596547382e+18,1.975492477,-1.184363842,2.197113037
350,1.55965473825e+18,2.185630083,-0.5789964199,2.525758505
351,1.5596547383e+18,1.702435613,-0.2216402441,2.663814306
352,1.55965473835e+18,1.103176713,0.1008966118,2.628384113
353,1.5596547384e+18,0.3915188015,-1.425044775,2.410305023
354,1.55965473846e+18,-0.1613142341,-1.999258041,1.55692625
355,1.55965473851e+18,-0.7000974417,-4.597268105,0.8080055118
356,1.55965473856e+18,-0.9700998664,-2.344397068,-0.07897082716
357,1.55965473861e+18,-3.5852139,0.5303348899,-1.357511878
358,1.55965473866e+18,-6.99567461,-0.6883413196,-1.799167395
359,1.55965473872e+18,-6.834406376,2.953637123,-2.451571465
360,1.55965473877e+18,-0.6011372209,5.19245863,-2.086273909
361,1.55965473882e+18,0.5760000944,4.56998682,0.4420972168
362,1.55965473887e+18,1.900966763,1.45090878,1.486676812
363,1.55965473892e+18,2.921722651,0.8485956192,1.880074024
364,1.55965473898e+18,2.896677256,0.2023002505,3.376082897
365,1.55965473903e+18,2.316966057,-1.637625813,3.529410124
366,1.55965473908e+18,1.761078715,-2.312021017,3.315607309
367,1.55965473913e+18,1.119059324,-0.6223678589,3.159225941
368,1.55965473918e+18,-0.2028530687,-0.3994020224,3.0767591
369,1.55965473924e+18,-1.830808997,-4.300387859,0.9674413204
370,1.55965473929e+18,-2.781925917,-1.361514807,-3.308615446
371,1.55965473934e+18,-5.652381897,3.249296188,-3.106418848
372,1.55965473939e+18,-5.687811852,2.805197001,-3.474159956
373,1.55965473944e+18,-5.327401638,-0.7298801541,-3.282958984
374,1.5596547395e+18,0.2100918293,2.41424346,-1.701429009
375,1.55965473955e+18,2.043909311,3.827174664,1.567311049
376,1.5596547396e+18,2.155697823,1.156471848,2.79576087
377,1.55965473965e+18,2.456854343,0.1589288116,2.121365786
378,1.5596547397e+18,2.754345417,-1.632128,2.300960302
379,1.55965473976e+18,3.133081913,-2.158082962,1.49400723
380,1.55965473981e+18,3.080547571,-0.834338069,0.9356763363
381,1.55965473986e+18,3.787318707,0.6030278206,1.294865131
382,1.55965473991e+18,1.128222346,-1.865478635,0.4891338646
383,1.55965473996e+18,-2.033005476,-1.862424374,-2.00625062
384,1.55965474002e+18,-4.83015728,2.114308357,-3.089925528
385,1.55965474007e+18,-6.436732769,0.5370543599,-3.599997997
386,1.55965474012e+18,-6.344491959,-1.147711873,-3.044721603
387,1.55965474017e+18,0.1306793541,2.085597992,-2.357498407
388,1.55965474022e+18,1.086683512,4.591367245,2.073107481
389,1.55965474028e+18,1.754970074,1.035520434,2.632049084
390,1.55965474033e+18,2.356672287,-0.2271380275,2.342499018
391,1.55965474038e+18,2.942492247,0.1705352515,2.688859701
392,1.55965474043e+18,2.807491064,0.5303348899,3.236805677
393,1.55965474048e+18,2.364002705,-0.9216918349,3.292394638
394,1.55965474054e+18,2.03780055,-1.638847709,3.079202414
395,1.55965474059e+18,1.036592484,-2.664490223,2.459174395
396,1.55965474064e+18,-0.03425426781,-1.574095964,0.2838831246
397,1.55965474069e+18,-1.675038338,1.40448308,-1.506562829
398,1.55965474074e+18,-4.25411129,1.044683456,-3.649478197
399,1.5596547408e+18,-6.004240036,0.5120089054,-3.76432085
400,1.55965474085e+18,-6.213767052,0.793617785,-3.727058172
401,1.5596547409e+18,-3.335980892,0.6708338857,-3.799140215
402,1.55965474095e+18,1.888138652,4.541275978,0.8752006888
403,1.559654741e+18,1.575375557,2.512592554,2.417635441
404,1.55965474106e+18,2.261988163,-0.08297382295,2.646709919
405,1.55965474111e+18,2.616900921,-0.02310903184,2.794539213
406,1.55965474116e+18,2.445247889,0.07035334408,3.54040575
407,1.55965474121e+18,1.994429231,-0.122680068,4.08041048
408,1.55965474126e+18,1.009103537,0.9609948993,4.141497135
409,1.55965474132e+18,0.9755060077,-5.318089008,3.911201
410,1.55965474137e+18,1.152045965,-3.118974209,2.283855915
411,1.55965474142e+18,-0.8063879609,0.2688845396,0.5606051087
412,1.55965474147e+18,-3.576661825,0.5340000391,-2.98302412
413,1.55965474152e+18,-3.654852629,2.157680035,-2.880398989
414,1.55965474158e+18,-5.213170052,1.909668565,-4.077694893
415,1.55965474163e+18,-6.957190037,0.3250841796,-5.753909111
416,1.55965474168e+18,-0.5131726265,3.040380239,-2.041680813
417,1.55965474173e+18,2.321242094,5.336622715,0.4256038368
418,1.55965474178e+18,2.290087938,2.416075945,3.165945292
419,1.55965474183e+18,2.827649355,-0.4647646248,2.417635441
420,1.55965474189e+18,2.740295649,0.7704049349,3.161058426
421,1.55965474194e+18,2.553370953,-1.740862012,3.509862661
422,1.55965474199e+18,2.157530308,-1.673666835,3.032776594
423,1.55965474204e+18,1.226571679,2.612774372,2.506211042
424,1.55965474209e+18,0.06042984501,0.5498825908,2.591121197
425,1.55965474215e+18,-0.3018132448,-1.206354976,2.039509773
426,1.5596547422e+18,-0.8912982345,-1.954664946,1.389549136
427,1.55965474225e+18,-3.245572805,-0.5075252056,-1.962268472
428,1.5596547423e+18,-5.119707584,1.129593611,-3.189496517
429,1.55965474235e+18,-6.433678627,-0.216753304,-4.318375587
430,1.55965474241e+18,-6.96635294,2.406912804,-5.023924828
431,1.55965474246e+18,0.7427663207,5.329903126,0.7591363192
432,1.55965474251e+18,1.158765554,2.080710888,0.3345849216
433,1.55965474256e+18,1.488632798,-1.533167958,2.489717484
434,1.55965474261e+18,2.214340925,-1.398777604,2.581958294
435,1.55965474267e+18,2.137982368,0.4527550042,3.001622677
436,1.55965474272e+18,1.477637172,-0.6645175219,2.968024969
437,1.55965474277e+18,1.102565885,-3.146463156,1.824485183
438,1.55965474282e+18,0.7500966787,-2.137924671,0.4170517623
439,1.55965474287e+18,0.7720878124,-0.08358469605,0.01754588261
440,1.55965474293e+18,1.382342339,-2.144644022,1.873354435
441,1.55965474298e+18,-0.8094422817,-2.74756813,-0.08507947624
442,1.55965474303e+18,-2.381809235,-0.9058093429,-0.8743174076
443,1.55965474308e+18,-5.025634289,0.1851960123,-1.990978956
444,1.55965474313e+18,-7.451379776,-0.4824796915,-3.872444153
445,1.55965474319e+18,-6.892438412,1.210838795,-4.708107471
446,1.55965474324e+18,0.4513836205,7.058651924,0.7145431638
447,1.55965474329e+18,1.053085804,4.806391716,1.981477618
448,1.55965474334e+18,1.656620741,-0.8447228074,2.026070833
449,1.55965474339e+18,2.440360785,-0.7500386834,2.892888784
450,1.55965474345e+18,2.106217623,-0.6284765005,4.140275478
451,1.5596547435e+18,1.475193739,-2.104326963,3.681515694
452,1.55965474355e+18,1.484356642,-1.895411015,3.025446177
453,1.5596547436e+18,1.521619558,-0.8832072616,2.429852724
454,1.55965474365e+18,0.9217498302,-0.03654807061,1.949712634
455,1.55965474371e+18,1.15326786,2.232816458,2.378540039
456,1.55965474376e+18,-1.320736408,-5.295486927,0.9289568663
457,1.55965474381e+18,-4.833211422,0.6402906775,-4.057536125
458,1.55965474386e+18,-4.741581917,6.329889774,-2.231049061
459,1.55965474391e+18,-6.3298316,-1.572874188,-3.975680113
460,1.55965474397e+18,-6.657255173,-1.570430636,-4.572495461
461,1.55965474402e+18,0.4984202385,5.805767059,0.1336102784
462,1.55965474407e+18,2.171580076,6.028732777,2.411526918
463,1.55965474412e+18,1.88874948,-0.5136338472,2.330281734
464,1.55965474417e+18,2.205788612,-1.300428271,3.767036915
465,1.55965474423e+18,1.890582204,-1.305315137,4.141497135
466,1.55965474428e+18,1.384785652,-0.8154012561,3.806132078
467,1.55965474433e+18,0.9712299109,-0.7518712878,3.283842325
468,1.55965474438e+18,0.177105099,-2.301636457,2.588677645
469,1.55965474443e+18,0.2271960676,-2.040185928,1.582582593
470,1.55965474449e+18,-0.1075581014,-2.349894762,1.031582117
471,1.55965474454e+18,-0.7715685964,-1.962606192,-0.1479986012
472,1.55965474459e+18,-2.50886941,0.1381593943,-1.264049411
473,1.55965474464e+18,-4.54549408,3.493642092,-2.83763814
474,1.55965474469e+18,-5.106268406,0.8944106102,-2.912163734
475,1.55965474475e+18,-6.230260372,-1.962606192,-4.029436111
476,1.5596547448e+18,-1.18756783,2.701349735,-1.494956374
477,1.55965474485e+18,0.9840580821,4.613969326,0.8367161751
478,1.5596547449e+18,1.59736681,1.393487453,1.561813235
479,1.55965474495e+18,2.536266565,-1.632128,2.356548786
480,1.55965474501e+18,2.570475101,-0.842279315,2.610057831
481,1.55965474506e+18,2.729300022,-1.912515283,1.942382336
482,1.55965474511e+18,2.207621098,-2.368220806,1.17269206
483,1.55965474516e+18,2.805658102,-0.8905376792,1.406042576
484,1.55965474521e+18,4.134290218,-0.7139976025,3.132958651
485,1.55965474527e+18,0.4043469727,-1.202689767,-0.06675352156
486,1.55965474532e+18,-3.291998625,-2.061566353,-2.68797636
487,1.55965474537e+18,-6.867393017,1.675707221,-6.334841728
488,1.55965474542e+18,-5.72690773,4.833269596,-4.729487896
489,1.55965474547e+18,-4.139879227,1.99396801,-3.640315294
490,1.55965474553e+18,-1.123427033,0.4851308465,-3.822963953
491,1.55965474558e+18,1.374400973,3.079475641,-0.8779825568
492,1.55965474563e+18,2.015198708,1.694033146,1.950934291
493,1.55965474568e+18,2.52099514,-0.04754364118,1.963762522
494,1.55965474573e+18,2.750680447,-0.225305438,2.464672089
495,1.55965474579e+18,2.892401218,-0.3792434633,3.096306562
496,1.55965474584e+18,2.362170219,-0.05792835355,3.506808043
497,1.55965474589e+18,1.218019485,-0.6608523726,3.416400194
498,1.55965474594e+18,1.900355935,-1.615634799,2.905106068
499,1.55965474599e+18,-2.456945896,-6.417646408,0.9796586037
500,1.55965474605e+18,-3.945013762,3.737988234,-2.954924345
501,1.5596547461e+18,-5.510661125,1.449687123,-3.42651248
502,1.55965474615e+18,-6.815469265,-0.7127758861,-4.304936409
503,1.5596547462e+18,-7.147780418,-0.358474046,-6.171740532
504,1.55965474625e+18,0.7305490375,8.07879734,-1.276877522
505,1.55965474631e+18,2.136760712,6.408080101,2.603949308
506,1.55965474636e+18,2.170358419,1.572470903,3.278344393
507,1.55965474641e+18,2.661494255,-1.121444702,2.424965858
508,1.55965474646e+18,3.25342226,-1.048751831,2.849517107
509,1.55965474651e+18,3.504487991,-0.2136989832,3.048659086
510,1.55965474657e+18,2.909505367,-0.5716660023,2.835467339
511,1.55965474662e+18,3.579013586,-1.338301897,2.293629885
512,1.55965474667e+18,1.829495549,-1.136716485,2.198945522
513,1.55965474672e+18,-0.499122709,-1.723146915,0.470197022
514,1.55965474677e+18,-2.499706268,1.932270646,-1.62507081
515,1.55965474683e+18,-4.814885616,0.05202739313,-2.593903065
516,1.55965474688e+18,-6.934587955,-2.133648396,-3.576174259
517,1.55965474693e+18,-5.675594807,-1.310202122,-2.948204756
518,1.55965474698e+18,-1.290804029,2.138132334,-1.056355238
519,1.55965474703e+18,1.188086987,2.903546333,0.7359234095
520,1.55965474709e+18,1.550330162,1.455795765,2.745059013
521,1.55965474714e+18,2.458686829,1.486338973,2.947255611
522,1.55965474719e+18,2.335902929,-0.5423445106,3.64303112
523,1.55965474724e+18,1.781848192,-0.01089172717,3.919753075
524,1.55965474729e+18,1.066524863,0.5706519485,3.873938322
525,1.55965474735e+18,0.6945080161,-0.6944499612,3.207484245
526,1.5596547474e+18,0.008506298065,-1.292487025,2.578293085
527,1.55965474745e+18,-1.203450322,-1.71154058,1.27226305
528,1.5596547475e+18,-2.912040472,-0.9827783108,-0.9555624127
529,1.55965474755e+18,-7.53201437,-1.137327313,-4.170546532
530,1.55965474761e+18,-9.531375885,-0.6376394629,-3.289678574
531,1.55965474766e+18,-7.494140625,-3.830021143,-5.471689224
532,1.55965474771e+18,0.2033723146,8.901632309,-0.6800622344
533,1.55965474776e+18,1.827662945,6.597448826,4.192198753
534,1.55965474781e+18,2.172190905,-0.03227201104,1.449414015
535,1.55965474787e+18,2.999913216,-0.9406285882,2.105483294
536,1.55965474792e+18,2.639503002,1.320183635,3.288118362
537,1.55965474797e+18,2.079339504,-0.2124772668,3.206873178
538,1.55965474802e+18,1.550330162,-0.4849231541,2.79576087
539,1.55965474807e+18,0.8753240705,-2.246658564,2.107316017
540,1.55965474813e+18,0.029886581,-2.414035559,0.8428248167
541,1.55965474818e+18,0.08730791509,-0.2216402441,-0.04109717906
542,1.55965474823e+18,-4.414769173,-1.697490692,-2.793045282
543,1.55965474828e+18,-7.078141689,0.3201972246,-2.867570639
544,1.55965474833e+18,-7.274839878,-0.8386141062,-3.101531982
545,1.55965474839e+18,-1.741622686,0.6262407303,-4.199867725
546,1.55965474844e+18,0.8631067276,6.579122543,1.170859456
547,1.55965474849e+18,1.569266915,4.529058456,2.607003689
548,1.55965474854e+18,2.139204264,0.207798034,1.395046949
549,1.55965474859e+18,2.533823252,0.01720807515,2.643655539
550,1.55965474865e+18,2.466017008,-2.336455822,2.355327129
551,1.5596547487e+18,1.615081906,-1.884415388,2.097542048
552,1.55965474875e+18,0.6926753521,-0.5032491088,2.173289299
553,1.5596547488e+18,1.717096448,-5.063358307,0.9466719627
554,1.55965474885e+18,-0.9481087327,-2.652884007,-1.330022812
555,1.55965474891e+18,-4.426986217,1.20595181,-2.04901123
556,1.55965474896e+18,-5.944375515,0.7862874269,-2.947593927
557,1.55965474901e+18,-6.058607578,0.2065762877,-4.718492031
558,1.55965474906e+18,-3.504579782,4.599308014,-6.37027216
559,1.55965474911e+18,2.905840158,11.87043762,3.109134912
560,1.55965474916e+18,1.49779582,1.180906415,4.557496548
561,1.55965474922e+18,2.179521561,-4.486701012,2.599673271
562,1.55965474927e+18,2.751291275,-0.1538341939,2.5508039
563,1.55965474932e+18,2.630950689,2.201662064,3.535518885
564,1.55965474937e+18,1.589425564,0.6256299019,3.098139286
565,1.55965474942e+18,1.347522974,-2.932660103,2.564853907
566,1.55965474948e+18,1.214965224,-2.402429104,1.764009595
567,1.55965474953e+18,0.8258439898,-0.2088120729,2.087768316
568,1.55965474958e+18,-4.345741272,-4.653467655,-1.598192692
569,1.55965474963e+18,-4.313365459,5.025081635,-1.810773849
570,1.55965474968e+18,-5.564417362,-1.86364603,-1.912788272
571,1.55965474974e+18,-7.32676363,-1.620521665,-3.031282425
572,1.55965474979e+18,0.8643285036,2.926148415,0.7426429391
573,1.55965474984e+18,2.194182158,4.190639496,1.148257494
574,1.55965474989e+18,2.174023628,1.311020613,2.557523727
575,1.55965474994e+18,2.302916288,-0.4354430735,2.059057713
576,1.55965475e+18,2.407984972,-1.406107903,2.319896936
577,1.55965475005e+18,2.859414339,-1.806835532,2.462839365
578,1.5596547501e+18,2.301694393,-1.125720859,2.61372304
579,1.55965475015e+18,2.42875433,-2.24177146,2.498880625
580,1.5596547502e+18,-0.8998503685,-2.50016737,0.7921229601
581,1.55965475025e+18,-4.372008324,-0.4739275873,-2.107043505
582,1.55965475031e+18,-6.724450111,3.559615612,-2.819312334
583,1.55965475036e+18,-6.512479782,1.068507195,-2.844968796
584,1.55965475041e+18,-5.177128792,-0.3456458747,-3.988508224
585,1.55965475046e+18,1.624244928,4.147268295,-0.3190408647
586,1.55965475051e+18,2.21617341,3.802740097,2.331503391
587,1.55965475057e+18,2.26259923,0.6152451634,3.297892332
588,1.55965475062e+18,2.152032375,-0.5545617938,2.792706728
589,1.55965475067e+18,1.791621923,-1.376786351,3.296059608
590,1.55965475072e+18,1.64684689,-1.506900787,2.569741011
591,1.55965475077e+18,1.29621017,-0.8795421124,2.153741598
592,1.55965475083e+18,1.084850788,-2.487339258,0.8061729074
593,1.55965475088e+18,-0.6567259431,-3.899659872,0.02243280411
594,1.55965475093e+18,-4.639567375,2.003130913,-2.641550541
595,1.55965475098e+18,-5.257152557,-0.4311670363,-1.374005079
596,1.55965475103e+18,-6.438565254,-4.204481602,-2.142473698
597,1.55965475109e+18,-0.397108227,0.7453594208,-1.620183825
598,1.55965475114e+18,0.4629900455,5.472845554,1.111605644
599,1.55965475119e+18,1.420215845,2.601167917,1.971703887
600,1.55965475124e+18,1.856373668,0.03919922188,2.039509773
601,1.55965475129e+18,2.314522743,0.1167791039,2.781711102
602,1.55965475135e+18,2.453188896,0.6219646335,3.015061617
603,1.5596547514e+18,1.933342695,0.152820155,3.144565105
604,1.55965475145e+18,0.9791711569,-1.584480643,2.813476086
605,1.5596547515e+18,-0.1350470334,-1.368845224,2.05355978
606,1.55965475155e+18,0.8331743479,-2.589964867,1.760955334
607,1.55965475161e+18,-1.930379987,-2.328514338,-0.9885491729
608,1.55965475166e+18,-4.838709354,1.906003475,-1.698374629
609,1.55965475171e+18,-5.712857246,2.95730257,-2.952481031
610,1.55965475176e+18,-4.960882187,1.938379288,-2.650713682
611,1.55965475181e+18,-0.4752989709,2.04344821,-2.585350752
612,1.55965475187e+18,1.565601826,4.05685997,1.923445463
613,1.55965475192e+18,2.035968065,1.666544199,2.083492279
614,1.55965475197e+18,2.439139128,-0.6687935591,2.294851542
615,1.55965475202e+18,2.350563765,-0.5814398527,2.534921646
616,1.55965475207e+18,2.112326145,-1.257056832,2.378540039
617,1.55965475213e+18,2.087891579,-1.408551335,1.982699394
618,1.55965475218e+18,1.564990997,-0.8599944711,2.186728239
619,1.55965475223e+18,0.9119760394,-0.4678189456,1.977201581
620,1.55965475228e+18,0.960845232,-1.537443995,1.213619947
621,1.55965475233e+18,-0.4319275618,-0.5093577504,-0.1052380279
622,1.55965475239e+18,-3.61148119,0.7844548225,-3.027617455
623,1.55965475244e+18,-5.157580853,1.81193018,-3.943304539
624,1.55965475249e+18,-5.483783245,1.242603779,-3.975680113
625,1.55965475254e+18,-3.836279631,4.567543507,-3.228592157
626,1.55965475259e+18,1.80261755,2.903546333,0.7450863719
627,1.55965475265e+18,1.651122928,1.150363207,0.9008570313
628,1.5596547527e+18,2.309024811,-0.8880942464,1.9277215
629,1.55965475275e+18,2.442804098,0.6787751317,2.625329494
630,1.5596547528e+18,2.285811901,-0.6804000139,3.098750353
631,1.55965475285e+18,2.85513854,-3.167232513,2.842797518
632,1.55965475291e+18,2.48128891,-1.921067357,2.387092352
633,1.55965475296e+18,1.769019842,-0.3896281719,2.463450432
634,1.55965475301e+18,0.05554292351,-2.487950087,0.8886396885
635,1.55965475306e+18,-0.547381103,-0.9082527757,-0.4809201658
636,1.55965475311e+18,-4.489905357,-0.002339613857,-3.653754234
637,1.55965475317e+18,-4.749523163,2.172340631,-3.044721603
638,1.55965475322e+18,-4.952330589,0.7759026885,-2.86390543
639,1.55965475327e+18,-5.017082214,2.499153614,-3.235922337
640,1.55965475332e+18,0.8398939371,4.689105511,0.3913954198
641,1.55965475337e+18,1.889360309,1.958537817,0.7701318264
642,1.55965475343e+18,2.065900326,-0.9375742674,1.784779072
643,1.55965475348e+18,2.450745583,-0.996828258,2.018740416
644,1.55965475353e+18,1.999927044,0.6543405056,2.299127579
645,1.55965475358e+18,1.020709991,-0.2027034163,2.869065046
646,1.55965475363e+18,0.08669704944,-1.19169426,2.733452797
647,1.55965475369e+18,-0.3720627427,-1.505679011,2.196502209
648,1.55965475374e+18,0.4397771657,-1.103118777,1.490952849
649,1.55965475379e+18,1.022542596,-3.613775015,2.846462965
650,1.55965475384e+18,-2.291401386,-4.960732937,0.7731862068
651,1.55965475389e+18,-2.844234467,2.519311905,0.6491805315
652,1.55965475395e+18,-5.577245712,0.2304000407,-0.7185467482
653,1.559654754e+18,-8.25039196,-1.140992403,-2.623224497
654,1.55965475405e+18,-3.032991648,2.780762434,-0.9390690923
655,1.5596547541e+18,0.4709312618,3.781970501,-0.1858722419
656,1.55965475415e+18,1.58087337,1.99702239,1.352286458
657,1.55965475421e+18,2.446469545,-0.1257343888,1.61984551
658,1.55965475426e+18,2.783667088,-0.2277488858,1.704755783
659,1.55965475431e+18,2.550316572,0.1534310281,2.149465561
660,1.55965475436e+18,1.996261835,-0.06586959958,2.369987965
661,1.55965475441e+18,1.1667068,-0.8160121441,2.288132191
662,1.55965475447e+18,0.4562705457,-1.828826666,2.165958881
663,1.55965475452e+18,0.5692805648,-2.535597801,1.534935236
664,1.55965475457e+18,-1.047679663,-0.2576812804,0.1067322046
665,1.55965475462e+18,-3.909583569,0.5175067186,-1.856588721
666,1.55965475467e+18,-5.219889164,1.845527768,-2.188288689
667,1.55965475473e+18,-5.109933376,2.550466299,-3.204157352
668,1.55965475478e+18,-4.055580139,3.882763386,-3.314724207
669,1.55965475483e+18,1.621801376,3.184544325,0.7322582603
670,1.55965475488e+18,2.280925035,2.740445375,0.3303088844
671,1.55965475493e+18,2.922333479,0.8027807474,2.200778246
672,1.55965475499e+18,3.010908842,-0.3212112784,1.900232553
673,1.55965475504e+18,2.845975399,-1.346243143,2.05355978
674,1.55965475509e+18,2.392713308,-3.132413149,1.173303008
675,1.55965475514e+18,2.572307587,-2.515439272,0.9399523735
676,1.55965475519e+18,2.279703379,-0.398180306,1.001649737
677,1.55965475525e+18,1.215576053,-0.6694045067,0.5538855791
678,1.5596547553e+18,-0.02875648066,-1.879528522,-0.6996099353
679,1.55965475535e+18,-2.378755093,-0.6406937838,-2.337950468
680,1.5596547554e+18,-4.075128078,1.23893857,-3.020286798
681,1.55965475545e+18,-5.722020626,1.20900619,-3.402077913
682,1.55965475551e+18,-5.075725079,1.648829103,-2.796099424
683,1.55965475556e+18,-0.4197102487,4.184530735,-0.4399921894
684,1.55965475561e+18,1.569877863,3.018388987,0.2570050657
685,1.55965475566e+18,1.999316216,0.1784764975,1.670547247
686,1.55965475571e+18,2.601629257,-0.7714189291,2.058446884
687,1.55965475577e+18,2.132484913,-0.2375227362,2.453676462
688,1.55965475582e+18,1.340803385,-1.279047966,2.363879442
689,1.55965475587e+18,1.043311954,-2.195956707,1.829372168
690,1.55965475592e+18,0.8783783913,-1.351740956,2.081048489
691,1.55965475597e+18,0.2021505684,-0.08908247948,2.273471117
692,1.55965475603e+18,0.5650045276,-0.6229786873,2.476278543
693,1.55965475608e+18,-2.595001459,-4.462266445,-0.2261893451
694,1.55965475613e+18,-4.327414989,2.008018017,-2.839470863
695,1.55965475618e+18,-5.558308601,2.588950634,-2.361774206
696,1.55965475623e+18,-6.725061417,-1.127553344,-4.561500072
697,1.55965475629e+18,-1.302410483,0.6836620569,-3.607328415
698,1.55965475634e+18,1.278495073,6.392808437,0.6125286222
699,1.55965475639e+18,2.149588823,3.074588537,2.687027216
700,1.55965475644e+18,2.084837198,-0.4885883629,1.747516274
701,1.55965475649e+18,2.531990767,-0.2796724141,2.051727057
702,1.55965475655e+18,2.481899738,-0.7927992344,2.552025795
703,1.5596547566e+18,2.910116196,-2.010253668,2.206887007
704,1.55965475665e+18,3.078715086,-1.815998554,1.644280076
705,1.5596547567e+18,2.784888983,0.3550165296,1.373666763
706,1.55965475675e+18,1.674946666,-0.4763710201,1.25576973
707,1.55965475681e+18,0.390297085,-1.709707975,0.5575507879
708,1.55965475686e+18,-0.9658237696,-3.486715078,-0.4094489217
709,1.55965475691e+18,-1.931601644,1.903559923,-1.413100481
710,1.55965475696e+18,-4.775790691,2.055665255,-1.318416357
711,1.55965475701e+18,-6.646259785,-1.871587276,-2.656211138
712,1.55965475707e+18,-8.205187798,-1.781790018,-3.739886284
713,1.55965475712e+18,-0.452086091,5.781332493,-0.03743198887
714,1.55965475717e+18,1.225960732,6.141132355,0.9949303269
715,1.55965475722e+18,2.440360785,2.540081501,1.61007154
716,1.55965475727e+18,2.882627249,0.7123727202,2.218493462
717,1.55965475733e+18,2.828871012,-0.7982970476,3.416400194
718,1.55965475738e+18,1.843545556,-1.47330308,2.955807686
719,1.55965475743e+18,1.243675828,-2.005977631,2.821417332
720,1.55965475748e+18,0.6932862401,-3.437234879,2.482387304
721,1.55965475753e+18,1.808726192,-4.979669571,2.677864075
722,1.55965475759e+18,0.9919993281,-3.295514107,0.7652449608
723,1.55965475764e+18,-3.036046028,1.468013048,-1.637898922
724,1.55965475769e+18,-5.872904301,-0.60220927,-3.801583767
725,1.55965475774e+18,-7.720160484,2.028787374,-3.98301053
726,1.55965475779e+18,-7.35730648,2.221820831,-3.111305952
727,1.55965475785e+18,-0.07151705027,3.439275265,-1.831543207
728,1.5596547579e+18,1.977324963,4.649399281,0.7823491693
729,1.55965475795e+18,2.304137945,3.244409084,2.375485897
730,1.559654758e+18,2.635226727,1.405093908,1.963151693
731,1.55965475805e+18,2.391491652,0.932284236,2.854403973
732,1.55965475811e+18,2.299861908,-1.800726891,2.919766665
733,1.55965475816e+18,2.618122578,-4.587494373,1.362671137
734,1.55965475821e+18,2.437917471,-4.566724777,0.03770443797
735,1.55965475826e+18,2.445247889,0.7832331061,-0.4790875614
736,1.55965475831e+18,-1.360442758,1.942655325,-1.220677972
737,1.55965475837e+18,-4.859478951,-1.199024677,-2.934154987
738,1.55965475842e+18,-7.417782784,-0.08602815121,-3.110695124
739,1.55965475847e+18,-6.538136482,-1.494683385,-1.790615201
740,1.55965475852e+18,-2.447171926,-0.9821674824,-4.201700211
741,1.55965475857e+18,1.667005539,4.691548824,3.17633009
742,1.55965475863e+18,2.004203081,3.780748844,2.796982765
743,1.55965475868e+18,2.488619089,0.09662055224,2.107316017
744,1.55965475873e+18,2.301083565,1.190680146,3.392576456
745,1.55965475878e+18,1.761689544,-0.688952148,3.192212582
746,1.55965475883e+18,1.688385725,-0.5832724571,2.698022366
747,1.55965475889e+18,1.15693295,0.5297240019,2.533088923
748,1.55965475894e+18,0.3927405477,-0.5172989964,2.724900723
749,1.55965475899e+18,1.482524157,-3.533751726,2.861123562
750,1.55965475904e+18,-3.432497501,-2.604014635,-0.331869036
751,1.55965475909e+18,-5.130092144,1.365998507,-1.004431725
752,1.55965475915e+18,-7.101354599,-0.6749022007,-3.060604095
753,1.5596547592e+18,-8.330414772,-1.097620964,-3.360538721
754,1.55965475925e+18,-1.282251954,3.050764799,-1.064296484
755,1.5596547593e+18,1.871034384,4.755690098,1.403599143
756,1.55965475935e+18,1.21985209,1.333011866,2.459174395
757,1.55965475941e+18,1.791621923,-1.875252485,1.307082415
758,1.55965475946e+18,2.393934965,0.6231864095,2.556301832
759,1.55965475951e+18,2.415926218,-0.260124743,2.666868448
760,1.55965475956e+18,2.10071969,1.117987275,3.016283512
761,1.55965475961e+18,1.458089471,-0.929633081,3.191601753
762,1.55965475967e+18,1.233901978,-1.667558193,2.399309635
763,1.55965475972e+18,1.271164775,-0.9339091182,2.112202883
764,1.55965475977e+18,-1.373270869,-1.952221394,-0.6030932069
765,1.55965475982e+18,-2.918149233,0.06852075458,-0.8999736905
766,1.55965475987e+18,-5.76661396,0.3409666419,-2.094826221
767,1.55965475993e+18,-8.189305305,0.06485556066,-3.129631758
768,1.55965475998e+18,-5.056787968,2.027565479,-3.651310682
769,1.55965476003e+18,0.7794182301,3.794798851,0.05847385526
770,1.55965476008e+18,0.9974971414,2.284128904,2.575238705
771,1.55965476013e+18,1.648679495,-1.341356158,1.771340013
772,1.55965476019e+18,2.464184523,0.2035219669,2.484830618
773,1.55965476024e+18,2.299861908,-1.273550153,2.949088097
774,1.55965476029e+18,2.265653372,-1.177644253,2.625329494
775,1.55965476034e+18,2.031692028,-1.704820991,2.297905684
776,1.55965476039e+18,1.646235943,-1.743305564,1.751181364
777,1.55965476045e+18,0.3939622939,-2.074394464,-0.1987004131
778,1.5596547605e+18,-3.279781342,-0.1972056329,-1.972042203
779,1.55965476055e+18,-6.516145706,0.07707286626,-2.92987895
780,1.5596547606e+18,-7.830727577,-0.2729529142,-3.77409482
781,1.55965476065e+18,-2.108752728,-0.6406937838,-4.008056164
782,1.55965476071e+18,0.6486930251,6.745277882,2.256366968
783,1.55965476076e+18,1.364016294,1.516882181,2.891055822
784,1.55965476081e+18,1.588814735,-1.087236285,0.9240698814
785,1.55965476086e+18,2.310246468,1.336066127,3.234973192
786,1.55965476091e+18,2.284590006,-0.5759420991,3.179995298
787,1.55965476097e+18,2.482510567,-2.399374723,2.415802717
788,1.55965476102e+18,2.508167028,-1.480633497,1.953377843
789,1.55965476107e+18,1.659064174,-1.205744147,1.313801885
790,1.55965476112e+18,1.162430763,-1.261943698,-0.3648557663
791,1.55965476117e+18,-3.211975336,0.4002205729,-2.493110418
792,1.55965476123e+18,-5.549145699,1.991524577,-2.556640387
793,1.55965476128e+18,-4.455696583,1.695254922,-1.899960041
794,1.55965476133e+18,-2.286514521,-0.06586959958,-2.369104624
795,1.55965476138e+18,0.8722697496,3.190042257,0.4500384927
796,1.55965476143e+18,1.787956834,2.19616437,2.224601984
797,1.55965476149e+18,2.371333122,-0.5240185261,2.101207256
798,1.55965476154e+18,2.081172228,0.1112813205,3.041328907
799,1.55965476159e+18,1.831328273,-0.4238366485,3.03766346
800,1.55965476164e+18,1.648068547,-2.287586451,2.67969656
801,1.55965476169e+18,1.558271527,-1.174589992,2.007744789
802,1.55965476175e+18,1.17342627,0.1149465069,1.988808036
803,1.5596547618e+18,-1.414198875,-3.497099638,0.3999475539
804,1.55965476185e+18,-6.552797318,-1.835546255,-2.60917449
805,1.5596547619e+18,-8.263219833,2.223653316,-3.096034288
806,1.55965476195e+18,-6.908931732,1.478397727,-4.708107471
807,1.55965476201e+18,0.9028130174,5.356781483,-0.4021185338
808,1.55965476206e+18,1.492298007,4.541275978,2.250869036
809,1.55965476211e+18,1.860649824,0.3550165296,1.515998244
810,1.55965476216e+18,2.872853518,-0.6822326183,2.015075207
811,1.55965476221e+18,2.712806702,0.1644266099,2.979631424
812,1.55965476227e+18,1.80261755,-1.669390917,2.687638044
813,1.55965476232e+18,1.834382534,-2.13181591,1.74873805
814,1.55965476237e+18,1.601032019,-0.8300620317,0.7676883936
815,1.55965476242e+18,1.059805393,1.944487929,0.6106960177
816,1.55965476247e+18,0.9999406338,-1.014543295,-0.1321161091
817,1.55965476253e+18,-3.141725779,-2.093331337,-2.527929783
818,1.55965476258e+18,-5.474620342,-1.142825127,-1.98609221
819,1.55965476263e+18,-6.441008568,0.1015074775,-2.177903891
820,1.55965476268e+18,-1.84302628,3.075199366,-2.015413761
821,1.55965476273e+18,0.7959116101,5.513773441,1.25576973
822,1.55965476279e+18,1.647457719,2.995176077,1.410929561
823,1.55965476284e+18,2.773282528,-0.7390431166,2.181841612
824,1.55965476289e+18,2.715250254,-0.6926173568,2.39808774
825,1.55965476294e+18,1.438541889,-0.7695863843,2.492160797
826,1.55965476299e+18,-0.2963154614,-1.720092654,2.680307388
827,1.55965476305e+18,-0.01592831127,-0.8392249942,3.178773403
828,1.5596547631e+18,-0.2272876948,-0.03288287669,3.804299593
829,1.55965476315e+18,0.7574270368,-3.740224123,1.815933108
830,1.5596547632e+18,-2.379365921,-2.489783049,-0.09546418488
831,1.55965476325e+18,-5.643218517,1.862631917,-2.601844311
832,1.55965476331e+18,-5.65116024,0.5059002638,-2.527929783
833,1.55965476336e+18,-7.417171478,-2.271704197,-4.588988781
834,1.55965476341e+18,1.216186881,2.840627193,-0.8559914231
835,1.55965476346e+18,2.106217623,3.263345957,1.650388718
836,1.55965476351e+18,2.327961683,0.1497658342,1.73590982
837,1.55965476357e+18,2.765341043,1.857134104,1.373666763
838,1.55965476362e+18,2.904618502,2.856509686,2.625329494
839,1.55965476367e+18,2.585746765,0.03553403169,2.38770318
840,1.55965476372e+18,2.591244698,-3.48304987,1.148257494
841,1.55965476377e+18,2.838644981,-5.180644512,0.7817382812
842,1.55965476382e+18,1.597977638,-0.7078889608,0.3559652269
843,1.55965476388e+18,-0.7483556867,-0.2986092567,-0.6983881593
844,1.55965476393e+18,-4.249224663,0.2010785043,-2.681256771
845,1.55965476398e+18,-6.605331421,0.2749931812,-3.070988655
846,1.55965476403e+18,-6.8557868,1.35133779,-3.440562248
847,1.55965476408e+18,0.4581031203,4.590145588,-1.940888047
848,1.55965476414e+18,1.990764022,5.047683716,2.277747393
849,1.55965476419e+18,2.00481391,-0.2326358259,1.529437423
850,1.55965476424e+18,2.71647191,-0.3945150971,2.41458106
851,1.55965476429e+18,2.258933783,1.02391398,3.462215185
852,1.55965476434e+18,0.9223607183,-1.76468575,3.759706259
853,1.5596547644e+18,0.7262729406,-2.788496017,3.084089279
854,1.55965476445e+18,0.514913559,-3.479995251,1.671768904
855,1.5596547645e+18,0.8044636846,5.522325516,0.5270075202
856,1.55965476455e+18,-0.5913633704,-0.3780217171,2.711461782
857,1.5596547646e+18,-4.547937393,-5.095122814,-3.213320255
858,1.55965476466e+18,-5.861908913,1.854690671,-1.731972218
859,1.55965476471e+18,-6.699404716,-3.570403576,-2.468675852
860,1.55965476476e+18,-3.910194397,1.087443948,-3.428955793
861,1.55965476481e+18,0.4715421498,3.242576599,2.686416149
862,1.55965476486e+18,0.960845232,1.466791272,1.236222029
863,1.55965476492e+18,1.664561987,-0.2674551308,1.444527149
864,1.55965476497e+18,2.149588823,0.3605143428,1.8812958
865,1.55965476502e+18,2.325518131,0.8785280585,2.67603159
866,1.55965476507e+18,2.176466942,-1.33402586,2.139080763
867,1.55965476512e+18,2.484954119,-1.924121737,1.073120952
868,1.55965476518e+18,3.924763441,-4.616816044,0.9784368873
869,1.55965476523e+18,1.348133802,0.08379238844,-0.687392652
870,1.55965476528e+18,-4.055580139,-0.6773456931,-2.683700085
871,1.55965476533e+18,-4.098340988,1.178462863,-2.89017272
872,1.55965476538e+18,-4.793505192,2.482049227,-2.617115974
873,1.55965476544e+18,-3.442271471,2.891939878,-2.832751513
874,1.55965476549e+18,0.7928572893,3.802740097,-0.5719391108
875,1.55965476554e+18,2.199679852,3.642693281,-0.1779309958
876,1.55965476559e+18,3.078715086,-0.04876537248,0.9967628717
877,1.55965476564e+18,2.852083921,1.407537341,1.812878728
878,1.5596547657e+18,2.108661175,0.02637105249,2.376096725
879,1.55965476575e+18,2.434252262,-1.480633497,2.468337059
880,1.5596547658e+18,2.153865099,-2.865465164,1.293032527
881,1.55965476585e+18,1.306594968,-2.572860479,-0.01910603233
882,1.5596547659e+18,-0.1326035708,-0.3658044338,0.387730211
883,1.55965476596e+18,0.5869956613,-0.5325706005,0.6656739116
884,1.55965476601e+18,-0.9090133309,-1.084182024,0.03465010971
885,1.55965476606e+18,-6.338994503,-0.7133867741,-2.653767824
886,1.55965476611e+18,-6.6877985,-1.429931641,-2.617726803
887,1.55965476616e+18,-6.595558167,-4.155612469,-2.749062777
888,1.55965476622e+18,0.5417916775,3.549231052,1.733466268
889,1.55965476627e+18,1.762911201,5.468569279,2.025460005
890,1.55965476632e+18,1.467252612,2.3782022,0.9845455885
891,1.55965476637e+18,2.777558327,-0.3566414416,2.404196262
892,1.55965476642e+18,2.099498034,0.8211067319,2.512930393
893,1.55965476648e+18,2.095221996,-0.3816869259,2.922210217
894,1.55965476653e+18,2.251603603,-0.2363010049,2.864177942
895,1.55965476658e+18,2.460519314,-1.418936133,1.985142827
896,1.55965476663e+18,2.564366341,0.7838439345,2.346775055
897,1.55965476668e+18,-0.3818365932,-3.685245991,0.536781311
898,1.55965476674e+18,-4.036643505,-1.423212171,-2.728293419
899,1.55965476679e+18,-5.166133404,2.976239204,-2.557251215
900,1.55965476684e+18,-6.147182465,-0.8917593956,-3.650089025
901,1.55965476689e+18,-6.161232948,0.3635686636,-3.177890062
902,1.55965476694e+18,-2.359207392,2.529085875,-2.422250032
903,1.559654767e+18,1.632797003,1.14303267,2.211773872
904,1.55965476705e+18,1.153878689,-0.1715492904,1.484844208
905,1.5596547671e+18,1.585149527,-0.8398358822,2.549582243
906,1.55965476715e+18,1.954112053,-0.3957368433,3.048659086
907,1.5596547672e+18,2.109882832,0.1381593943,3.074315786
908,1.55965476726e+18,1.492908835,-0.1086301655,3.812851667
909,1.55965476731e+18,0.9272476435,-1.822107196,3.708393812
910,1.55965476736e+18,1.102565885,-2.718246698,2.574627638
911,1.55965476741e+18,-0.3647323549,-1.366401792,1.856250286
912,1.55965476746e+18,-1.208948135,-1.21490705,-0.08019255847
913,1.55965476751e+18,-3.390347958,-0.08969334513,-1.878579855
914,1.55965476757e+18,-6.129467964,3.333595514,-3.000739336
915,1.55965476762e+18,-6.582118511,-1.067688584,-2.881620646
916,1.55965476767e+18,-4.904683113,-1.204522491,-4.278669357
917,1.55965476772e+18,1.06102705,5.899229527,0.8776441813
918,1.55965476777e+18,2.776947498,5.237662792,1.730412006
919,1.55965476783e+18,2.762286901,0.1784764975,1.806770086
920,1.55965476788e+18,2.794662714,-0.6632958651,2.707185507
921,1.55965476793e+18,2.20273447,-1.509344101,2.486052275
922,1.55965476798e+18,0.9327453971,-0.6193135381,2.558745384
923,1.55965476803e+18,-0.7624056339,-2.399374723,2.366933584
924,1.55965476809e+18,-0.8454833627,-5.58931303,1.651610494
925,1.55965476814e+18,1.316368818,-5.023041248,-0.8608783484
926,1.55965476819e+18,-1.066616535,5.323794365,0.04320222139
927,1.55965476824e+18,-5.828921795,-1.182531238,-2.62505722
928,1.55965476829e+18,-6.148404121,1.593851328,-1.586586356
929,1.55965476835e+18,-5.865573883,2.444786549,-2.883453131
930,1.5596547684e+18,0.327377975,2.864450932,-1.325135946
931,1.55965476845e+18,1.679222822,5.097163677,0.5990896225
932,1.5596547685e+18,2.937605143,3.555950403,1.492174506
933,1.55965476855e+18,3.158127546,1.566362262,2.149465561
934,1.55965476861e+18,3.318785191,0.03370143473,2.648542404
935,1.55965476866e+18,2.842309952,-1.739640355,3.59355092
936,1.55965476871e+18,1.097068071,-3.080489397,3.331489801
937,1.55965476876e+18,0.858219862,-1.498959422,3.114632607
938,1.55965476881e+18,1.546665072,-2.087833405,1.82509625
939,1.55965476887e+18,-0.5424941182,-2.324238539,-0.1718223393
940,1.55965476892e+18,-4.954163074,0.8846367002,-3.749049425
941,1.55965476897e+18,-6.384809494,0.4197682738,-2.961643696
942,1.55965476902e+18,-6.830741405,2.082543373,-3.585948229
943,1.55965476907e+18,-2.686020374,1.659213901,-1.990978956
944,1.55965476913e+18,0.7647574544,3.94079566,-0.7551986575
945,1.55965476918e+18,1.489243627,3.068480015,1.689484
946,1.55965476923e+18,2.077506781,1.317129254,2.698022366
947,1.55965476928e+18,2.52466011,0.5675976276,2.635714293
948,1.55965476933e+18,2.883238077,-1.314478159,3.123184919
949,1.55965476939e+18,2.714028597,-3.170286894,3.017505169
950,1.55965476944e+18,2.637670517,-2.348062277,2.492771864
951,1.55965476949e+18,2.056126595,-2.297971249,1.762176991
952,1.55965476954e+18,1.483745813,1.000090241,0.5263966322
953,1.55965476959e+18,-2.510701895,-3.415243626,-2.178514719
954,1.55965476965e+18,-4.371397495,2.104534626,-2.305574656
955,1.5596547697e+18,-6.158789158,0.3324145377,-3.32694149
956,1.55965476975e+18,-5.831975937,2.215101242,-2.339172125
957,1.5596547698e+18,1.072022676,4.567543507,1.015088797
958,1.55965476985e+18,1.578429937,2.064828396,0.09695836902
959,1.55965476991e+18,2.205788612,-0.8777095079,1.665660262
960,1.55965476996e+18,2.44219327,-0.2918897271,1.947269201
961,1.55965477001e+18,1.830717325,0.2163501382,2.935649157
962,1.55965477006e+18,1.418994188,-0.8673248291,2.837910652
963,1.55965477011e+18,0.574778378,-0.7518712878,3.18976903
964,1.55965477017e+18,0.2247525901,-1.450700998,2.425576687
965,1.55965477022e+18,0.1154077128,-1.8239398,1.368779778
966,1.55965477027e+18,1.116615891,0.1656483263,-0.5554457307
967,1.55965477032e+18,-2.067824602,-1.779957533,-1.869416833
968,1.55965477037e+18,-4.815496445,-0.04998710379,-2.090549946
969,1.55965477043e+18,-5.720798969,2.00740695,-1.673329115
970,1.55965477048e+18,-5.374438286,-1.437872887,-3.000128508
971,1.55965477053e+18,1.237567186,3.984777927,0.5312835574
972,1.55965477058e+18,1.621190548,3.728825092,1.421925068
973,1.55965477063e+18,1.783069849,0.314699471,1.905119538
974,1.55965477069e+18,2.192349672,-1.037145376,2.337612152
975,1.55965477074e+18,2.00481391,-0.6156483293,2.955196857
976,1.55965477079e+18,1.044533849,-0.7341561913,2.674809933
977,1.55965477084e+18,0.6205932498,-0.005393940024,2.360213995
978,1.55965477089e+18,0.2809522152,0.4961264431,2.208719492
979,1.55965477095e+18,1.817278266,-2.258875847,3.00101161
980,1.559654771e+18,-1.050734043,-5.488520622,1.256991506
981,1.55965477105e+18,-3.34636569,0.7618528008,-2.1320889
982,1.5596547711e+18,-5.354279995,2.770377636,-1.628736019
983,1.55965477115e+18,-7.836225033,-2.604014635,-4.108848572
984,1.55965477121e+18,-4.855813503,1.732517719,-4.100296974
985,1.55965477126e+18,1.407998562,7.88515234,0.2014163136
986,1.55965477131e+18,2.268096924,5.19978857,1.511722326
987,1.55965477136e+18,2.77633667,-0.6877304316,1.454911709
988,1.55965477141e+18,3.354826212,-0.6015984416,2.151298046
989,1.55965477147e+18,2.708530664,-0.1721601635,3.028500795
990,1.55965477152e+18,2.278481483,-2.195956707,2.627162218
991,1.55965477157e+18,1.824608684,-2.66510129,1.726746798
992,1.55965477162e+18,1.693883538,-1.912515283,0.9350655079
993,1.55965477167e+18,0.8423373699,-0.6840652227,0.2643354535
994,1.55965477173e+18,1.004827499,-3.19472146,-0.6183648705
995,1.55965477178e+18,-2.381198406,0.3030930161,-2.727071762
996,1.55965477183e+18,-5.315795422,1.328735709,-3.561513662
997,1.55965477188e+18,-5.146585464,3.500972748,-3.023341417
998,1.55965477193e+18,-4.246170044,-1.060969114,-2.54259038
999,1.55965477199e+18,0.01033889409,-0.3804652095,-1.758239388
1000,1.55965477204e+18,0.8679937124,3.040380239,1.175135493
1001,1.55965477209e+18,1.448926568,2.085597992,2.351661921
1002,1.55965477214e+18,2.291309834,-2.354170799,1.215452671
1003,1.55965477219e+18,2.443415165,-0.6883413196,1.800661445
1004,1.55965477225e+18,2.11049366,-0.2766180933,2.742004871
1005,1.5596547723e+18,2.205788612,-1.262554526,2.120754957
1006,1.55965477235e+18,2.717693567,-1.079295039,2.000414371
1007,1.5596547724e+18,2.430586815,-1.029814959,1.489120245
1008,1.55965477245e+18,0.8484460115,-1.111670852,0.7084344625
1009,1.55965477251e+18,-0.03547599912,1.366609335,0.008993769065
1010,1.55965477256e+18,-2.788034916,0.4350398779,-2.000141859
1011,1.55965477261e+18,-4.762351036,2.450284481,-3.350765228
1012,1.55965477266e+18,-4.640789032,2.045280695,-3.114360094
1013,1.55965477271e+18,-5.523489475,-0.03838066384,-3.508979321
1014,1.55965477277e+18,-1.301799655,0.2548346519,-0.9237974882
1015,1.55965477282e+18,0.271789223,1.017805338,0.1684295982
1016,1.55965477287e+18,0.9779494405,-0.7500386834,1.401766539
1017,1.55965477292e+18,1.563769221,-0.3175460696,1.950934291
1018,1.55965477297e+18,2.149588823,-1.153820515,2.261864662
1019,1.55965477303e+18,2.379274368,-1.083571076,2.334557772
1020,1.55965477308e+18,2.466627836,-1.310202122,2.024849176
1021,1.55965477313e+18,1.777572036,0.05447085574,2.004690647
1022,1.55965477318e+18,0.6340323091,-1.316310763,1.673601508
1023,1.55965477323e+18,0.5497329235,-2.150752783,0.726760447
1024,1.55965477329e+18,-2.100200415,-2.129372358,-1.810163021
1025,1.55965477334e+18,-4.302980423,3.040991068,-1.9628793
1026,1.55965477339e+18,-4.194857597,3.693395138,-1.645840168
1027,1.55965477344e+18,-3.645078659,1.767337084,-1.914620876
1028,1.55965477349e+18,-0.447810024,2.227929354,-0.2066416591
1029,1.55965477355e+18,0.8350069523,1.12653935,0.03281751275
1030,1.5596547736e+18,1.365848899,-0.1965947598,1.184298515
1031,1.55965477365e+18,1.551551938,-0.5875484943,1.44758141
1032,1.5596547737e+18,1.38845098,-0.6199243665,1.814100623
1033,1.55965477375e+18,0.969397366,-1.0628016,1.834869981
1034,1.55965477381e+18,1.04758811,-2.296749592,1.368779778
1035,1.55965477386e+18,0.8288983107,-2.171522141,1.015699744
1036,1.55965477391e+18,0.2204765379,-1.521561503,0.2081358284
1037,1.55965477396e+18,1.411663771,-1.070132136,0.5795419216
1038,1.55965477401e+18,-2.454502344,-1.117168665,-1.870027661
1039,1.55965477407e+18,-5.051290512,1.965257287,-1.598192692
1040,1.55965477412e+18,-5.606566906,0.08990103751,-1.876747251
1041,1.55965477417e+18,-3.863768578,-0.6810109019,-1.958603144
1042,1.55965477422e+18,1.142272234,2.271300793,-0.3618014157
1043,1.55965477427e+18,1.38845098,2.885831356,1.250882864
1044,1.55965477433e+18,1.53139329,0.5743172169,1.632062793
1045,1.55965477438e+18,1.954112053,-0.8923702836,2.146411419
1046,1.55965477443e+18,2.144702196,-0.8538857698,1.924056292
1047,1.55965477448e+18,2.512442827,-1.090290666,2.073107481
1048,1.55965477453e+18,2.324907303,-0.8392249942,1.558148026
1049,1.55965477459e+18,1.77268517,-0.311437428,1.194072366
1050,1.55965477464e+18,0.6065434217,-0.2943331897,0.580763638
1051,1.55965477469e+18,-1.519267678,-1.573485017,-0.7558094859
1052,1.55965477474e+18,-2.553462744,-0.445216924,-1.416154861
1053,1.55965477479e+18,-2.505204201,1.125317574,-1.183415174
1054,1.55965477485e+18,-4.11177969,1.230997324,-2.041069984
1055,1.5596547749e+18,-2.16495204,1.108824253,-0.9500646591
1056,1.55965477495e+18,-0.1600925177,2.851011992,0.4030018747
1057,1.559654775e+18,1.082407355,2.352545977,0.3211458921
1058,1.55965477505e+18,1.599810362,-0.7433191538,0.8648159504
1059,1.55965477511e+18,1.930899143,-0.8459445238,1.06029284
1060,1.55965477516e+18,1.771463394,-1.106173038,1.107940316
1061,1.55965477521e+18,1.108063698,-0.2613464594,1.291199923
1062,1.55965477526e+18,0.6425843835,-0.9223026633,0.9796586037
1063,1.55965477531e+18,0.4385554194,-1.279047966,0.4952425063
1064,1.55965477537e+18,-0.05196936056,-0.4898100793,0.1213929728
1065,1.55965477542e+18,-0.9383348227,-2.177019835,-0.3837925792
1066,1.55965477547e+18,-0.2138486505,0.9157908559,0.3590195477
1067,1.55965477552e+18,-4.477687836,-2.349283934,-2.26403594
1068,1.55965477557e+18,-6.886940479,-2.025525331,-2.832140446
1069,1.55965477563e+18,-2.935253382,4.383061886,-1.291538358
1070,1.55965477568e+18,0.1905441433,7.33842802,0.4335451126
1071,1.55965477573e+18,0.5222439766,1.540706038,1.213009119
1072,1.55965477578e+18,1.55094099,-0.8551074862,0.5251749158
1073,1.55965477583e+18,2.293142319,0.9090713263,2.210551977
1074,1.55965477589e+18,2.388437271,-0.03593720123,3.269181728
1075,1.55965477594e+18,1.701824665,-2.206341267,3.102415323
1076,1.55965477599e+18,1.274219155,-3.340107441,1.563034892
1077,1.55965477604e+18,0.8496677279,-2.327903509,0.6497913599
1078,1.55965477609e+18,-0.4545295835,0.3635686636,-0.2329088748
1079,1.55965477615e+18,-2.98839879,-4.764034271,-2.680035114
1080,1.5596547762e+18,-5.430637836,3.706223488,-3.559680939
1081,1.55965477625e+18,-4.805111885,2.857731342,-3.810135841
1082,1.5596547763e+18,-3.353696108,0.757576704,-6.304298401
1083,1.55965477635e+18,1.524062991,7.302998066,2.400531292
1084,1.55965477641e+18,1.745196223,3.004339218,3.792693138
1085,1.55965477646e+18,1.965718508,-1.583258867,0.8623725176
1086,1.55965477651e+18,3.016406775,-0.1544450521,1.624732256
1087,1.55965477656e+18,2.758621693,2.670806646,2.993681431
1088,1.55965477661e+18,1.0708009,0.7209248543,2.919155836
1089,1.55965477667e+18,0.4501618743,-3.771989107,1.873354435
1090,1.55965477672e+18,1.156322122,-3.531308174,0.8025077581
1091,1.55965477677e+18,1.951668739,0.2694954276,1.057849407
1092,1.55965477682e+18,2.162417173,-0.07442171127,-0.977553606
1093,1.55965477687e+18,-0.2669939399,0.810111165,-2.283583403
1094,1.55965477693e+18,-2.916927338,-3.341329098,-2.637274504
1095,1.55965477698e+18,-5.00975132,2.866894484,-2.473562479
1096,1.55965477703e+18,-5.755007267,-2.600960493,-3.191329241
1097,1.55965477708e+18,-4.631015301,-1.849596024,-3.952467203
1098,1.55965477713e+18,-0.06540839374,5.42825222,2.197723866
1099,1.55965477719e+18,0.721386075,3.291445732,1.627786636
1100,1.55965477724e+18,1.375011802,-0.7634777427,0.6351306438
1101,1.55965477729e+18,2.023750782,0.003158173291,2.110370159
1102,1.55965477734e+18,2.028026819,1.128371954,3.414567709
1103,1.55965477739e+18,0.9364106059,-2.060955524,3.609433651
1104,1.55965477745e+18,0.02866485156,-3.032842159,3.983283043
1105,1.5596547775e+18,-0.6738302112,-2.825147867,3.44816494
1106,1.55965477755e+18,-1.648771167,-4.392016888,2.688859701
1107,1.5596547776e+18,-0.4814076126,1.825980067,0.9967628717
1108,1.55965477765e+18,-3.592544317,0.3800620437,-0.9995447397
1109,1.55965477771e+18,-5.390320778,0.991538167,-1.56215167
1110,1.55965477776e+18,-5.80754137,0.6335710883,-2.198673248
1111,1.55965477781e+18,-1.259039044,-0.4592668116,-1.95982492
1112,1.55965477786e+18,2.40554142,3.340925694,0.8990244269
1113,1.55965477791e+18,2.139815092,1.665933371,3.167777777
1114,1.55965477797e+18,1.866758466,-0.4519364238,2.018129587
1115,1.55965477802e+18,1.889971256,0.1479332447,1.925888896
1116,1.55965477807e+18,1.955944657,-0.7347670197,1.280815244
1117,1.55965477812e+18,1.648679495,-0.3462567329,0.7786839604
1118,1.55965477817e+18,1.131887436,0.0196515359,0.2044706494
1119,1.55965477823e+18,0.244300276,0.1320507377,-0.4491551518
1120,1.55965477828e+18,-1.2437675,-1.239952683,-1.183415174
1121,1.55965477833e+18,-2.300564289,-2.992524862,-1.442422032
1122,1.55965477838e+18,-3.579105139,3.589548111,-1.290316701
1123,1.55965477843e+18,-5.158191681,2.651258945,-2.375213385
1124,1.55965477849e+18,-4.946221828,-2.605236292,-3.245696306
1125,1.55965477854e+18,1.106231213,1.873627543,-0.6403559446
1126,1.55965477859e+18,2.051239729,3.538846254,2.828136921
1127,1.55965477864e+18,2.170969248,0.8968539834,2.556912661
1128,1.55965477869e+18,2.531379938,-0.7756950259,2.419467926
1129,1.55965477875e+18,2.630339861,-0.2301923484,2.469559193
1130,1.5596547788e+18,2.20029068,-0.8948137164,2.015075207
1131,1.55965477885e+18,1.674335837,-1.502013803,0.5196771026
1132,1.5596547789e+18,0.9174737334,-0.461099416,-0.0771382302
1133,1.55965477895e+18,-0.2132377923,-0.1434494853,-0.9573950171
1134,1.55965477901e+18,-2.211988688,0.7038206458,-2.362996101
1135,1.55965477906e+18,-3.30360508,-2.468402624,-1.794891357
1136,1.55965477911e+18,-3.650576353,5.334179401,-2.204782009
1137,1.55965477916e+18,-5.260206699,1.960981369,-1.925005674
1138,1.55965477921e+18,0.3139389455,-2.431139946,-1.155315399
1139,1.55965477927e+18,-0.4203211069,-1.651064992,-1.327579379
1140,1.55965477932e+18,1.393948674,2.451506138,0.380399853
1141,1.55965477937e+18,2.641335487,3.384297371,1.787222505
1142,1.55965477942e+18,2.522827625,-0.01761124469,1.937495351
1143,1.55965477947e+18,1.860038877,-1.195970297,2.049283743
1144,1.55965477953e+18,1.232069373,-2.580190897,2.112202883
1145,1.55965477958e+18,0.7855269313,-1.14221406,1.473848581
1146,1.55965477963e+18,0.1025795415,-0.2332466692,0.7976207733
1147,1.55965477968e+18,-1.108766198,-4.307106972,-1.535273552
1148,1.55965477973e+18,-5.227219582,-0.2173641771,-1.064296484
1149,1.55965477979e+18,-5.877180099,3.334206343,-2.741121531
1150,1.55965477984e+18,-6.689631462,2.223653316,-5.001322746
1151,1.55965477989e+18,1.847210646,5.907781601,1.032804012
1152,1.55965477994e+18,0.5643936992,1.345839977,3.185493231
1153,1.55965477999e+18,1.968772769,-0.9998825788,1.666882038
1154,1.55965478005e+18,2.084837198,-0.2692877054,2.902662277
1155,1.5596547801e+18,1.477026343,-0.4158953726,3.32171607
1156,1.55965478015e+18,-0.1148884818,-2.92044282,2.530645609
1157,1.5596547802e+18,0.6340323091,-3.474497557,1.280815244
1158,1.55965478025e+18,-0.4533078372,-3.378591776,1.257602334
1159,1.55965478031e+18,-3.580326796,-1.250948071,-0.8950867653
1160,1.55965478036e+18,-5.457516193,2.35132432,-2.517544985
1161,1.55965478041e+18,-4.760518551,1.430750251,-3.186442375
1162,1.55965478046e+18,-5.142309666,1.670209527,-6.490612507
1163,1.55965478051e+18,2.422034979,5.141145706,2.77193737
1164,1.55965478057e+18,1.662729383,1.650661707,3.340041876
1165,1.55965478062e+18,2.388437271,-1.54233098,2.917934179
1166,1.55965478067e+18,2.81298852,-0.2436313778,2.738339663
1167,1.55965478072e+18,3.201498985,-0.8178447485,2.278969049
1168,1.55965478077e+18,2.927220345,0.5504934192,2.729787588
1169,1.55965478083e+18,2.530768871,-0.4360539317,2.570351839
1170,1.55965478088e+18,1.392726898,-0.2063686103,2.094487906
1171,1.55965478093e+18,0.3047759533,-1.337691069,0.6412393451
1172,1.55965478098e+18,-2.264523268,3.321378231,-2.451571465
1173,1.55965478103e+18,-3.255346775,-2.749400616,-2.256705284
1174,1.55965478109e+18,-6.262636185,-4.300387859,-3.335493326
1175,1.55965478114e+18,-8.309035301,0.2340652347,-3.380697489
1176,1.55965478119e+18,0.6328105927,5.013474941,0.04625654966
1177,1.55965478124e+18,2.023139954,3.419116735,2.382816076
1178,1.55965478129e+18,1.564990997,0.4075509608,2.403585434
1179,1.55965478135e+18,2.100108862,0.3134777248,2.190393448
1180,1.5596547814e+18,2.142869473,-0.5698334575,2.226434469
1181,1.55965478145e+18,2.373165846,-1.484909534,2.097542048
1182,1.5596547815e+18,2.464184523,-1.777513981,1.869078517
1183,1.55965478155e+18,1.681055307,-0.5796073079,1.74568367
1184,1.55965478161e+18,0.3518125713,-2.440302849,1.61984551
1185,1.55965478166e+18,-0.4752989709,-2.608901501,0.08535192162
1186,1.55965478171e+18,-2.417239428,0.1809199452,-1.041083574
1187,1.55965478176e+18,-4.23761797,-0.2057577372,-1.964711785
1188,1.55965478181e+18,-5.964534283,0.742915988,-1.96654439
1189,1.55965478187e+18,-7.853329659,3.201037884,-3.171170712
1190,1.55965478192e+18,1.847821474,3.113073349,0.1415515244
1191,1.55965478197e+18,1.525895476,3.174770594,1.016921401
1192,1.55965478202e+18,2.03780055,1.253599405,2.862956285
1193,1.55965478207e+18,2.411039352,-0.3755782843,2.317453623
1194,1.55965478213e+18,2.03780055,0.7978938818,3.041939735
1195,1.55965478218e+18,1.766576409,-0.4134519398,3.018726826
1196,1.55965478223e+18,1.439152718,-1.343188882,2.771326303
1197,1.55965478228e+18,1.142883062,-1.802559495,2.585623264
1198,1.55965478233e+18,1.770241737,-1.398777604,3.088976383
1199,1.55965478239e+18,0.6334214211,-4.164775372,1.648555994
1200,1.55965478244e+18,-2.747107029,-2.299192905,-0.182817921
1201,1.55965478249e+18,-5.023801804,4.485076427,-1.253664732
1202,1.55965478254e+18,-6.4031353,-1.407940507,-3.075875759
1203,1.55965478259e+18,-8.364012718,-2.743902922,-3.79730773
1204,1.55965478265e+18,-3.044598103,1.943877101,-3.071599722
1205,1.5596547827e+18,0.9993296862,7.549787521,1.363892794
1206,1.55965478275e+18,2.144091368,7.843002796,2.480554342
1207,1.5596547828e+18,2.328572512,0.8766955137,1.560591459
1208,1.55965478285e+18,3.061000109,-1.47635746,2.558134556
1209,1.55965478291e+18,2.423256636,0.7734592557,3.654026508
1210,1.55965478296e+18,2.032913685,-0.5264619589,4.01138258
1211,1.55965478301e+18,1.511845708,-2.604625463,3.276511908
1212,1.55965478306e+18,1.380509615,-2.440302849,2.751778841
1213,1.55965478311e+18,0.9516822696,-2.249712944,2.258199692
1214,1.55965478317e+18,0.617538929,-2.771391869,1.089003563
1215,1.55965478322e+18,-0.4343709946,-0.9003115296,0.3419153094
1216,1.55965478327e+18,-2.730002642,1.05690074,-1.461969733
1217,1.55965478332e+18,-4.660336971,1.764282703,-3.149790525
1218,1.55965478337e+18,-4.877193928,0.8247719407,-2.455236673
1219,1.55965478343e+18,-7.537512302,-2.183739424,-4.086857796
1220,1.55965478348e+18,-2.24741888,1.433193684,-2.758225918
1221,1.55965478353e+18,1.009714365,5.913890362,1.17941165
1222,1.55965478358e+18,1.926623225,3.072756052,2.578903913
1223,1.55965478363e+18,2.874075174,-1.630906343,2.085324764
1224,1.55965478368e+18,3.240594149,-1.312034726,2.896553755
1225,1.55965478374e+18,2.599796534,-1.246672153,3.014450788
1226,1.55965478379e+18,1.789789319,-0.893592,2.551414967
1227,1.55965478384e+18,1.49474144,-2.480009079,2.136026621
1228,1.55965478389e+18,1.225349903,-2.954040527,1.618012786
1229,1.55965478394e+18,1.9351753,-1.827605009,0.7090453506
1230,1.559654784e+18,0.06898195297,1.167467237,1.084727407
1231,1.55965478405e+18,-2.668305159,-1.349297523,-1.837651849
1232,1.5596547841e+18,-4.222957134,2.435012579,-2.372769833
1233,1.55965478415e+18,-5.32007122,1.860188484,-3.077708244
1234,1.5596547842e+18,-7.119069099,-1.282713175,-3.422847271
1235,1.55965478426e+18,-2.307283878,2.198607922,-1.517558455
1236,1.55965478431e+18,1.466030717,4.541275978,1.019975781
1237,1.55965478436e+18,1.952890396,4.168037415,0.7432537675
1238,1.55965478441e+18,2.643779039,2.04711318,2.093265772
1239,1.55965478446e+18,2.850251436,-0.552118361,2.944812298
1240,1.55965478452e+18,2.735408783,-3.0163486,2.508654356
1241,1.55965478457e+18,2.815432072,-4.477538586,1.260656595
1242,1.55965478462e+18,2.294363976,-1.916180372,0.4139974415
1243,1.55965478467e+18,2.455021381,-0.7249932289,0.6620087028
1244,1.55965478472e+18,2.918057442,-2.649218798,0.1806468964
1245,1.55965478478e+18,1.05736196,0.7276443243,-1.11866343
1246,1.55965478483e+18,-1.477728844,1.376383305,-2.355054617
1247,1.55965478488e+18,-3.751980305,1.61339891,-4.620753765
1248,1.55965478493e+18,-4.827103138,1.66959846,-4.989105701
1249,1.55965478498e+18,-5.327401638,2.403858662,-3.616491556
1250,1.55965478504e+18,-4.79411602,0.8834149837,-3.558459282
1251,1.55965478509e+18,0.3597538173,2.475940704,-0.344086349
1252,1.55965478514e+18,0.8924282789,3.217530966,0.9344545603
1253,1.55965478519e+18,1.452591777,0.09906401485,1.918558478
1254,1.55965478524e+18,2.056126595,-1.29431963,2.454287291
1255,1.5596547853e+18,2.322463751,-0.8538857698,3.120741129
1256,1.55965478535e+18,2.773282528,-2.42686367,2.803702116
1257,1.5596547854e+18,2.822151661,-3.109200239,1.743851066
1258,1.55965478545e+18,2.36888957,-1.327306271,1.597243428
1259,1.5596547855e+18,2.759843349,0.4240443408,1.687040687
1260,1.55965478555e+18,1.122724533,0.413048774,0.7902904153
1261,1.55965478561e+18,-1.043403745,-2.526434898,-1.455861092
1262,1.55965478566e+18,-2.806360722,-0.8673248291,-3.218818188
1263,1.55965478571e+18,-4.911402225,1.882790565,-3.216985703
1264,1.55965478576e+18,-6.818523407,-1.928397655,-3.438118935
1265,1.55965478581e+18,-6.949860096,-2.852637053,-3.107640743
1266,1.55965478587e+18,-0.5907524824,3.779527187,-0.9415125847
1267,1.55965478592e+18,1.33225131,6.13013649,1.597243428
1268,1.55965478597e+18,1.581484199,3.110629559,2.502545595
1269,1.55965478602e+18,2.736019611,-0.3926824927,2.406639814
1270,1.55965478607e+18,2.443415165,1.323848844,3.815906048
1271,1.55965478613e+18,1.722594142,0.9029626846,4.946617603
1272,1.55965478618e+18,0.7781965137,-1.723757982,4.547722816
1273,1.55965478623e+18,0.4177860022,-2.206952333,4.085297585
1274,1.55965478628e+18,-0.2388941199,-0.9534567595,3.467101812
1275,1.55965478633e+18,-1.297523618,-1.488574743,2.430463552
1276,1.55965478639e+18,-2.564457893,-4.078032494,0.1134517267
1277,1.55965478644e+18,-2.485045671,-5.194083691,-1.43325901
1278,1.55965478649e+18,-5.641996861,2.023289442,-0.4583181441
1279,1.55965478654e+18,-6.725061417,4.357405663,-1.354457378
1280,1.55965478659e+18,-5.260206699,3.099633932,-2.190732002
1281,1.55965478665e+18,-0.2413375825,2.872392416,-1.348959684
1282,1.5596547867e+18,1.945559978,0.9640492201,0.4494276047
1283,1.55965478675e+18,2.649276972,1.681204915,0.6051982641
1284,1.5596547868e+18,3.715236664,1.554144979,1.813489795
1285,1.55965478685e+18,3.102538824,1.540706038,2.68275094
1286,1.55965478691e+18,2.100108862,-0.3890173137,2.769493818
1287,1.55965478696e+18,1.665783644,0.8284371495,2.942368746
1288,1.55965478701e+18,1.04758811,-0.7830253839,3.184271336
1289,1.55965478706e+18,-0.01043052413,-1.914958715,2.671144485
1290,1.55965478711e+18,-0.5657070279,-2.021249294,1.644890904
1291,1.55965478717e+18,-2.020788193,-1.628462911,0.2734984159
1292,1.55965478722e+18,-3.097132683,-1.217350602,-1.000766516
1293,1.55965478727e+18,1.12700057,-2.386546612,-1.215790987
1294,1.55965478732e+18,-5.265093327,1.48084116,-1.57559073
1295,1.55965478737e+18,-6.817912579,-1.715205789,-1.220677972
1296,1.55965478743e+18,-5.608399391,-2.587521315,-2.42713666
1297,1.55965478748e+18,0.4006817937,5.613955498,1.851974249
1298,1.55965478753e+18,1.853930235,4.584036827,2.665035963
1299,1.55965478758e+18,2.181964874,-1.19169426,1.741407633
1300,1.55965478763e+18,2.876518488,-1.680997372,2.180619717
1301,1.55965478769e+18,2.03780055,0.519950211,2.920988321
1302,1.55965478774e+18,1.412274599,-1.322419405,2.332725048
1303,1.55965478779e+18,1.533836842,-0.6388611794,2.41458106
1304,1.55965478784e+18,1.119670153,1.142421842,3.47382164
1305,1.55965478789e+18,1.560714841,-0.9632306695,2.39503336
1306,1.55965478795e+18,-0.4850728214,-2.624784231,1.147035718
1307,1.559654788e+18,-3.697002172,-2.173354626,-2.116817474
1308,1.55965478805e+18,-4.367732525,3.058095217,-1.534051895
1309,1.5596547881e+18,-5.727518559,0.07646200806,-2.840081692
1310,1.55965478815e+18,-6.496597767,-0.5570052266,-4.460096359
1311,1.55965478821e+18,0.4385554194,4.015321255,0.3364175558
1312,1.55965478826e+18,1.766576409,4.522339344,1.508057117
1313,1.55965478831e+18,2.006035566,2.357432842,1.968038559
1314,1.55965478836e+18,2.524049282,-0.560670495,2.370598793
1315,1.55965478841e+18,2.485564947,-0.6926173568,2.273471117
1316,1.55965478847e+18,2.714639425,-0.9302439094,2.634492636
1317,1.55965478852e+18,2.18990612,0.4710809588,2.869065046
1318,1.55965478857e+18,1.62729919,1.044072509,3.435336828
1319,1.55965478862e+18,1.003605723,-0.8465553522,3.036441803
1320,1.55965478867e+18,0.7091687918,-4.290002823,2.8116436
1321,1.55965478873e+18,-2.353098631,-5.398112297,-1.155315399
1322,1.55965478878e+18,-5.261428356,6.244368076,-3.422236443
1323,1.55965478883e+18,-3.404397726,2.971963406,-2.606120348
1324,1.55965478888e+18,-6.208269596,-2.464737415,-5.337909698
1325,1.55965478893e+18,-7.136173725,-2.31079936,-4.924354076
1326,1.55965478899e+18,0.5650045276,3.832672358,-0.03804285452
1327,1.55965478904e+18,2.569864273,5.544316769,0.9857672453
1328,1.55965478909e+18,2.561312199,1.979307294,2.249036551
1329,1.55965478914e+18,3.09459734,-0.8325054646,1.691316605
1330,1.55965478919e+18,2.844753742,-0.2986092567,2.399920464
1331,1.55965478925e+18,2.704865456,-0.851442337,2.5508039
1332,1.5596547893e+18,1.951668739,-3.092095852,1.392603517
1333,1.55965478935e+18,1.463587284,-0.5563943982,0.4298799038
1334,1.5596547894e+18,2.320631266,-0.03838066384,1.034636497
1335,1.55965478945e+18,1.064692259,-0.173992753,1.333349586
1336,1.55965478951e+18,-1.392207742,-2.419533491,-0.3373668194
1337,1.55965478956e+18,-3.414171696,-1.900297999,-0.9409016967
1338,1.55965478961e+18,-6.981624603,-0.4824796915,-2.038626671
1339,1.55965478966e+18,-8.440981865,-2.183739424,-3.229813814
1340,1.55965478971e+18,-3.209531784,1.962203026,-1.328190327
1341,1.55965478977e+18,0.2522415221,4.244395733,0.9112417698
1342,1.55965478982e+18,1.688996553,2.973795891,1.749959707
1343,1.55965478987e+18,2.3890481,2.117362738,1.902065158
1344,1.55965478992e+18,3.020682812,-0.2808941603,2.636935949
1345,1.55965478997e+18,2.389658928,-0.6364177465,3.124406576
1346,1.55965479003e+18,2.586357594,-2.574082375,2.435350657
1347,1.55965479008e+18,2.6242311,-3.977850676,0.6681173444
1348,1.55965479013e+18,2.230223179,-1.560046077,-0.03315593302
1349,1.55965479018e+18,1.815445662,0.6244081259,-0.05575794727
1350,1.55965479023e+18,1.11722672,3.36169529,0.6497913599
1351,1.55965479029e+18,-1.328066945,-1.101286173,-2.583518267
1352,1.55965479034e+18,-6.462999821,-0.8844290376,-4.832113266
1353,1.55965479039e+18,-7.127621651,-3.775043488,-3.936584949
1354,1.55965479044e+18,-6.63770771,-0.3120482862,-3.388027906
1355,1.55965479049e+18,-0.641454339,5.17963028,-0.8895890117
1356,1.55965479055e+18,1.721372485,3.937130451,2.375485897
1357,1.5596547906e+18,2.171580076,1.418532968,1.213009119
1358,1.55965479065e+18,2.660272121,0.9927598834,2.117700577
1359,1.5596547907e+18,2.638281345,0.7239791751,3.173275709
1360,1.55965479075e+18,3.23998332,-1.88380456,2.508043528
1361,1.55965479081e+18,3.776323318,-5.599086761,0.03159578145
1362,1.55965479086e+18,2.444026232,-3.650426865,-1.915231824
1363,1.55965479091e+18,0.8551655412,2.576733351,-1.047803044
1364,1.55965479096e+18,1.265666962,3.53395915,-0.8205612302
1365,1.55965479101e+18,-0.8540353775,-0.3755782843,-1.880412459
1366,1.55965479107e+18,-3.36652422,-2.365777254,-3.265854836
1367,1.55965479112e+18,-5.531430721,1.482673883,-2.740510702
1368,1.55965479117e+18,-7.888148785,-5.502570152,-3.978123665
1369,1.55965479122e+18,-2.036059618,-0.2424096465,-0.9659471512
1370,1.55965479127e+18,-0.2547766268,4.732477188,2.375485897
1371,1.55965479133e+18,0.9223607183,3.469207525,1.616180182
1372,1.55965479138e+18,1.903410316,1.860799432,1.975979805
1373,1.55965479143e+18,3.052447796,0.06546643376,2.970468521
1374,1.55965479148e+18,2.365224361,0.6292950511,3.969844103
1375,1.55965479153e+18,1.662118554,-1.086014509,3.761538982
1376,1.55965479159e+18,1.174648046,-2.982751131,2.723679066
1377,1.55965479164e+18,1.00788188,-1.200857162,2.286299229
1378,1.55965479169e+18,1.458700418,1.01047492,2.406028986
1379,1.55965479174e+18,-2.321333647,-4.260070324,-1.208460689
1380,1.55965479179e+18,-5.183237076,-0.4946970046,-1.8669734
1381,1.55965479185e+18,-6.222319126,2.246255398,-2.512657881
1382,1.5596547919e+18,-6.350601196,0.3928901851,-3.021508694
1383,1.55965479195e+18,-1.844248056,0.5993626714,-2.204170942
1384,1.559654792e+18,2.040244102,3.466764212,2.459174395
1385,1.55965479205e+18,1.563158274,2.232205629,2.643655539
1386,1.55965479211e+18,1.671892285,-1.243006945,2.222769499
1387,1.55965479216e+18,1.993207574,-1.332193255,2.231321573
1388,1.55965479221e+18,1.867980123,0.12960729,2.713294268
1389,1.55965479226e+18,1.605308056,-0.5417336226,2.724289894
1390,1.55965479231e+18,1.687163949,-1.775681376,1.985142827
1391,1.55965479237e+18,2.590633869,-2.52948904,2.707796335
1392,1.55965479242e+18,0.3176041245,-2.129983187,0.710267067
1393,1.55965479247e+18,-2.656087875,0.8131654859,-1.013594627
1394,1.55965479252e+18,-4.67744112,0.365401268,-2.210890532
1395,1.55965479257e+18,-5.759893894,1.011696696,-2.903000832
1396,1.55965479263e+18,-6.798975945,-1.775070548,-4.006834507
1397,1.55965479268e+18,-2.725726604,2.402637005,-3.060604095
1398,1.55965479273e+18,2.131873846,6.389143467,4.096292973
1399,1.55965479278e+18,1.433044076,1.191901922,1.892902255
1400,1.55965479283e+18,1.828273773,-1.629684567,2.337001324
1401,1.55965479288e+18,2.115991354,0.4222117364,3.102415323
1402,1.55965479294e+18,0.9669538736,1.102715611,3.566672802
1403,1.55965479299e+18,0.6890102029,-1.701155901,3.088976383
1404,1.55965479304e+18,-0.04891503602,-1.83065927,3.040718079
1405,1.55965479309e+18,0.04271475226,-3.497710466,2.450622082
1406,1.55965479314e+18,-0.5498245358,-5.97293663,1.373666763
1407,1.5596547932e+18,-0.9902583361,1.182128072,0.2875483036
1408,1.55965479325e+18,-4.07451725,0.8272153735,-1.949440241
1409,1.5596547933e+18,-5.256541252,0.6751099229,-1.336131454
1410,1.55965479335e+18,-4.571150303,3.268232822,-1.977540016
1411,1.5596547934e+18,-3.207699299,3.713553667,-3.111305952
1412,1.55965479346e+18,1.379898787,3.695227861,0.8794767261
1413,1.55965479351e+18,1.939451337,1.823536634,0.3981149197
1414,1.55965479356e+18,2.665770054,-1.630295515,1.0932796
1415,1.55965479361e+18,2.831925631,-0.936963439,1.589302182
1416,1.55965479366e+18,2.572307587,-0.8813747168,2.072496653
1417,1.55965479372e+18,2.501447201,-2.43663764,1.476292133
1418,1.55965479377e+18,2.546651363,-1.755522847,0.8971918225
1419,1.55965479382e+18,4.316938877,-0.9479590058,1.742018461
1420,1.55965479387e+18,1.240010619,0.9548862576,0.6400175691
1421,1.55965479392e+18,-2.222373486,-2.335844994,-2.480893135
1422,1.55965479398e+18,-4.590698242,2.712345362,-3.729501486
1423,1.55965479403e+18,-5.993855476,0.990316391,-4.086857796
1424,1.55965479408e+18,-6.848455906,-1.088458061,-4.142446518
1425,1.55965479413e+18,-5.134367943,1.012307525,-4.697722912
1426,1.55965479418e+18,2.995637417,6.513148785,2.145800352
1427,1.55965479424e+18,1.979157567,4.601751804,3.222145081
1428,1.55965479429e+18,2.322463751,-0.3939042389,2.583179951
1429,1.55965479434e+18,2.736019611,-1.652286649,2.864788771
1430,1.55965479439e+18,2.959596157,-2.30713439,2.820806503
1431,1.55965479444e+18,4.049990654,-4.203259945,0.9161286354
1432,1.5596547945e+18,4.042049408,-2.082335711,-0.5340654254
1433,1.55965479455e+18,3.03473258,0.02637105249,0.4402646124
1434,1.5596547946e+18,2.021918058,1.194956303,-0.6916686296
1435,1.55965479465e+18,-0.8259356022,-0.9430720806,-1.805276036
1436,1.5596547947e+18,-3.694558859,1.93104887,-3.051441193
1437,1.55965479476e+18,-5.151472569,1.659213901,-3.744162321
1438,1.55965479481e+18,-6.678024769,-1.653508425,-4.106405258
1439,1.55965479486e+18,-7.401288986,-3.444565296,-4.753922462
1440,1.55965479491e+18,0.7171099782,4.833269596,-1.4595263
1441,1.55965479496e+18,1.263834357,6.863785744,4.115840912
1442,1.55965479502e+18,1.437320113,0.471691817,3.026668072
1443,1.55965479507e+18,1.489243627,-2.046905756,2.025460005
1444,1.55965479512e+18,1.573543072,-0.4421626031,3.205040693
1445,1.55965479517e+18,1.628520846,0.613412559,3.475043297
1446,1.55965479522e+18,1.580262542,-0.6474133134,3.844616652
1447,1.55965479528e+18,1.423270226,-0.2674551308,3.545903683
1448,1.55965479533e+18,0.8948717713,-1.448868513,3.894707441
1449,1.55965479538e+18,0.5277417898,-2.987027168,2.495215416
1450,1.55965479543e+18,-0.4600273371,-0.7201062441,1.925888896
1451,1.55965479548e+18,-2.246197224,-0.02371989749,0.8904722929
1452,1.55965479554e+18,-3.786188602,-0.5838832855,-0.8529371023
1453,1.55965479559e+18,-5.271812916,-0.4378865361,-1.3171947
1454,1.55965479564e+18,-7.165494919,-1.654119253,-1.686768174
1455,1.55965479569e+18,-7.06225872,-0.8312837481,-2.538924932
1456,1.55965479574e+18,-1.425194502,1.836975574,-0.5413957834
1457,1.5596547958e+18,0.7623140216,1.223667026,0.3700151443
1458,1.55965479585e+18,2.307192087,-0.3181569576,1.308915019
1459,1.5596547959e+18,3.180118561,0.1986350566,1.062125444
1460,1.55965479595e+18,3.476999283,1.485728145,2.46406126
1461,1.559654796e+18,3.102538824,1.651883364,2.909381866
1462,1.55965479606e+18,2.473958492,-0.0817520991,2.423133373
1463,1.55965479611e+18,1.568656087,-1.718260169,1.874576211
1464,1.55965479616e+18,0.9400758147,-2.107381344,0.5147902369
1465,1.55965479621e+18,0.6071542501,-2.507498026,0.3351958096
1466,1.55965479626e+18,-0.2938719988,-1.589367509,-0.3563036621
1467,1.55965479632e+18,-1.39281857,1.761228442,-0.8394980431
1468,1.55965479637e+18,-3.02505064,1.391654849,-1.04597044
1469,1.55965479642e+18,-5.168576717,2.462501764,-2.413086891
1470,1.55965479647e+18,-7.265677452,1.194956303,-3.534024715
1471,1.55965479652e+18,-4.199133396,-0.6077070832,-3.783868551
1472,1.55965479658e+18,-1.636553884,1.777721643,-1.786950111
1473,1.55965479663e+18,0.3072193861,3.009836912,0.5819853544
1474,1.55965479668e+18,1.55094099,1.27192533,1.2624892
1475,1.55965479673e+18,2.722580671,-1.370066881,1.578917503
1476,1.55965479678e+18,3.167901278,-0.4861449003,2.678474903
1477,1.55965479684e+18,3.250368118,-1.927786827,2.688248873
1478,1.55965479689e+18,2.481899738,-0.6956716776,2.96130538
1479,1.55965479694e+18,2.152643204,-0.5215750933,2.877616882
1480,1.55965479699e+18,0.874102354,0.9506101608,2.172067642
1481,1.55965479704e+18,-0.3445738256,-1.232622147,1.737131596
1482,1.5596547971e+18,-2.875999212,-2.855080366,-1.552988648
1483,1.55965479715e+18,-4.947443485,1.698309183,-1.971431375
1484,1.5596547972e+18,-5.021969318,0.5737062693,-3.201102972
1485,1.55965479725e+18,-7.433665276,-2.037742615,-5.673274994
1486,1.5596547973e+18,-0.4459774494,4.244395733,-2.004418135
1487,1.55965479736e+18,1.156322122,6.123416901,1.473848581
1488,1.55965479741e+18,1.925401449,2.505262136,2.189782619
1489,1.55965479746e+18,2.425089121,1.321405411,1.608849883
1490,1.55965479751e+18,2.77633667,0.6946576834,2.746280909
1491,1.55965479756e+18,3.079936743,-1.113503575,2.555691004
1492,1.55965479762e+18,2.982809067,-2.723133326,1.541654706
1493,1.55965479767e+18,2.098276377,-1.010267258,0.4237712622
1494,1.55965479772e+18,0.9260258675,1.492447615,0.5306726694
1495,1.55965479777e+18,0.425727278,-0.6810109019,0.04381308705
1496,1.55965479782e+18,-0.7330840826,-0.1171822846,-1.744800329
1497,1.55965479788e+18,-3.552227259,-1.046919227,-2.612229109
1498,1.55965479793e+18,-5.930936337,-2.848971605,-2.465010405
1499,1.55965479798e+18,-7.13556242,-1.590589285,-2.507771015
1500,1.55965479803e+18,-0.6219066381,4.538832664,-0.5676630139
1501,1.55965479808e+18,1.382342339,3.956067085,1.730412006
1502,1.55965479814e+18,1.657231569,1.182128072,2.381594419
1503,1.55965479819e+18,2.618122578,-0.7665320635,2.446957111
1504,1.55965479824e+18,2.667602777,-0.244853124,2.668700933
1505,1.55965479829e+18,2.41898036,-1.670612574,3.265516281
1506,1.55965479834e+18,2.604072809,-3.019402981,2.334557772
1507,1.5596547984e+18,2.712806702,-1.745748997,1.110994577
1508,1.55965479845e+18,1.002384067,-0.1098518968,0.9020787477
1509,1.5596547985e+18,0.3139389455,0.02576018684,0.3681825399
1510,1.55965479855e+18,-4.001213074,-3.703572035,-2.039237499
1511,1.5596547986e+18,-7.000561714,1.667765975,-2.437521458
1512,1.55965479866e+18,-6.514313221,1.581023097,-2.94331789
1513,1.55965479871e+18,-6.49171114,2.805807829,-5.128993511
1514,1.55965479876e+18,3.991347551,3.466153383,1.944825649
1515,1.55965479881e+18,1.806282759,2.274355173,2.059057713
1516,1.55965479886e+18,2.517329931,-0.3658044338,2.187339067
1517,1.55965479892e+18,2.531379938,1.200454116,2.625940323
1518,1.55965479897e+18,2.029859304,-0.7946318388,3.28200984
1519,1.55965479902e+18,1.99809432,-2.270482063,2.779878378
1520,1.55965479907e+18,1.939451337,-1.46963799,2.516595602
1521,1.55965479912e+18,3.383536816,-1.02920413,2.528812885
1522,1.55965479918e+18,0.532017827,-2.30713439,2.423133373
1523,1.55965479923e+18,-2.722672224,-1.238730788,-1.075902939
1524,1.55965479928e+18,-4.508842468,2.822301388,-1.841317058
1525,1.55965479933e+18,-6.131300449,-0.06770219654,-3.481490135
1526,1.55965479938e+18,-7.029882908,-0.902755022,-3.049608469
1527,1.55965479944e+18,-5.08549881,3.263956785,-2.742954016
1528,1.55965479949e+18,3.08421278,5.075783253,2.572184324
1529,1.55965479954e+18,2.334070206,1.461293459,1.833648324
1530,1.55965479959e+18,2.690204859,-1.58264792,1.768285632
1531,1.55965479964e+18,2.92844224,-0.05548489094,2.142135143
1532,1.5596547997e+18,2.376219988,0.8162198067,3.222145081
1533,1.55965479975e+18,1.799563289,-1.122666478,3.167166948
1534,1.5596547998e+18,1.764133096,-1.388392806,3.314385414
1535,1.55965479985e+18,1.41838336,-0.60220927,2.976577044
1536,1.5596547999e+18,1.066524863,-4.327265739,1.834869981
1537,1.55965479996e+18,-0.2077400088,-5.201413631,-1.147374153
1538,1.55965480001e+18,-3.737319231,0.9658817649,-2.345891953
1539,1.55965480006e+18,-4.248003006,5.155806541,-3.419181824
1540,1.55965480011e+18,-4.329247952,1.449687123,-2.673926353
1541,1.55965480016e+18,-6.079377174,1.554144979,-3.943915367
1542,1.55965480022e+18,-0.9621585608,4.638403893,-0.8278915882
1543,1.55965480027e+18,1.853319287,3.72271657,-0.4454899728
1544,1.55965480032e+18,2.153254032,-0.6632958651,0.9478936791
1545,1.55965480037e+18,2.679209232,-0.358474046,1.809824467
1546,1.55965480042e+18,2.205177784,0.09173363447,2.627773285
1547,1.55965480048e+18,1.726259351,-2.098829031,2.170235157
1548,1.55965480053e+18,1.579040885,-2.003534079,1.267376184
1549,1.55965480058e+18,6.114104271,-0.9394069314,2.989405155
1550,1.55965480063e+18,0.01033889409,-0.3951259851,1.25576973
1551,1.55965480068e+18,-3.155164719,-1.016986847,-1.361787796
1552,1.55965480073e+18,-5.270591259,1.362333417,-2.918883324
1553,1.55965480079e+18,-6.810582638,0.1442680508,-3.807081223
1554,1.55965480084e+18,-6.905266762,-0.8380032778,-5.786895275
1555,1.55965480089e+18,-0.7410253286,3.196761608,-1.810163021
1556,1.55965480094e+18,1.835604191,3.617647886,4.597202778
1557,1.55965480099e+18,1.07752049,-2.500778675,2.551414967
1558,1.55965480105e+18,2.07384181,-1.719481826,1.293032527
1559,1.5596548011e+18,1.910129786,2.449673653,2.143357038
1560,1.55965480115e+18,1.327364326,2.849790335,4.08713007
1561,1.5596548012e+18,1.986487865,-2.855691195,4.056586742
1562,1.55965480125e+18,2.050628901,-2.487950087,3.888598919
1563,1.55965480131e+18,1.452591777,-1.084792852,2.974744558
1564,1.55965480136e+18,0.0359952338,-4.666296005,1.88496089
1565,1.55965480141e+18,-2.813080311,-1.957108378,-0.5224589705
1566,1.55965480146e+18,-3.175323248,1.241382122,-0.1443334073
1567,1.55965480151e+18,-5.656047344,0.1674809307,-2.692863226
1568,1.55965480157e+18,-8.143489838,-2.31079936,-3.946358681
1569,1.55965480162e+18,-1.739179254,3.252961159,-0.9830514193
1570,1.55965480167e+18,0.4458858073,4.750191689,0.07863240689
1571,1.55965480172e+18,1.790400267,2.876057386,2.035233736
1572,1.55965480177e+18,2.519162416,-0.1306213289,2.230710745
1573,1.55965480183e+18,2.687761307,-0.461099416,2.3846488
1574,1.55965480188e+18,1.977324963,-0.2344684154,3.847670794
1575,1.55965480193e+18,1.332862139,-4.331541538,4.522066593
1576,1.55965480198e+18,0.7494858503,-4.551453114,2.955196857
1577,1.55965480203e+18,0.3664733171,-2.580190897,2.045618534
1578,1.55965480209e+18,0.275454402,0.1790873557,0.5447226167
1579,1.55965480214e+18,-2.384253025,0.9603840113,-1.440589428
1580,1.55965480219e+18,-4.701875687,2.81191659,-2.656211138
1581,1.55965480224e+18,-6.436121941,3.48081398,-3.8504529
1582,1.55965480229e+18,-7.181377411,0.9310625196,-5.922507763
1583,1.55965480235e+18,-1.971307993,6.723897457,-3.5163095
1584,1.5596548024e+18,1.106842041,10.93275833,1.424368501
1585,1.55965480245e+18,1.870423555,2.420962811,1.668103814
1586,1.5596548025e+18,2.438528299,-0.2173641771,2.47444582
1587,1.55965480255e+18,2.486175776,1.246268868,4.457314491
1588,1.55965480261e+18,2.71647191,-2.043851376,4.200139999
1589,1.55965480266e+18,2.025583267,-2.979696751,3.449997902
1590,1.55965480271e+18,2.277259827,-2.564919472,2.724900723
1591,1.55965480276e+18,2.6498878,-2.660214424,1.012645364
1592,1.55965480281e+18,0.4935332835,0.6781642437,-0.1400573552
1593,1.55965480287e+18,-2.650590181,-0.2045360059,-2.560305357
1594,1.55965480292e+18,-5.750731468,-0.07869777083,-3.468662024
1595,1.55965480297e+18,-6.581507683,-0.122680068,-3.227981091
1596,1.55965480302e+18,-7.357917309,0.8290479779,-4.05325985
1597,1.55965480307e+18,1.458089471,1.124095917,1.761566162
1598,1.55965480313e+18,1.860038877,-0.1746036112,1.875187159
1599,1.55965480318e+18,1.553384542,-1.684051633,2.362657547
1600,1.55965480323e+18,1.498406649,-1.425655603,2.035233736
1601,1.55965480328e+18,3.268083334,-0.5337923765,1.162307382
1602,1.55965480333e+18,3.175842524,0.6842729449,1.95765388
1603,1.55965480339e+18,3.414080143,-5.097566605,3.090808868
1604,1.55965480344e+18,2.109272003,0.8626455665,-0.8419415355
1605,1.55965480349e+18,-1.772776723,-2.632725239,-1.843149662
1606,1.55965480354e+18,-4.292595863,0.6537296772,-2.178514719
1607,1.55965480359e+18,-4.811220646,4.950555801,-2.292746544
1608,1.55965480365e+18,-5.118485928,4.834491253,-4.023327827
1609,1.5596548037e+18,-1.712301135,-1.746359825,-4.148555279
1610,1.55965480375e+18,1.885695219,1.108824253,-0.2494022399
1611,1.5596548038e+18,2.916835785,1.261540532,2.555691004
1612,1.55965480385e+18,2.126376152,-1.30409348,2.501323938
1613,1.55965480391e+18,2.324296474,-0.3254873455,3.132347584
1614,1.55965480396e+18,1.830717325,-2.798269749,2.32478404
1615,1.55965480401e+18,2.007257223,-2.186182976,1.380386233
1616,1.55965480406e+18,3.268694162,1.389211416,3.379748344
1617,1.55965480411e+18,-0.923674047,-2.526434898,-1.388665915
1618,1.55965480417e+18,-4.156983852,-0.1471146643,-2.491277695
1619,1.55965480422e+18,-5.927882195,0.4490898252,-3.909706831
1620,1.55965480427e+18,-8.585757256,0.5700411201,-5.330579281
1621,1.55965480432e+18,0.7940790057,4.620688438,0.6846107244
1622,1.55965480437e+18,2.359726667,3.178435802,1.89473474
1623,1.55965480443e+18,1.734200597,0.6726664901,1.842811227
1624,1.55965480448e+18,1.686553121,0.75879848,2.486663103
1625,1.55965480453e+18,1.929066658,-0.9766696692,2.404196262
1626,1.55965480458e+18,2.575361967,-2.851415157,-0.3373668194
1627,1.55965480463e+18,4.55456543,-3.081100225,-0.8938650489
1628,1.55965480469e+18,0.2693457603,3.315880299,-2.443630219
1629,1.55965480474e+18,-3.455099583,-2.241160631,-1.688600659
1630,1.55965480479e+18,-5.755007267,1.055068135,-2.297022343
1631,1.55965480484e+18,-5.583964825,5.874184132,-3.101531982
1632,1.55965480489e+18,-0.1026711762,0.4997916222,-0.3068235815
1633,1.55965480495e+18,1.533225894,-4.809849262,2.465282917
1634,1.559654805e+18,2.182575703,-0.696893394,2.47444582
1635,1.55965480505e+18,2.194182158,2.84184885,2.268584251
1636,1.5596548051e+18,1.341414332,0.1632048637,2.177565336
1637,1.55965480515e+18,1.201526165,-2.869740963,1.109162092
1638,1.55965480521e+18,3.012130499,-1.228346229,0.777462244
1639,1.55965480526e+18,-0.6371783018,-0.3322068453,-0.178541854
1640,1.55965480531e+18,-3.192427397,-1.745748997,-1.728307009
1641,1.55965480536e+18,-3.981665611,3.791744471,-1.390498519
1642,1.55965480541e+18,-3.738541126,-0.566168189,-2.406978369
1643,1.55965480547e+18,1.916849375,0.6946576834,0.8422139883
1644,1.55965480552e+18,2.001148701,0.4405376911,1.799439788
1645,1.55965480557e+18,1.822165132,-0.1825448573,2.528812885
1646,1.55965480562e+18,1.594923377,-0.5539509058,2.640601397
1647,1.55965480567e+18,2.572918653,-2.064009666,0.7628014684
1648,1.55965480573e+18,3.036565542,-0.9387960434,-0.5077981949
1649,1.55965480578e+18,1.673725009,2.121028185,-0.5157395005
1650,1.55965480583e+18,-2.272464514,-2.217336893,-1.086898446
1651,1.55965480588e+18,-4.954773903,-1.220404863,-1.432037354
1652,1.55965480593e+18,-6.284016609,3.769142389,-2.797932148
1653,1.55965480599e+18,-0.6066350341,1.500999808,-0.1883157045
1654,1.55965480604e+18,1.09095943,1.30857718,0.9491153359
1655,1.55965480609e+18,1.053085804,-0.901533246,2.830580235
1656,1.55965480614e+18,1.120891929,-0.757369101,2.394422531
1657,1.55965480619e+18,1.042701125,-1.837989569,2.457952738
1658,1.55965480625e+18,1.619357944,-2.364555359,1.483011603
1659,1.5596548063e+18,1.49107635,0.4674157798,2.02729249
1660,1.55965480635e+18,-0.7214776874,-0.6296982169,1.55020678
1661,1.5596548064e+18,-2.888827562,-7.154350281,-0.3422537446
1662,1.55965480645e+18,-4.211350441,1.214503884,-1.312307715
1663,1.55965480651e+18,-5.122761726,6.936478615,-2.781438828
1664,1.55965480656e+18,-2.37264657,4.497904778,-1.515725851
1665,1.55965480661e+18,1.765965581,1.973198652,0.0004416555748
1666,1.55965480666e+18,1.90218854,-0.2778398395,1.696814418
1667,1.55965480671e+18,1.933342695,-0.2674551308,2.578903913
1668,1.55965480677e+18,2.081783056,0.2016893774,2.968024969
1669,1.55965480682e+18,1.235123634,-1.139770746,3.214814663
1670,1.55965480687e+18,0.7391011119,-3.032231092,2.360825062
1671,1.55965480692e+18,0.8313418031,-2.908836365,1.465296507
1672,1.55965480697e+18,0.2705674767,-1.206965804,1.057238579
1673,1.55965480703e+18,0.05859724805,-0.9626197219,0.7120996714
1674,1.55965480708e+18,-2.71412015,-0.071367383,-1.124161243
1675,1.55965480713e+18,-5.527765751,0.665336132,-1.758239388
1676,1.55965480718e+18,-7.61142683,1.624394536,-3.854728937
1677,1.55965480723e+18,-2.156400204,0.4527550042,-2.857186079
1678,1.55965480729e+18,0.704892695,4.050140381,0.9680522084
1679,1.55965480734e+18,1.234512806,1.753287077,3.288729191
1680,1.55965480739e+18,1.192973971,-2.262541056,1.683986306
1681,1.55965480744e+18,1.799563289,-2.531932592,2.577682018
1682,1.55965480749e+18,1.729313731,-2.42686367,3.313774586
1683,1.55965480755e+18,1.221684694,-1.465972781,2.454898119
1684,1.5596548076e+18,0.6798472404,0.1351050735,2.79576087
1685,1.55965480765e+18,-0.08556694537,-1.694436431,1.913671613
1686,1.5596548077e+18,-3.045208931,-4.535570621,-1.705094099
1687,1.55965480775e+18,-2.685409307,8.564435005,-0.9769427776
1688,1.55965480781e+18,-4.003656864,-1.957719207,-4.056314468
1689,1.55965480786e+18,-7.210699081,-2.330347061,-3.859004974
1690,1.55965480791e+18,1.056140184,2.985402346,-0.6391342878
1691,1.55965480796e+18,1.724426746,3.602376223,1.110994577
1692,1.55965480801e+18,2.466017008,0.596919179,1.712086082
1693,1.55965480807e+18,2.925998688,-0.04754364118,1.824485183
1694,1.55965480812e+18,3.158738375,0.2762149274,2.614944935
1695,1.55965480817e+18,2.929053068,-0.8117361069,3.243525028
1696,1.55965480822e+18,2.272983551,-0.7512603998,4.285050392
1697,1.55965480827e+18,1.119670153,-3.230151653,2.720624447
1698,1.55965480833e+18,-0.7202559114,-5.213019848,0.3351958096
1699,1.55965480838e+18,-1.096548915,2.132023335,-1.408213615
1700,1.55965480843e+18,-3.772138596,4.677498817,-2.176682234
1701,1.55965480848e+18,-6.387252808,-0.04815450683,-3.914593697
1702,1.55965480853e+18,-7.664572239,1.303690314,-5.348905087
1703,1.55965480859e+18,-0.08801040798,5.99024868,-2.146749735
1704,1.55965480864e+18,2.288866282,6.383034706,0.5233423114
1705,1.55965480869e+18,1.637683988,2.618272305,2.20566535
1706,1.55965480874e+18,2.172190905,-1.354184389,2.548360586
1707,1.55965480879e+18,2.47151494,-0.5826616287,2.784154654
1708,1.55965480885e+18,2.503890753,-1.845930934,3.372417688
1709,1.5596548089e+18,2.31940937,-2.124485493,2.218493462
1710,1.55965480895e+18,2.15019989,-0.7811928391,1.367558122
1711,1.559654809e+18,1.467252612,-0.08358469605,1.719416499
1712,1.55965480905e+18,0.06653849781,-1.655951738,-0.8694304824
1713,1.55965480911e+18,-2.958466291,2.394084692,-3.167505503
1714,1.55965480916e+18,-4.197911739,-0.6248112917,-3.786922932
1715,1.55965480921e+18,-4.94927597,0.5425521731,-3.112527609
1716,1.55965480926e+18,-4.993258476,0.9225103855,-3.739275455
1717,1.55965480931e+18,2.466017008,3.965841055,1.875187159
1718,1.55965480937e+18,2.677987337,4.026316643,2.22887826
1719,1.55965480942e+18,1.937618732,0.6433449984,2.423133373
1720,1.55965480947e+18,1.952890396,-1.538665652,1.99064064
1721,1.55965480952e+18,1.964496851,-0.3377046287,1.821430922
1722,1.55965480957e+18,1.858206272,1.887066483,2.665035963
1723,1.55965480963e+18,0.7604814172,1.11981988,2.982074976
1724,1.55965480968e+18,0.3768580258,-2.037742615,2.770715475
1725,1.55965480973e+18,0.7391011119,-3.257029533,2.781711102
1726,1.55965480978e+18,-1.801487446,-2.980307579,0.277774483
1727,1.55965480983e+18,-5.250432491,-0.8752660751,-2.78449297
1728,1.55965480989e+18,-6.210102081,0.6433449984,-1.902403593
1729,1.55965480994e+18,-8.550937653,-1.290043592,-3.896267891
1730,1.55965480999e+18,-1.778274536,-1.222848415,-4.013554096
1731,1.55965481004e+18,0.8001877069,6.946863174,2.397476912
1732,1.55965481009e+18,1.465419888,2.213879347,3.346761465
1733,1.55965481015e+18,1.59064734,-2.915555954,1.096944809
1734,1.5596548102e+18,2.470904112,-0.5814398527,2.219715118
1735,1.55965481025e+18,2.605294466,-0.2161424607,3.195266962
1736,1.5596548103e+18,2.178910494,-0.2992201149,3.632035732
1737,1.55965481035e+18,1.378066182,-1.429320812,3.793914795
1738,1.55965481041e+18,0.7134447694,-2.686481476,4.067582607
1739,1.55965481046e+18,-0.7495774627,-3.095761299,2.963748932
1740,1.55965481051e+18,-4.152707577,0.2530020475,-1.223121405
1741,1.55965481056e+18,-4.483797073,2.863840103,-1.082622409
1742,1.55965481061e+18,-6.73666811,-0.7946318388,-4.732542515
1743,1.55965481067e+18,-7.739097595,0.1687026471,-5.853479862
1744,1.55965481072e+18,-1.212002397,6.971908569,-2.275642395
1745,1.55965481077e+18,2.464184523,8.558325768,0.2508963943
1746,1.55965481082e+18,2.930885792,3.394071102,2.092654943
1747,1.55965481087e+18,2.469682455,-1.27110672,1.240498066
1748,1.55965481093e+18,2.474569321,-0.2613464594,3.575835943
1749,1.55965481098e+18,2.261377335,-0.8367815614,3.993667841
1750,1.55965481103e+18,2.086059093,-3.924094439,2.037677288
1751,1.55965481108e+18,1.200304389,-2.183128357,0.9949303269
1752,1.55965481113e+18,0.6120411158,-2.290030003,0.4646992385
1753,1.55965481119e+18,0.2656805813,1.079502702,0.009604634717
1754,1.55965481124e+18,-0.7923380136,0.9176234603,0.04870000854
1755,1.55965481129e+18,-4.387891293,-0.5484531522,-2.372769833
1756,1.55965481134e+18,-6.552797318,-2.06278801,-3.060604095
1757,1.55965481139e+18,-7.353030682,-0.6394720674,-3.104586363
1758,1.55965481145e+18,-0.7892836928,6.221155167,0.4304907918
1759,1.5596548115e+18,0.6957296729,5.00736618,2.272860289
1760,1.55965481155e+18,1.39517045,0.9854295254,0.9228482246
1761,1.5596548116e+18,2.028026819,-0.7964644432,2.338833809
1762,1.55965481165e+18,2.503890753,-0.1855991781,2.737118006
1763,1.55965481171e+18,2.874686003,-1.589978337,1.999192715
1764,1.55965481176e+18,2.067733049,-0.78424716,1.836702585
1765,1.55965481181e+18,1.701824665,1.165634751,3.636922359
1766,1.55965481186e+18,0.1221272349,-0.07319997996,2.570962667
1767,1.55965481191e+18,-1.263926029,-5.266165733,0.08351932466
1768,1.55965481197e+18,-2.721450329,1.183349848,-1.589640617
1769,1.55965481202e+18,-5.358555794,1.78505218,-2.82725358
1770,1.55965481207e+18,-5.440411568,0.5376653075,-3.541354895
1771,1.55965481212e+18,-8.659060478,-1.362125635,-7.757546902
1772,1.55965481217e+18,0.9223607183,7.959066868,-0.3404211402
1773,1.55965481223e+18,2.919279337,4.192471981,5.486622334
1774,1.55965481228e+18,1.61386013,-0.6480241418,3.099361181
1775,1.55965481233e+18,2.847807884,0.6427340508,2.875173569
1776,1.55965481238e+18,2.406763077,-1.023706317,3.365698338
1777,1.55965481243e+18,2.624841928,-0.4989730418,2.164737225
1778,1.55965481249e+18,1.775128484,-0.8777095079,2.12686348
1779,1.55965481254e+18,2.374998331,-2.8996737,0.7261496186
1780,1.55965481259e+18,-0.5626527071,0.361125201,-0.728320539
1781,1.55965481264e+18,-3.939515829,1.511995316,-1.755795956
1782,1.55965481269e+18,-5.812428474,-1.67855382,-3.408186436
1783,1.55965481275e+18,-7.546675205,-2.404872656,-3.141238213
1784,1.5596548128e+18,-3.6047616,-2.545982361,-3.593889475
1785,1.55965481285e+18,1.663951159,5.097774506,2.327227354
1786,1.5596548129e+18,1.478858829,1.687924504,4.428604126
1787,1.55965481295e+18,1.866147518,-1.929619551,2.602116585
1788,1.55965481301e+18,2.40554142,-2.713359594,2.737118006
1789,1.55965481306e+18,1.77268517,-0.3254873455,3.841562271
1790,1.55965481311e+18,1.314536095,-1.623575926,3.713891506
1791,1.55965481316e+18,1.105009437,-2.818428516,3.042550564
1792,1.55965481321e+18,0.9889450073,-4.307106972,1.895345688
1793,1.55965481327e+18,-1.741011739,-2.779943943,-0.7411487699
1794,1.55965481332e+18,-6.181391239,3.19920516,-1.623238206
1795,1.55965481337e+18,-7.205811977,1.03368783,-2.22188592
1796,1.55965481342e+18,-8.786121368,-0.03960239515,-3.692849636
1797,1.55965481347e+18,-0.6561151147,2.515036106,-1.967155218
1798,1.55965481353e+18,2.363391876,4.934673309,0.9173504114
1799,1.55965481358e+18,3.034121752,2.854066133,3.13967824
1800,1.55965481363e+18,3.27907896,-0.1361191124,1.964984298
1801,1.55965481368e+18,3.198444605,0.503456831,2.437183142
1802,1.55965481373e+18,2.747015238,-1.663893104,2.670533657
1803,1.55965481379e+18,2.599185705,-3.524588585,1.366947293
1804,1.55965481384e+18,1.968161941,-3.070105076,0.3516891897
1805,1.55965481389e+18,1.728091955,1.296970725,1.185520291
1806,1.55965481394e+18,-0.3897778392,0.2084088922,-0.3202626109
1807,1.55965481399e+18,-4.231509209,-1.392668962,-2.153469324
1808,1.55965481405e+18,-6.65847683,1.319572806,-2.212723255
1809,1.5596548141e+18,-7.360361099,1.997633219,-3.14856863
1810,1.55965481415e+18,-3.041543961,3.025719404,-4.148555279
1811,1.5596548142e+18,1.248562694,5.158860683,1.536156893
1812,1.55965481425e+18,1.563158274,2.303676844,2.547749758
1813,1.55965481431e+18,2.643779039,-0.6816217899,1.853806734
1814,1.55965481436e+18,2.941270351,-0.4635428786,2.70962882
1815,1.55965481441e+18,2.901564121,-1.483077049,2.841575861
1816,1.55965481446e+18,3.900939703,-3.448230505,0.8067837358
1817,1.55965481451e+18,3.492881536,-1.598530531,0.03587184101
1818,1.55965481456e+18,2.023139954,2.001909256,0.1720947921
1819,1.55965481462e+18,3.328558922,-3.342550755,-0.7997918129
1820,1.55965481467e+18,-2.934031487,0.1827525496,-3.842511654
1821,1.55965481472e+18,-6.105644226,3.87787652,-3.014789343
1822,1.55965481477e+18,-5.232717514,1.936546683,-2.998295784
1823,1.55965481482e+18,-3.412339211,0.5462173223,-3.076486588
1824,1.55965481488e+18,1.26627779,1.634779334,1.382218838
1825,1.55965481493e+18,1.155100346,4.05685997,2.141524315
1826,1.55965481498e+18,1.616914392,0.4313747287,3.180606127
1827,1.55965481503e+18,1.731146216,-0.8074600101,2.203221798
1828,1.55965481508e+18,1.117837548,-1.068299413,2.670533657
1829,1.55965481514e+18,0.4183968902,-2.329735994,2.017518759
1830,1.55965481519e+18,0.9144194126,-2.674264193,1.284480333
1831,1.55965481524e+18,1.999927044,0.1180008426,2.304014444
1832,1.55965481529e+18,0.5454568267,-0.8917593956,1.818376541
1833,1.55965481534e+18,-1.932823539,-4.572833538,-2.025187492
1834,1.5596548154e+18,-5.062897205,0.9524427652,-1.355679154
1835,1.55965481545e+18,-6.337162018,1.110046029,-2.586572647
1836,1.5596548155e+18,-6.601055622,-0.9638414979,-3.806470394
1837,1.55965481555e+18,0.4868137836,1.499167085,-0.6941121221
1838,1.5596548156e+18,1.808726192,3.28533721,2.539197445
1839,1.55965481566e+18,1.856984496,1.184571505,3.087143898
1840,1.55965481571e+18,2.350563765,-1.442759871,1.921001911
1841,1.55965481576e+18,2.433030605,-0.4598776996,2.434129
1842,1.55965481581e+18,1.735422373,-1.206354976,2.652207851
1843,1.55965481586e+18,1.766576409,-1.233232975,2.473224163
1844,1.55965481592e+18,1.525895476,-1.511787653,2.583179951
1845,1.55965481597e+18,-0.8467050195,-1.75430119,0.778073132
1846,1.55965481602e+18,-3.408062935,-0.5368466973,-0.9451777339
1847,1.55965481607e+18,-5.761726856,0.3690664768,-2.871235847
1848,1.55965481612e+18,-7.644413471,2.031230927,-2.872457504
1849,1.55965481618e+18,-4.669499397,-0.9143614769,-3.701401711
1850,1.55965481623e+18,1.568656087,4.832658768,-0.1186770722
1851,1.55965481628e+18,2.734797955,2.418519258,3.317440033
1852,1.55965481633e+18,2.177688837,-1.272328496,1.767674804
1853,1.55965481638e+18,2.830703497,0.7050423622,2.443291664
1854,1.55965481644e+18,2.593077183,-1.750025034,2.596008062
1855,1.55965481649e+18,3.164846897,-2.93632555,1.640614867
1856,1.55965481654e+18,3.040230513,-1.920456529,1.136651039
1857,1.55965481659e+18,2.086059093,0.125331223,0.4359885752
1858,1.55965481664e+18,0.9651212692,2.53336215,1.788444161
1859,1.5596548167e+18,-1.27369988,-3.968076944,-1.02581203
1860,1.55965481675e+18,-3.44593668,-0.4684298038,-2.009305
1861,1.5596548168e+18,-6.194219112,1.721522093,-2.129034758
1862,1.55965481685e+18,-6.692685604,-2.732907295,-3.505313873
1863,1.5596548169e+18,-6.539358616,-2.519104481,-4.956729889
1864,1.55965481696e+18,-0.641454339,6.606611252,1.994916677
1865,1.55965481701e+18,1.176480532,4.338468552,2.068831205
1866,1.55965481706e+18,2.592466354,1.042240024,1.809824467
1867,1.55965481711e+18,2.563144684,2.283518076,3.399295807
1868,1.55965481716e+18,2.171580076,-1.321808577,3.982061386
1869,1.55965481722e+18,2.629118204,-3.398750544,2.890444994
1870,1.55965481727e+18,3.245481253,-4.611317635,0.8257206082
1871,1.55965481732e+18,3.418967009,-0.7347670197,0.7542493939
1872,1.55965481737e+18,2.109272003,2.3048985,0.2307378501
1873,1.55965481742e+18,-0.9841496944,-0.3047178984,-2.020300627
1874,1.55965481748e+18,-3.072087049,0.2365086973,-2.571911812
1875,1.55965481753e+18,-5.120318413,-0.6810109019,-2.768610477
1876,1.55965481758e+18,-6.502095699,0.6073039174,-2.329398394
1877,1.55965481763e+18,-0.2761569023,2.651869774,-0.2451261729
1878,1.55965481768e+18,1.1667068,3.587715387,0.6650630236
1879,1.55965481773e+18,1.752526641,0.4405376911,1.683986306
1880,1.55965481779e+18,2.149588823,-0.06892392784,1.561813235
1881,1.55965481784e+18,1.751915693,0.3696773052,2.737118006
1882,1.55965481789e+18,1.599810362,-1.833102822,1.858693719
1883,1.55965481794e+18,1.752526641,-2.534375906,0.6284111142
1884,1.55965481799e+18,2.434863091,-0.4757601917,1.010201931
1885,1.55965481805e+18,4.012728214,1.360500693,1.85136342
1886,1.5596548181e+18,-1.306686521,-0.5423445106,-1.909123063
1887,1.55965481815e+18,-5.075725079,-1.724979639,-2.999517679
1888,1.5596548182e+18,-5.712857246,0.9267864227,-1.934779406
1889,1.55965481825e+18,-5.347559929,-0.3279307783,-3.047165155
1890,1.55965481831e+18,-4.929728508,-2.123874426,-3.070377827
1891,1.55965481836e+18,2.169747591,2.731282473,2.055392265
1892,1.55965481841e+18,1.799563289,2.488768816,3.431060791
1893,1.55965481846e+18,1.409220338,-0.2216402441,2.441459179
1894,1.55965481851e+18,1.459311247,-0.5130229592,2.671144485
1895,1.55965481857e+18,1.194806695,-0.9082527757,2.47444582
1896,1.55965481862e+18,1.411663771,-1.942447662,1.910006523
1897,1.55965481867e+18,1.076909661,-2.450687408,0.333363235
1898,1.55965481872e+18,0.9351888895,-0.2503508925,0.08474105597
1899,1.55965481877e+18,0.3402061164,-1.458642364,-0.1418899596
1900,1.55965481883e+18,-2.431289434,-3.00290966,-0.438159585
1901,1.55965481888e+18,-6.065326691,-1.021873713,-1.777787089
1902,1.55965481893e+18,-6.603498936,1.053235531,-1.487626076
1903,1.55965481898e+18,-5.699418545,0.7215356827,-4.293330193
1904,1.55965481903e+18,0.9486279488,4.367790699,1.972925544
1905,1.55965481909e+18,1.454424262,2.65981102,1.945436597
1906,1.55965481914e+18,2.287644625,-0.4244475067,2.173900127
1907,1.55965481919e+18,2.14714551,0.1583179533,2.472002506
1908,1.55965481924e+18,1.442817926,-0.8471662402,2.994292259
1909,1.55965481929e+18,1.760467768,-2.556977987,1.965595126
1910,1.55965481935e+18,1.69021821,-1.695047259,1.486676812
1911,1.5596548194e+18,0.8460025787,0.9426689744,1.245385051
1912,1.55965481945e+18,1.051864147,0.5168958902,1.528215528
1913,1.5596548195e+18,-3.131340981,-4.063982487,-3.110695124
1914,1.55965481955e+18,-4.67744112,2.330554724,-3.067934513
1915,1.55965481961e+18,-4.876583099,-0.1153496876,-2.901168108
1916,1.55965481966e+18,-7.263844013,-1.633960724,-5.400828838
1917,1.55965481971e+18,1.395781279,4.789287567,-0.1027945727
1918,1.55965481976e+18,2.048185349,5.370220184,2.184284925
1919,1.55965481981e+18,1.802006721,2.03367424,2.712072611
1920,1.55965481987e+18,2.299861908,-0.1403951496,1.937495351
1921,1.55965481992e+18,2.541764498,-0.6168700457,2.380372524
1922,1.55965481997e+18,2.542986155,-1.567987204,2.065166235
1923,1.55965482002e+18,2.414704561,-0.7494277954,1.660162449
1924,1.55965482007e+18,2.205788612,-0.7329344749,1.300973773
1925,1.55965482013e+18,1.694494367,-1.666336536,0.4989076853
1926,1.55965482018e+18,-0.5736482739,1.34156394,-0.910969317
1927,1.55965482023e+18,-2.874777555,0.5138415098,-2.303131104
1928,1.55965482028e+18,-4.99570179,-3.009018421,-3.60549593
1929,1.55965482033e+18,-7.365248203,-0.1086301655,-3.65497613
1930,1.55965482039e+18,-2.477104425,0.9102931023,-3.053273678
1931,1.55965482044e+18,2.660272121,4.573651791,2.05355978
1932,1.55965482049e+18,2.287644625,2.323835135,4.174483776
1933,1.55965482054e+18,2.476401806,0.196191594,2.98757267
1934,1.55965482059e+18,2.952876806,0.03064711019,2.748113632
1935,1.55965482065e+18,2.492895365,-0.08541729301,2.481776476
1936,1.5596548207e+18,2.054904699,-0.5631138682,1.963151693
1937,1.55965482075e+18,1.577819109,-1.137938142,0.8080055118
1938,1.5596548208e+18,0.6505256891,-0.6400829554,0.4054453075
1939,1.55965482085e+18,0.4593248665,-1.401221037,-1.08873105
1940,1.55965482091e+18,-4.472801208,-1.409773231,-3.124744892
1941,1.55965482096e+18,-6.061050892,-2.829424143,-2.421639204
1942,1.55965482101e+18,-7.64868927,-2.478176594,-3.193772793
1943,1.55965482106e+18,0.9791711569,1.620118499,-0.4008968174
1944,1.55965482111e+18,1.751304865,3.256626368,2.388924837
1945,1.55965482117e+18,2.221060276,0.5901996493,2.390757322
1946,1.55965482122e+18,2.434252262,-0.6132048368,1.544098139
1947,1.55965482127e+18,2.387826443,0.9316733479,2.960694551
1948,1.55965482132e+18,1.742752671,1.13264811,2.602727652
1949,1.55965482137e+18,1.202136993,-1.265608907,2.151298046
1950,1.55965482143e+18,0.4092338979,1.083778858,1.814100623
1951,1.55965482148e+18,-0.1680337489,-3.87400341,1.496450663
1952,1.55965482153e+18,-4.863754749,-2.12876153,-2.837027311
1953,1.55965482158e+18,-6.290736198,3.000673771,-1.636066318
1954,1.55965482163e+18,-7.554615974,-1.038367033,-4.116789818
1955,1.55965482169e+18,-3.261455297,-3.256418705,-4.647020817
1956,1.55965482174e+18,1.709155202,5.773391247,2.796982765
1957,1.55965482179e+18,1.651122928,2.151571274,4.335141659
1958,1.55965482184e+18,1.180756688,-1.633960724,2.421911478
1959,1.55965482189e+18,2.076285124,-1.76774013,3.451830387
1960,1.55965482195e+18,1.19663918,-2.232608557,3.920363903
1961,1.559654822e+18,1.029873013,-3.580177307,3.249633789
1962,1.55965482205e+18,0.8276765943,-2.536819696,3.18976903
1963,1.5596548221e+18,0.3194366992,2.233427286,2.853182316
1964,1.55965482215e+18,-3.35675025,-1.282713175,-1.615296841
1965,1.55965482221e+18,-6.755604267,-1.669390917,-4.3507514
1966,1.55965482226e+18,-5.450796604,6.75627327,-2.262203217
1967,1.55965482231e+18,-5.465456963,11.23025131,-4.341588497
1968,1.55965482236e+18,5.106787682,-1.701766729,1.136040211
1969,1.55965482241e+18,0.6945080161,-1.577761054,-1.240836501
1970,1.55965482247e+18,3.551524639,1.316518426,1.03036046
1971,1.55965482252e+18,4.230195999,1.834532261,1.191628933
1972,1.55965482257e+18,3.82580328,1.26887095,1.625954151
1973,1.55965482262e+18,4.479429245,-2.998633623,0.2655571699
1974,1.55965482267e+18,3.913767815,-3.798256397,-1.038029313
1975,1.55965482273e+18,1.699381351,6.058054924,0.2515072823
1976,1.55965482278e+18,1.453202605,1.974420309,2.782932758
1977,1.55965482283e+18,-0.8784700036,-2.975420713,-0.6574602127
1978,1.55965482288e+18,-3.492973328,1.955483556,-1.725863576
1979,1.55965482293e+18,-5.284641266,0.8479847908,-1.496178269
1980,1.55965482299e+18,-7.469706059,-4.532516003,-3.713008165
1981,1.55965482304e+18,-1.635331988,1.459460974,-0.5041330457
1982,1.55965482309e+18,0.7091687918,2.89132905,2.968636036
1983,1.55965482314e+18,0.9657320976,-1.194137692,2.406028986
1984,1.55965482319e+18,0.6633538008,-1.689549446,2.478721857
1985,1.55965482325e+18,0.7653683424,-0.1972056329,3.512916803
1986,1.5596548233e+18,1.018877387,-2.640666485,2.087768316
1987,1.55965482335e+18,1.681055307,-2.663879395,1.416427255
1988,1.5596548234e+18,6.463519573,-2.029801369,3.275290251
1989,1.55965482345e+18,1.930288315,0.4936829507,-0.2170263678
1990,1.55965482351e+18,-1.484448314,-0.5044708848,-1.650727034
1991,1.55965482356e+18,-3.239464045,2.04344821,-2.333063364
1992,1.55965482361e+18,-3.718382597,5.074561596,-2.944539785
1993,1.55965482366e+18,-6.133132935,2.300622225,-4.164437294
1994,1.55965482371e+18,-0.6664997935,-2.008420944,-5.163813114
