,Time (s),Gyroscope x (rad/s),Gyroscope y (rad/s),Gyroscope z (rad/s)
0,1.55965592405e+18,0.03049744852,0.04469700903,0.09818009287
1,1.5596559241e+18,0.04271475226,0.04164268449,0.1696513146
2,1.55965592416e+18,0.1502270401,0.2798801363,0.3620738685
3,1.55965592421e+18,0.3493691087,0.7117618322,0.7554710507
4,1.55965592426e+18,0.4080121815,0.8082785606,1.152533412
5,1.55965592431e+18,0.712833941,1.421587229,1.669936419
6,1.55965592436e+18,1.103176713,2.023289442,2.600894928
7,1.55965592442e+18,1.583927751,1.238327742,3.182438612
8,1.55965592447e+18,2.035968065,1.00375545,3.297281504
9,1.55965592452e+18,2.420813322,0.8638672829,3.595994473
10,1.55965592457e+18,2.282757521,1.664711714,3.417621851
11,1.55965592462e+18,1.977324963,1.015361905,3.322326899
12,1.55965592468e+18,2.057959318,0.144878909,2.877616882
13,1.55965592473e+18,1.5741539,1.807654023,2.826304197
14,1.55965592478e+18,1.263834357,1.573081851,2.877006054
15,1.55965592483e+18,1.160598159,0.9909272194,3.216647148
16,1.55965592488e+18,1.028040409,1.500388861,3.492147446
17,1.55965592494e+18,0.7244403958,0.8149980903,3.713891506
18,1.55965592499e+18,0.9070890546,0.5254479647,3.142121553
19,1.55965592504e+18,0.5686697364,1.232218981,3.19282341
20,1.55965592509e+18,0.1477835625,1.05995512,2.949088097
21,1.55965592514e+18,-0.4221536815,0.5559912324,3.030333281
22,1.5596559252e+18,-0.6475629807,0.1742004454,3.336987495
23,1.55965592525e+18,-0.5345529318,-0.7023911476,3.048659086
24,1.5596559253e+18,-0.529665947,-0.9565110803,2.878838539
25,1.55965592535e+18,-0.6200740337,-1.448868513,2.718181133
26,1.5596559254e+18,-0.3482390046,-0.1446712166,2.0505054
27,1.55965592546e+18,-0.3855017722,-0.2124772668,1.388327479
28,1.55965592551e+18,-0.196133554,0.262775898,0.9845455885
29,1.55965592556e+18,-0.14115569,-0.6199243665,0.5202879906
30,1.55965592561e+18,-0.2211790383,0.2817127407,0.324200213
31,1.55965592566e+18,-0.2920393944,-0.003561344463,0.08718451858
32,1.55965592572e+18,-0.6066350341,-0.2460748404,-0.4210553467
33,1.55965592577e+18,-0.2627178729,1.289029598,-1.149817586
34,1.55965592582e+18,-0.04036292434,0.7868982553,-1.099115849
35,1.55965592587e+18,0.08975137025,-0.6736805439,-0.3550819159
36,1.55965592592e+18,0.2229200006,-0.2882245481,-0.6592927575
37,1.55965592598e+18,0.7659791708,0.006823364645,-1.119274259
38,1.55965592603e+18,0.9718407989,0.1986350566,-0.8706521392
39,1.55965592608e+18,1.143493891,-0.5545617938,-0.6305821538
40,1.55965592613e+18,0.9229715466,-0.885650754,-0.3544710279
41,1.55965592618e+18,0.6438061595,-1.787287831,-0.0007800749154
42,1.55965592624e+18,0.1410640627,-1.316310763,-0.4509877563
43,1.55965592629e+18,-1.060507894,0.06607729197,-0.8700413108
44,1.55965592634e+18,-0.009208793752,-2.009642839,-1.300701261
45,1.55965592639e+18,0.8185136318,-0.307772249,-1.030698895
46,1.55965592644e+18,1.037203312,0.1534310281,-2.384987116
47,1.5596559265e+18,0.9981079698,1.62622714,-2.685532808
48,1.55965592655e+18,0.7158882618,1.807043195,-1.677605271
49,1.5596559266e+18,0.5424025059,1.287807703,-0.5194046497
50,1.55965592665e+18,-0.04952589795,1.381880999,0.5477769375
51,1.5596559267e+18,-0.3512933254,2.368428469,1.359005928
52,1.55965592676e+18,-0.133214429,1.369052887,1.826928735
53,1.55965592681e+18,0.1447292417,1.489393353,2.183063269
54,1.55965592686e+18,0.2895042896,1.212060571,2.036455631
55,1.55965592691e+18,0.3731928468,1.191290975,2.240484715
56,1.55965592696e+18,0.3469256461,0.55354774,2.566075802
57,1.55965592702e+18,0.6450278759,-0.2961657941,3.535518885
58,1.55965592707e+18,1.278495073,-0.4708732665,4.005885124
59,1.55965592712e+18,1.046366334,0.4942938089,3.794525623
60,1.55965592717e+18,0.3414278626,0.06913162023,3.410291433
61,1.55965592722e+18,0.4587139785,-0.3480893672,3.350426674
62,1.55965592728e+18,1.04758811,-0.5276837349,3.396241426
63,1.55965592733e+18,1.002384067,0.2102414817,3.232529879
64,1.55965592738e+18,0.952293098,0.9756556153,3.490314722
65,1.55965592743e+18,0.996886313,0.267051965,3.297892332
66,1.55965592748e+18,1.297432065,0.6665577888,3.011396408
67,1.55965592754e+18,0.8912066221,0.353183955,2.729787588
68,1.55965592759e+18,0.145950973,-0.5539509058,3.432282686
69,1.55965592764e+18,-1.522322059,-0.2424096465,3.02422452
70,1.55965592769e+18,-4.4196558,-2.058511972,4.068804264
71,1.55965592774e+18,-7.190540314,-0.514855504,5.263656616
72,1.5596559278e+18,-3.990828276,-3.608277082,1.965595126
73,1.55965592785e+18,-0.9340587854,-1.322419405,-0.5041330457
74,1.5596559279e+18,-0.4233754277,-1.708486199,-0.7735245824
75,1.55965592795e+18,-0.2285094112,-3.129358768,0.3810107112
76,1.559655928e+18,0.9852798581,-2.115933418,0.2637245655
77,1.55965592806e+18,1.577819109,-0.3334285915,-0.6030932069
78,1.55965592811e+18,2.527714491,0.1937481165,-1.374005079
79,1.55965592816e+18,2.927831411,0.569430232,-1.790004373
80,1.55965592821e+18,2.630339861,0.243228212,-1.369729161
81,1.55965592826e+18,2.7726717,-0.5899919868,-0.7716920376
82,1.55965592832e+18,2.530768871,-0.1263452619,-0.07102958113
83,1.55965592837e+18,1.444039702,0.5663759112,1.572808862
84,1.55965592842e+18,0.1270141453,-0.6284765005,2.250869036
85,1.55965592847e+18,-1.818591714,0.9267864227,3.63020277
86,1.55965592852e+18,-4.287097931,4.157042027,4.072469711
87,1.55965592858e+18,-2.298120737,1.636000991,5.00159502
88,1.55965592863e+18,-1.034851551,-2.778722286,-1.55909729
89,1.55965592868e+18,-1.058675289,1.552923322,-1.440589428
90,1.55965592873e+18,-0.06907358766,-0.3847412765,-1.851701736
91,1.55965592878e+18,-0.5052313805,-2.34745121,-1.132102489
92,1.55965592884e+18,0.208870098,0.7911742926,-0.874928236
93,1.55965592889e+18,1.067135692,0.7368072867,-1.379502892
94,1.55965592894e+18,1.436098337,1.224888682,-1.136989355
95,1.55965592899e+18,2.17707777,1.002533674,-0.7533660531
96,1.55965592904e+18,2.285201073,-0.8673248291,-0.6415777206
97,1.5596559291e+18,1.174037218,-1.888080597,-0.6299712658
98,1.55965592915e+18,-0.3610671759,-0.02616335824,0.8202228546
99,1.5596559292e+18,-1.833863258,1.097828746,2.680307388
100,1.55965592925e+18,-4.203409672,0.1131139174,4.376069546
101,1.5596559293e+18,-2.183889151,-2.396320581,1.608239055
102,1.55965592936e+18,-1.485059261,-0.7628667951,2.034622908
103,1.55965592941e+18,0.4562705457,-1.360903978,-0.6672340631
104,1.55965592946e+18,0.9785603285,0.003158173291,-1.371561646
105,1.55965592951e+18,1.138607025,0.2151284218,-2.136975765
106,1.55965592956e+18,1.495352268,0.5083436966,-2.571300983
107,1.55965592962e+18,1.098900795,0.06363382936,-2.794266939
108,1.55965592967e+18,0.6755711436,-0.3346503079,-2.786325693
109,1.55965592972e+18,0.1380097419,0.802169919,-2.200505972
110,1.55965592977e+18,-0.6445086598,1.630503178,-1.888353586
111,1.55965592982e+18,-1.111820579,1.398374438,-1.143708944
112,1.55965592988e+18,-1.300577879,2.091706514,-0.1321161091
113,1.55965592993e+18,-1.907167077,2.400193453,0.8348836303
114,1.55965592998e+18,-4.870474815,3.216309309,3.433504343
115,1.55965593003e+18,-4.053747654,-3.225875378,3.30522275
116,1.55965593008e+18,-1.494833112,1.131426215,2.035233736
117,1.55965593014e+18,-0.9639911652,-2.881347418,2.250258207
118,1.55965593019e+18,0.005451972596,-6.195291519,-1.541993022
119,1.55965593024e+18,0.2571284473,-1.007212996,-0.7417596579
120,1.55965593029e+18,0.32249102,-1.321197629,-1.648894548
121,1.55965593034e+18,1.053696752,-1.187418222,-2.184012413
122,1.5596559304e+18,1.408609509,0.3843380809,-2.356276274
123,1.55965593045e+18,1.934564471,0.06241210178,-2.685532808
124,1.5596559305e+18,1.654788136,-0.04204585776,-1.83704102
125,1.55965593055e+18,1.438541889,0.981764257,-1.270768881
126,1.5596559306e+18,0.8759349585,-0.6077070832,-0.3862360418
127,1.55965593066e+18,-0.1527621299,2.373926163,1.44758141
128,1.55965593071e+18,-2.826519251,0.7661288381,2.776824236
129,1.55965593076e+18,-4.092232227,-1.320586801,4.282607079
130,1.55965593081e+18,-3.119734526,-4.187988281,3.710226297
131,1.55965593086e+18,0.07509060949,-0.7274366617,2.099374771
132,1.55965593092e+18,0.4538270533,0.2542237937,-0.7044968009
133,1.55965593097e+18,0.8728806376,0.1894720793,-0.969001472
134,1.55965593102e+18,1.691440105,-1.39022541,-1.636677265
135,1.55965593107e+18,2.234499216,-1.331582427,-2.163243055
136,1.55965593112e+18,2.217395067,0.1100595966,-2.360552549
137,1.55965593118e+18,1.759246111,0.5877562165,-1.64828372
138,1.55965593123e+18,1.669448853,1.393487453,-0.6751753092
139,1.55965593128e+18,1.152045965,2.474719048,-0.3263712525
140,1.55965593133e+18,0.08608618379,-0.5399010181,1.503170133
141,1.55965593138e+18,-2.390361547,-1.517285347,2.368155241
142,1.55965593144e+18,-3.004891872,-0.9943847656,3.809186459
143,1.55965593149e+18,-1.464900613,-1.779957533,3.054767847
144,1.55965593154e+18,-0.4013842642,-3.563683987,1.946658373
145,1.55965593159e+18,0.3444821835,0.6237972379,-0.09057725966
146,1.55965593164e+18,0.01766927727,-1.346243143,-0.3727969825
147,1.5596559317e+18,0.1844354868,-0.4146736562,-0.4900831282
148,1.55965593175e+18,0.2821739316,0.6415123343,-1.104002714
149,1.5596559318e+18,0.4813160002,0.9408363104,-1.698374629
150,1.55965593185e+18,0.4978093505,2.035506725,-2.189510345
151,1.5596559319e+18,0.2339155674,2.179671049,-2.452182293
152,1.55965593196e+18,0.3957948685,3.455768585,-1.859643102
153,1.55965593201e+18,0.3261562288,1.428917646,-0.9451777339
154,1.55965593206e+18,-2.124024153,1.860188484,3.430449963
155,1.55965593211e+18,-3.789853811,-3.534973383,4.953947544
156,1.55965593216e+18,-0.9041264057,-5.278993607,3.848281622
157,1.55965593222e+18,-0.1539838612,-5.253948212,2.180008888
158,1.55965593227e+18,1.222906351,-1.274160981,-0.8981410861
159,1.55965593232e+18,2.163028002,-1.002326012,-1.497399926
160,1.55965593237e+18,2.764730215,-1.494072556,-1.909734011
161,1.55965593242e+18,3.017628431,-0.1318430454,-1.924394727
162,1.55965593248e+18,3.298015594,-0.7207171917,-1.378281236
163,1.55965593253e+18,3.137969017,-1.733531713,-0.9488429427
164,1.55965593258e+18,2.034746408,-1.225291848,0.1213929728
165,1.55965593263e+18,0.1465618461,0.2169610113,1.097555637
166,1.55965593268e+18,-1.070892572,-0.3187678158,1.759122729
167,1.55965593274e+18,-3.004891872,1.295749068,4.60025692
168,1.55965593279e+18,-2.61454916,-2.579580069,3.718778372
169,1.55965593284e+18,-1.374492645,-1.381673336,3.061487198
170,1.55965593289e+18,-0.004932736978,-2.217947721,-0.5560565591
171,1.55965593294e+18,0.7164991498,-0.3022744358,-0.07225131243
172,1.559655933e+18,1.517343521,-2.124485493,-1.394163728
173,1.55965593305e+18,2.296807528,-1.325473785,-2.424693346
174,1.5596559331e+18,2.170969248,0.9909272194,-2.647659063
175,1.55965593315e+18,1.458089471,1.218780041,-3.359317064
176,1.5596559332e+18,1.076909661,2.876057386,-2.759447575
177,1.55965593326e+18,0.6358649135,2.185168982,-2.179125547
178,1.55965593331e+18,0.08303186297,1.879736185,-0.685559988
179,1.55965593336e+18,-1.273088932,0.4570310414,2.386481285
180,1.55965593341e+18,-3.375076532,-0.1648297757,3.475654125
181,1.55965593346e+18,-3.903474569,-0.2552378178,4.473196983
182,1.55965593352e+18,-4.184472561,-2.33095789,3.746267319
183,1.55965593357e+18,-1.695807695,0.05080566555,3.922807455
184,1.55965593362e+18,0.4434423447,-0.7885231972,-0.6818948388
185,1.55965593367e+18,1.687163949,-0.5979332328,-1.697152853
186,1.55965593372e+18,2.630339861,-1.175811768,-2.870625019
187,1.55965593378e+18,2.782445431,0.262775898,-3.375810623
188,1.55965593383e+18,2.840477467,0.306147337,-3.244474649
189,1.55965593388e+18,2.653552771,-0.09091507643,-2.534038305
190,1.55965593393e+18,2.119045734,-1.54233098,-1.480906606
191,1.55965593398e+18,1.230847597,-0.602820158,-0.3544710279
192,1.55965593404e+18,0.1276250184,-0.8355597854,-0.2573434711
193,1.55965593409e+18,-3.552838087,1.612788081,4.508626938
194,1.55965593414e+18,-5.850302219,-2.231997728,5.622234344
195,1.55965593419e+18,-1.821035147,-3.192277908,3.889820576
196,1.55965593424e+18,0.08303186297,-0.9375742674,1.225226402
197,1.5596559343e+18,1.085461617,-0.5484531522,-1.416154861
198,1.55965593435e+18,1.594923377,-0.124512665,-1.55604291
199,1.5596559344e+18,1.80933702,-0.5875484943,-2.122315168
200,1.55965593445e+18,2.379274368,0.0379774943,-2.089939117
201,1.5596559345e+18,2.760454416,-0.6015984416,-1.695931196
202,1.55965593456e+18,2.78611064,-0.4940861464,-0.5676630139
203,1.55965593461e+18,2.380496025,-1.0359236,0.3150372505
204,1.55965593466e+18,1.696326971,0.0734076798,0.5587724447
205,1.55965593471e+18,-0.1112232879,-1.461085796,0.02854145691
206,1.55965593476e+18,-1.901058435,0.3159211874,2.238651752
207,1.55965593481e+18,-3.039100409,1.507719278,4.131112099
208,1.55965593487e+18,-3.29688549,0.6696121693,3.578279257
209,1.55965593492e+18,-2.209545374,-1.29431963,3.156782389
210,1.55965593497e+18,-0.3115870953,-0.6266438961,1.045632124
211,1.55965593502e+18,1.048198938,-0.3309850991,-1.362398624
212,1.55965593507e+18,1.84232378,-1.26438725,-2.09543705
213,1.55965593513e+18,2.254657745,-0.7182736993,-2.664763451
214,1.55965593518e+18,2.141647816,0.009266825393,-2.531594753
215,1.55965593523e+18,1.39883554,0.4680266082,-2.315959454
216,1.55965593528e+18,0.9706190825,0.3898358643,-1.651337981
217,1.55965593533e+18,0.8343961239,-0.7091107368,-1.171197891
218,1.55965593539e+18,0.3609755635,-0.1293995827,-0.496802628
219,1.55965593544e+18,-0.7416362166,1.392265797,1.488509417
220,1.55965593549e+18,-3.607205153,1.05018115,3.226420879
221,1.55965593554e+18,-4.916900158,1.395320058,3.211760283
222,1.55965593559e+18,-2.610272884,-2.465348482,2.949088097
223,1.55965593565e+18,-0.7062060833,2.932868004,0.7707427144
224,1.5596559357e+18,0.04760167375,-2.084779263,-1.126604795
225,1.55965593575e+18,0.7623140216,1.158304334,-1.256108165
226,1.5596559358e+18,1.533836842,0.0996748805,-2.13880825
227,1.55965593585e+18,2.032302856,0.03003624268,-3.265244007
228,1.55965593591e+18,1.995040059,-0.9021440744,-3.885272264
229,1.55965593596e+18,1.271775603,0.1045618057,-3.007458687
230,1.55965593601e+18,0.1373988688,1.314074993,-2.455236673
231,1.55965593606e+18,-1.066005588,1.02696836,-1.631179452
232,1.55965593611e+18,-1.918773532,4.136883259,0.8336618543
233,1.55965593617e+18,-3.302383184,-0.5612813234,2.59295392
234,1.55965593622e+18,-4.794726849,-1.472692251,3.97412014
235,1.55965593627e+18,-3.792908192,-2.290640831,3.918531179
236,1.55965593632e+18,-1.377547026,-3.347437859,2.660759687
237,1.55965593637e+18,0.331043154,-0.02127643675,-1.35690093
238,1.55965593643e+18,0.8728806376,0.7771244645,-1.283596992
239,1.55965593648e+18,1.557049632,-1.188029051,-2.064282894
240,1.55965593653e+18,1.931510091,-0.09335853904,-2.236546993
241,1.55965593658e+18,1.827052116,-0.5032491088,-2.499829769
242,1.55965593663e+18,1.60042119,-0.3902390301,-2.470508337
243,1.55965593669e+18,0.8686045408,0.5175067186,-1.329411983
244,1.55965593674e+18,-0.1429882795,0.3171429038,0.3101503253
245,1.55965593679e+18,-0.7013190985,0.6476210356,2.134193897
246,1.55965593684e+18,-1.827143788,0.1717569828,2.741394043
247,1.55965593689e+18,-3.529014349,0.03981008753,4.724262714
248,1.55965593695e+18,-1.729405284,-2.601571321,2.165348053
249,1.559655937e+18,0.1074664667,-1.005380392,0.9197938442
250,1.55965593705e+18,0.3921296597,0.003769038711,-1.503508568
251,1.5596559371e+18,0.335319221,1.678761601,-1.724030852
252,1.55965593715e+18,0.5369047523,0.4533658326,-2.209057808
253,1.55965593721e+18,0.6517473459,0.7673506141,-2.176071405
254,1.55965593726e+18,0.5228548646,0.9603840113,-1.394163728
255,1.55965593731e+18,0.6407518387,0.2181827426,0.1189495176
256,1.55965593736e+18,0.5326286554,-2.193513155,0.4262147248
257,1.55965593741e+18,1.224738955,-1.266219854,0.2179096788
258,1.55965593747e+18,-1.342727661,-0.1660514921,1.801272392
259,1.55965593752e+18,-2.749550343,0.7985047102,3.377304792
260,1.55965593757e+18,-1.660377622,-1.126942515,2.727955103
261,1.55965593762e+18,-0.9175654054,-0.6590197682,3.092030764
262,1.55965593767e+18,0.7891920805,-0.5020273924,-0.8150634766
263,1.55965593772e+18,0.9657320976,0.7392507792,-1.956159711
264,1.55965593778e+18,1.486189365,1.285975218,-2.215166569
265,1.55965593783e+18,1.627910018,-0.7866905928,-1.868195057
266,1.55965593788e+18,1.37562263,-0.6932281852,-1.339185834
267,1.55965593793e+18,0.5094158053,-0.6400829554,-0.9940469265
268,1.55965593798e+18,-0.6646671891,1.16258049,-0.5035221577
269,1.55965593804e+18,-1.205893755,2.508316755,0.4097213745
270,1.55965593809e+18,-1.132589936,0.01598634385,1.555093765
271,1.55965593814e+18,-1.987801313,0.20413284,2.517817497
272,1.55965593819e+18,-2.832628012,-2.164191723,2.587455988
273,1.55965593824e+18,-1.565693498,-0.4146736562,3.155560493
274,1.5596559383e+18,0.2125352919,-1.834935308,-0.5884324312
275,1.55965593835e+18,0.9321345091,1.310409784,-2.809538603
276,1.5596559384e+18,0.8423373699,1.972587824,-3.187664032
277,1.55965593845e+18,1.230847597,1.092941761,-2.876122713
278,1.5596559385e+18,1.174037218,0.5828692913,-2.352611303
279,1.55965593856e+18,0.960845232,-0.08053036779,-1.902403593
280,1.55965593861e+18,0.6071542501,0.2114632279,-0.9995447397
281,1.55965593866e+18,0.1361771375,0.03736662492,0.2912135124
282,1.55965593871e+18,-0.2126269192,0.3287493587,3.194655895
283,1.55965593876e+18,-1.620060444,1.285975218,4.950893402
284,1.55965593882e+18,-1.400148869,-0.78424716,2.979020596
285,1.55965593887e+18,-1.601734519,0.2023002505,3.669909239
286,1.55965593892e+18,0.8496677279,-0.3126591444,-1.22800827
287,1.55965593897e+18,1.803228378,-0.0817520991,-2.421028137
288,1.55965593902e+18,2.020696402,0.04958393052,-2.987300396
289,1.55965593908e+18,1.821554303,-0.2265271544,-3.010513067
290,1.55965593913e+18,1.36890316,0.1320507377,-2.686143875
291,1.55965593918e+18,0.6596886516,0.3678447306,-1.963490129
292,1.55965593923e+18,0.5876065493,0.1204442978,-1.188302159
293,1.55965593928e+18,0.05737552047,0.5211718678,0.09084970504
294,1.55965593934e+18,-0.6457304358,3.053208351,2.575238705
295,1.55965593939e+18,-2.373868227,0.4881851673,3.064541817
296,1.55965593944e+18,-4.263274193,-1.635182381,4.545890331
297,1.55965593949e+18,-1.697029471,-3.465945482,2.787209034
298,1.55965593954e+18,-0.008597928099,-1.046308398,0.4818034768
299,1.5596559396e+18,0.7568162084,1.183349848,-2.71118927
300,1.55965593965e+18,1.24978447,0.8791388869,-2.344669819
301,1.5596559397e+18,1.300486326,-0.5771638155,-2.968974352
302,1.55965593975e+18,1.384174824,0.2682736814,-2.678202391
303,1.5596559398e+18,1.532615066,-0.1214583367,-2.822977543
304,1.55965593986e+18,1.784291625,0.5773715377,-2.129645586
305,1.55965593991e+18,1.570488811,0.4148813486,-0.9085258245
306,1.55965593996e+18,0.4654335082,0.5266696811,0.6418501735
307,1.55965594001e+18,-2.033005476,1.427085042,2.194058895
308,1.55965594006e+18,-3.583381414,2.196775198,3.451219559
309,1.55965594012e+18,-3.860714197,-1.277215362,3.633257389
310,1.55965594017e+18,-1.067227364,-3.697463274,2.2856884
311,1.55965594022e+18,-0.4716337919,0.03309056908,0.8837528229
312,1.55965594027e+18,0.6743494272,-0.3456458747,-1.492513061
313,1.55965594032e+18,0.8924282789,0.05813604221,-1.932335973
314,1.55965594038e+18,1.180756688,0.1900829375,-2.352000475
315,1.55965594043e+18,1.26933217,0.518117547,-2.443630219
316,1.55965594048e+18,1.178924084,0.3030930161,-2.60550952
317,1.55965594053e+18,1.117837548,0.7349747419,-2.240212202
318,1.55965594058e+18,0.4446640909,0.9677144289,-1.051468253
319,1.55965594064e+18,0.1092990637,-1.418325186,0.131777674
320,1.55965594069e+18,-2.481991291,3.071534157,3.591107607
321,1.55965594074e+18,-4.416601658,-1.531335354,4.486025333
322,1.55965594079e+18,-1.390375137,-3.064607143,1.974758148
323,1.55965594084e+18,-0.5168378353,-0.3352611661,2.878227711
324,1.5596559409e+18,0.8044636846,-0.3847412765,-2.391706467
325,1.55965594095e+18,1.222906351,2.160123348,-1.951883674
326,1.559655941e+18,1.710376859,0.02942537889,-2.56885767
327,1.55965594105e+18,1.844767213,0.4961264431,-2.640328884
328,1.5596559411e+18,1.973048925,0.4142704904,-2.849855423
329,1.55965594116e+18,2.130041361,0.4460354745,-2.24082303
330,1.55965594121e+18,2.012755156,-0.2760072351,-0.815674305
331,1.55965594126e+18,1.240621448,-0.3615283668,0.5080707073
332,1.55965594131e+18,-0.2462245077,-0.9143614769,0.7640231848
333,1.55965594136e+18,-2.990842104,1.557810187,3.151895523
334,1.55965594142e+18,-4.365289211,0.4258769155,4.520233631
335,1.55965594147e+18,-3.287722588,-1.86731112,3.231918812
336,1.55965594152e+18,-1.571802139,-0.3010526896,2.864788771
337,1.55965594157e+18,0.291947782,-1.001104355,-0.5713281631
338,1.55965594162e+18,0.6340323091,0.6842729449,-1.396607161
339,1.55965594168e+18,0.9058673978,-0.2870028019,-2.097880363
340,1.55965594173e+18,1.201526165,0.06241210178,-2.600011826
341,1.55965594178e+18,1.231458545,0.4527550042,-2.866348982
342,1.55965594183e+18,1.178924084,1.061176777,-2.184623241
343,1.55965594188e+18,0.2449111491,2.493655682,-1.405159354
344,1.55965594194e+18,-0.9224523306,1.973809481,-0.6599037051
345,1.55965594199e+18,-0.7251428962,1.406315684,-0.5071873665
346,1.55965594204e+18,-4.970656395,4.352518559,4.331476212
347,1.55965594209e+18,-4.114223003,-5.421325207,1.962540746
348,1.55965594214e+18,-1.80332005,0.4026640356,3.811629772
349,1.5596559422e+18,0.5271309018,-0.04693277925,-1.056355238
350,1.55965594225e+18,1.745807052,1.080724478,-1.57559073
351,1.5596559423e+18,2.533212423,0.133272469,-2.231049061
352,1.55965594235e+18,2.567420959,0.3189755082,-1.98609221
353,1.5596559424e+18,2.52099514,-0.3181569576,-1.742967725
354,1.55965594246e+18,2.3157444,0.02148413099,-1.227397442
355,1.55965594251e+18,1.742141843,-1.394501448,-1.347737908
356,1.55965594256e+18,0.1673312634,-0.4207823277,-0.7093837857
357,1.55965594261e+18,-1.159468055,1.015972733,0.4066670537
358,1.55965594266e+18,-1.536371946,-0.0823629573,2.019351244
359,1.55965594272e+18,-3.612092018,0.7252008915,3.800023556
360,1.55965594277e+18,-4.302369595,-2.33095789,3.56361866
361,1.55965594282e+18,-3.028715849,-2.289419174,3.635089874
362,1.55965594287e+18,0.05065600201,-0.8599944711,-0.5499479175
363,1.55965594292e+18,0.9388540387,2.626824379,-1.526110649
364,1.55965594298e+18,1.73664403,0.4649722874,-2.495553732
365,1.55965594303e+18,2.0310812,0.0453078784,-2.592681408
366,1.55965594308e+18,2.199069023,0.9414471984,-2.799764633
367,1.55965594313e+18,2.483121395,0.12960729,-2.777162552
368,1.55965594318e+18,2.089113235,-0.3450350165,-1.909734011
369,1.55965594324e+18,1.562547445,-0.4604885578,-0.5114634037
370,1.55965594329e+18,0.7586488128,-0.9113071561,1.328462601
371,1.55965594334e+18,-0.8387637734,1.398374438,2.724289894
372,1.55965594339e+18,-3.626752615,0.6842729449,2.602727652
373,1.55965594344e+18,-4.229065895,-1.015765071,3.027889967
374,1.5596559435e+18,-2.821021557,-2.278423548,4.451817036
375,1.55965594355e+18,-0.337854296,-1.605860829,1.564867496
376,1.5596559436e+18,0.9254150391,-0.9681175351,-0.8914216161
377,1.55965594365e+18,1.671892285,0.02637105249,-1.201130271
378,1.5596559437e+18,2.394545794,-1.12205565,-2.366661072
379,1.55965594376e+18,2.954098463,-2.722522497,-4.022716999
380,1.55965594381e+18,2.957152843,-0.3737457097,-3.984232426
381,1.55965594386e+18,1.796508908,2.502207994,-2.766777754
382,1.55965594391e+18,0.2968346775,0.4148813486,-1.392942071
383,1.55965594396e+18,-1.300577879,0.8840258718,0.1348320097
384,1.55965594402e+18,-3.811234236,2.563294411,3.632035732
385,1.55965594407e+18,-3.981665611,0.3238624334,3.193434238
386,1.55965594412e+18,-4.588254929,-1.992538571,4.181814671
387,1.55965594417e+18,-1.863795638,-1.698101521,3.031554937
388,1.55965594422e+18,0.2992781699,0.7997264266,-1.240225673
389,1.55965594428e+18,1.046366334,0.8027807474,-1.757017732
390,1.55965594433e+18,1.860649824,0.8663107753,-2.205392838
391,1.55965594438e+18,1.942505598,0.1601505429,-2.292746544
392,1.55965594443e+18,1.328586102,-0.1080192998,-2.188288689
393,1.55965594448e+18,1.436098337,-0.2808941603,-2.244488001
394,1.55965594454e+18,1.55766058,-0.1709384173,-1.458304524
395,1.55965594459e+18,0.7293272614,1.307355523,-2.193786383
396,1.55965594464e+18,-0.2333963364,1.419754624,-1.937833786
397,1.55965594469e+18,-1.496665597,0.8369892836,0.7707427144
398,1.55965594474e+18,-3.490529776,-0.2906680107,2.726122379
399,1.5596559448e+18,-4.199133396,-0.3138808906,4.056586742
400,1.55965594485e+18,-3.112404346,-3.487936735,3.966178656
401,1.5596559449e+18,-0.6848257184,-1.328528047,1.373055935
402,1.55965594495e+18,0.480094254,0.3495187759,-1.488236904
403,1.559655945e+18,1.253449678,0.5162850022,-1.620183825
404,1.55965594506e+18,1.717707276,-1.266219854,-2.232270718
405,1.55965594511e+18,1.564990997,-0.3383154869,-1.940277219
406,1.55965594516e+18,1.559493184,0.3409666419,-1.811384678
407,1.55965594521e+18,1.336527348,0.2615541816,-1.339796782
408,1.55965594526e+18,0.618760705,0.1497658342,-1.747243762
409,1.55965594532e+18,0.2473546118,0.6152451634,-0.686781764
410,1.55965594537e+18,-0.7495774627,0.2817127407,0.6705608368
411,1.55965594542e+18,-2.246808052,0.8669216037,2.880060196
412,1.55965594547e+18,-3.670124292,-1.18497479,3.404793739
413,1.55965594552e+18,-3.132562637,-0.6400829554,5.317412376
414,1.55965594558e+18,-1.556530476,-2.154417992,2.46100688
415,1.55965594563e+18,0.2589610517,-1.274160981,-1.079568148
416,1.55965594568e+18,0.8234004974,0.700766325,-1.912177324
417,1.55965594573e+18,1.251006246,0.3605143428,-2.276864052
418,1.55965594578e+18,1.780626297,-0.2882245481,-3.153455496
419,1.55965594584e+18,1.668227196,1.38127017,-2.988522053
420,1.55965594589e+18,2.094611168,2.439899683,-2.534038305
421,1.55965594594e+18,2.004203081,2.946917772,-1.479074001
422,1.55965594599e+18,1.181978345,-1.16848135,-1.100337505
423,1.55965594604e+18,0.1612226069,0.7765135765,0.6009221673
424,1.5596559461e+18,-2.009181738,-0.2295814753,1.836702585
425,1.55965594615e+18,-4.221735477,-0.4372756779,3.199542999
426,1.5596559462e+18,-3.978610992,-1.305926085,2.680918455
427,1.55965594625e+18,-2.163730383,-0.3517545462,3.862942696
428,1.5596559463e+18,0.2198656797,-3.283296824,-0.1095140949
429,1.55965594636e+18,0.9400758147,0.4209899902,-0.6366907954
430,1.55965594641e+18,1.674335837,-0.9815565944,-1.576201558
431,1.55965594646e+18,1.77940464,-0.6070961952,-2.12536931
432,1.55965594651e+18,1.401279092,0.8565369248,-2.62505722
433,1.55965594656e+18,0.6548017859,1.085000515,-2.855964184
434,1.55965594662e+18,-0.7874510884,2.255418301,-2.463177919
435,1.55965594667e+18,-1.422140121,2.065439224,-1.469910979
436,1.55965594672e+18,-2.391583204,4.354351044,2.347996712
437,1.55965594677e+18,-3.224803448,1.971365929,2.789041519
438,1.55965594682e+18,-4.57237196,-2.71519208,3.65341568
439,1.55965594688e+18,-1.824700356,-2.247269392,3.289950848
440,1.55965594693e+18,0.77269876,-0.9033658504,-1.253053784
441,1.55965594698e+18,1.722594142,-0.8874833584,-2.178514719
442,1.55965594703e+18,2.52466011,-0.9601763487,-2.04290247
443,1.55965594708e+18,2.478234291,-1.153820515,-1.967766166
444,1.55965594714e+18,1.433044076,0.6818294525,-1.436313391
445,1.55965594719e+18,0.4941441715,2.380034924,-1.670274734
446,1.55965594724e+18,0.566226244,1.421587229,-0.8785934448
447,1.55965594729e+18,1.049420595,-1.741473079,-0.08385775238
448,1.55965594734e+18,0.5002527833,-0.7976861596,0.7890686393
449,1.5596559474e+18,-1.52537632,1.257264495,3.158004045
450,1.55965594745e+18,-3.674400091,-1.132440329,3.793914795
451,1.5596559475e+18,-3.013444185,-1.586924076,3.822625399
452,1.55965594755e+18,-0.7226994038,-1.204522491,2.482998133
453,1.5596559476e+18,0.8576090336,-1.179476976,-2.684311152
454,1.55965594766e+18,1.439763546,0.7661288381,-2.114984512
455,1.55965594771e+18,1.883251667,-0.6559654474,-1.837651849
456,1.55965594776e+18,1.594923377,-1.359682083,-1.871249557
457,1.55965594781e+18,1.39517045,-0.514855504,-1.017870784
458,1.55965594786e+18,1.003605723,-0.2912788689,-0.7234336734
459,1.55965594792e+18,-0.5553223491,-0.4220040143,-0.1742658019
460,1.55965594797e+18,0.4104556143,4.246228218,0.1684295982
461,1.55965594802e+18,-1.205282927,4.772182941,2.525147676
462,1.55965594807e+18,-3.532068491,-2.023081779,2.641212225
463,1.55965594812e+18,-1.537593603,-4.269233227,1.974147201
464,1.55965594818e+18,0.1514487565,-2.62906003,2.539808512
465,1.55965594823e+18,1.642570853,-0.9925521612,-1.007485986
466,1.55965594828e+18,1.994429231,0.03370143473,-0.9580059052
467,1.55965594833e+18,2.357893944,-0.8770986199,-0.686781764
468,1.55965594838e+18,2.420202494,-1.474524856,-1.176084876
469,1.55965594844e+18,2.187462568,-1.042032242,-1.461969733
470,1.55965594849e+18,2.283368349,-2.133037567,-1.551156163
471,1.55965594854e+18,1.948003411,-1.002326012,-1.296425343
472,1.55965594859e+18,1.120280981,-0.8825964332,-0.7820767164
473,1.55965594864e+18,-0.1564273238,0.1625940055,0.4836360812
474,1.5596559487e+18,-2.881497145,1.764282703,2.617388487
475,1.55965594875e+18,-4.732419014,0.1644266099,4.35774374
476,1.5596559488e+18,-3.091023922,-1.536833167,2.660148859
477,1.55965594885e+18,-2.359207392,4.050140381,3.205651522
478,1.5596559489e+18,-0.4197102487,-0.002950479044,-0.3917338252
479,1.55965594896e+18,1.093402982,-3.448230505,-1.163867593
480,1.55965594901e+18,1.995651007,-0.8062382936,-2.424082518
481,1.55965594906e+18,2.368278742,-1.173368335,-3.134518862
482,1.55965594911e+18,2.201512337,0.4099944234,-2.830918789
483,1.55965594916e+18,2.853916407,0.1705352515,-1.892629743
484,1.55965594922e+18,2.020085573,-0.2705094516,-1.02581203
485,1.55965594927e+18,0.8288983107,-1.489185691,-0.5114634037
486,1.55965594932e+18,0.3176041245,-0.9497916102,-1.318416357
487,1.55965594937e+18,-1.239491463,0.4319855571,0.6381850243
488,1.55965594942e+18,-3.275505304,3.100244761,3.701673985
489,1.55965594948e+18,-3.839334011,1.359279037,4.309484959
490,1.55965594953e+18,-2.791089058,-1.765296698,2.907549381
491,1.55965594958e+18,-1.824089527,-1.862424374,2.97413373
492,1.55965594963e+18,0.09280569851,-0.0823629573,-0.576215148
493,1.55965594968e+18,0.200928852,0.1515984386,-1.362398624
494,1.55965594973e+18,1.013990521,-1.058525681,-2.271976948
495,1.55965594979e+18,1.344468594,0.5584346652,-2.505327702
496,1.55965594984e+18,1.330418706,0.9548862576,-2.11193037
497,1.55965594989e+18,2.028637648,0.1564853489,-1.504730344
498,1.55965594994e+18,1.965107679,-0.3853521049,-1.58902967
499,1.55965594999e+18,0.9938319325,0.2291783094,-0.9653363228
500,1.55965595005e+18,-0.3347999454,1.664100885,-0.4845853448
501,1.5596559501e+18,-2.193662882,1.877292752,2.158017874
502,1.55965595015e+18,-5.007918835,1.691589713,3.570949078
503,1.5596559502e+18,-4.059245586,0.1247203574,3.782919168
504,1.55965595025e+18,-2.259636402,-2.455574512,3.35836792
505,1.55965595031e+18,0.4923115969,-1.643734455,-1.308031797
506,1.55965595036e+18,0.9455736279,-0.7494277954,-2.960422039
507,1.55965595041e+18,1.276051641,0.3916684687,-3.178500891
508,1.55965595046e+18,2.042687654,-0.362750113,-3.072821379
509,1.55965595051e+18,2.385993958,-0.05609575659,-3.096034288
510,1.55965595057e+18,2.827038527,-1.475135684,-3.037391186
511,1.55965595062e+18,1.840491176,-0.02555249445,-2.342837334
512,1.55965595067e+18,0.04576907679,1.231608152,-2.083219767
513,1.55965595072e+18,-1.209558964,1.541316867,-1.229230046
514,1.55965595077e+18,-0.7135364413,2.835129499,0.5380030274
515,1.55965595083e+18,-2.705567837,0.8351566195,1.533713341
516,1.55965595088e+18,-4.976154327,0.7551332712,3.928915977
517,1.55965595093e+18,-4.624295712,-0.09946718812,4.128668785
518,1.55965595098e+18,-3.425167322,-1.407329679,3.332711697
519,1.55965595103e+18,-0.4698011875,-1.037145376,-0.1333378255
520,1.55965595109e+18,0.5295743346,0.7997264266,-1.746632934
521,1.55965595114e+18,1.303540707,-0.2637899518,-2.248764277
522,1.55965595119e+18,1.876532197,-0.9326874018,-2.546866417
523,1.55965595124e+18,2.118434906,0.4338181615,-2.807095051
524,1.55965595129e+18,2.193571329,0.0001038470946,-2.504106045
525,1.55965595135e+18,1.969383836,-0.1074084416,-1.952494502
526,1.5596559514e+18,0.9400758147,0.02026239969,-0.7191575766
527,1.55965595145e+18,-0.6225175261,0.7685723305,0.7340908051
528,1.5596559515e+18,-1.898004174,0.1931372732,2.539197445
529,1.55965595155e+18,-3.015887499,1.375161529,3.508029699
530,1.55965595161e+18,-2.97251606,-0.1257343888,3.963124514
531,1.55965595166e+18,-1.331732035,-3.680359364,2.737118006
532,1.55965595171e+18,-0.1533729881,-2.428696394,0.9521696568
533,1.55965595176e+18,0.5753892064,-0.1801013947,-1.937222958
534,1.55965595181e+18,1.025596976,0.5547694564,-2.081387281
535,1.55965595187e+18,1.661507726,-0.8044056892,-3.191940069
536,1.55965595192e+18,1.865536571,-0.1788796633,-3.59205699
537,1.55965595197e+18,1.177091599,0.2701062858,-3.703234434
538,1.55965595202e+18,0.6847341061,1.366609335,-2.852298975
539,1.55965595207e+18,0.02744312026,1.321405411,-1.658057451
540,1.55965595213e+18,-0.6799388528,1.659213901,-0.8425523639
541,1.55965595218e+18,-0.2211790383,0.9005192518,-0.6617362499
542,1.55965595223e+18,-2.494208574,1.263373137,1.901454329
543,1.55965595228e+18,-4.949886799,-1.020041108,4.188533783
544,1.55965595233e+18,-2.836293221,-3.122639418,4.462201118
545,1.55965595239e+18,-1.680536151,-1.896021843,2.539197445
546,1.55965595244e+18,-0.01226312015,-0.5814398527,-0.2206915617
547,1.55965595249e+18,0.7788074017,-0.8166229725,-0.8712630868
548,1.55965595254e+18,1.430600643,-1.016375899,-1.545047402
549,1.55965595259e+18,1.904632092,-0.05670661852,-2.1516366
550,1.55965595265e+18,2.409817696,0.6720556021,-2.668428659
551,1.5596559527e+18,2.616900921,0.6787751317,-2.967752695
552,1.55965595275e+18,2.393934965,-0.0524305664,-2.303131104
553,1.5596559528e+18,1.481302381,-0.09458027035,-1.195632458
554,1.55965595285e+18,0.3829666972,-0.4543798864,-0.2854432762
555,1.55965595291e+18,-1.241934776,0.07646200806,1.236222029
556,1.55965595296e+18,-3.090413094,2.394084692,3.948463678
557,1.55965595301e+18,-4.073295116,-0.9827783108,3.460993052
558,1.55965595306e+18,-3.20464468,-1.23445487,4.395617008
559,1.55965595311e+18,-1.43924439,-0.928411305,2.49765873
560,1.55965595317e+18,0.04332561791,-0.8606052995,-0.04292977601
561,1.55965595322e+18,0.6816797853,0.04103181884,-1.474187016
562,1.55965595327e+18,1.324920893,-0.3279307783,-2.11864996
563,1.55965595332e+18,1.733589768,-0.409786731,-2.879177094
564,1.55965595337e+18,1.681666255,-0.1080192998,-3.206600904
565,1.55965595342e+18,1.502682686,0.3189755082,-3.321443558
566,1.55965595348e+18,1.042701125,1.183960676,-2.120482445
567,1.55965595353e+18,0.9345780015,0.692214191,-1.377670288
568,1.55965595358e+18,0.2027614415,-0.445216924,-0.1571615785
569,1.55965595363e+18,-0.9853714705,-0.1520016044,2.234375954
570,1.55965595368e+18,-2.08859396,0.4246551692,4.126225471
571,1.55965595374e+18,-4.868641376,-0.260735631,5.102388382
572,1.55965595379e+18,-1.708024979,-3.619272709,2.846462965
573,1.55965595384e+18,0.05554292351,1.926162004,1.308915019
574,1.55965595389e+18,0.7445989251,-1.620521665,-1.691044211
575,1.55965595394e+18,1.15021348,1.339120507,-1.636066318
576,1.559655954e+18,1.568656087,-0.1190148741,-2.439354181
577,1.55965595405e+18,1.616303563,0.7881199718,-2.735013008
578,1.5596559541e+18,1.601642847,0.808889389,-2.902390003
579,1.55965595415e+18,1.356075048,0.8883019686,-2.196840525
580,1.5596559542e+18,0.6596886516,0.8156089187,-1.386222363
581,1.55965595426e+18,-0.5284442902,0.1668700576,0.478138268
582,1.55965595431e+18,-0.8161618114,-0.2808941603,0.2582267821
583,1.55965595436e+18,-2.868669033,2.620715857,2.706574678
584,1.55965595441e+18,-4.32985878,-0.6064853668,3.536129713
585,1.55965595446e+18,-3.018941879,-1.324252009,4.003441811
586,1.55965595452e+18,-2.009792566,-1.454366326,3.296670437
587,1.55965595457e+18,0.5943260789,-1.222848415,-1.399661541
588,1.55965595462e+18,1.166095972,0.8107220531,-2.064282894
589,1.55965595467e+18,1.949225187,0.3366905749,-2.647048235
590,1.55965595472e+18,2.153865099,-0.1184040084,-3.099088669
591,1.55965595478e+18,2.24977088,-0.2900571525,-2.407589197
592,1.55965595483e+18,1.874699593,-0.5600595474,-1.822991133
593,1.55965595488e+18,1.458700418,-0.0701456517,-1.022146821
594,1.55965595493e+18,0.7720878124,-0.3346503079,-0.2872758806
595,1.55965595498e+18,-0.1594816446,0.8736411929,0.206914112
596,1.55965595504e+18,-1.505828619,0.6769425869,1.32540834
597,1.55965595509e+18,-2.985344172,1.533986449,2.899608135
598,1.55965595514e+18,-4.042140961,-0.221029371,2.990016222
599,1.55965595519e+18,-2.915705681,-3.063996315,4.354078293
600,1.55965595524e+18,0.1196837798,-2.8996737,1.163529038
601,1.5596559553e+18,1.026818633,-0.2906680107,-0.9806079268
602,1.55965595535e+18,1.599810362,-0.9204701185,-1.440589428
603,1.5596559554e+18,1.69327271,-0.0279959552,-2.184623241
604,1.55965595545e+18,1.648679495,0.2120740861,-2.554196835
605,1.5596559555e+18,1.515510917,0.84493047,-2.447906256
606,1.55965595556e+18,1.08057487,0.1583179533,-2.209057808
607,1.55965595561e+18,0.2950021029,0.0611903742,-1.620183825
608,1.55965595566e+18,-0.7172015905,0.598140955,-0.9989339113
609,1.55965595571e+18,-1.488724351,1.226721287,0.5306726694
610,1.55965595576e+18,-2.281627417,0.5071219802,2.506211042
611,1.55965595582e+18,-3.272450924,1.20900619,3.813462496
612,1.55965595587e+18,-3.032380819,1.001312017,2.669312
613,1.55965595592e+18,-2.776428461,0.5443847775,3.366309166
614,1.55965595597e+18,-0.4765206873,-0.5386793017,1.634506226
615,1.55965595602e+18,0.6132628918,-2.718857527,-1.168143511
616,1.55965595608e+18,1.146548271,0.3794511855,-1.248777747
617,1.55965595613e+18,1.608362436,-0.9925521612,-1.859032154
618,1.55965595618e+18,2.021918058,-0.3462567329,-2.697139263
619,1.55965595623e+18,2.238164663,-0.5325706005,-2.5096035
620,1.55965595628e+18,1.718318105,-1.08906889,-2.171184301
621,1.55965595634e+18,0.3548668921,0.3837272227,-1.740524292
622,1.55965595639e+18,-1.007362604,0.06485556066,-0.533454597
623,1.55965595644e+18,-1.686033964,0.6182994843,1.762176991
624,1.55965595649e+18,-3.923633337,1.655548692,5.52755022
625,1.55965595654e+18,-2.204658508,-1.749414206,2.602727652
626,1.5596559566e+18,-2.152734756,-3.026733398,3.271014214
627,1.55965595665e+18,0.3066085577,2.819857836,-1.482128263
628,1.5596559567e+18,1.117837548,-0.6596305966,-2.345281124
629,1.55965595675e+18,1.628520846,0.613412559,-2.297022343
630,1.5596559568e+18,2.13370657,0.1729787141,-2.78449297
631,1.55965595686e+18,2.340178967,0.3330253959,-2.758225918
632,1.55965595691e+18,2.390269756,0.2047436982,-2.664152622
633,1.55965595696e+18,2.235110044,-0.009059132077,-1.757017732
634,1.55965595701e+18,1.844767213,-0.8887050748,-1.127215624
635,1.55965595706e+18,-0.06174320728,-0.6400829554,0.3077068925
636,1.55965595712e+18,-1.832641602,1.687924504,1.696203589
637,1.55965595717e+18,-4.091010094,2.681191444,3.38830018
638,1.55965595722e+18,-3.678065538,-1.063412547,4.391951561
639,1.55965595727e+18,-2.047666073,-1.14526844,3.688235044
640,1.55965595732e+18,-0.168644622,0.9371711612,-0.3746296167
641,1.55965595738e+18,0.5576741099,2.421573639,-1.176084876
642,1.55965595743e+18,1.27299726,1.524212599,-1.484571815
643,1.55965595748e+18,1.598588467,0.4148813486,-2.133310556
644,1.55965595753e+18,1.811780572,0.4057183862,-2.366050243
645,1.55965595758e+18,1.466030717,0.4191574156,-2.835194826
646,1.55965595764e+18,1.063470602,0.562099874,-2.749062777
647,1.55965595769e+18,0.8759349585,0.7361964583,-1.361787796
648,1.55965595774e+18,0.9229715466,0.005601634271,-1.223121405
649,1.55965595779e+18,-1.324401617,-0.06098267809,2.112813711
650,1.55965595784e+18,-3.90652895,-1.233844042,3.102415323
651,1.5596559579e+18,-4.259609222,-0.9870544076,4.16898632
652,1.55965595795e+18,-3.216251135,-3.327279091,4.653402328
653,1.559655958e+18,-0.6713867188,-4.112241268,2.038288116
654,1.55965595805e+18,0.1416749209,-1.776903152,-2.654989481
655,1.5596559581e+18,0.7006166577,4.171092033,-2.130867243
656,1.55965595816e+18,1.528949976,0.4655831456,-2.921326876
657,1.55965595821e+18,1.769019842,-0.05365229398,-2.904222727
658,1.55965595826e+18,1.816667438,1.650050879,-3.137573004
659,1.55965595831e+18,1.70671165,0.5394978523,-2.843746901
660,1.55965595836e+18,2.294974804,0.9408363104,-1.631179452
661,1.55965595842e+18,1.235734582,0.7563550472,-0.04109717906
662,1.55965595847e+18,-1.248654366,-2.240549803,1.861137152
663,1.55965595852e+18,-2.974348545,1.47717607,3.984504938
664,1.55965595857e+18,-4.168590546,1.218780041,4.616750717
665,1.55965595862e+18,-2.839958191,-5.12872076,3.661357164
666,1.55965595868e+18,-0.8766374588,3.420949221,4.285661221
667,1.55965595873e+18,0.3664733171,-0.03471547365,-0.5047438741
668,1.55965595878e+18,1.351188064,-0.2796724141,-2.312294245
669,1.55965595883e+18,1.940673113,0.5743172169,-2.847412109
670,1.55965595888e+18,2.114769697,1.168689132,-3.096645117
671,1.55965595894e+18,2.124543428,2.213268518,-2.64521575
672,1.55965595899e+18,1.677390099,0.9218994975,-2.003196239
673,1.55965595904e+18,1.685331464,-0.1098518968,-1.379502892
674,1.55965595909e+18,1.243675828,-1.030425787,-0.7203793526
675,1.55965595914e+18,-0.2150703818,-0.9113071561,-0.2750585675
676,1.5596559592e+18,-1.876012921,0.708096683,1.307082415
677,1.55965595925e+18,-3.916913748,0.5901996493,3.073093653
678,1.5596559593e+18,-4.264496326,-0.1923187077,3.668687582
679,1.55965595935e+18,-3.006113768,-2.660214424,3.595994473
680,1.5596559594e+18,-0.4917923212,0.227956593,0.9631652832
681,1.55965595946e+18,0.6334214211,-0.3456458747,-1.364842176
682,1.55965595951e+18,1.569266915,0.4698592126,-1.890797138
683,1.55965595956e+18,2.058570147,-0.3529762626,-2.872457504
684,1.55965595961e+18,1.822165132,0.3348580003,-2.863294601
685,1.55965595966e+18,2.218616724,0.1858068854,-2.896892071
686,1.55965595972e+18,2.431808949,-0.5576161742,-2.156523466
687,1.55965595977e+18,2.525270939,-0.8642704487,-1.103391886
688,1.55965595982e+18,2.692037344,-1.089679837,-0.2646738589
689,1.55965595987e+18,1.351188064,-0.4891992211,0.2655571699
690,1.55965595992e+18,-1.797211409,0.2016893774,2.613112211
691,1.55965595998e+18,-3.354306936,1.81864965,3.880657673
692,1.55965596003e+18,-3.543674946,-1.148933768,3.561786175
693,1.55965596008e+18,-2.125856876,0.5871453285,3.581944466
694,1.55965596013e+18,-0.2517222762,-0.8740442991,0.324200213
695,1.55965596018e+18,0.3237127662,0.2560563982,-1.017259836
696,1.55965596024e+18,1.091570377,0.6781642437,-1.642175078
697,1.55965596029e+18,1.489854455,-0.3792434633,-2.530983925
698,1.55965596034e+18,1.360351086,0.6317385435,-2.847412109
699,1.55965596039e+18,1.319423079,-0.03349373862,-3.336104155
700,1.55965596044e+18,0.145950973,0.2682736814,-3.501648664
701,1.5596559605e+18,-1.764224648,2.478384018,-2.570690155
702,1.55965596055e+18,-2.722061396,2.230983734,-1.247555971
703,1.5596559606e+18,-1.968253613,1.619507551,0.8605399132
704,1.55965596065e+18,-3.863768578,0.5504934192,3.658302784
705,1.5596559607e+18,-4.476466179,-3.031009436,4.299711227
706,1.55965596076e+18,-2.248640776,-3.649816036,4.376069546
707,1.55965596081e+18,0.5729457736,-2.547815084,0.1238364354
708,1.55965596086e+18,1.357296705,0.4527550042,-2.034350395
709,1.55965596091e+18,2.175856113,-0.02249816619,-2.071613312
710,1.55965596096e+18,2.643779039,-0.5551726818,-2.454014778
711,1.55965596102e+18,2.530158043,0.1094487235,-2.700193644
712,1.55965596107e+18,2.039022446,0.5840910077,-2.642161369
713,1.55965596112e+18,2.281535864,0.9438906312,-1.770456672
714,1.55965596117e+18,2.166693211,-0.1703275591,-0.5664412975
715,1.55965596122e+18,1.408609509,-1.266219854,0.2295161337
716,1.55965596128e+18,0.7763639092,-0.8074600101,0.2490638196
717,1.55965596133e+18,-1.411755323,0.267051965,2.043174982
718,1.55965596138e+18,-5.145363808,5.157028198,4.465866566
719,1.55965596143e+18,-5.547924042,-2.269871235,5.126822948
720,1.55965596148e+18,-1.832030654,-2.540484667,2.952753305
721,1.55965596154e+18,0.04699081182,0.1680918038,-1.604301333
722,1.55965596159e+18,0.5045288801,0.8687542081,-1.719754934
723,1.55965596164e+18,1.158765554,0.1650374532,-1.84376049
724,1.55965596169e+18,1.133109212,-0.2735637724,-2.347113609
725,1.55965596174e+18,1.103176713,1.053235531,-2.434467316
726,1.5596559618e+18,1.469085097,0.9273972511,-2.184012413
727,1.55965596185e+18,1.128833175,0.08929017931,-2.280529022
728,1.5596559619e+18,-0.04341724887,0.6347928643,-1.722809196
729,1.55965596195e+18,-0.6029697657,1.094163418,-0.4241096675
730,1.559655962e+18,-0.7654599547,2.969519854,1.865413189
731,1.55965596206e+18,-2.274297237,-2.408537865,3.413345814
732,1.55965596211e+18,-4.417823315,-2.037742615,3.65341568
733,1.55965596216e+18,-4.059245586,-1.345021367,4.324756622
734,1.55965596221e+18,-1.649381995,-0.4220040143,4.581320286
735,1.55965596226e+18,0.3786906302,-2.611345053,-0.5059656501
736,1.55965596232e+18,1.543610692,-0.6736805439,-1.722809196
737,1.55965596237e+18,2.273594618,-0.5466205478,-2.435078144
738,1.55965596242e+18,2.078117609,0.1412137151,-2.968363523
739,1.55965596247e+18,1.846599817,1.120430708,-2.918272495
740,1.55965596252e+18,1.695105195,0.2206262052,-3.040445566
741,1.55965596258e+18,0.3768580258,-0.398180306,-3.667193413
742,1.55965596263e+18,-1.738568306,3.044045448,-2.524875164
743,1.55965596268e+18,-3.000005245,4.467972279,0.3351958096
744,1.55965596273e+18,-3.104462862,1.273757935,2.965581656
745,1.55965596278e+18,-4.67499733,-1.86059165,4.246565819
746,1.55965596284e+18,-4.031756401,-1.530113697,4.556885719
747,1.55965596289e+18,-1.421529293,-5.079851627,4.509237766
748,1.55965596294e+18,1.056140184,-3.316283464,-2.017857075
749,1.55965596299e+18,1.670670629,0.3263058662,-2.15835619
750,1.55965596304e+18,2.718304396,-2.859356403,-1.943942428
751,1.5596559631e+18,2.714028597,-2.696255445,-2.441186666
752,1.55965596315e+18,2.317576885,-0.9992716908,-1.854756117
753,1.5596559632e+18,1.949836016,-0.3755782843,-1.674550891
754,1.55965596325e+18,0.9357997179,-0.6009875536,-1.557875633
755,1.5596559633e+18,0.2803413272,-0.5362358689,-1.660501003
756,1.55965596336e+18,1.378066182,1.853469014,-1.290316701
757,1.55965596341e+18,0.4605465829,-0.7640885711,-0.5536131263
758,1.55965596346e+18,-0.9505521059,-0.1281778514,1.649166942
759,1.55965596351e+18,-3.494805813,3.41484046,4.426771164
760,1.55965596356e+18,-3.969448328,-1.30409348,4.483581543
761,1.55965596362e+18,-3.03848958,1.011085868,5.139650822
762,1.55965596367e+18,-0.625571847,-1.927786827,-0.5780477524
763,1.55965596372e+18,-0.0623540692,1.36477685,-1.744800329
764,1.55965596377e+18,0.5998238325,0.852871716,-2.012970209
765,1.55965596382e+18,0.9571800828,-0.4684298038,-2.416141272
766,1.55965596388e+18,1.241843224,1.031244397,-2.563970804
767,1.55965596393e+18,1.442817926,-0.445216924,-3.248750448
768,1.55965596398e+18,1.363405347,0.7661288381,-3.024563074
769,1.55965596403e+18,1.261390924,-0.6742913723,-2.69775033
770,1.55965596408e+18,0.711612165,-1.515452862,-2.22188592
771,1.55965596414e+18,0.08547531813,0.1925264001,-1.458304524
772,1.55965596419e+18,-1.893117189,2.092317343,1.104885936
773,1.55965596424e+18,-4.439814568,1.344007492,3.302778959
774,1.55965596429e+18,-6.079377174,0.9084604383,5.078564644
775,1.55965596434e+18,-4.681106091,-1.240563512,4.719986439
776,1.55965596439e+18,-1.454515934,2.992732763,2.773159027
777,1.55965596445e+18,0.1508379132,-1.236898303,-1.705094099
778,1.5596559645e+18,0.7702552676,1.298803329,-1.461969733
779,1.55965596455e+18,1.625466585,-1.419546962,-2.549920559
780,1.5596559646e+18,2.09400034,-0.4293344021,-2.768610477
781,1.55965596465e+18,2.137982368,0.152820155,-3.412462473
782,1.55965596471e+18,1.941283941,0.8046134114,-3.418570995
783,1.55965596476e+18,1.949225187,0.612190783,-2.882231474
784,1.55965596481e+18,1.349355459,0.2120740861,-1.423485279
785,1.55965596486e+18,0.7513183951,0.9958142042,-1.004431725
786,1.55965596491e+18,-1.568136811,3.493031263,1.052351594
787,1.55965596497e+18,-3.893700838,1.216336489,3.127460957
788,1.55965596502e+18,-5.174074173,-0.001117883483,5.694927216
789,1.55965596507e+18,-3.003059387,-3.68830061,2.953364372
790,1.55965596512e+18,-1.095327139,0.6897706985,2.117089748
791,1.55965596517e+18,0.2174222171,-0.1000780538,-1.104002714
792,1.55965596523e+18,1.045755506,1.61339891,-0.9787753224
793,1.55965596528e+18,1.854541063,0.03919922188,-2.226162195
794,1.55965596533e+18,2.502058268,0.4460354745,-2.579242229
795,1.55965596538e+18,2.522827625,-0.6150375009,-3.064269304
796,1.55965596543e+18,2.328572512,-0.7671428919,-2.149803877
797,1.55965596549e+18,1.623023152,-0.3083830774,-1.304977417
798,1.55965596554e+18,0.5949369669,-0.358474046,-0.1412790865
799,1.55965596559e+18,-1.090440273,0.5431630015,1.565478444
800,1.55965596564e+18,-3.230912209,1.698920012,3.836675406
801,1.55965596569e+18,-5.089164257,-2.444578886,5.263656616
802,1.55965596575e+18,-1.83325243,-2.637001514,5.059627533
803,1.5596559658e+18,-0.3818365932,0.64945364,2.023627281
804,1.55965596585e+18,0.6462496519,1.105769873,-2.50593853
805,1.5596559659e+18,1.186254501,0.9005192518,-2.487001657
806,1.55965596595e+18,1.542999744,-0.2063686103,-2.78754735
807,1.55965596601e+18,1.5741539,0.3415775001,-3.510200977
808,1.55965596606e+18,1.572321296,0.8931888342,-3.227981091
809,1.55965596611e+18,1.646235943,0.09539882839,-2.903000832
810,1.55965596616e+18,1.495352268,-0.04448931664,-2.26098156
811,1.55965596621e+18,1.4318223,0.8076677322,-0.4289966226
812,1.55965596627e+18,-0.2627178729,1.011085868,1.304028034
813,1.55965596632e+18,-3.004281044,1.659824729,2.084713936
814,1.55965596637e+18,-5.49844408,1.58346653,4.646071911
815,1.55965596642e+18,-3.993272066,-2.924108267,4.118895054
816,1.55965596647e+18,-1.682368636,-0.697504282,3.726108789
817,1.55965596653e+18,0.3896862268,-0.6052635908,-1.796723843
818,1.55965596658e+18,0.9376323223,2.205327511,-1.614075184
819,1.55965596663e+18,1.401279092,0.2792692482,-2.657433033
820,1.55965596668e+18,1.582706094,1.008642435,-2.871846676
821,1.55965596673e+18,1.712209463,1.195567131,-3.189496517
822,1.55965596679e+18,1.697548747,1.019027114,-3.490653276
823,1.55965596684e+18,1.075687885,1.462515235,-2.807705879
824,1.55965596689e+18,0.1563356966,0.06790988892,-1.852312565
825,1.55965596694e+18,-1.03179729,0.1057835296,-0.2103068531
826,1.55965596699e+18,-2.007349014,1.610955477,2.363879442
827,1.55965596705e+18,-3.589489937,0.1467114985,2.95092082
828,1.5596559671e+18,-4.567485332,-0.8416684866,3.806742907
829,1.55965596715e+18,-3.253514051,-3.621105194,3.972287655
830,1.5596559672e+18,-0.7697360516,-1.56248951,3.380970001
831,1.55965596725e+18,0.6945080161,-0.8483880162,-1.360566139
832,1.55965596731e+18,1.489854455,0.7306986451,-1.722198367
833,1.55965596736e+18,2.095832825,0.3641795218,-2.480893135
834,1.55965596741e+18,2.39210248,0.144878909,-2.753338814
835,1.55965596746e+18,2.744571686,-0.3914607763,-2.713021755
836,1.55965596751e+18,2.814210415,-0.2088120729,-2.104600191
837,1.55965596757e+18,2.298640251,-0.9675067067,-1.202962875
838,1.55965596762e+18,0.9437409639,-0.9467372894,-0.3361450732
839,1.55965596767e+18,-0.2498897016,2.585285664,0.4158300161
840,1.55965596772e+18,-1.904723644,0.6286842227,2.132361412
841,1.55965596777e+18,-5.104435921,0.353183955,4.402336597
842,1.55965596783e+18,-4.441647053,-1.308369517,3.279566288
843,1.55965596788e+18,-2.284681797,-1.000493407,3.073093653
844,1.55965596793e+18,0.3847992718,-1.728644729,-0.1767092645
845,1.55965596798e+18,1.26933217,-0.1813231409,-1.935390234
846,1.55965596803e+18,2.111715317,0.31836465,-2.551142693
847,1.55965596809e+18,2.7231915,-0.3236547112,-3.209044456
848,1.55965596814e+18,2.586968422,0.3318036795,-2.918272495
849,1.55965596819e+18,1.945559978,-0.2784507275,-2.369104624
850,1.55965596824e+18,0.5356829762,0.6237972379,-1.5823102
851,1.55965596829e+18,-0.6646671891,0.1552636325,-0.6385233998
852,1.55965596835e+18,-0.8234921694,1.431971908,1.306471586
853,1.5596559684e+18,-1.552865267,0.03553403169,2.627773285
854,1.55965596845e+18,-4.44286871,1.516882181,4.225796223
855,1.5596559685e+18,-3.331094027,-2.961370945,3.665632963
856,1.55965596855e+18,-1.930990815,-0.7384322286,3.559342623
857,1.55965596861e+18,0.369527638,0.0734076798,-1.231673598
858,1.55965596866e+18,1.294988513,0.3336362541,-1.681270361
859,1.55965596871e+18,2.064067841,-0.3786326051,-2.585350752
860,1.55965596876e+18,2.23694253,-0.04143498838,-2.761890888
861,1.55965596881e+18,2.189295053,0.7154270411,-2.577409744
862,1.55965596887e+18,2.071398258,1.709915638,-1.91339922
863,1.55965596892e+18,1.955944657,0.4674157798,-1.162645698
864,1.55965596897e+18,1.119059324,-1.112892628,-0.113790147
865,1.55965596902e+18,0.2632370889,0.9518319368,0.5942026973
866,1.55965596907e+18,-1.066005588,-0.6443589926,0.529450953
867,1.55965596913e+18,-4.598028183,2.339717865,4.194031715
868,1.55965596918e+18,-4.196079254,-0.2888354063,4.752362251
869,1.55965596923e+18,-2.996950626,-1.511787653,3.030944109
870,1.55965596928e+18,-0.4209319651,-0.6895629764,-0.2487913668
871,1.55965596933e+18,0.5588958859,1.268260121,-1.616518736
872,1.55965596939e+18,1.370735884,0.6024169922,-2.09543705
873,1.55965596944e+18,1.932120919,0.2933191657,-2.890783548
874,1.55965596949e+18,2.012144327,0.08745758235,-3.38680625
875,1.55965596954e+18,1.880808234,-0.1214583367,-3.2017138
876,1.55965596959e+18,1.205191255,0.4924612343,-2.225551367
877,1.55965596965e+18,0.2766761482,0.9267864227,-1.455250263
878,1.5596559697e+18,-0.8570897579,0.3586817384,0.09940182418
879,1.55965596975e+18,-0.8161618114,0.1363268048,0.9087982774
880,1.5596559698e+18,-2.863781929,1.502221465,4.204416275
881,1.55965596985e+18,-4.426986217,-2.242993355,4.401725769
882,1.55965596991e+18,-2.66769433,-2.959538221,3.979617834
883,1.55965596996e+18,-0.2724916935,-2.211228371,0.6278002262
884,1.55965597001e+18,0.7177208066,1.841862559,-1.713646293
885,1.55965597006e+18,1.397613883,0.4851308465,-1.944553375
886,1.55965597011e+18,1.798952341,-1.409162283,-2.279307365
887,1.55965597017e+18,1.831328273,0.3403557837,-2.342837334
888,1.55965597022e+18,1.629742622,1.261540532,-2.005028963
889,1.55965597027e+18,2.01092267,0.9420580268,-1.217623711
890,1.55965597032e+18,1.360961914,-0.2705094516,-0.1553289741
891,1.55965597037e+18,0.3102737367,1.329957485,0.8874179721
892,1.55965597042e+18,-1.679925323,-1.164205313,1.483011603
893,1.55965597048e+18,-4.640789032,0.614023447,4.311317921
894,1.55965597053e+18,-3.500303745,-2.36027956,2.96435976
895,1.55965597058e+18,-1.753229141,-0.4794253707,3.396852493
896,1.55965597063e+18,-0.1387122124,-1.927175999,-0.832167685
897,1.55965597068e+18,0.5051397681,0.4222117364,-1.24144733
898,1.55965597074e+18,0.8435590863,0.04164268449,-2.056341648
899,1.55965597079e+18,1.257725716,0.4570310414,-2.574355364
900,1.55965597084e+18,1.240010619,1.007420659,-3.046554089
901,1.55965597089e+18,1.295599341,0.6073039174,-2.753338814
902,1.55965597094e+18,1.258947492,0.04775133356,-2.529762268
903,1.559655971e+18,1.353020787,2.187001467,-0.4919157326
904,1.55965597105e+18,-0.2254550904,1.372717977,0.4976859689
905,1.5596559711e+18,-4.695766926,0.1222768947,2.991848946
906,1.55965597115e+18,-4.556489944,-2.597906113,4.985713005
907,1.5596559712e+18,-1.927936554,-0.1239017919,4.693108559
908,1.55965597126e+18,0.1844354868,1.552312374,-0.3587470949
909,1.55965597131e+18,0.4935332835,0.9365602136,-2.312294245
910,1.55965597136e+18,1.030483842,1.969533443,-2.636052847
911,1.55965597141e+18,1.050031543,0.5242262483,-2.926824808
912,1.55965597146e+18,0.6810688972,1.276201248,-2.895670414
913,1.55965597152e+18,0.4324467778,0.6457883716,-2.623835564
914,1.55965597157e+18,0.1166294515,1.877292752,-1.987924695
915,1.55965597162e+18,-0.5070639849,0.262775898,-1.331855416
916,1.55965597167e+18,-1.160689831,0.8058350682,0.6559000611
917,1.55965597172e+18,-2.723283052,1.508941054,3.060265541
918,1.55965597178e+18,-4.253500462,-1.411605716,3.459160566
919,1.55965597183e+18,-2.838125706,-1.25766778,3.568505526
920,1.55965597188e+18,-0.7324732542,-1.638847709,2.029736042
921,1.55965597193e+18,0.9645104408,-1.93328464,-1.477852345
922,1.55965597198e+18,1.69021821,-0.1904861182,-2.490055799
923,1.55965597204e+18,2.060402632,-0.5063034296,-2.706302166
924,1.55965597209e+18,1.916849375,-0.04937623441,-2.931711435
925,1.55965597214e+18,1.548497558,0.5633215904,-3.143070698
926,1.55965597219e+18,1.14043963,0.9280081987,-2.30068779
927,1.55965597224e+18,0.3927405477,0.9145690799,-1.092396259
928,1.5596559723e+18,-0.6542824507,1.454573989,0.6168046594
929,1.55965597235e+18,-1.007973433,0.0196515359,2.081659317
930,1.5596559724e+18,-4.477077007,0.7966721058,4.932568073
931,1.55965597245e+18,-3.748925686,-3.231984138,4.083464622
932,1.5596559725e+18,-1.854632735,-0.4342213571,3.155560493
933,1.55965597256e+18,0.4593248665,-2.338288307,-1.514504194
934,1.55965597261e+18,0.9944428205,0.7306986451,-1.838262677
935,1.55965597266e+18,1.558271527,0.5388869643,-2.140641212
936,1.55965597271e+18,1.864314914,-0.8636596203,-2.83763814
937,1.55965597276e+18,2.178299665,0.5333892107,-2.860851049
938,1.55965597282e+18,2.560090303,2.987234831,-2.822366714
939,1.55965597287e+18,0.9651212692,1.541927695,-2.482114792
940,1.55965597292e+18,-0.830211699,0.3837272227,-1.560319066
941,1.55965597297e+18,-0.5131726265,-0.8948137164,0.06946942955
942,1.55965597302e+18,-2.693961382,0.9261755347,3.004066229
943,1.55965597308e+18,-5.116042614,-0.2295814753,4.871480942
944,1.55965597313e+18,-3.605372667,-2.571638823,3.903870583
945,1.55965597318e+18,-1.064783931,-2.776889563,2.807978153
946,1.55965597323e+18,1.347522974,-5.010823727,-1.83704102
947,1.55965597328e+18,1.316368818,1.133869767,-1.388055086
948,1.55965597334e+18,2.254046917,-1.583258867,-1.995865941
949,1.55965597339e+18,2.586357594,-1.641291022,-2.413086891
950,1.55965597344e+18,2.637670517,-0.7885231972,-2.049622059
951,1.55965597349e+18,2.315133572,-1.011489034,-1.96959877
952,1.55965597354e+18,1.089126945,0.2523911893,-1.160813212
953,1.5596559736e+18,-0.2107943296,0.04897306859,-0.3703535497
954,1.55965597365e+18,-1.704970717,2.433180094,1.089003563
955,1.5596559737e+18,-2.898601294,2.251753092,3.252077341
956,1.55965597375e+18,-2.805749893,-1.792174816,2.973522663
957,1.5596559738e+18,-3.25717926,-0.8471662402,4.046202183
958,1.55965597386e+18,-1.176572323,-1.396334052,2.138469934
959,1.55965597391e+18,0.5705023408,-0.4562124908,-0.9384582639
960,1.55965597396e+18,1.32614255,1.369663715,-2.413086891
961,1.55965597401e+18,1.808115363,-0.1122953594,-2.735013008
962,1.55965597406e+18,2.042687654,-0.3957368433,-2.978137255
963,1.55965597412e+18,1.891193032,0.4093835652,-2.732569218
964,1.55965597417e+18,1.773295999,-0.2674551308,-2.329398394
965,1.55965597422e+18,1.477637172,-0.1611645818,-1.658057451
966,1.55965597427e+18,0.574778378,0.1234986261,-0.6238626242
967,1.55965597432e+18,-0.5528788567,0.2151284218,0.5832070708
968,1.55965597438e+18,-2.583395004,3.076421261,3.460993052
969,1.55965597443e+18,-4.170423031,-1.294930458,2.748113632
970,1.55965597448e+18,-2.313392639,-2.647386312,3.954572201
971,1.55965597453e+18,-1.496054769,1.690978885,2.938703299
972,1.55965597458e+18,0.4623791873,-0.8477771282,-1.174862981
973,1.55965597464e+18,0.7470423579,0.05263825879,-1.52244544
974,1.55965597469e+18,1.169150233,0.1876394749,-2.156523466
975,1.55965597474e+18,1.430600643,0.2707171738,-2.622613668
976,1.55965597479e+18,1.675557494,0.2090197653,-2.957978725
977,1.55965597484e+18,1.90218854,-0.3395372331,-2.884674788
978,1.5596559749e+18,1.730535388,0.2407847643,-2.212723255
979,1.55965597495e+18,0.5906608701,0.5596564412,-0.8425523639
980,1.559655975e+18,-0.7153690457,0.2401738912,1.096333861
981,1.55965597505e+18,-2.164341211,0.3159211874,3.380970001
982,1.5596559751e+18,-3.192427397,0.793617785,3.503143072
983,1.55965597516e+18,-4.139879227,-1.278437138,4.273443699
984,1.55965597521e+18,-2.226649761,-3.492823839,4.131112099
985,1.55965597526e+18,-0.1179428101,-1.728644729,0.7487515807
986,1.55965597531e+18,0.6957296729,0.9109039307,-1.721587539
987,1.55965597536e+18,1.135552764,-0.6480241418,-1.928670764
988,1.55965597542e+18,1.627910018,0.9054061174,-2.454625845
989,1.55965597547e+18,1.889971256,1.218780041,-2.800375462
990,1.55965597552e+18,2.137982368,-0.01089172717,-2.552364349
991,1.55965597557e+18,2.266875029,-1.398777604,-2.094826221
992,1.55965597562e+18,1.961442471,-0.8581618071,-1.204184532
993,1.55965597568e+18,1.081185699,0.1131139174,-0.1620484889
994,1.55965597573e+18,-1.94931674,1.518103957,2.21604991
995,1.55965597578e+18,-3.997548103,0.808889389,4.058419228
996,1.55965597583e+18,-2.353709698,-1.308369517,3.501310349
997,1.55965597588e+18,-1.665264487,2.097204447,3.357146263
998,1.55965597594e+18,0.3621972799,-1.299206495,-0.6489080787
999,1.55965597599e+18,0.7836942673,1.38493526,-1.851090908
1000,1.55965597604e+18,1.69999218,0.1839742959,-2.599400997
1001,1.55965597609e+18,1.982822776,-0.901533246,-3.276850224
1002,1.55965597614e+18,1.875921369,0.4234334826,-2.86390543
1003,1.5596559762e+18,1.532004237,-0.2283597589,-2.293968201
1004,1.55965597625e+18,0.7329924703,-0.2027034163,-0.8071221709
1005,1.5596559763e+18,-0.1674228907,-0.06464786828,0.6339089274
1006,1.55965597635e+18,-1.65426898,0.3434101343,3.038274527
1007,1.5596559764e+18,-3.925465822,0.7569658756,3.524523258
1008,1.55965597646e+18,-4.423321247,-0.0823629573,4.790235996
1009,1.55965597651e+18,-1.73062706,-2.136702776,2.969246864
1010,1.55965597656e+18,0.6077650785,-1.123888135,0.9643869996
1011,1.55965597661e+18,1.144104719,-0.3676370382,-2.264646769
1012,1.55965597666e+18,1.69327271,1.166856408,-1.710591912
1013,1.55965597672e+18,2.054904699,-0.5789964199,-2.625668049
1014,1.55965597677e+18,2.171580076,1.199843168,-2.819923162
1015,1.55965597682e+18,3.016406775,2.816192627,-2.672093868
1016,1.55965597687e+18,2.382939339,1.486949801,-1.917064309
1017,1.55965597692e+18,1.317590594,-1.944891095,-1.451585054
1018,1.55965597698e+18,-0.4728555381,-0.2753964067,0.2435660213
1019,1.55965597703e+18,-1.499719977,1.129593611,1.389549136
1020,1.55965597708e+18,-5.152083397,0.561488986,4.318647861
1021,1.55965597713e+18,-4.286487103,-2.955262184,3.694954634
1022,1.55965597718e+18,-2.257803679,-0.2576812804,4.426160336
1023,1.55965597724e+18,-0.03975205496,-1.325473785,0.3089286089
1024,1.55965597729e+18,0.908310771,-0.08969334513,-2.050843716
1025,1.55965597734e+18,1.345079422,0.846152246,-2.063672066
1026,1.55965597739e+18,1.801395774,-1.040810585,-2.77777338
1027,1.55965597744e+18,1.751915693,0.4295421243,-2.669039488
1028,1.5596559775e+18,1.751915693,-0.1801013947,-2.462566853
1029,1.55965597755e+18,0.8967043161,-0.1159605458,-2.699582815
1030,1.5596559776e+18,-1.262704253,3.258459091,-2.713021755
1031,1.55965597765e+18,-1.92610383,4.430709362,-1.165700078
1032,1.5596559777e+18,-2.493597746,0.1974133104,1.69925797
1033,1.55965597776e+18,-3.690282822,-0.4232257605,3.482373476
1034,1.55965597781e+18,-3.042154789,-2.342564344,3.880046844
1035,1.55965597786e+18,-1.263315201,-2.311410189,2.89472127
1036,1.55965597791e+18,0.7592597008,0.231621787,-1.031920671
1037,1.55965597796e+18,1.599199295,-0.7164410949,-1.240836501
1038,1.55965597802e+18,2.199679852,-1.677332163,-2.177293062
1039,1.55965597807e+18,2.184408188,-0.8196772933,-2.343448162
1040,1.55965597812e+18,1.893636465,-0.8825964332,-2.347113609
1041,1.55965597817e+18,2.36888957,-0.07258912176,-1.457082748
1042,1.55965597822e+18,2.604683638,-0.7592016459,-0.8022353053
1043,1.55965597828e+18,1.910129786,-1.249115586,-0.4467116892
1044,1.55965597833e+18,0.1826028973,-0.8062382936,0.8257206082
1045,1.55965597838e+18,-1.866850019,1.425863266,2.933205843
1046,1.55965597843e+18,-3.312157154,3.013502121,3.919753075
1047,1.55965597848e+18,-3.662182808,-1.640680194,4.159212589
1048,1.55965597854e+18,-1.769722462,0.0453078784,3.396241426
1049,1.55965597859e+18,0.02561052516,-0.1159605458,-0.399064213
1050,1.55965597864e+18,0.5778326988,-0.1568885148,-2.018467903
1051,1.55965597869e+18,1.364016294,0.3708990514,-2.265257597
1052,1.55965597874e+18,1.912573218,-0.1581102461,-2.730736732
1053,1.5596559788e+18,2.128208637,0.353183955,-2.54259038
1054,1.55965597885e+18,2.274816513,-0.3566414416,-2.57252264
1055,1.5596559789e+18,2.362781048,-0.3267090321,-1.514504194
1056,1.55965597895e+18,1.214965224,-0.603431046,-0.67822963
1057,1.559655979e+18,-0.9853714705,0.227956593,0.5966461301
1058,1.55965597906e+18,-2.659753084,0.235286966,1.539821982
1059,1.55965597911e+18,-3.282835722,2.011682987,3.932581186
1060,1.55965597916e+18,-3.127064943,0.03003624268,3.768258572
1061,1.55965597921e+18,-2.683576822,0.008045095019,3.123795748
1062,1.55965597926e+18,-0.2767677605,0.1913046688,0.8745898604
1063,1.55965597931e+18,-0.05807801336,-1.224070072,-1.637288094
1064,1.55965597937e+18,0.805685401,0.1283855438,-1.745411277
1065,1.55965597942e+18,1.52467382,-1.931452036,-3.030671597
1066,1.55965597947e+18,2.063457012,-1.136716485,-4.13267231
1067,1.55965597952e+18,2.499614716,-0.09213680029,-3.697125673
1068,1.55965597957e+18,2.550316572,0.4185465276,-2.424693346
1069,1.55965597963e+18,1.833771586,-0.3835195303,-1.185858607
1070,1.55965597968e+18,0.6706842184,-0.7885231972,0.1928642094
1071,1.55965597973e+18,0.3646407425,0.451533258,1.514776587
1072,1.55965597978e+18,-1.873569608,0.1186117008,3.128071785
1073,1.55965597983e+18,-3.955398083,2.478384018,4.931956768
1074,1.55965597989e+18,-3.43555212,-1.300428271,4.000387192
1075,1.55965597994e+18,-0.9639911652,0.12960729,2.564853907
1076,1.55965597999e+18,-0.255387485,0.8846367002,-1.391720176
1077,1.55965598004e+18,0.374414593,1.901727319,-1.497399926
1078,1.55965598009e+18,0.9064782262,-0.5026382208,-2.452182293
1079,1.55965598015e+18,0.7244403958,0.6030278206,-2.874901056
1080,1.5596559802e+18,0.7232186198,1.499167085,-2.898113966
1081,1.55965598025e+18,0.2333047092,1.088054776,-2.848633766
1082,1.5596559803e+18,-2.569955826,3.182711601,-3.732555866
1083,1.55965598035e+18,-3.376298189,4.96765995,-2.147360563
1084,1.55965598041e+18,-3.039100409,-0.6571871042,-0.9219648242
1085,1.55965598046e+18,-4.404994965,-0.1898752451,4.249619961
1086,1.55965598051e+18,-4.502122402,-4.466543198,4.168375015
1087,1.55965598056e+18,-0.8644201756,-5.999203682,3.906313896
1088,1.55965598061e+18,0.7836942673,-1.142825127,-0.5969845653
1089,1.55965598067e+18,1.772074223,-2.353559971,-1.342851043
1090,1.55965598072e+18,2.508167028,-1.489185691,-2.028852701
1091,1.55965598077e+18,2.955320358,-1.119001389,-2.31046176
1092,1.55965598082e+18,2.674933195,-1.566154718,-2.616505146
1093,1.55965598087e+18,2.045742035,-0.1086301655,-2.272587776
1094,1.55965598093e+18,1.358518481,-0.7879123092,-1.601247072
1095,1.55965598098e+18,0.8557763696,-0.558837831,-0.3214843273
1096,1.55965598103e+18,0.2614045143,-0.4782036543,1.409707785
1097,1.55965598108e+18,-1.408701062,3.11001873,3.787806034
1098,1.55965598113e+18,-2.576064348,-0.5319597721,3.466490984
1099,1.55965598119e+18,-2.510091066,-0.5698334575,4.732203484
1100,1.55965598124e+18,-2.091037512,-0.7543147802,3.77253437
1101,1.55965598129e+18,0.4202294648,-2.230776072,0.04320222139
1102,1.55965598134e+18,1.122724533,-1.666336536,-2.106432676
1103,1.55965598139e+18,1.60714066,0.1045618057,-2.252429485
1104,1.55965598145e+18,2.226558208,-0.9241352677,-2.938431263
1105,1.5596559815e+18,2.455632687,0.03370143473,-2.874901056
1106,1.55965598155e+18,2.203956127,-0.3438133001,-2.571911812
1107,1.5596559816e+18,1.957777381,0.02148413099,-1.546269178
1108,1.55965598165e+18,1.412885547,0.2609432936,-0.3214843273
1109,1.55965598171e+18,0.6401410103,-1.031036735,0.9332329035
1110,1.55965598176e+18,-0.3732844889,2.04711318,3.617985487
1111,1.55965598181e+18,-3.803292751,1.365998507,4.7951231
1112,1.55965598186e+18,-3.232133865,0.4307638407,4.579487324
1113,1.55965598191e+18,-2.761156797,-0.05915008113,4.520233631
1114,1.55965598197e+18,-0.09900598228,-3.202662706,-2.259148836
1115,1.55965598202e+18,0.7226077914,-0.3450350165,-2.474784374
1116,1.55965598207e+18,1.236956358,0.2016893774,-2.724017382
1117,1.55965598212e+18,1.429989696,-0.05548489094,-2.766777754
1118,1.55965598217e+18,1.651122928,-0.3425915539,-2.372159004
1119,1.55965598223e+18,1.622412205,-0.2295814753,-1.579866648
1120,1.55965598228e+18,1.599810362,0.2499477416,-0.9580059052
1121,1.55965598233e+18,2.170358419,2.031230927,0.4408755004
1122,1.55965598238e+18,0.0653167665,0.7056531906,2.458563566
1123,1.55965598243e+18,-3.201590538,-0.8887050748,3.769480228
1124,1.55965598249e+18,-2.748328686,-0.2540161014,4.405391216
1125,1.55965598254e+18,-2.945027113,-2.756120205,4.54100275
1126,1.55965598259e+18,0.1581682861,-3.059720278,-1.140654683
1127,1.55965598264e+18,0.8038528562,1.78871727,-2.422860861
1128,1.55965598269e+18,1.425713658,0.3873924315,-2.557251215
1129,1.55965598275e+18,1.585760355,-0.1452820748,-2.816868782
1130,1.5596559828e+18,1.17037189,0.8718085289,-3.008680344
1131,1.55965598285e+18,1.312092781,-0.0402132608,-3.093590736
1132,1.5596559829e+18,1.403111696,0.117389977,-2.619559288
1133,1.55965598295e+18,1.148991704,0.2963735163,-2.020300627
1134,1.55965598301e+18,0.1215163693,0.940225482,-1.350792289
1135,1.55965598306e+18,-1.362275243,1.05690074,0.528840065
1136,1.55965598311e+18,-2.978624821,1.17601943,2.822028399
1137,1.55965598316e+18,-5.719577312,1.651883364,4.426771164
1138,1.55965598321e+18,-3.671345949,0.2884322405,4.08713007
1139,1.55965598327e+18,-2.210767031,1.538873434,3.328435659
1140,1.55965598332e+18,0.5124701262,-0.9656741619,-2.345891953
1141,1.55965598337e+18,1.199693441,2.295735359,-2.309850693
1142,1.55965598342e+18,1.90218854,0.2499477416,-3.191940069
1143,1.55965598347e+18,1.9351753,-0.1074084416,-3.042278051
1144,1.55965598353e+18,2.250381947,0.1033400744,-2.830307961
1145,1.55965598358e+18,2.582081556,-0.9051984549,-2.038626671
1146,1.55965598363e+18,1.849043369,-0.850831449,-1.654392362
1147,1.55965598368e+18,0.4025143683,-0.8783203959,-1.058187842
1148,1.55965598373e+18,-0.4154341817,-0.06648045778,-0.3379776776
1149,1.55965598379e+18,-1.806985259,1.342785597,2.225823641
1150,1.55965598384e+18,-3.987774134,0.4301529825,4.443264484
1151,1.55965598389e+18,-3.451434612,-1.853261352,4.705936432
1152,1.55965598394e+18,-2.898601294,-1.094566703,4.641185284
1153,1.55965598399e+18,-0.4019951522,-0.457434237,0.8348836303
1154,1.55965598405e+18,0.6651864648,0.4002205729,-1.524277925
1155,1.5596559841e+18,1.384174824,-0.370691359,-2.594513893
1156,1.55965598415e+18,2.229001522,-0.4464386702,-3.256081104
1157,1.5596559842e+18,2.290699005,0.2523911893,-3.55540514
1158,1.55965598425e+18,1.795287132,0.3336362541,-3.589002371
1159,1.55965598431e+18,1.079964042,0.8345457911,-2.887729168
1160,1.55965598436e+18,0.2406350821,0.4234334826,-2.227994919
1161,1.55965598441e+18,-0.4606382251,0.2908757031,-0.9415125847
1162,1.55965598446e+18,-1.39953804,0.3965553939,0.01876761205
1163,1.55965598451e+18,-1.937710285,2.590783358,1.605795503
1164,1.55965598457e+18,-3.468538523,0.1906937957,2.966192484
1165,1.55965598462e+18,-4.492348671,-0.1391734332,4.495799065
1166,1.55965598467e+18,-2.742830753,-0.9717828035,3.928915977
1167,1.55965598472e+18,-0.5571548939,-0.9479590058,-0.253678292
1168,1.55965598477e+18,0.6444169879,-0.7653102875,-1.360566139
1169,1.55965598483e+18,1.11722672,-1.084792852,-2.161410332
1170,1.55965598488e+18,1.678000927,-0.5124121308,-2.40636754
1171,1.55965598493e+18,2.080561161,-1.101286173,-2.580464125
1172,1.55965598498e+18,1.663951159,-0.8294511437,-2.805262566
1173,1.55965598503e+18,1.984044552,0.5889779925,-2.578020573
1174,1.55965598509e+18,1.445872188,0.1577070802,-1.82726717
1175,1.55965598514e+18,0.04454734921,-0.307772249,-1.163867593
1176,1.55965598519e+18,-0.9267283678,0.8180524111,1.103053451
1177,1.55965598524e+18,-3.152721405,3.700114727,4.194642544
1178,1.55965598529e+18,-5.068394661,-0.323043853,5.088338375
1179,1.55965598535e+18,-4.363456249,-1.41343832,5.69309473
1180,1.5596559854e+18,-1.923049569,-0.2442422509,4.082853794
1181,1.55965598545e+18,0.5204113722,-2.308966875,-1.641564131
1182,1.5596559855e+18,1.226571679,1.902949095,-2.500440598
1183,1.55965598555e+18,2.063457012,0.6518970132,-3.651310682
1184,1.55965598561e+18,2.253436089,0.3757859766,-3.807692289
1185,1.55965598566e+18,2.353007078,0.3550165296,-3.45339036
1186,1.55965598571e+18,2.655996323,-0.0823629573,-2.184012413
1187,1.55965598576e+18,3.001135349,-0.7598124743,-1.011151195
1188,1.55965598581e+18,1.47152853,-0.6749022007,-0.2897193432
1189,1.55965598587e+18,-0.6750519276,-0.1281778514,0.3663499355
1190,1.55965598592e+18,-2.116693735,3.380021334,3.094474077
1191,1.55965598597e+18,-4.524113655,-0.6333634257,3.572170734
1192,1.55965598602e+18,-4.29015255,-1.83737874,3.87454915
1193,1.55965598607e+18,-1.750174642,0.4942938089,3.56361866
1194,1.55965598613e+18,-0.1423774064,0.1070052609,-0.1266183108
1195,1.55965598618e+18,0.6798472404,0.3965553939,-0.3147647977
1196,1.55965598623e+18,1.433654904,1.10638082,-1.32391417
1197,1.55965598628e+18,2.086669922,0.5578237772,-2.169351816
1198,1.55965598633e+18,2.258322954,0.5908105373,-2.634830952
1199,1.55965598638e+18,2.682874203,0.4509223998,-2.589016199
1200,1.55965598644e+18,1.840491176,0.06363382936,-2.417362928
1201,1.55965598649e+18,1.123335361,0.4613071084,-1.457082748
1202,1.55965598654e+18,0.3402061164,-0.1837665886,-0.2860541344
1203,1.55965598659e+18,-0.7306406498,-0.9504024386,-0.1034054309
1204,1.55965598664e+18,-2.569344997,1.034298658,2.12686348
1205,1.5596559867e+18,-4.827103138,0.7954503894,3.589885712
1206,1.55965598675e+18,-4.466692448,-1.164205313,3.429228306
1207,1.5596559868e+18,-2.50214982,0.6744990945,3.119519472
1208,1.55965598685e+18,-0.4832402468,-0.6113722324,-1.276877522
1209,1.5596559869e+18,0.4941441715,1.865686297,-1.199297786
1210,1.55965598696e+18,1.381731272,-0.3523653746,-2.37704587
1211,1.55965598701e+18,1.887527823,0.1051726714,-2.921326876
1212,1.55965598706e+18,2.126376152,0.5144523978,-3.331217289
1213,1.55965598711e+18,2.296196461,0.03858835623,-2.778384209
1214,1.55965598716e+18,3.630937338,-1.930841208,-1.992200851
1215,1.55965598722e+18,2.254046917,-1.85387218,-1.044137955
1216,1.55965598727e+18,0.4745964706,0.1760330349,-0.4045620263
1217,1.55965598732e+18,-2.863171101,1.540706038,2.710850716
1218,1.55965598737e+18,-5.486226559,1.337287784,5.424314022
1219,1.55965598742e+18,-4.95966053,-0.9504024386,6.572129726
1220,1.55965598748e+18,-1.733070612,0.5859236717,3.633868217
1221,1.55965598753e+18,0.9559583068,-1.819663644,-2.344669819
1222,1.55965598758e+18,0.7971333265,2.187001467,-2.271366119
1223,1.55965598763e+18,1.319423079,0.7178704739,-2.77410841
1224,1.55965598768e+18,1.878975749,-0.8129577637,-3.356262922
1225,1.55965598774e+18,1.527117252,0.5645433068,-3.089314699
1226,1.55965598779e+18,1.32614255,-0.09702372551,-3.134518862
1227,1.55965598784e+18,1.486189365,-0.1177931428,-2.267700911
1228,1.55965598789e+18,0.8185136318,-0.4433843195,-0.5023004413
1229,1.55965598794e+18,-0.7837859392,-0.2741746604,1.008980155
1230,1.559655988e+18,-1.967031837,1.890120983,2.764606953
1231,1.55965598805e+18,-4.547937393,0.5639324784,4.057197571
1232,1.5596559881e+18,-3.934018135,-1.525837541,4.23190546
1233,1.55965598815e+18,-1.319514751,-1.690771103,3.884933949
1234,1.5596559882e+18,0.3768580258,-1.750635982,-1.001377344
1235,1.55965598826e+18,1.282160282,1.681815863,-1.978761673
1236,1.55965598831e+18,1.77268517,-0.6718478799,-2.647048235
1237,1.55965598836e+18,1.857595325,-0.3395372331,-3.34038043
1238,1.55965598841e+18,1.358518481,0.4380942285,-3.378253937
1239,1.55965598846e+18,1.057972789,1.430750251,-2.858407736
1240,1.55965598852e+18,0.1752725095,1.420365572,-2.261592388
1241,1.55965598857e+18,0.1984854043,0.5547694564,-1.503508568
1242,1.55965598862e+18,-0.8656418324,1.075837493,1.180633307
1243,1.55965598867e+18,-2.095313787,-0.4360539317,2.796371937
1244,1.55965598872e+18,-4.091010094,1.897451282,4.765190601
1245,1.55965598878e+18,-3.464873552,-2.842863083,4.413942814
1246,1.55965598883e+18,-0.5571548939,-1.737196922,1.552039385
1247,1.55965598888e+18,0.5564524531,0.4808548093,-1.122328639
1248,1.55965598893e+18,1.351798892,-0.4055106938,-1.736859083
1249,1.55965598898e+18,2.04757452,-0.7341561913,-2.435688972
1250,1.55965598904e+18,1.887527823,-0.3523653746,-2.876122713
1251,1.55965598909e+18,1.767798185,0.3525730968,-3.073432446
1252,1.55965598914e+18,2.159973621,2.901713848,-2.754560471
1253,1.55965598919e+18,2.778780222,2.95424819,-1.024590254
1254,1.55965598924e+18,1.998705268,-1.349908352,0.4836360812
1255,1.5596559893e+18,-0.2999806404,-2.397542238,1.604573727
1256,1.55965598935e+18,-2.788034916,1.747178435,3.223977566
1257,1.5596559894e+18,-3.247405529,-0.1074084416,2.760330915
1258,1.55965598945e+18,-4.973099709,0.2737714946,5.23922205
1259,1.5596559895e+18,-2.585227489,-2.013918877,4.517179012
1260,1.55965598956e+18,-0.2584418058,-0.7909666896,-0.06980784237
1261,1.55965598961e+18,0.5527872443,0.6702229977,-1.818715096
1262,1.55965598966e+18,1.274829984,0.1485441029,-2.328176737
1263,1.55965598971e+18,1.745807052,-1.010878086,-2.956757069
1264,1.55965598976e+18,1.808115363,0.3482970297,-3.064880133
1265,1.55965598982e+18,1.879586577,0.2334543765,-2.896281242
1266,1.55965598987e+18,1.450759172,0.4399268329,-2.611007214
1267,1.55965598992e+18,-0.2938719988,0.7252008915,-2.392317533
1268,1.55965598997e+18,-1.511326432,2.245033741,-0.9946578145
1269,1.55965599002e+18,-3.213807821,4.533334732,2.611890554
1270,1.55965599008e+18,-5.203395844,-0.944293797,4.391340733
1271,1.55965599013e+18,-4.527778625,-3.585675001,4.084075928
1272,1.55965599018e+18,-1.284084558,-2.172743797,3.077369928
1273,1.55965599023e+18,1.021931767,-0.60220927,-1.831543207
1274,1.55965599028e+18,1.781237125,-0.5221859217,-1.951272845
1275,1.55965599034e+18,2.252214432,-0.5545617938,-2.46928668
1276,1.55965599039e+18,2.498393059,-0.6871195436,-2.918272495
1277,1.55965599044e+18,2.158141136,0.02514932305,-3.037391186
1278,1.55965599049e+18,1.722594142,-0.4354430735,-3.089314699
1279,1.55965599054e+18,1.731146216,0.519339323,-1.954327106
1280,1.5596559906e+18,1.218630314,-0.4855340123,-0.5878216028
1281,1.55965599065e+18,-0.2040748149,-0.9345199466,1.297308564
1282,1.5596559907e+18,-2.492376089,3.565113544,3.969844103
1283,1.55965599075e+18,-3.974946022,1.13264811,4.298489571
1284,1.5596559908e+18,-3.516186237,-2.772002697,4.643017769
1285,1.55965599086e+18,-1.36288619,0.144878909,4.410888672
1286,1.55965599091e+18,0.4770399332,-1.090290666,-1.108889699
1287,1.55965599096e+18,1.318812251,0.614023447,-1.163256645
1288,1.55965599101e+18,1.815445662,-0.4201714396,-2.27747488
1289,1.55965599106e+18,2.142258644,0.6848837733,-2.725239038
1290,1.55965599112e+18,2.01825285,0.9805425406,-3.060604095
1291,1.55965599117e+18,1.324310064,3.888872147,-2.468064785
1292,1.55965599122e+18,0.4275598526,1.650050879,-2.698361158
1293,1.55965599127e+18,-0.2169029713,-0.6474133134,-1.288483977
1294,1.55965599132e+18,0.1270141453,-2.633336067,-0.8614891768
1295,1.55965599138e+18,-2.475271702,2.541303158,2.893499613
1296,1.55965599143e+18,-4.103227615,-2.045073032,2.795150042
1297,1.55965599148e+18,-4.092232227,-1.288210988,4.449373245
1298,1.55965599153e+18,-1.721464157,-3.372483253,2.403585434
1299,1.55965599158e+18,0.1899332702,-0.4268909693,-0.8633217812
1300,1.55965599164e+18,0.9974971414,0.8186632395,-1.460137129
1301,1.55965599169e+18,1.473972082,-0.7317126989,-2.435078144
1302,1.55965599174e+18,1.841712832,0.0227058623,-2.645826578
1303,1.55965599179e+18,1.994429231,-0.1874317825,-2.85352087
1304,1.55965599184e+18,1.174648046,-0.3028853238,-2.622613668
1305,1.5596559919e+18,0.01094975974,1.124095917,-1.838873625
1306,1.55965599195e+18,-0.6292369962,0.4942938089,-0.9152453542
1307,1.559655992e+18,-1.323790789,2.615217924,1.110383749
1308,1.55965599205e+18,-2.026896715,0.2920974493,2.673587799
1309,1.5596559921e+18,-4.195468426,-0.9705610275,4.818946838
1310,1.55965599216e+18,-4.044584751,-3.232594967,4.536116123
1311,1.55965599221e+18,-0.982927978,-1.527670145,2.8116436
1312,1.55965599226e+18,1.069579244,-0.5246294141,-1.957381487
1313,1.55965599231e+18,1.367681503,0.8705868125,-2.113152027
1314,1.55965599236e+18,1.74947226,-0.661463201,-2.651324511
1315,1.55965599242e+18,1.936396956,-0.6345851421,-2.537092447
1316,1.55965599247e+18,2.050018072,-0.240577057,-2.696528435
1317,1.55965599252e+18,1.982211947,-0.1251235306,-2.223718643
1318,1.55965599257e+18,1.651733756,0.3556274176,-1.212736726
1319,1.55965599262e+18,0.6138737798,0.05874691159,-0.1082923561
1320,1.55965599268e+18,-0.03853032738,0.2725497484,0.007161173504
1321,1.55965599273e+18,-1.527209044,0.7722374797,2.406639814
1322,1.55965599278e+18,-3.268785715,1.386157155,4.287494183
1323,1.55965599283e+18,-2.7208395,-1.9931494,3.630813837
1324,1.55965599288e+18,-1.879678249,-0.3731348217,3.841562271
1325,1.55965599294e+18,0.2815630436,-0.6736805439,-0.3312581778
1326,1.55965599299e+18,0.7739204764,0.3397449255,-1.442422032
1327,1.55965599304e+18,1.459922075,0.2163501382,-2.284194231
1328,1.55965599309e+18,1.762300372,-0.2973875105,-2.615283251
1329,1.55965599314e+18,1.715263844,-0.2925006151,-2.978137255
1330,1.5596559932e+18,1.366459727,0.5230045319,-2.129645586
1331,1.55965599325e+18,0.4513836205,-0.08969334513,-1.681881189
1332,1.5596559933e+18,-0.3775605559,0.2982060909,-0.4980243742
1333,1.55965599335e+18,-0.1814727932,2.469221115,1.435364127
1334,1.5596559934e+18,-2.943805456,2.871781349,4.015658855
1335,1.55965599346e+18,-4.583367825,-1.420768619,3.785973549
1336,1.55965599351e+18,-1.572412968,-4.679734707,4.292991638
1337,1.55965599356e+18,0.1172403097,0.8736411929,0.7518059015
1338,1.55965599361e+18,1.293155909,-0.7243823409,-2.060617685
1339,1.55965599366e+18,1.318812251,0.7258117795,-1.935390234
1340,1.55965599372e+18,1.525895476,-0.4305561483,-2.679424047
1341,1.55965599377e+18,1.764133096,-0.2387444675,-2.582907438
1342,1.55965599382e+18,2.315133572,-1.786066175,-2.213334084
1343,1.55965599387e+18,1.970605493,-1.087236285,-1.846203923
1344,1.55965599392e+18,0.6004347205,0.4362616241,-0.442435652
1345,1.55965599398e+18,0.1593900174,0.8400436044,1.39138186
1346,1.55965599403e+18,-1.471620202,3.653688908,3.43778038
1347,1.55965599408e+18,-4.198522568,-0.1214583367,4.178759575
1348,1.55965599413e+18,-2.996950626,-2.317518711,4.235570431
1349,1.55965599418e+18,-1.894949794,-1.447646737,4.595370293
1350,1.55965599424e+18,0.626091063,-1.997425556,-0.2817780674
1351,1.55965599429e+18,1.721983314,0.1595396698,-2.356276274
1352,1.55965599434e+18,2.228390694,0.4173248112,-3.218818188
1353,1.55965599439e+18,2.651720285,-0.6052635908,-3.38008666
1354,1.55965599444e+18,2.409206867,0.2920974493,-3.420403719
1355,1.5596559945e+18,2.159362793,0.9793208838,-2.587794542
1356,1.55965599455e+18,1.379898787,1.813762784,-1.413711429
1357,1.5596559946e+18,0.3634189963,-0.1110736281,-0.9971013069
1358,1.55965599465e+18,-0.4716337919,-0.04754364118,0.8935266733
1359,1.5596559947e+18,-2.133187294,1.564529777,2.35838151
1360,1.55965599476e+18,-3.97555685,0.4332073033,2.853182316
1361,1.55965599481e+18,-3.817953587,-0.240577057,3.774367094
1362,1.55965599486e+18,-3.271229267,-2.956483841,3.67907238
1363,1.55965599491e+18,-0.6206848621,-1.456809759,1.156809568
1364,1.55965599496e+18,0.6132628918,-0.409786731,-1.238393068
1365,1.55965599502e+18,1.271164775,0.759409368,-2.297022343
1366,1.55965599507e+18,1.833771586,-0.4366647899,-3.322054386
1367,1.55965599512e+18,1.883862495,0.560878098,-3.722781897
1368,1.55965599517e+18,2.448912859,-0.4281127155,-3.709953785
1369,1.55965599522e+18,1.453813434,0.2462825477,-2.221275091
1370,1.55965599528e+18,0.2436894178,0.5156741142,-0.6287495494
1371,1.55965599533e+18,-2.158232689,0.8388218284,3.432282686
1372,1.55965599538e+18,-3.051317692,3.314047813,3.060265541
1373,1.55965599543e+18,-4.683549881,0.1827525496,5.172637463
1374,1.55965599548e+18,-1.618227959,-3.94669652,5.621623516
1375,1.55965599554e+18,0.7959116101,0.4038857818,-1.073459506
1376,1.55965599559e+18,1.532004237,1.362944245,-2.672093868
1377,1.55965599564e+18,1.73297894,0.09784228355,-2.964698315
1378,1.55965599569e+18,1.996261835,0.3519622087,-2.545033932
1379,1.55965599574e+18,1.591868997,0.01232115179,-2.56885767
1380,1.5596559958e+18,0.8912066221,-0.5050817132,-2.395371914
1381,1.55965599585e+18,0.4104556143,0.9078496099,-1.640953302
1382,1.5596559959e+18,-0.2529440224,0.8852475882,-0.882869482
1383,1.55965599595e+18,-1.708635807,2.338496208,1.376721025
1384,1.559655996e+18,-4.262663364,1.989081025,3.031554937
1385,1.55965599606e+18,-5.670097351,-1.647399664,4.425549507
1386,1.55965599611e+18,-2.551018953,-0.3835195303,4.591704845
1387,1.55965599616e+18,-0.196133554,0.408772707,1.376721025
1388,1.55965599621e+18,1.119670153,-1.654119253,-3.094201565
1389,1.55965599626e+18,1.251617074,1.210227847,-2.235325098
1390,1.55965599632e+18,1.731146216,-0.8086817861,-2.481503963
1391,1.55965599637e+18,1.663340211,0.2688845396,-2.480893135
1392,1.55965599642e+18,1.873477936,-0.1910969764,-2.213944912
1393,1.55965599647e+18,1.131276608,-0.5197424889,-1.410657048
1394,1.55965599652e+18,0.6456387043,2.86506176,0.9992063642
1395,1.55965599658e+18,-3.300550699,3.343980312,2.824471712
1396,1.55965599663e+18,-4.188137531,-3.2576406,3.55384469
1397,1.55965599668e+18,-2.835071564,-1.67488873,4.913020134
1398,1.55965599673e+18,-0.2669939399,-0.8661031127,-0.3257603645
1399,1.55965599678e+18,1.211299896,-0.5887702703,-1.921951294
1400,1.55965599684e+18,1.691440105,0.2823235691,-2.185844898
1401,1.55965599689e+18,2.139815092,-0.4696515203,-3.16139698
1402,1.55965599694e+18,1.834382534,0.8522608876,-3.309226274
1403,1.55965599699e+18,1.610194921,1.2786448,-2.735013008
1404,1.55965599704e+18,0.9797820449,1.002533674,-1.685546398
1405,1.5596559971e+18,0.1703855842,2.924926758,0.1501036435
1406,1.55965599715e+18,-2.194884539,1.981139898,1.875797987
1407,1.5596559972e+18,-4.395832062,-1.916180372,3.879436016
1408,1.55965599725e+18,-3.394623995,-1.762853265,4.480527401
1409,1.5596559973e+18,-0.9395565987,-0.4739275873,0.7499733567
1410,1.55965599736e+18,0.4196186364,-0.3242655993,-1.225564957
1411,1.55965599741e+18,0.9565691352,0.1705352515,-1.433869958
1412,1.55965599746e+18,1.390283465,-0.9840000868,-1.777176142
1413,1.55965599751e+18,1.764133096,0.1241094917,-2.584129095
1414,1.55965599756e+18,2.246105671,0.3275276124,-2.830918789
1415,1.55965599762e+18,2.481899738,0.3501296341,-2.34405899
1416,1.55965599767e+18,1.168539405,1.552312374,-0.5004678369
1417,1.55965599772e+18,-0.8967960477,0.8650890589,1.935662746
1418,1.55965599777e+18,-2.244975567,-0.08053036779,2.8116436
1419,1.55965599782e+18,-3.649354696,-0.8612161279,3.903259754
1420,1.55965599788e+18,-2.681744099,-1.12205565,4.57704401
1421,1.55965599793e+18,-0.6597802639,-0.6150375009,1.750570536
1422,1.55965599798e+18,0.8282874823,-2.288808107,-1.810773849
1423,1.55965599803e+18,1.588814735,0.08867930621,-2.294579029
1424,1.55965599808e+18,2.23694253,-0.893592,-3.458888292
1425,1.55965599814e+18,2.689593792,-0.2753964067,-3.397190809
1426,1.55965599819e+18,2.357283115,0.1222768947,-2.816868782
1427,1.55965599824e+18,1.484967709,0.2743823528,-2.586572647
1428,1.55965599829e+18,-0.8259356022,0.4576418996,-1.712424397
1429,1.55965599834e+18,-2.737333059,1.186404228,1.110994577
1430,1.5596559984e+18,-2.864392996,-1.227124333,3.451219559
1431,1.55965599845e+18,-5.796545982,-0.5820507407,4.982658863
1432,1.5596559985e+18,-2.314614296,-7.04928112,5.477459431
1433,1.55965599855e+18,0.7439880371,-0.7030020952,-1.345905423
1434,1.5596559986e+18,1.843545556,1.081335306,-3.640926123
1435,1.55965599866e+18,1.993207574,1.004977226,-2.702026129
1436,1.55965599871e+18,2.205788612,-1.246061325,-2.640328884
1437,1.55965599876e+18,1.99137485,-0.1171822846,-2.527929783
1438,1.55965599881e+18,2.201512337,0.3831163645,-2.856575251
1439,1.55965599886e+18,1.549108386,2.142408133,-3.384973526
1440,1.55965599892e+18,1.360961914,1.756341457,-2.199284077
1441,1.55965599897e+18,-0.1368796229,-0.9827783108,-0.06492093205
1442,1.55965599902e+18,-1.559584856,1.866297126,2.363268375
1443,1.55965599907e+18,-5.145363808,1.055678964,5.139039993
1444,1.55965599912e+18,-5.799600601,-4.676069736,5.550152302
1445,1.55965599918e+18,-1.692142606,-0.9864435196,4.60025692
1446,1.55965599923e+18,0.7195534706,-2.83431077,-2.023354769
1447,1.55965599928e+18,0.8160701394,2.362930775,-1.785117388
1448,1.55965599933e+18,1.135552764,-0.03471547365,-2.345281124
1449,1.55965599938e+18,1.370735884,-0.1654406339,-2.454625845
1450,1.55965599944e+18,1.776961207,-0.04998710379,-2.455236673
1451,1.55965599949e+18,1.672503233,0.2988169491,-2.203560114
1452,1.55965599954e+18,0.1954310536,1.53704083,-2.26098156
1453,1.55965599959e+18,0.6505256891,-0.1312321723,-1.647672772
1454,1.55965599964e+18,-1.381822944,2.095982313,1.944825649
1455,1.5596559997e+18,-3.209531784,-1.099453568,3.439002275
1456,1.55965599975e+18,-3.39279151,-2.237495661,4.190366268
1457,1.5596559998e+18,-0.9548282027,-2.528267384,2.120754957
1458,1.55965599985e+18,0.3469256461,1.333622694,-0.687392652
1459,1.5596559999e+18,0.6786254644,0.742915988,-1.378281236
1460,1.55965599996e+18,1.294988513,-0.124512665,-1.83704102
1461,1.55965600001e+18,1.568045259,0.2652193606,-2.408810854
1462,1.55965600006e+18,1.476415515,0.519339323,-2.503494978
1463,1.55965600011e+18,0.969397366,1.265816689,-2.196840525
1464,1.55965600016e+18,0.7146664858,1.592629552,-1.457082748
1465,1.55965600022e+18,0.720164299,-0.3181569576,-0.113790147
1466,1.55965600027e+18,-0.2114052027,-1.746359825,1.798828959
1467,1.55965600032e+18,-2.329274893,2.342772007,2.906327724
1468,1.55965600037e+18,-3.255346775,0.3385231793,2.304014444
1469,1.55965600042e+18,-4.058023453,-2.79399395,4.840327263
1470,1.55965600048e+18,-0.9481087327,-1.260722041,2.701687813
1471,1.55965600053e+18,0.5595067739,-0.7256040573,-1.224343181
1472,1.55965600058e+18,1.305984139,0.5675976276,-2.307407141
1473,1.55965600063e+18,1.935786128,-0.2027034163,-2.892005444
1474,1.55965600068e+18,1.629742622,0.6586166024,-3.709342957
1475,1.55965600074e+18,0.9828363657,0.6934359074,-2.747230291
1476,1.55965600079e+18,0.6468604803,0.750246346,-1.253053784
1477,1.55965600084e+18,-0.3329673707,-0.2320249528,-0.1834287941
1478,1.55965600089e+18,-1.412366152,1.459460974,1.797607183
1479,1.55965600094e+18,-2.126467705,0.1418245882,1.999803543
1480,1.559656001e+18,-3.458764791,0.310423404,3.448775768
1481,1.55965600105e+18,-3.461819172,-2.593019009,3.88187933
1482,1.5596560011e+18,-0.9847606421,-1.688938618,2.46100688
1483,1.55965600115e+18,0.6077650785,-0.2735637724,-1.836430192
1484,1.5596560012e+18,1.547886729,0.4222117364,-2.692252398
1485,1.55965600126e+18,2.105606794,-0.6235895157,-3.624432564
1486,1.55965600131e+18,2.07078743,1.018416166,-2.837027311
1487,1.55965600136e+18,1.584538579,0.1308290064,-2.270755291
1488,1.55965600141e+18,0.9748951197,0.6812185645,-0.7967374921
1489,1.55965600146e+18,-1.092883825,1.617675066,1.189796209
1490,1.55965600152e+18,-2.087372303,1.741069794,3.464658499
1491,1.55965600157e+18,-3.144779921,1.424030781,3.545903683
1492,1.55965600162e+18,-3.262066126,-0.3138808906,2.926486015
1493,1.55965600167e+18,-1.446574688,-0.995606482,2.986961842
1494,1.55965600172e+18,0.08364272118,-0.901533246,-1.555432081
1495,1.55965600177e+18,1.103176713,-0.09213680029,-2.234103441
1496,1.55965600183e+18,1.602253675,-0.740264833,-3.267076731
1497,1.55965600188e+18,1.718318105,0.5437739491,-3.257302761
1498,1.55965600193e+18,1.992596507,0.2737714946,-3.045332432
1499,1.55965600198e+18,2.231444836,0.2597215772,-1.76129365
1500,1.55965600203e+18,2.073230743,0.1900829375,-0.2390175164
1501,1.55965600209e+18,0.2070375085,0.2560563982,1.548985124
1502,1.55965600214e+18,-2.412963629,0.7545223832,2.317453623
1503,1.55965600219e+18,-3.07514143,0.4765787423,3.80552125
1504,1.55965600224e+18,-3.522294998,-1.88380456,3.521468878
1505,1.55965600229e+18,-0.5571548939,-1.416492701,2.466504574
1506,1.55965600235e+18,0.386021018,1.89806211,-0.3752404749
1507,1.5596560024e+18,1.514289141,-1.273550153,-1.300090432
1508,1.55965600245e+18,2.070176601,-1.14526844,-2.615894318
1509,1.5596560025e+18,2.22350359,-0.256459564,-3.273796082
1510,1.55965600255e+18,2.137982368,-0.1184040084,-3.123523235
1511,1.55965600261e+18,2.454410553,-0.2753964067,-2.136364937
1512,1.55965600266e+18,2.451967239,-0.8172338009,-0.1064597592
1513,1.55965600271e+18,0.3805232346,-2.170300245,2.534310818
1514,1.55965600276e+18,-2.945637941,-0.6987259984,3.189158201
1515,1.55965600281e+18,-3.10140872,2.088652134,3.900816202
1516,1.55965600287e+18,-3.934628963,-1.415881872,3.651583195
1517,1.55965600292e+18,-0.9120676517,0.1790873557,2.521482468
1518,1.55965600297e+18,0.3420387208,-0.3419806957,-1.639120579
1519,1.55965600302e+18,1.200304389,-0.08114122599,-2.201727629
1520,1.55965600307e+18,1.563769221,0.001936442801,-2.915829182
1521,1.55965600313e+18,1.638905644,1.351948619,-3.27746129
1522,1.55965600318e+18,1.739087582,1.410591722,-2.949426413
1523,1.55965600323e+18,1.334083915,1.522379994,-2.27747488
1524,1.55965600328e+18,0.5705023408,2.176616669,-0.6220300198
1525,1.55965600333e+18,-2.023842335,-1.259500265,1.533102512
1526,1.55965600339e+18,-3.175323248,-1.03286922,2.189171791
1527,1.55965600344e+18,-3.908972502,1.452741504,3.231918812
1528,1.55965600349e+18,-3.706776142,-1.683440804,4.358965397
1529,1.55965600354e+18,-0.8705288172,-0.4409408569,1.062125444
1530,1.55965600359e+18,0.4269489944,-0.4604885578,-1.186469436
1531,1.55965600365e+18,1.206413031,0.4967373013,-1.631179452
1532,1.5596560037e+18,1.547275901,-0.2582921386,-2.152858496
1533,1.55965600375e+18,1.553995371,1.114932895,-2.410032749
1534,1.5596560038e+18,0.9981079698,1.042850852,-2.421639204
1535,1.55965600385e+18,-0.1979661584,2.133245468,-2.13514328
1536,1.55965600391e+18,-1.634110332,2.181503773,-0.8657652736
1537,1.55965600396e+18,-1.100214124,2.343993902,0.2539507151
1538,1.55965600401e+18,-5.797157288,-0.6883413196,5.255104542
1539,1.55965600406e+18,-3.232133865,-4.55939436,3.400517464
1540,1.55965600411e+18,-1.38304472,-0.7304909825,2.607614517
1541,1.55965600417e+18,0.4831486046,-1.379840732,-2.741121531
1542,1.55965600422e+18,1.310871005,0.9866512418,-2.579853058
1543,1.55965600427e+18,1.351188064,-0.5539509058,-2.662930965
1544,1.55965600432e+18,1.424492002,0.6421232224,-1.813828111
1545,1.55965600437e+18,2.357893944,-0.3120482862,-1.138211131
1546,1.55965600443e+18,2.298029184,0.2499477416,-0.6678448915
1547,1.55965600448e+18,0.6511365175,0.7771244645,0.01754588261
1548,1.55965600453e+18,-0.7575187087,-0.3914607763,0.07924327254
1549,1.55965600458e+18,-2.204658508,0.2426173538,2.814697742
1550,1.55965600463e+18,-3.343922138,-1.432375073,3.646696329
1551,1.55965600469e+18,-2.842401743,-2.387768269,3.463436842
1552,1.55965600474e+18,0.2290286571,-1.824550629,1.258213162
1553,1.55965600479e+18,1.44159615,0.4026640356,-3.133908033
1554,1.55965600484e+18,1.942505598,1.681815863,-3.419792891
1555,1.55965600489e+18,1.988931417,-0.04754364118,-3.507146597
1556,1.55965600495e+18,1.609584093,0.5205610394,-2.547477245
1557,1.559656005e+18,1.218630314,0.8638672829,-1.644007564
1558,1.55965600505e+18,1.332862139,0.3880032599,0.6442936659
1559,1.5596560051e+18,1.709155202,1.110656857,2.814697742
1560,1.55965600515e+18,-1.983525276,-0.706056416,1.349843025
1561,1.55965600521e+18,-3.828949213,-1.022484541,3.925251007
1562,1.55965600526e+18,-2.841790915,-3.642485619,5.267321587
1563,1.55965600531e+18,0.5008636713,1.056289792,0.2539507151
1564,1.55965600536e+18,1.393337727,1.099661231,-2.210890532
1565,1.55965600541e+18,1.978546739,-0.4763710201,-2.502273083
1566,1.55965600547e+18,1.678611994,1.449687123,-2.30068779
1567,1.55965600552e+18,1.698159575,0.6665577888,-1.94638586
1568,1.55965600557e+18,2.263820887,-1.286378384,-1.383168101
1569,1.55965600562e+18,0.1209055036,-0.78424716,-0.2463479042
1570,1.55965600567e+18,-1.223608851,2.240757465,1.483622432
1571,1.55965600573e+18,-4.621851921,0.2914865613,3.862942696
1572,1.55965600578e+18,-2.921203375,-2.341953516,3.647917986
1573,1.55965600583e+18,-0.5950285792,0.7142053246,1.771950841
1574,1.55965600588e+18,0.8753240705,-1.874030709,-2.951870203
1575,1.55965600593e+18,1.098289967,1.132037163,-2.296411514
1576,1.55965600599e+18,1.148380876,-1.322419405,-2.330009222
1577,1.55965600604e+18,1.195417523,0.2762149274,-2.087495804
1578,1.55965600609e+18,0.005451972596,0.1644266099,-1.621405482
1579,1.55965600614e+18,-0.6738302112,2.755717039,-0.625695169
1580,1.55965600619e+18,-0.6164088845,-0.7659211159,0.5752658844
1581,1.55965600625e+18,-4.375062466,0.3006495237,4.096292973
1582,1.5596560063e+18,-3.008557081,-3.940587997,2.811032772
1583,1.55965600635e+18,-0.4862945676,0.0196515359,1.789055109
1584,1.5596560064e+18,2.029859304,0.3977771401,-3.204768419
1585,1.55965600645e+18,2.205177784,-0.6596305966,-3.554794073
1586,1.55965600651e+18,1.566212654,1.325681448,-2.692252398
1587,1.55965600656e+18,1.312092781,0.314088583,-2.231659889
1588,1.55965600661e+18,1.424492002,-0.07503257692,-2.02946353
1589,1.55965600666e+18,1.098900795,0.8418761492,-1.877969027
1590,1.55965600671e+18,0.1557248235,0.2737714946,-1.04230535
1591,1.55965600677e+18,-0.03242167458,-0.5643356442,0.7163757086
1592,1.55965600682e+18,-1.359831929,1.705639601,3.149451971
1593,1.55965600687e+18,-3.510077477,0.416713953,3.104248047
1594,1.55965600692e+18,-3.581548929,-3.445787191,4.059030056
1595,1.55965600697e+18,-2.138684988,-1.461696625,5.475626945
1596,1.55965600703e+18,0.4550487995,-1.319365144,0.32847628
1597,1.55965600708e+18,1.691440105,0.6830512285,-3.891991615
1598,1.55965600713e+18,2.043909311,1.400817871,-4.229189396
1599,1.55965600718e+18,2.447691202,0.4564201832,-4.271949768
1600,1.55965600723e+18,2.370111227,0.09295536578,-4.205365658
1601,1.55965600729e+18,2.218005896,0.247504279,-3.936584949
1602,1.55965600734e+18,1.616914392,0.6402906775,-2.972639322
1603,1.55965600739e+18,0.7470423579,1.25237751,-1.328801155
1604,1.55965600744e+18,-0.9432217479,-0.7133867741,-0.1907591671
1605,1.55965600749e+18,-2.336605549,2.345826387,3.716945887
1606,1.55965600755e+18,-3.931574345,0.7484137416,3.64975071
1607,1.5596560076e+18,-6.212545395,-0.5716660023,5.89834547
1608,1.55965600765e+18,-4.197300911,-0.6584088802,6.138415337
1609,1.5596560077e+18,-0.8008901477,1.862021089,0.8104490042
1610,1.55965600775e+18,1.18014586,-1.939393282,-3.282348156
1611,1.55965600781e+18,1.695716023,0.4655831456,-2.983634949
1612,1.55965600786e+18,2.109272003,-0.7927992344,-2.780827999
1613,1.55965600791e+18,2.429975986,-1.16848135,-2.798542976
1614,1.55965600796e+18,2.404930592,-0.018832976,-2.593292236
1615,1.55965600801e+18,1.372568369,0.7410833836,-2.921326876
1616,1.55965600807e+18,-0.931615293,1.430750251,-1.906068683
1617,1.55965600812e+18,-1.085553288,2.44417572,0.0242653992
1618,1.55965600817e+18,-0.1209971309,1.323848844,1.219728589
1619,1.55965600822e+18,-2.47588253,-0.2772289813,3.142121553
1620,1.55965600827e+18,-4.28098917,-0.9278004766,3.891042471
1621,1.55965600833e+18,-3.238853216,-2.597906113,4.792068958
1622,1.55965600838e+18,-1.229106665,-2.563086748,3.606990099
1623,1.55965600843e+18,0.5191896558,-0.952235043,-0.7490900159
1624,1.55965600848e+18,1.51795435,0.3311928213,-2.821755886
1625,1.55965600853e+18,2.184408188,-1.296152234,-3.325719595
1626,1.55965600859e+18,2.480067253,-0.03899152577,-3.687962532
1627,1.55965600864e+18,2.530158043,0.5388869643,-3.461942673
1628,1.55965600869e+18,1.651733756,-0.07258912176,-3.609771967
1629,1.55965600874e+18,0.5949369669,1.800323725,-3.089925528
1630,1.55965600879e+18,0.09524916112,0.7044314742,-2.570079327
1631,1.55965600885e+18,-0.924284935,-0.3853521049,-2.039237499
1632,1.5596560089e+18,-2.294455528,1.577357888,0.5172336698
1633,1.55965600895e+18,-3.97555685,8.095290184,4.409056187
1634,1.559656009e+18,-4.98653841,-2.155639648,2.54041934
1635,1.55965600905e+18,-4.694545269,-0.8373923898,4.249009132
1636,1.5596560091e+18,-2.430678606,-3.857510328,4.208692551
1637,1.55965600916e+18,0.1319010705,-0.6290873289,-0.4827527404
1638,1.55965600921e+18,1.195417523,-2.25826478,-1.458304524
1639,1.55965600926e+18,2.051239729,-2.004755974,-1.904236197
1640,1.55965600931e+18,2.721358776,-1.417714357,-2.477227688
1641,1.55965600936e+18,2.996859074,-1.256445885,-2.597568035
1642,1.55965600942e+18,2.191128016,-0.6901738644,-2.707523823
1643,1.55965600947e+18,1.880808234,0.6683904529,-2.48272562
1644,1.55965600952e+18,2.12698698,1.307355523,-1.612242579
1645,1.55965600957e+18,1.709155202,-0.7750841379,-1.166310906
1646,1.55965600962e+18,0.6462496519,-1.801337719,0.05114347115
1647,1.55965600968e+18,-1.271256328,-2.487950087,1.975368977
1648,1.55965600973e+18,-2.414796114,4.695214272,5.467074871
1649,1.55965600978e+18,-5.31640625,2.937144041,4.054143429
1650,1.55965600983e+18,-3.546118736,-2.440302849,3.506808043
1651,1.55965600988e+18,-1.806985259,4.103285789,3.417011023
1652,1.55965600994e+18,-0.4032168984,-2.918610334,-0.9396799207
1653,1.55965600999e+18,0.6871775985,-0.9033658504,-1.530997515
1654,1.55965601004e+18,1.327975273,0.03919922188,-2.611007214
1655,1.55965601009e+18,1.62729919,0.4808548093,-3.359927893
1656,1.55965601014e+18,1.872867107,1.042850852,-3.388638735
1657,1.5596560102e+18,1.307816625,0.4002205729,-2.940874577
1658,1.55965601025e+18,1.101955056,0.9426689744,-1.948218465
1659,1.5596560103e+18,0.5595067739,0.7838439345,-0.6489080787
1660,1.55965601035e+18,-0.4875162542,-0.4556016326,0.9863781929
1661,1.5596560104e+18,-2.064770222,0.8162198067,2.561188698
1662,1.55965601046e+18,-4.715925217,-0.4281127155,4.932568073
1663,1.55965601051e+18,-3.441660643,1.029411793,4.957613468
1664,1.55965601056e+18,-3.013444185,-3.897827387,3.410291433
1665,1.55965601061e+18,-0.1607033759,0.7404725552,1.071899295
1666,1.55965601066e+18,0.4092338979,-0.5918245912,-1.076513767
1667,1.55965601072e+18,0.9577909112,-0.05548489094,-1.882244945
1668,1.55965601077e+18,1.541778088,-0.9540677071,-3.089925528
1669,1.55965601082e+18,1.906464577,0.8278262615,-3.474159956
1670,1.55965601087e+18,2.35239625,0.9243429303,-3.597554684
1671,1.55965601092e+18,2.203345299,0.01232115179,-3.508368492
1672,1.55965601098e+18,1.659675002,0.08684670925,-2.167519093
1673,1.55965601103e+18,-0.4563621581,0.9561079741,0.3034308255
1674,1.55965601108e+18,-2.537580013,-0.6571871042,1.509889603
1675,1.55965601113e+18,-4.674386501,3.538235426,4.544668674
1676,1.55965601118e+18,-4.20035553,-0.6828435063,3.928305149
1677,1.55965601124e+18,-2.086150646,0.6256299019,3.172664881
1678,1.55965601129e+18,0.04027128965,-2.013918877,-1.389887691
1679,1.55965601134e+18,0.8771566749,-0.6138157248,-2.216388464
1680,1.55965601139e+18,1.74947226,-1.237509131,-3.126577616
1681,1.55965601144e+18,1.78612411,-0.3884064555,-3.235311508
1682,1.5596560115e+18,1.91868186,0.5523260236,-2.812592745
1683,1.55965601155e+18,2.313300848,-0.5533400774,-2.276864052
1684,1.5596560116e+18,2.010311842,-0.07930862904,-1.004431725
1685,1.55965601165e+18,0.3340974748,-0.6437481046,0.140329808
1686,1.5596560117e+18,-0.6719975471,2.50404048,1.569143534
1687,1.55965601176e+18,-4.233341694,0.8388218284,4.137221336
1688,1.55965601181e+18,-5.767224789,-3.561851263,7.088922024
1689,1.55965601186e+18,-0.5479919314,-1.326695442,2.303403616
1690,1.55965601191e+18,1.496573925,1.216336489,-2.426525831
1691,1.55965601196e+18,1.787346005,-1.597308755,-2.799153805
1692,1.55965601202e+18,1.543610692,-0.03960239515,-1.637288094
1693,1.55965601207e+18,1.475804567,-0.4696515203,-1.882855892
1694,1.55965601212e+18,0.754372716,0.06546643376,-1.867584229
1695,1.55965601217e+18,0.3505908549,0.2267348468,-1.464413166
1696,1.55965601222e+18,0.4898681045,-0.3303742409,-0.9525080919
1697,1.55965601228e+18,-0.2529440224,0.267051965,0.3547435105
1698,1.55965601233e+18,-1.55836308,3.044656277,2.496437073
1699,1.55965601238e+18,-3.146001816,-0.4568233788,2.820195675
1700,1.55965601243e+18,-3.07514143,-2.066453457,3.940522432
1701,1.55965601248e+18,-0.2462245077,-3.195943117,3.092641592
1702,1.55965601254e+18,0.2339155674,0.7386399508,-0.9677797556
1703,1.55965601259e+18,1.15021348,-0.04326758534,-1.83032155
1704,1.55965601264e+18,1.616303563,-1.2277354,-2.741121531
1705,1.55965601269e+18,1.867369294,0.4154922068,-2.757615089
1706,1.55965601274e+18,1.562547445,-0.2191967815,-2.901778936
1707,1.5596560128e+18,0.9474061728,0.2963735163,-2.587794542
1708,1.55965601285e+18,0.3829666972,1.227332115,-1.458304524
1709,1.5596560129e+18,-0.9841496944,0.8052242398,0.9350655079
1710,1.55965601295e+18,-2.850342989,4.344577789,3.858055592
1711,1.559656013e+18,-3.329261541,0.7893417478,2.079216003
1712,1.55965601306e+18,-2.517421484,-2.59240818,2.542862892
1713,1.55965601311e+18,-1.556530476,-1.469027042,4.263059616
1714,1.55965601316e+18,0.1086882055,0.8828041553,0.376123786
1715,1.55965601321e+18,1.095846415,-2.571638823,-1.941498876
1716,1.55965601326e+18,1.968772769,-0.398180306,-2.808927536
1717,1.55965601332e+18,2.398211241,0.4203791618,-3.075264931
1718,1.55965601337e+18,2.17707777,0.5663759112,-3.218818188
1719,1.55965601342e+18,1.801395774,0.4362616241,-3.096034288
1720,1.55965601347e+18,0.5796653032,0.3941119313,-3.047165155
1721,1.55965601352e+18,-0.2676047981,0.793617785,-2.702636957
1722,1.55965601358e+18,-0.05685628206,0.09234450012,-1.409435272
1723,1.55965601363e+18,-0.8460941911,-1.424433947,0.7432537675
1724,1.55965601368e+18,-2.965185881,0.03186883777,3.815295219
1725,1.55965601373e+18,-4.291985035,3.541289806,3.219090462
1726,1.55965601378e+18,-3.70127821,-0.4867557585,2.989405155
1727,1.55965601384e+18,-1.49544394,-2.673653364,2.892277718
1728,1.55965601389e+18,-0.6017481089,1.840029955,-0.1815961897
1729,1.55965601394e+18,0.4825377166,-1.802559495,-1.611631751
1730,1.55965601399e+18,1.344468594,-0.6388611794,-3.072821379
1731,1.55965601404e+18,1.731146216,0.8186632395,-3.152844667
1732,1.5596560141e+18,1.865536571,1.672042012,-3.262189627
1733,1.55965601415e+18,1.423270226,0.3629578054,-2.82725358
1734,1.5596560142e+18,0.04149302468,0.7233682871,-2.190732002
1735,1.55965601425e+18,-1.248043418,1.006809711,-0.7069402933
1736,1.5596560143e+18,-2.616381645,4.416049004,2.130528927
1737,1.55965601436e+18,-3.855827093,0.0856249854,2.959472895
1738,1.55965601441e+18,-3.93585062,-2.595462561,2.913657904
1739,1.55965601446e+18,-1.767889857,-1.12877512,3.685791731
1740,1.55965601451e+18,0.4238946438,0.9603840113,-0.832778573
1741,1.55965601456e+18,1.313314438,-1.281491399,-1.824212909
1742,1.55965601462e+18,2.126376152,0.4319855571,-2.449127913
1743,1.55965601467e+18,2.861857891,-0.7084997892,-3.334271669
1744,1.55965601472e+18,1.831939101,0.5834801793,-3.238365889
1745,1.55965601477e+18,0.3841884136,1.645163894,-3.02944994
1746,1.55965601482e+18,-0.778899014,2.015959024,-2.133310556
1747,1.55965601488e+18,-1.614562631,0.7771244645,-0.8333894014
1748,1.55965601493e+18,-1.166798472,0.7447485924,0.958278358
1749,1.55965601498e+18,-2.627377272,1.01719451,2.751778841
1750,1.55965601503e+18,-3.285889864,-1.736586094,3.107913017
1751,1.55965601508e+18,-2.989620447,-3.126915216,3.440834761
1752,1.55965601514e+18,-1.49544394,-1.76774013,2.937481642
1753,1.55965601519e+18,0.1954310536,-0.6822326183,-1.034974933
1754,1.55965601524e+18,1.273608327,-0.7072781324,-1.438145995
1755,1.55965601529e+18,1.850265026,-0.952235043,-2.574966192
1756,1.55965601534e+18,2.200901508,0.7954503894,-3.113749266
1757,1.5596560154e+18,1.711598635,1.464347959,-3.147957802
1758,1.55965601545e+18,0.9467952847,2.204716444,-2.252429485
1759,1.5596560155e+18,0.2039831728,0.3214189708,-1.267103791
1760,1.55965601555e+18,-0.1002277136,-0.1483364105,0.3364175558
1761,1.5596560156e+18,-0.1619251072,4.050751209,1.935662746
1762,1.55965601566e+18,-5.38299036,1.391654849,4.865983486
1763,1.55965601571e+18,-3.722658634,-6.390768528,3.506197214
1764,1.55965601576e+18,-1.174128771,0.6555622816,3.501921177
1765,1.55965601581e+18,0.9022021294,-2.338288307,-2.852909803
1766,1.55965601586e+18,1.429989696,1.459460974,-1.983648658
1767,1.55965601592e+18,1.566212654,-1.740251184,-2.313515902
1768,1.55965601597e+18,1.672503233,-1.35051918,-1.358122706
1769,1.55965601602e+18,1.791621923,-0.8239533901,-1.176695704
1770,1.55965601607e+18,1.789789319,-0.7726407051,-1.425317883
1771,1.55965601612e+18,0.8930391669,0.2963735163,-1.449141622
1772,1.55965601618e+18,-0.07823656499,0.55354774,-0.634247303
1773,1.55965601623e+18,-0.7966140509,2.305509329,1.707810044
1774,1.55965601628e+18,-4.422099113,2.027565479,4.195253372
1775,1.55965601633e+18,-3.825284004,-1.532557011,4.244122505
1776,1.55965601638e+18,-1.806374431,-1.489796519,3.262462139
1777,1.55965601644e+18,0.7036709785,-1.888080597,-1.133324265
1778,1.55965601649e+18,1.315147042,-0.3829086721,-2.628722429
1779,1.55965601654e+18,1.66028583,0.5767606497,-2.830307961
1780,1.55965601659e+18,1.520397782,-0.5967115164,-3.090536356
1781,1.55965601664e+18,1.125778794,0.7050423622,-2.667817593
1782,1.5596560167e+18,0.1123533919,1.215114832,-2.250596762
1783,1.55965601675e+18,0.5613393784,0.6543405056,-0.4980243742
1784,1.5596560168e+18,-0.3189174831,0.0734076798,-0.8401089311
1785,1.55965601685e+18,-2.255971193,2.937144041,-1.187080264
1786,1.5596560169e+18,-2.216875792,0.7478029132,0.812281549
1787,1.55965601696e+18,-3.372021914,1.164412975,2.769493818
1788,1.55965601701e+18,-4.404384136,-0.9387960434,3.606379032
1789,1.55965601706e+18,-2.98229003,-3.327279091,4.25878334
1790,1.55965601711e+18,-0.02264782973,-2.604625463,0.4048344493
1791,1.55965601716e+18,0.6829015613,2.18944478,-2.136364937
1792,1.55965601722e+18,1.026207805,1.331179142,-3.041056395
1793,1.55965601727e+18,1.290101528,0.4374833703,-3.240198374
1794,1.55965601732e+18,1.12700057,1.052013755,-2.990354538
1795,1.55965601737e+18,1.327364326,-0.3468676209,-2.489444971
1796,1.55965601742e+18,1.327975273,0.7423051,-2.102767229
1797,1.55965601748e+18,0.8136267066,1.989691854,-1.262827635
1798,1.55965601753e+18,-0.7208667994,0.9170125723,0.6381850243
1799,1.55965601758e+18,-2.992674589,4.243173599,3.731606722
1800,1.55965601763e+18,-5.587019444,-2.219780445,4.4848032
1801,1.55965601768e+18,-3.11484766,-4.18187952,4.440210342
1802,1.55965601774e+18,-0.6713867188,0.4063292146,2.679085732
1803,1.55965601779e+18,1.234512806,-1.474524856,-2.371548176
1804,1.55965601784e+18,2.015809536,-0.5264619589,-1.733804822
1805,1.55965601789e+18,2.757399797,-0.9821674824,-2.606731176
1806,1.55965601794e+18,3.006632805,-0.4073432684,-2.722184896
1807,1.559656018e+18,2.838034153,-0.4782036543,-2.139419079
1808,1.55965601805e+18,2.221060276,-1.045086503,-2.054508924
1809,1.5596560181e+18,0.6309779882,-0.03288287669,-1.725863576
1810,1.55965601815e+18,-0.7165907621,0.3550165296,0.6198589802
1811,1.5596560182e+18,-1.741622686,0.2200153321,2.230710745
1812,1.55965601826e+18,-4.530833721,0.4900177717,5.200126648
1813,1.55965601831e+18,-3.360415459,-3.616829395,4.261837482
1814,1.55965601836e+18,-1.10449028,-0.850220561,1.991251469
1815,1.55965601841e+18,0.3634189963,-0.9980499744,-0.9476212263
1816,1.55965601846e+18,0.7830834389,0.7765135765,-1.981816053
1817,1.55965601851e+18,1.458089471,0.227956593,-2.638496161
1818,1.55965601857e+18,1.489854455,-0.2918897271,-2.924991846
1819,1.55965601862e+18,1.271164775,0.6237972379,-2.735623837
1820,1.55965601867e+18,2.151421547,0.5663759112,-1.884077668
1821,1.55965601872e+18,2.788553953,0.02881451324,-0.352027595
1822,1.55965601877e+18,2.246105671,-2.64188838,1.660162449
1823,1.55965601883e+18,-1.003086567,0.6158559918,3.040718079
1824,1.55965601888e+18,-2.461832762,2.767323494,3.104248047
1825,1.55965601893e+18,-3.937683105,0.4216008484,4.522066593
1826,1.55965601898e+18,-2.366537809,-1.917402148,4.486025333
1827,1.55965601903e+18,-0.4752989709,-0.9980499744,1.233167768
1828,1.55965601909e+18,0.8453916907,-0.7457626462,-1.620794654
1829,1.55965601914e+18,1.433044076,-0.2112555206,-2.543812037
1830,1.55965601919e+18,1.877143025,-0.4006237388,-3.323886871
1831,1.55965601924e+18,1.332862139,1.069728851,-2.938431263
1832,1.55965601929e+18,1.05064249,1.16258049,-3.477214098
1833,1.55965601935e+18,0.3530342877,1.66959846,-2.726460695
1834,1.5596560194e+18,-0.7025408149,1.506497502,-1.557875633
1835,1.55965601945e+18,-2.135630608,0.4661940336,2.107926846
1836,1.5596560195e+18,-3.197314501,-0.2002599537,2.919155836
1837,1.55965601955e+18,-3.687228441,-0.09885632247,3.870883703
1838,1.55965601961e+18,-2.702513695,-2.985194683,3.48726058
1839,1.55965601966e+18,-0.3635106385,0.2340652347,0.5178445578
1840,1.55965601971e+18,1.009714365,-1.809279084,-1.118052602
1841,1.55965601976e+18,1.908908129,-0.1672732234,-1.978761673
1842,1.55965601981e+18,2.370722055,-0.6144265532,-3.070988655
1843,1.55965601987e+18,2.096443653,0.8192741871,-3.133908033
1844,1.55965601992e+18,2.871020794,-0.05792835355,-2.091771841
1845,1.55965601997e+18,2.03413558,-1.071353793,-1.437535167
1846,1.55965602002e+18,0.9174737334,-1.054249525,-0.09851851314
1847,1.55965602007e+18,-0.7874510884,0.5077328682,2.062722683
1848,1.55965602013e+18,-2.755658865,-0.5484531522,2.776213408
1849,1.55965602018e+18,-3.601096392,-0.3309850991,3.673574448
1850,1.55965602023e+18,-2.266355991,-2.803156853,3.240470886
1851,1.55965602028e+18,-0.4337601364,-3.729228497,3.237416506
1852,1.55965602033e+18,0.1190729067,1.039796472,-0.7887962461
1853,1.55965602039e+18,0.7946898937,-0.6663501859,-1.56215167
1854,1.55965602044e+18,1.276662588,-0.4464386702,-2.636052847
1855,1.55965602049e+18,1.537501931,1.137534857,-3.405132055
1856,1.55965602054e+18,1.758635283,0.3751751184,-3.21454215
1857,1.55965602059e+18,2.398211241,0.2878213823,-2.025187492
1858,1.55965602065e+18,2.15019989,-0.9180266261,-0.391122967
1859,1.5596560207e+18,0.2888934314,-2.022470951,1.335182309
1860,1.55965602075e+18,-1.709246874,4.832658768,4.363241196
1861,1.5596560208e+18,-3.581548929,0.9499993324,3.206873178
1862,1.55965602085e+18,-2.742830753,-1.861813426,3.357757092
1863,1.55965602091e+18,-1.128924847,-0.4598776996,3.52696681
1864,1.55965602096e+18,0.291947782,1.044072509,-0.3789056838
1865,1.55965602101e+18,1.0243752,-2.387768269,-1.34712708
1866,1.55965602106e+18,1.808726192,-1.980321288,-2.403312922
1867,1.55965602111e+18,2.175856113,-0.1471146643,-3.366036654
1868,1.55965602117e+18,2.478234291,0.2071871608,-3.102142811
1869,1.55965602122e+18,1.734200597,1.168689132,-2.833973169
1870,1.55965602127e+18,1.215576053,0.8174415231,-2.132699728
1871,1.55965602132e+18,0.7830834389,0.1308290064,-0.6318038702
1872,1.55965602137e+18,0.01278235577,-0.4824796915,1.916115165
1873,1.55965602143e+18,-2.124024153,-0.5680008531,4.988767147
1874,1.55965602148e+18,-3.560168505,1.816206217,4.694330215
1875,1.55965602153e+18,-1.932212472,-2.435415745,3.527577639
1876,1.55965602158e+18,-0.7898945808,-3.588729382,4.575211525
1877,1.55965602163e+18,0.7293272614,-0.2723420262,-1.63850975
1878,1.55965602169e+18,0.9474061728,0.8003373146,-1.998920321
1879,1.55965602174e+18,1.940062284,-0.5386793017,-2.699582815
1880,1.55965602179e+18,1.8123914,0.8327131867,-2.775940895
1881,1.55965602184e+18,2.499003887,0.8602020741,-2.140030384
1882,1.55965602189e+18,2.563144684,0.1589288116,-1.270768881
1883,1.55965602195e+18,1.282160282,0.2102414817,-0.8908107281
1884,1.559656022e+18,0.3066085577,1.67937243,-2.293357372
1885,1.55965602205e+18,-0.7679034472,0.8192741871,-0.2921628058
1886,1.5596560221e+18,-2.24375391,-4.206314564,0.9430066943
1887,1.55965602215e+18,-1.957868934,1.972587824,4.16654253
1888,1.55965602221e+18,-3.423334599,0.1320507377,4.181203842
1889,1.55965602226e+18,-0.4930140674,-6.479343891,3.142121553
1890,1.55965602231e+18,1.573543072,-3.388365746,-1.430204749
1891,1.55965602236e+18,2.149588823,-1.228957057,-1.942109823
1892,1.55965602241e+18,2.131263018,-1.528891802,-2.195618868
1893,1.55965602247e+18,1.889360309,-1.16176188,-1.998309493
1894,1.55965602252e+18,1.569266915,-0.7665320635,-1.8669734
1895,1.55965602257e+18,1.675557494,0.2481151372,-1.628125072
1896,1.55965602262e+18,1.467863441,-0.4739275873,-1.554210424
1897,1.55965602267e+18,0.5894391537,-0.4220040143,-0.7906288505
1898,1.55965602273e+18,-0.5724265575,2.110643387,1.241109014
1899,1.55965602278e+18,-2.746495962,-1.718870997,2.20933032
1900,1.55965602283e+18,-4.474022865,1.283531785,5.486622334
1901,1.55965602288e+18,-3.188762426,2.179671049,5.11704874
1902,1.55965602293e+18,-1.486281037,-0.8074600101,3.214814663
1903,1.55965602299e+18,-0.2633287311,0.09051190317,-2.541368723
1904,1.55965602304e+18,0.2394133657,1.766115189,-1.950051069
1905,1.55965602309e+18,0.5741675496,0.3287493587,-2.909720421
1906,1.55965602314e+18,0.8429482579,1.645774722,-3.368480206
1907,1.55965602319e+18,1.218019485,-0.09519112855,-3.655586958
1908,1.55965602325e+18,1.263834357,1.124706745,-2.577409744
1909,1.5596560233e+18,1.275440812,0.7197031379,-2.04595685
1910,1.55965602335e+18,0.4086230397,-0.4036780596,-0.830945909
1911,1.5596560234e+18,-1.284084558,1.362944245,1.834259152
1912,1.55965602345e+18,-3.202201366,3.201648712,1.925888896
1913,1.55965602351e+18,-4.979208469,0.7270334959,3.256353617
1914,1.55965602356e+18,-2.941972971,1.047126889,3.954572201
1915,1.55965602361e+18,-1.961534023,-1.809279084,2.501934767
1916,1.55965602366e+18,-0.2010204792,-0.6315308213,-0.7002207637
1917,1.55965602371e+18,0.2186439335,1.27559042,-1.799778223
1918,1.55965602377e+18,0.429392457,1.588353515,-2.934154987
1919,1.55965602382e+18,0.8973152637,1.72885251,-3.179111958
1920,1.55965602387e+18,1.034149051,1.474732518,-2.913385391
1921,1.55965602392e+18,1.718928933,-1.661449552,-3.539522409
1922,1.55965602397e+18,2.767784595,0.2401738912,-2.199894905
1923,1.55965602403e+18,2.265042543,-0.9998825788,-1.606133938
1924,1.55965602408e+18,0.5179678798,-0.6211461425,-0.0759164989
1925,1.55965602413e+18,-1.486281037,1.577968717,1.511722326
1926,1.55965602418e+18,-3.940126657,2.488768816,4.372404099
1927,1.55965602423e+18,-5.872904301,-0.8037948012,5.250217915
1928,1.55965602429e+18,-1.649381995,2.524199009,4.583763599
1929,1.55965602434e+18,-0.6671106815,-1.106783986,0.1843120903
1930,1.55965602439e+18,0.4306142032,-2.534986734,-1.931114316
1931,1.55965602444e+18,1.202136993,-2.038964272,-2.871235847
1932,1.55965602449e+18,1.468474269,-0.3126591444,-2.785714865
1933,1.55965602455e+18,1.707322478,1.05995512,-3.21148777
1934,1.5596560246e+18,2.034746408,0.5059002638,-2.586572647
1935,1.55965602465e+18,1.804450035,0.09356623143,-1.719754934
1936,1.5596560247e+18,0.8032420278,-0.8435010314,-0.7637507915
1937,1.55965602475e+18,-0.6561151147,2.286572456,-1.141265512
1938,1.55965602481e+18,-1.21078074,1.094774365,-0.441824764
1939,1.55965602486e+18,-4.92911768,1.925551176,5.614293575
1940,1.55965602491e+18,-5.632223129,-1.979099512,3.599659681
1941,1.55965602496e+18,-1.962755919,-1.652897477,3.121963024
1942,1.55965602501e+18,-0.04341724887,1.661657333,0.709656179
1943,1.55965602507e+18,1.210689068,-2.941212416,-1.995255113
1944,1.55965602512e+18,1.570488811,-0.07442171127,-2.359330893
1945,1.55965602517e+18,1.973048925,-0.2973875105,-2.951259375
1946,1.55965602522e+18,2.031692028,0.02759278379,-3.210266113
1947,1.55965602527e+18,2.133095741,0.1754221618,-2.581074953
1948,1.55965602533e+18,1.442206979,-0.7274366617,-1.498621702
1949,1.55965602538e+18,0.1441183835,-0.3768000305,-0.02338209003
1950,1.55965602543e+18,-2.363483429,3.321989059,3.19282341
1951,1.55965602548e+18,-2.560792923,-1.581426263,3.097528458
1952,1.55965602553e+18,-3.623087645,-0.1287887245,4.187922955
1953,1.55965602559e+18,-2.711065769,-0.3340394199,4.925848007
1954,1.55965602564e+18,-0.8546463251,1.724576473,1.938717008
1955,1.55965602569e+18,0.7177208066,-3.222210169,-1.515725851
1956,1.55965602574e+18,1.253449678,-1.043864846,-2.719741106
1957,1.55965602579e+18,1.980379224,-0.945515573,-3.582893848
1958,1.55965602585e+18,1.978546739,0.412437886,-4.006834507
1959,1.5596560259e+18,1.781237125,1.084389687,-3.499816179
1960,1.55965602595e+18,1.56743443,-0.696282506,-2.718519449
1961,1.559656026e+18,0.3518125713,-1.362736583,-2.353222132
1962,1.55965602605e+18,-0.6707758904,1.974420309,-0.8010135293
1963,1.55965602611e+18,-2.102643967,1.206562757,1.598465085
1964,1.55965602616e+18,-2.786202192,1.609122872,4.352856636
1965,1.55965602621e+18,-3.353085279,0.3800620437,3.607600927
1966,1.55965602626e+18,-2.608440399,-2.425642014,3.372417688
1967,1.55965602631e+18,-1.022634268,-1.958940983,3.462826014
1968,1.55965602637e+18,0.09586003423,-1.040810585,-1.62201643
1969,1.55965602642e+18,0.514913559,-1.146490216,-2.382543802
1970,1.55965602647e+18,1.007271051,-0.9216918349,-2.494332075
1971,1.55965602652e+18,1.11722672,0.2218479365,-2.613450766
1972,1.55965602657e+18,1.446483016,0.5810366869,-2.534649134
1973,1.55965602663e+18,1.70976603,0.5480499864,-2.530983925
1974,1.55965602668e+18,2.000537872,0.7478029132,-2.537092447
1975,1.55965602673e+18,1.751304865,-0.2436313778,-2.209057808
1976,1.55965602678e+18,0.3108845949,0.4252660573,-0.352027595
