,Time (s),Gyroscope x (rad/s),Gyroscope y (rad/s),Gyroscope z (rad/s)
0,1.55965624005e+18,-0.02020436898,-2.356614351,1.488509417
1,1.5596562401e+18,-0.04891503602,-1.203300714,0.9039113522
2,1.55965624016e+18,-0.3329673707,-0.3224330246,0.2350139171
3,1.55965624021e+18,-0.3183066249,0.463750571,-0.6550167203
4,1.55965624026e+18,-0.02631301992,0.7850656509,-1.391720176
5,1.55965624031e+18,0.2436894178,0.7844548225,-2.337950468
6,1.55965624036e+18,-0.1509295404,-0.09152594209,-2.73806715
7,1.55965624042e+18,-0.4740772545,0.7618528008,-2.832140446
8,1.55965624047e+18,-0.6891018152,1.64944005,-2.910942078
9,1.55965624052e+18,-0.4337601364,0.7893417478,-2.763112783
10,1.55965624057e+18,-0.400773406,0.8559260368,-2.828475237
11,1.55965624062e+18,-0.4551404119,0.998868525,-2.563970804
12,1.55965624068e+18,-0.4832402468,0.6451775432,-1.956770658
13,1.55965624073e+18,-0.1710880846,1.167467237,-1.777176142
14,1.55965624078e+18,0.1086882055,2.304287672,-1.728917837
15,1.55965624083e+18,-0.05441282317,1.476565242,-2.210279703
16,1.55965624088e+18,0.1282358915,2.996397972,-3.089314699
17,1.55965624094e+18,0.4776508212,3.251128674,-3.670858383
18,1.55965624099e+18,0.7268838286,3.085584164,-3.733777523
19,1.55965624104e+18,0.8753240705,3.383075714,-3.714840889
20,1.55965624109e+18,0.8747131824,2.734947443,-3.242031097
21,1.55965624114e+18,0.8368396163,1.518714786,-2.706912994
22,1.5596562412e+18,0.6163172126,1.712970018,-3.005015373
23,1.55965624125e+18,0.8747131824,1.273757935,-2.945150614
24,1.5596562413e+18,1.039036036,0.4881851673,-2.537703276
25,1.55965624135e+18,1.216186881,-0.205146879,-2.476006031
26,1.5596562414e+18,1.62729919,-0.4262800813,-2.230438232
27,1.55965624146e+18,2.41898036,-0.3346503079,-2.046567678
28,1.55965624151e+18,2.737241507,-0.9748371243,-1.484571815
29,1.55965624156e+18,2.119045734,-0.5625030398,-0.4399921894
30,1.55965624161e+18,1.641349077,-1.361514807,0.5050163865
31,1.55965624166e+18,0.9797820449,-1.386560321,0.6076416969
32,1.55965624172e+18,0.5766109824,-0.5295162797,0.2172988057
33,1.55965624177e+18,1.049420595,-0.6413046718,0.281439662
34,1.55965624182e+18,0.9327453971,0.6671686769,-0.5786585808
35,1.55965624187e+18,0.6340323091,1.011696696,0.5074598193
36,1.55965624192e+18,0.3084411323,0.9139582515,-0.3996750712
37,1.55965624198e+18,0.2125352919,0.7728483677,-0.2762803137
38,1.55965624203e+18,0.05554292351,1.041018248,-0.1999221444
39,1.55965624208e+18,-0.1045037657,0.9121256471,-0.12356399
40,1.55965624213e+18,-0.2578309774,0.518117547,-0.06247746199
41,1.55965624218e+18,-0.2755460441,0.5138415098,0.04686741158
42,1.55965624224e+18,-0.2798220813,0.1955807209,0.1055104733
43,1.55965624229e+18,-0.1894140542,-0.01150259282,0.2716658413
44,1.55965624234e+18,-0.2114052027,-0.3401480913,0.277163595
45,1.55965624239e+18,-0.3347999454,-0.3065505028,0.2582267821
46,1.55965624244e+18,-0.4068820775,-0.04937623441,0.1134517267
47,1.5596562425e+18,-0.4343709946,0.2175718695,0.05114347115
48,1.55965624255e+18,-0.43253842,0.3024821579,0.08290845901
49,1.5596562426e+18,-0.2584418058,0.1002857462,0.09146057814
50,1.55965624265e+18,-0.01104138978,0.1277746856,0.1452167183
51,1.5596562427e+18,0.2669022679,0.06363382936,0.1055104733
52,1.55965624276e+18,0.3970166147,0.03492316604,0.04014789686
53,1.55965624281e+18,0.4355010986,0.1509875655,0.01815674827
54,1.55965624286e+18,0.3524234295,0.05691431463,-0.06614265591
55,1.55965624291e+18,0.318825841,0.1320507377,-0.03254506737
56,1.55965624296e+18,0.1844354868,0.05263825879,-0.09057725966
57,1.55965624302e+18,0.09952522069,0.1051726714,-0.04476236925
58,1.55965624307e+18,0.09952522069,0.02148413099,-0.01055391878
59,1.55965624312e+18,0.1221272349,0.04286441579,0.06274991482
60,1.55965624317e+18,0.04027128965,-0.01700037904,0.1116191298
61,1.55965624322e+18,-0.1100015566,-0.09152594209,0.09084970504
62,1.55965624328e+18,-0.1918575019,0.1790873557,0.1152843237
63,1.55965624333e+18,-0.1857488602,0.2707171738,0.09756922722
64,1.55965624338e+18,-0.08556694537,0.459474504,0.1024561524
65,1.55965624343e+18,-0.02631301992,0.1674809307,0.1983619928
66,1.55965624348e+18,-0.04341724887,-0.06159354374,0.2673897743
67,1.55965624353e+18,-0.1655903012,-0.3028853238,0.1812577695
68,1.55965624359e+18,-0.2028530687,0.02453845553,0.2435660213
69,1.55965624364e+18,-0.2193464339,0.2780475318,0.2056923807
70,1.55965624369e+18,-0.2101834565,0.1638157368,0.2032489181
71,1.55965624374e+18,-0.2731025815,0.09478796273,0.1042887494
72,1.55965624379e+18,-0.4410905242,0.2847670615,0.02731972747
73,1.55965624385e+18,-0.3464064002,0.2261239886,-0.007499592844
74,1.5596562439e+18,-0.1698663533,0.2676628232,0.01632415131
75,1.55965624395e+18,-4.581489338e-05,-0.01455691922,0.07008029521
76,1.559656244e+18,0.06959282607,-0.1489472687,0.1024561524
77,1.55965624405e+18,-0.09961685538,-0.3945150971,0.0688585639
78,1.55965624411e+18,-0.2517222762,-0.3199895322,-0.005666996818
79,1.55965624416e+18,-0.3745062053,0.04469700903,0.005939442664
80,1.55965624421e+18,-0.2773786187,0.2615541816,0.06458250433
81,1.55965624426e+18,-0.2077400088,0.1259420812,0.2185205519
82,1.55965624431e+18,-0.2578309774,0.0453078784,0.3235893548
83,1.55965624437e+18,-0.3115870953,0.1442680508,0.2435660213
84,1.55965624442e+18,-0.3366325796,0.4478680789,0.1782034487
85,1.55965624447e+18,-0.2523331642,0.4405376911,0.1391080618
86,1.55965624452e+18,-0.2254550904,0.4497006536,0.1977511346
87,1.55965624457e+18,-0.1429882795,-0.071367383,0.4329342246
88,1.55965624463e+18,-0.1289383918,-0.1593319923,0.5251749158
89,1.55965624468e+18,-0.2700482607,-0.1440603435,0.3034308255
90,1.55965624473e+18,-0.4698011875,0.1729787141,-0.08263601363
91,1.55965624478e+18,-0.4979009926,-0.01394605357,-0.02887987718
92,1.55965624483e+18,-0.5791460276,-0.2350792736,-0.01910603233
93,1.55965624489e+18,-0.5993046165,-0.03532633558,-0.07164043933
94,1.55965624494e+18,-0.5632635355,-0.221029371,-0.08874467015
95,1.55965624499e+18,-0.4575839043,0.01415374782,-0.1486094594
96,1.55965624504e+18,-0.2175138444,-1.283324003,0.05541953072
97,1.55965624509e+18,-0.239504993,-0.9589545727,0.1006235555
98,1.55965624515e+18,-0.1185536757,-0.8349488974,0.3272545338
99,1.5596562452e+18,-0.2834872603,-1.150155425,0.4537036717
100,1.55965624525e+18,-0.6579477191,-0.6828435063,0.5239531994
101,1.5596562453e+18,-0.7226994038,-1.228346229,0.8764224052
102,1.55965624535e+18,-0.8387637734,-1.393890619,0.8806985021
103,1.55965624541e+18,-0.8338769078,-0.6718478799,0.8611507416
104,1.55965624546e+18,-0.6952104568,-0.3432024121,0.8629834056
105,1.55965624551e+18,-0.7526317835,-0.6626849174,0.7811274529
106,1.55965624556e+18,-0.685436666,-0.1037432477,0.8904722929
107,1.55965624561e+18,-0.5760917068,-0.2149207145,0.8660377264
108,1.55965624567e+18,-0.4276514947,0.01781893894,0.914906919
109,1.55965624572e+18,-0.1258840561,-0.1330647767,0.8806985021
110,1.55965624577e+18,0.2412459552,0.2145175487,0.6149721146
111,1.55965624582e+18,0.433057636,0.4399268329,0.5117358565
112,1.55965624587e+18,0.6548017859,0.1406028569,0.4769165218
113,1.55965624593e+18,0.6786254644,0.2261239886,0.4182734787
114,1.55965624598e+18,0.7653683424,-0.1691058129,0.3938388526
115,1.55965624603e+18,0.484370321,-0.05792835355,0.4023909867
116,1.55965624608e+18,0.2748435438,-0.5453988314,0.329087168
117,1.55965624613e+18,-0.1442100108,-0.06648045778,0.2099684328
118,1.55965624619e+18,-0.4533078372,-0.09458027035,0.392617166
119,1.55965624624e+18,-0.5143943429,-0.1300104558,0.4530928135
120,1.55965624629e+18,-0.5589874983,0.1222768947,0.3541326225
121,1.55965624634e+18,-0.5192812681,0.2420064807,0.3724585772
122,1.55965624639e+18,-0.3757279217,0.6066930294,0.3785672188
123,1.55965624645e+18,-0.2755460441,0.4643614292,0.2875483036
124,1.5596562465e+18,-0.03119994141,0.451533258,0.1934750676
125,1.55965624655e+18,0.1111316606,0.4643614292,0.03159578145
126,1.5596562466e+18,0.06714936346,0.5248370767,-0.03132333606
127,1.55965624665e+18,-0.02875648066,0.3263058662,-0.1101249531
128,1.55965624671e+18,-0.09167559445,0.6683904529,-0.0881338045
129,1.55965624676e+18,-0.04769330099,0.2304000407,-0.1418899596
130,1.55965624681e+18,-0.08312349021,0.6292950511,-0.1266183108
131,1.55965624686e+18,0.007895433344,0.3030930161,-0.1571615785
132,1.55965624691e+18,0.09891435504,0.2694954276,-0.1987004131
133,1.55965624697e+18,0.1807702929,0.3476861715,-0.2549000382
134,1.55965624702e+18,0.283395648,0.227956593,-0.2072525322
135,1.55965624707e+18,0.4080121815,0.04286441579,-0.1486094594
136,1.55965624712e+18,0.4306142032,-0.02738508955,-0.03987545148
137,1.55965624717e+18,0.3524234295,-0.1770470738,-0.1064597592
138,1.55965624723e+18,0.2662914395,0.196191594,-0.1345595717
139,1.55965624728e+18,0.2235308737,-0.01150259282,-0.08752293885
140,1.55965624733e+18,0.2333047092,-0.01761124469,-0.0007800749154
141,1.55965624738e+18,0.2791196108,-0.02860681899,0.06458250433
142,1.55965624743e+18,0.3499799669,-0.06220440567,0.06458250433
143,1.55965624749e+18,0.244300276,0.03492316604,-0.07347303629
144,1.55965624754e+18,0.1978745311,0.05691431463,-0.1046271697
145,1.55965624759e+18,0.2302503884,-0.08419555426,-0.1113466844
146,1.55965624764e+18,0.3059976697,-0.07319997996,-0.08691207319
147,1.55965624769e+18,0.3640298843,-0.1507798582,-0.07530563325
148,1.55965624775e+18,0.3799123466,-0.3260982037,-0.01421911083
149,1.5596562478e+18,0.3139389455,-0.1263452619,-0.03437766433
150,1.55965624785e+18,0.271178335,-0.2350792736,-0.04231891409
151,1.5596562479e+18,0.1349553913,0.259110719,-0.08263601363
152,1.55965624795e+18,0.06898195297,-0.1116844937,-0.05942313746
153,1.55965624801e+18,0.08181012422,0.05080566555,0.02243280411
154,1.55965624806e+18,0.08975137025,-0.2668442726,0.1067322046
155,1.55965624811e+18,0.07264714688,-0.09396939725,0.1720947921
156,1.55965624816e+18,0.02866485156,-0.2332466692,0.1397189349
157,1.55965624821e+18,-0.06418666989,-0.1306213289,0.1922533363
158,1.55965624827e+18,-0.0788474381,-0.1086301655,0.159877494
159,1.55965624832e+18,-0.08251262456,-0.1232909337,0.0798541382
160,1.55965624837e+18,-0.1020603105,-0.06342613697,-0.04292977601
161,1.55965624842e+18,-0.1515403837,-0.2020925432,-0.131505236
162,1.55965624847e+18,-0.2437810451,-0.09213680029,-0.1938134879
163,1.55965624853e+18,-0.3201391995,-0.1733818799,-0.2494022399
164,1.55965624858e+18,-0.5015661716,-0.1098518968,-0.213972047
165,1.55965624863e+18,-0.6585585475,-0.002339613857,-0.05820140988
166,1.55965624868e+18,-0.4630816579,-0.1397842914,0.2447877526
167,1.55965624873e+18,0.007284567691,-0.311437428,0.4121648371
168,1.55965624879e+18,0.1679421216,-0.02249816619,0.478138268
169,1.55965624884e+18,-0.03425426781,-0.0817520991,0.5007402897
170,1.55965624889e+18,-0.1497077942,-0.2668442726,0.5838180184
171,1.55965624894e+18,-0.1765858829,-0.2246945649,0.5777093172
172,1.55965624899e+18,-0.3726736009,-0.1587211192,0.3303088844
173,1.55965624905e+18,-0.6805496812,0.1277746856,0.2099684328
174,1.5596562491e+18,-0.9193980098,-0.8691574335,-0.008721322753
175,1.55965624915e+18,-1.116707563,-0.3315959871,-0.1559398472
176,1.5596562492e+18,-0.8534245491,-0.8025730848,-0.0991293788
177,1.55965624925e+18,-0.4105472863,-0.3700805008,-0.2109177262
178,1.55965624931e+18,0.07264714688,-0.213088125,-0.07041871548
179,1.55965624936e+18,0.2858391106,-0.1269561201,0.0383152999
180,1.55965624941e+18,0.06042984501,0.02087326534,-0.07530563325
181,1.55965624946e+18,-0.1057255045,-0.009669996798,-0.1046271697
182,1.55965624951e+18,-0.02325869352,0.04042095318,-0.1602158993
183,1.55965624957e+18,0.1312902123,0.1473223716,-0.2652847171
184,1.55965624962e+18,0.3218801618,0.08806844056,-0.3953990042
185,1.55965624967e+18,0.2931694984,0.2444499582,-0.493137449
186,1.55965624972e+18,0.1716073155,-0.06342613697,-0.5798802972
187,1.55965624977e+18,-0.004932736978,0.4374833703,-0.8627109528
188,1.55965624983e+18,0.04943427071,0.7368072867,-0.9903817773
189,1.55965624988e+18,0.1728290617,0.4374833703,-0.8877564073
190,1.55965624993e+18,0.3090519905,0.4148813486,-0.8266698718
191,1.55965624998e+18,0.5191896558,0.4344290495,-0.8346111178
192,1.55965625003e+18,0.5643936992,0.3452427089,-0.7906288505
193,1.55965625009e+18,0.4269489944,0.4081618488,-0.5988171101
194,1.55965625014e+18,0.2546849847,0.3403557837,-0.3190408647
195,1.55965625019e+18,0.2705674767,0.2426173538,-0.07164043933
196,1.55965625024e+18,0.327377975,0.2163501382,0.030374052
197,1.55965625029e+18,0.2253634632,0.3055364788,0.07130202651
198,1.55965625035e+18,0.1361771375,0.5737062693,0.04625654966
199,1.5596562504e+18,0.1844354868,0.6115799546,0.1647644043
200,1.55965625045e+18,0.4098447561,0.03736662492,0.2441768944
201,1.5596562505e+18,0.5228548646,0.310423404,-0.03559939563
202,1.55965625055e+18,0.5582850575,0.8650890589,-0.4583181441
203,1.55965625061e+18,0.6089867949,1.220001698,-0.7026642561
204,1.55965625066e+18,0.7849160433,1.190069318,-0.6574602127
205,1.55965625071e+18,0.6095977426,1.004977226,-0.8175069094
206,1.55965625076e+18,0.2950021029,0.9726012945,-0.9073040485
207,1.55965625081e+18,0.1612226069,0.6237972379,-0.765583396
208,1.55965625086e+18,0.07997753471,0.6677795649,-0.7448139787
209,1.55965625092e+18,0.2583501935,0.03858835623,-0.5719391108
210,1.55965625097e+18,0.3829666972,-0.2662333846,-0.1895374358
211,1.55965625102e+18,0.5173570514,-1.414659977,0.03403924406
212,1.55965625107e+18,0.2522415221,-0.2656225264,-0.08080342412
213,1.55965625112e+18,-0.1106124297,-0.6223678589,-0.1620484889
214,1.55965625118e+18,-0.4789641798,0.05263825879,-0.1425008029
215,1.55965625123e+18,-0.5754808784,0.02576018684,-0.1284509152
216,1.55965625128e+18,-0.6109110713,0.4997916222,-0.02643641457
217,1.55965625133e+18,-0.2847090065,0.12960729,0.04259135947
218,1.55965625138e+18,-0.09656251967,0.2768258154,0.1427732557
219,1.55965625144e+18,0.134344548,0.3635686636,0.1256690323
220,1.55965625149e+18,0.5332395434,0.1406028569,0.07069116086
221,1.55965625154e+18,0.4868137836,0.4796330631,-0.1779309958
222,1.55965625159e+18,0.6987839937,0.5071219802,-0.2487913668
223,1.55965625164e+18,1.051864147,0.3269167542,-0.1302835047
224,1.5596562517e+18,1.230236769,0.2927083075,0.02854145691
225,1.55965625175e+18,1.11722672,0.06180123612,0.07863240689
226,1.5596562518e+18,0.805685401,0.1216660291,-0.03437766433
227,1.55965625185e+18,0.4086230397,0.2444499582,-0.08446861058
228,1.5596562519e+18,0.004841106944,-0.1159605458,-0.05514708161
229,1.55965625196e+18,-0.2492788434,0.1021183431,-0.07102958113
230,1.55965625201e+18,-0.3818365932,0.1143356487,-0.03254506737
231,1.55965625206e+18,-0.3085327744,-0.06586959958,-0.08080342412
232,1.55965625211e+18,-0.2450027764,0.2102414817,-0.11195755
233,1.55965625216e+18,-0.1704772115,-0.06831305474,-0.12356399
234,1.55965625222e+18,-0.1295492351,0.07157508284,-0.1082923561
235,1.55965625227e+18,-0.08923213929,0.02820364758,-0.07835996151
236,1.55965625232e+18,-0.0672409907,0.05813604221,-0.05270362273
237,1.55965625237e+18,-0.01226312015,0.05263825879,-0.07652736455
238,1.55965625242e+18,-0.006765332539,0.1192225739,-0.01116478443
239,1.55965625248e+18,-0.1222188622,0.3482970297,-0.02154949307
240,1.55965625253e+18,-0.2272876948,0.08684670925,-0.03071247041
241,1.55965625258e+18,-0.168644622,-0.2332466692,0.05419779569
242,1.55965625263e+18,-0.8699179292,-0.07625430822,0.7860143185
243,1.55965625268e+18,-0.8894656301,-0.2344684154,0.5282292366
244,1.55965625274e+18,-1.190622211,-0.2344684154,0.3907845318
245,1.55965625279e+18,-1.521100163,-0.6920064688,0.5911483765
246,1.55965625284e+18,-2.03544879,-0.8770986199,0.7463080883
247,1.55965625289e+18,-2.547964811,-1.140381575,1.082894921
248,1.55965625294e+18,-2.611494541,-1.558824182,1.162307382
249,1.559656253e+18,-2.532693148,-1.237509131,0.2405117005
250,1.55965625305e+18,-2.85645175,-0.5362358689,-0.8547697067
251,1.5596562531e+18,-2.390361547,0.02026239969,-1.227397442
252,1.55965625315e+18,-1.226663232,-0.1367299706,-1.189523816
253,1.5596562532e+18,-0.2254550904,-0.6125940084,-0.5206264257
254,1.55965625325e+18,0.2204765379,-1.475135684,-0.4687028527
255,1.55965625331e+18,0.2693457603,-0.2784507275,-0.2017547488
256,1.55965625336e+18,0.327377975,-0.3138808906,-0.3349233568
257,1.55965625341e+18,0.232693851,-0.04510018229,-0.2158046365
258,1.55965625346e+18,0.3072193861,0.1949698627,0.388341099
259,1.55965625351e+18,0.2131461501,0.1344942003,-0.03254506737
260,1.55965625357e+18,0.1520596296,-0.3340394199,-0.1583832949
261,1.55965625362e+18,0.2180330753,-0.2821159065,-0.1211205274
262,1.55965625367e+18,0.2131461501,-0.1709384173,-0.005666996818
263,1.55965625372e+18,0.2235308737,-0.1788796633,0.02793059126
264,1.55965625377e+18,0.1789377034,-0.1006889194,-0.01177564915
265,1.55965625383e+18,0.076923199,-0.1923187077,-0.1272291839
266,1.55965625388e+18,-0.03181080893,0.01842980459,-0.1467768699
267,1.55965625393e+18,-0.01715004072,-0.2057577372,-0.3196517229
268,1.55965625398e+18,-0.03608686477,-0.1391734332,-0.284832418
269,1.55965625403e+18,-0.02203696407,-0.1031323746,-0.1290617883
270,1.55965625409e+18,0.1838246286,-1.233844042,-0.06736438721
271,1.55965625414e+18,0.2424676865,-0.4934752882,0.005328577477
272,1.55965625419e+18,0.2522415221,0.3623469174,-0.1351704299
273,1.55965625424e+18,0.3261562288,-0.1012997851,-0.2823889554
274,1.55965625429e+18,0.2595719099,0.2108523548,-0.4070054591
275,1.55965625435e+18,0.3518125713,0.1442680508,-0.3691318035
276,1.5596562544e+18,0.3316540122,-0.04082412273,-0.2420718521
277,1.55965625445e+18,0.32249102,0.04836220294,-0.1400573552
278,1.5596562545e+18,0.2107027024,-0.1037432477,-0.1443334073
279,1.55965625455e+18,0.02377793007,0.1076161265,-0.1437225491
280,1.55965625461e+18,-0.03791946173,-0.1275669932,-0.11195755
281,1.55965625466e+18,-0.1008385792,0.125331223,-0.06492093205
282,1.55965625471e+18,-0.04158465192,-0.1135170907,0.008382904343
283,1.55965625476e+18,-0.03730859235,0.002547307871,0.05603039265
284,1.55965625481e+18,-0.1093906909,0.09051190317,0.06580423564
285,1.55965625487e+18,-0.1759750098,0.08195979148,0.05419779569
286,1.55965625492e+18,-0.2016313523,0.3397449255,0.01082636416
287,1.55965625497e+18,-0.1472643465,0.3055364788,-0.03621025756
288,1.55965625502e+18,0.0005650503444,0.6622818112,-0.2225241512
289,1.55965625507e+18,0.153892234,0.4570310414,-0.3917338252
290,1.55965625513e+18,0.1465618461,0.6457883716,-0.5548348427
291,1.55965625518e+18,0.1917658746,0.7416942716,-0.7191575766
292,1.55965625523e+18,0.3597538173,0.8785280585,-0.9647253752
293,1.55965625528e+18,0.7531510592,0.7850656509,-0.9237974882
294,1.55965625533e+18,0.9577909112,0.64945364,-1.154093623
295,1.55965625539e+18,1.023153424,0.7752918601,-1.493123889
296,1.55965625544e+18,0.9919993281,1.104548216,-1.92011869
297,1.55965625549e+18,0.9559583068,1.191290975,-2.128423929
298,1.55965625554e+18,0.6401410103,0.9750447869,-2.202338457
299,1.55965625559e+18,0.244300276,1.114322066,-2.198673248
300,1.55965625565e+18,-0.2248442173,0.896243155,-2.127201796
301,1.5596562557e+18,-0.3909995854,0.9726012945,-2.048400402
302,1.55965625575e+18,-0.1912466437,0.569430232,-1.751519918
303,1.5596562558e+18,0.3481473625,0.2530020475,-1.471743584
304,1.55965625585e+18,0.6511365175,0.4881851673,-1.219456315
305,1.55965625591e+18,1.122113705,0.006823364645,-0.9103583694
306,1.55965625596e+18,1.343857646,0.06485556066,-0.7130489349
307,1.55965625601e+18,1.456256986,0.05385999009,-0.5774368644
308,1.55965625606e+18,1.419605017,-0.07991950214,-0.4320509434
309,1.55965625611e+18,0.9193063974,0.04775133356,-0.3227060437
310,1.55965625617e+18,0.6725168228,-0.1251235306,-0.2151937783
311,1.55965625622e+18,0.6499148011,-0.5783855319,0.01265896019
312,1.55965625627e+18,0.5723348856,-1.47330308,0.5453334451
313,1.55965625632e+18,0.381744951,-1.574706793,1.117714286
314,1.55965625637e+18,0.1807702929,-1.24789381,1.579528332
315,1.55965625643e+18,-0.2737134397,-0.3157134652,1.869078517
316,1.55965625648e+18,-0.5211138725,-0.260735631,2.084713936
317,1.55965625653e+18,-0.2773786187,-0.834338069,2.048672915
318,1.55965625658e+18,-0.04463897645,-0.4806470871,1.501948476
319,1.55965625663e+18,0.4452749491,0.09906401485,1.056627631
320,1.55965625669e+18,0.9626777768,-0.2228619754,0.864205122
321,1.55965625674e+18,1.62057972,0.3043147326,0.3425261974
322,1.55965625679e+18,1.510013103,1.282920957,-0.1241748556
323,1.55965625684e+18,1.103176713,1.314685941,-0.5114634037
324,1.55965625689e+18,0.8857088089,1.039185643,-0.4803093076
325,1.55965625695e+18,0.6865667105,1.071561575,-0.5255132914
326,1.559656257e+18,0.5228548646,-0.04082412273,-0.4577072859
327,1.55965625705e+18,0.3463147879,0.7154270411,-0.3251495063
328,1.5596562571e+18,0.5112484097,-1.386560321,-0.4412139356
329,1.55965625715e+18,0.8930391669,-1.533778787,-0.4552638233
330,1.55965625721e+18,1.130665779,-2.191069841,-0.7759680748
331,1.55965625726e+18,1.231458545,-0.3010526896,-1.028255343
332,1.55965625731e+18,1.346301198,-0.3285416663,-1.322692513
333,1.55965625736e+18,1.235123634,-0.1385625601,-1.436313391
334,1.55965625741e+18,0.728716433,0.9768773913,-1.346516252
335,1.55965625747e+18,0.2253634632,0.8266045451,-1.014816403
336,1.55965625752e+18,-0.4380362034,-1.038977861,-0.5804911852
337,1.55965625757e+18,-1.083109856,-1.219183207,-0.1247857213
338,1.55965625762e+18,-1.456348538,-2.749400616,-0.5560565591
339,1.55965625767e+18,-2.464886904,-2.687703133,-1.099115849
340,1.55965625772e+18,-3.397678137,-0.7237715125,-2.898724794
341,1.55965625778e+18,0.1349553913,0.7545223832,-1.226786613
342,1.55965625783e+18,-0.1435991526,0.9835968614,-1.262216806
343,1.55965625788e+18,-0.02936734632,2.027565479,0.06519337744
344,1.55965625793e+18,0.1166294515,2.582231283,0.6284111142
345,1.55965625798e+18,0.157557413,2.450284481,0.1861446798
346,1.55965625804e+18,-0.8015010357,2.681191444,0.6058091521
347,1.55965625809e+18,-2.917538404,2.82840991,2.348607779
348,1.55965625814e+18,-3.737319231,1.989081025,4.033373833
349,1.55965625819e+18,-0.298758924,-4.218531609,2.556301832
350,1.55965625824e+18,2.809323549,1.418532968,-0.1070706248
351,1.5596562583e+18,2.814821243,1.577968717,-1.712424397
352,1.55965625835e+18,0.8863196373,0.7728483677,-1.483349919
353,1.5596562584e+18,-0.7245320082,1.400207043,-1.152261138
354,1.55965625845e+18,-0.87297225,-0.1239017919,-0.7490900159
355,1.5596562585e+18,-0.5760917068,-1.827605009,-0.6507407427
356,1.55965625856e+18,-0.6872692108,-2.618064642,0.2466203421
357,1.55965625861e+18,-1.160078883,-4.136065006,0.9821020961
358,1.55965625866e+18,-1.175961375,-3.764047861,1.795774698
359,1.55965625871e+18,-1.514380693,-2.846528053,2.04012084
360,1.55965625876e+18,-0.9804845452,-2.83431077,1.082284093
361,1.55965625882e+18,0.3786906302,-2.338899136,-0.4772549868
362,1.55965625887e+18,1.1471591,-0.5887702703,-1.838262677
363,1.55965625892e+18,1.47152853,1.433193684,-2.205392838
364,1.55965625897e+18,1.668227196,1.125317574,-2.589627028
365,1.55965625902e+18,1.621801376,1.892564297,-2.438132286
366,1.55965625908e+18,1.554606199,1.475343347,-2.379489183
367,1.55965625913e+18,1.469695926,0.998257637,-1.799167395
368,1.55965625918e+18,1.348133802,0.6476210356,-1.34040761
369,1.55965625923e+18,0.8649393916,1.494891167,-0.8468284011
370,1.55965625928e+18,0.6376975179,-1.407940507,-0.627527833
371,1.55965625934e+18,0.5094158053,-1.205744147,-0.398453325
372,1.55965625939e+18,0.5503437519,-2.823315382,-0.7509226203
373,1.55965625944e+18,-0.2309528738,-2.641277552,-1.180360794
374,1.55965625949e+18,-1.699472904,-2.303468943,-2.698971987
375,1.55965625954e+18,-0.2779895067,-0.5924354196,-5.160758972
376,1.5596562596e+18,1.00788188,1.413645983,-2.518155813
377,1.55965625965e+18,0.7146664858,-0.791577518,-1.187080264
378,1.5596562597e+18,0.1551139504,0.1485441029,-0.02399295382
379,1.55965625975e+18,-0.3433520794,-1.176422596,0.1281124949
380,1.5596562598e+18,-1.040349364,0.3049255908,0.7481406927
381,1.55965625986e+18,-1.473452806,1.180906415,0.7902904153
382,1.55965625991e+18,-2.045222759,1.886455655,1.928943276
383,1.55965625996e+18,-3.384239197,1.155860782,4.302765846
384,1.55965626001e+18,-1.766668081,-2.606458187,5.711421013
385,1.55965626006e+18,0.9724516869,-1.955275774,1.919169426
386,1.55965626012e+18,2.214340925,0.2963735163,-1.577423215
387,1.55965626017e+18,1.7164855,0.03492316604,-2.22188592
388,1.55965626022e+18,0.2681240141,0.04103181884,-2.060006857
389,1.55965626027e+18,-0.4465883076,0.7343639135,-1.375226974
390,1.55965626032e+18,-1.103879213,0.554158628,-0.6507407427
391,1.55965626038e+18,-1.039738417,-0.2411879301,0.03892616555
392,1.55965626043e+18,-0.6732193232,-1.322419405,0.5312835574
393,1.55965626048e+18,-0.1607033759,-1.517896295,1.07678628
394,1.55965626053e+18,-0.1014494449,-1.850817919,1.038301706
395,1.55965626058e+18,0.2174222171,-0.7207171917,1.223393917
396,1.55965626064e+18,0.2736218274,-1.332193255,0.7218735218
397,1.55965626069e+18,0.468487829,-1.160540104,-0.1144010052
398,1.55965626074e+18,0.4862029254,0.3641795218,-1.047803044
399,1.55965626079e+18,0.3047759533,1.234662533,-1.013594627
400,1.55965626084e+18,0.2339155674,0.4930721223,-1.063685536
401,1.5596562609e+18,0.3896862268,1.422198176,-1.003209949
402,1.55965626095e+18,0.6719059348,1.017805338,-0.8474393487
403,1.559656261e+18,0.901591301,0.5401086807,-0.9885491729
404,1.55965626105e+18,0.9651212692,0.5297240019,-1.04902482
405,1.5596562611e+18,1.320644855,-0.1520016044,-0.4289966226
406,1.55965626116e+18,1.28582561,-0.03593720123,0.4622557759
407,1.55965626121e+18,1.046977162,1.495501995,1.621067166
408,1.55965626126e+18,0.7317707539,-1.063412547,0.9191829562
409,1.55965626131e+18,-0.6493955851,-1.126331687,-0.9066932201
410,1.55965626136e+18,1.302318811,-2.382270575,-7.275574207
411,1.55965626142e+18,-0.3018132448,2.293292046,0.1586557478
412,1.55965626147e+18,-2.039113998,-0.1055758446,-1.962268472
413,1.55965626152e+18,-2.153345585,-0.1446712166,-0.8449958563
414,1.55965626157e+18,-2.423959255,-1.635182381,0.05847385526
415,1.55965626162e+18,-2.370813608,-0.6376394629,0.709656179
416,1.55965626168e+18,-1.993910074,-1.424433947,0.7970099449
417,1.55965626173e+18,-1.182070017,-0.6009875536,0.5722115636
418,1.55965626178e+18,-0.7459123135,0.8828041553,1.139094472
419,1.55965626183e+18,-1.302410483,2.824133873,2.534921646
420,1.55965626188e+18,-1.291414976,-1.801948667,5.93438673
421,1.55965626194e+18,-0.4209319651,-2.911890984,5.47135067
422,1.55965626199e+18,0.326767087,2.551687956,2.206276178
423,1.55965626204e+18,2.036578894,-2.15197444,-2.137586594
424,1.55965626209e+18,1.655399084,-1.333415031,-2.380711079
425,1.55965626214e+18,0.6865667105,-0.7091107368,-2.091771841
426,1.5596562622e+18,-0.2694373727,0.4429811537,-1.147984982
427,1.55965626225e+18,-0.5504354239,2.746553898,0.565492034
428,1.5596562623e+18,-1.299967051,-0.4659863412,1.303417206
429,1.55965626235e+18,-1.35677743,-3.59911418,1.371834159
430,1.5596562624e+18,-0.4899597466,-1.629073739,1.417038202
431,1.55965626246e+18,-0.09656251967,-1.143435955,0.915517807
432,1.55965626251e+18,0.3878535926,-1.880139351,0.3187024593
433,1.55965626256e+18,0.8411155939,-0.8874833584,-0.7747463584
434,1.55965626261e+18,0.7885812521,0.04469700903,-1.041083574
435,1.55965626266e+18,0.6199824214,-0.5032491088,-1.289705634
436,1.55965626272e+18,0.5943260789,0.3599034846,-1.331244588
437,1.55965626277e+18,0.7238295078,1.174797773,-1.08873105
438,1.55965626282e+18,0.7189425826,0.8418761492,-1.149206758
439,1.55965626287e+18,0.4953659177,1.146697879,-1.196854234
440,1.55965626292e+18,0.2846173942,1.535208225,-0.7551986575
441,1.55965626298e+18,0.4703204334,1.260929704,-0.6818948388
442,1.55965626303e+18,0.5222439766,2.57306838,-0.01788430288
443,1.55965626308e+18,0.2913369238,1.542538524,0.6998823881
444,1.55965626313e+18,0.468487829,1.062398553,1.709642529
445,1.55965626318e+18,0.9797820449,0.05813604221,2.39503336
446,1.55965626324e+18,1.697548747,-1.472081423,2.363268375
447,1.55965626329e+18,0.5271309018,-5.80372715,0.4616449177
448,1.55965626334e+18,1.240010619,0.3171429038,-1.763126373
449,1.55965626339e+18,-2.741609097,0.3220298588,1.114659905
450,1.55965626344e+18,-4.219292164,0.9133474231,1.035247445
451,1.5596562635e+18,-3.818564415,-0.8276185393,0.675447762
452,1.55965626355e+18,-2.918760061,-1.035312772,0.2545616031
453,1.5596562636e+18,-1.678092599,-0.1807122678,-0.182817921
454,1.55965626365e+18,-0.5834221244,1.246879816,-0.8193394542
455,1.5596562637e+18,-0.7697360516,1.326292276,-1.226786613
456,1.55965626376e+18,-0.6054132581,1.974420309,0.1684295982
457,1.55965626381e+18,0.07386887819,4.347631931,1.63328445
458,1.55965626386e+18,-0.6726084352,4.438651085,3.336376667
459,1.55965626391e+18,-1.045847178,0.2572781146,5.575808525
460,1.55965626396e+18,-0.3427412212,-6.525158882,2.541030169
461,1.55965626402e+18,2.346287489,-0.5753312111,-0.9158561826
462,1.55965626407e+18,2.286422968,0.309812516,-1.751519918
463,1.55965626412e+18,1.219241261,-1.289432764,-1.489458561
464,1.55965626417e+18,0.05676465109,-0.2906680107,-0.4705354571
465,1.55965626422e+18,-0.6781062484,0.1216660291,1.349232197
466,1.55965626428e+18,-0.6781062484,-0.7072781324,2.010188341
467,1.55965626433e+18,-0.3464064002,-1.901519656,2.461617708
468,1.55965626438e+18,0.2045940459,-0.740264833,2.67603159
469,1.55965626443e+18,0.2644588351,0.1045618057,2.454898119
470,1.55965626448e+18,0.326767087,0.2707171738,1.758511782
471,1.55965626454e+18,0.09097310901,-0.1214583367,0.8110598326
472,1.55965626459e+18,-0.1142776161,-0.1568885148,-0.245737046
473,1.55965626464e+18,-0.04097378626,0.887691021,-1.201130271
474,1.55965626469e+18,0.1758833826,0.4209899902,-1.925616503
475,1.55965626474e+18,0.4868137836,0.4203791618,-2.315959454
476,1.5596562648e+18,0.6780145764,0.5584346652,-2.164464951
477,1.55965626485e+18,0.5295743346,0.4301529825,-2.066115379
478,1.5596562649e+18,0.1997071207,-0.1428386271,-1.842538834
479,1.55965626495e+18,-0.3757279217,-2.049959898,-1.359955192
480,1.559656265e+18,-0.7190341949,-0.6303091049,-0.6281386614
481,1.55965626506e+18,-2.194884539,-3.666920185,-1.007485986
482,1.55965626511e+18,0.1563356966,-13.69916058,-7.364760876
483,1.55965626516e+18,-0.3757279217,6.333554745,-0.1498311907
484,1.55965626521e+18,-1.405646682,-1.596086979,-1.521834612
485,1.55965626526e+18,-1.581575871,1.967090011,0.8764224052
486,1.55965626532e+18,-1.364107966,2.24930954,1.069455862
487,1.55965626537e+18,-1.098381519,4.13627243,1.332738757
488,1.55965626542e+18,-1.168630958,4.812500477,2.4084723
489,1.55965626547e+18,-2.227871418,4.676277161,3.754819393
490,1.55965626552e+18,-3.55833602,-0.04937623441,6.219660759
491,1.55965626558e+18,-2.04155755,-3.758550167,6.148800373
492,1.55965626563e+18,-0.2388941199,0.5847018957,3.650972366
493,1.55965626568e+18,2.541153669,-1.918623924,-1.793669581
494,1.55965626573e+18,2.293142319,-2.111046314,-1.452195883
495,1.55965626578e+18,1.099511623,-0.3920716643,-1.242669106
496,1.55965626584e+18,-0.1228297278,0.4307638407,-0.4613724649
497,1.55965626589e+18,-0.7990575433,0.4863525629,-0.01238651481
498,1.55965626594e+18,-1.268202066,-0.5655573606,0.3510783017
499,1.55965626599e+18,-1.354944944,-1.032258391,0.4585905671
500,1.55965626604e+18,-1.430081248,-1.166037917,0.7389777303
501,1.5596562661e+18,-0.9413891435,-2.500778675,1.040745139
502,1.55965626615e+18,-0.1735315472,-2.1385355,0.9882107377
503,1.5596562662e+18,0.480094254,-2.394487858,-0.2078633904
504,1.55965626625e+18,0.6963405609,-0.8007404804,-0.926240921
505,1.5596562663e+18,0.712833941,-0.370691359,-1.657446623
506,1.55965626636e+18,0.6627429724,-0.2979983687,-1.874914646
507,1.55965626641e+18,0.6028781533,1.14608705,-1.753963351
508,1.55965626646e+18,0.7305490375,1.036131382,-1.931114316
509,1.55965626651e+18,0.8686045408,1.684259295,-1.484571815
510,1.55965626656e+18,0.9107542634,1.190680146,-1.570092916
511,1.55965626662e+18,1.487411022,1.533375621,-1.175474048
512,1.55965626667e+18,1.964496851,-0.5698334575,-0.8132308125
513,1.55965626672e+18,1.962053299,-0.70483464,-1.57559073
514,1.55965626677e+18,2.028637648,0.1222768947,-4.401453018
515,1.55965626682e+18,2.156308651,9.938270569,-1.645840168
516,1.55965626688e+18,-0.5785351992,-2.949153662,-2.300076962
517,1.55965626693e+18,-1.62128222,3.241965771,-0.962282002
518,1.55965626698e+18,-1.875402093,-1.062190771,-0.4332726598
519,1.55965626703e+18,-2.62493372,-2.36394453,-0.4809201658
520,1.55965626708e+18,-3.067200184,-0.6620740891,-0.5450610518
521,1.55965626714e+18,-2.831406355,-0.755536437,0.5123467445
522,1.55965626719e+18,-2.535747528,0.6946576834,1.971092939
523,1.55965626724e+18,-3.542453289,1.214503884,4.808561802
524,1.55965626729e+18,-4.440425396,-2.408537865,7.999111176
525,1.55965626734e+18,-2.573621035,-7.730395794,4.627135277
526,1.5596562674e+18,-0.3793931305,6.850957394,0.923459053
527,1.55965626745e+18,1.704268217,0.3263058662,-1.418598294
528,1.5596562675e+18,0.7421554327,-1.778735757,-2.347113609
529,1.55965626755e+18,-0.1258840561,0.7258117795,-1.520612836
530,1.5596562676e+18,-0.5406615734,-1.027982354,-1.272601604
531,1.55965626766e+18,-0.09595166147,-1.852650404,-0.2200807035
532,1.55965626771e+18,-0.3628997803,-3.281464338,1.455522656
533,1.55965626776e+18,-0.1771967262,-5.299152374,2.91121459
534,1.55965626781e+18,0.4037361145,-3.488547564,3.559342623
535,1.55965626786e+18,0.3878535926,-2.406094313,3.980228662
536,1.55965626792e+18,0.2027614415,-1.973601818,2.266751766
537,1.55965626797e+18,0.08242098987,-0.2876136899,-0.6733427048
538,1.55965626802e+18,0.2516306639,0.9695469737,-2.381321907
539,1.55965626807e+18,0.5167461634,0.2126849592,-2.913385391
540,1.55965626812e+18,0.3915188015,0.9499993324,-3.138184071
541,1.55965626818e+18,0.3970166147,1.245047212,-2.936598301
542,1.55965626823e+18,0.721386075,2.115530252,-2.832751513
543,1.55965626828e+18,1.147770047,1.59995997,-2.705080509
544,1.55965626833e+18,1.040868521,0.6744990945,-2.281750917
545,1.55965626838e+18,0.5912717581,-0.122680068,-1.769235015
546,1.55965626844e+18,0.07264714688,-0.3761891425,-1.025201082
547,1.55965626849e+18,-0.3665649593,-1.712151527,-0.7130489349
548,1.55965626854e+18,-0.983538866,-1.34379971,-0.4070054591
549,1.55965626859e+18,-2.251084328,-4.685232639,-1.998309493
550,1.55965626864e+18,-0.6188523173,-7.722454548,-9.884579659
551,1.5596562687e+18,-0.2908176482,6.172896862,-2.706912994
552,1.55965626875e+18,-1.042181849,-1.337691069,-1.942109823
553,1.5596562688e+18,-1.288360596,1.646385789,0.6607869864
554,1.55965626885e+18,-1.062951326,3.111851215,2.162293673
555,1.5596562689e+18,-1.447185516,5.013474941,2.916712284
556,1.55965626896e+18,-3.153943062,5.390378952,4.57337904
557,1.55965626901e+18,-5.5882411,0.3415775001,7.438336849
558,1.55965626906e+18,-3.412950039,-6.566697598,5.233724117
559,1.55965626911e+18,-1.855854392,1.755730629,5.008925915
560,1.55965626916e+18,2.06101346,-0.885650754,-2.443630219
561,1.55965626922e+18,1.957166433,-2.190459013,-3.357484579
562,1.55965626927e+18,1.421437621,-0.7873014808,-2.746619463
563,1.55965626932e+18,0.1990962476,-0.4806470871,-2.169962645
564,1.55965626937e+18,-0.2786003649,-0.9858326316,-0.6531841159
565,1.55965626942e+18,-0.9890366197,-2.979696751,0.616193831
566,1.55965626948e+18,-0.9566607475,-4.095747471,2.074939966
567,1.55965626953e+18,-0.5858656168,-3.574068546,2.431685209
568,1.55965626958e+18,-0.2211790383,-2.7078619,2.900829792
569,1.55965626963e+18,0.2058157623,-2.133037567,2.844019175
570,1.55965626968e+18,0.1209055036,-1.060969114,1.629008412
571,1.55965626974e+18,-0.0611323379,0.1363268048,-0.07102958113
572,1.55965626979e+18,0.2846173942,0.2713280022,-1.156537056
573,1.55965626984e+18,0.6871775985,0.4625288248,-1.671496511
574,1.55965626989e+18,0.7433772087,0.5651541948,-2.14552784
575,1.55965626994e+18,0.7067252994,1.092941761,-2.296411514
576,1.55965627e+18,0.5240765214,0.7942286134,-2.411865234
577,1.55965627005e+18,0.3518125713,1.212060571,-2.146749735
578,1.5596562701e+18,0.2418568283,1.094163418,-1.97631824
579,1.55965627015e+18,0.4471075535,1.61339891,-1.918286085
580,1.5596562702e+18,0.7189425826,0.5254479647,-1.771678448
581,1.55965627026e+18,0.7867485881,0.554158628,-1.772289276
582,1.55965627031e+18,0.9437409639,2.062385082,-0.8071221709
583,1.55965627036e+18,0.9400758147,1.582855701,0.2527289987
584,1.55965627041e+18,1.409220338,-0.9345199466,0.6992715001
585,1.55965627046e+18,-0.736749351,-0.5496748686,-3.66169548
586,1.55965627052e+18,2.360948324,-2.980918407,-8.347642899
587,1.55965627057e+18,1.094624758,3.681177616,-2.730736732
588,1.55965627062e+18,-0.4526969492,-1.75430119,-2.379489183
589,1.55965627067e+18,-1.365940571,-0.902755022,-1.191356421
590,1.55965627072e+18,-1.774609327,-0.6070961952,1.388938308
591,1.55965627078e+18,-2.222984314,1.293916345,2.096931219
592,1.55965627083e+18,-2.970072746,3.128344774,3.292394638
593,1.55965627088e+18,-4.579702854,-0.4604885578,7.946576595
594,1.55965627093e+18,-4.835044384,-4.930800438,7.718724251
595,1.55965627098e+18,-1.529652357,-6.814098358,5.996695042
596,1.55965627104e+18,0.7653683424,1.815595388,-1.225564957
597,1.55965627109e+18,1.043922901,0.1027292088,-4.650075912
598,1.55965627114e+18,0.173439905,3.592602253,-3.143070698
599,1.55965627119e+18,-0.8515920043,2.681802273,-2.372769833
600,1.55965627124e+18,-0.829600811,0.1784764975,-2.312294245
601,1.5596562713e+18,-0.6548933983,-2.469624281,-1.468689203
602,1.55965627135e+18,-0.6127436757,-2.690146685,0.2606702447
603,1.5596562714e+18,-0.1906357706,-4.290613651,1.58685863
604,1.55965627145e+18,0.3108845949,-5.096344948,2.530034781
605,1.5596562715e+18,1.250395417,-5.738975048,2.727344036
606,1.55965627156e+18,1.717707276,-3.476941109,2.795150042
607,1.55965627161e+18,1.274829984,-1.501402974,2.330281734
608,1.55965627166e+18,0.05187772959,-0.3939042389,1.032804012
609,1.55965627171e+18,-0.676884532,0.306147337,-0.8028461337
610,1.55965627176e+18,-0.2034639418,1.09660697,-1.491902113
611,1.55965627182e+18,0.3334866166,0.596919179,-1.646450996
612,1.55965627187e+18,0.5863848329,0.2890431285,-1.989757299
613,1.55965627192e+18,0.5210222006,0.5449956656,-2.372769833
614,1.55965627197e+18,0.3988491893,1.383102775,-2.501662254
615,1.55965627202e+18,0.288282603,0.9689360857,-2.948815584
616,1.55965627208e+18,0.386631906,1.772834897,-2.967752695
617,1.55965627213e+18,0.3646407425,2.470442772,-2.800375462
618,1.55965627218e+18,0.2369698882,1.976863742,-2.45645833
619,1.55965627223e+18,0.8258439898,3.624367476,-0.9079149961
620,1.55965627228e+18,1.376844525,2.292681217,0.7389777303
621,1.55965627234e+18,0.9327453971,-1.041421413,1.195904851
622,1.55965627239e+18,-0.7972249985,-1.142825127,-3.813190222
623,1.55965627244e+18,-0.974375844,14.48494053,-3.734388351
624,1.55965627249e+18,-1.95237112,-6.068231583,-3.460720778
625,1.55965627254e+18,-1.566915154,-3.866062164,-0.4173901677
626,1.5596562726e+18,-0.6891018152,1.356835604,0.08413019776
627,1.55965627265e+18,-1.276143312,-1.873419762,-0.1706006229
628,1.5596562727e+18,-1.642662525,0.357460022,-0.3074344099
629,1.55965627275e+18,-1.397705436,1.906003475,-0.3563036621
630,1.5596562728e+18,-1.193676472,3.530905008,1.111605644
631,1.55965627286e+18,-2.668915987,3.755092621,2.875784397
632,1.55965627291e+18,-5.609621525,0.6115799546,6.900775433
633,1.55965627296e+18,-4.241283417,-3.328500986,7.486595154
634,1.55965627301e+18,-1.507661223,-7.0327878,5.567867756
635,1.55965627306e+18,-0.5339420438,1.909668565,2.294240713
636,1.55965627312e+18,1.67677927,-0.30410707,-6.062396049
637,1.55965627317e+18,0.8814327121,0.01293201745,-4.017829895
638,1.55965627322e+18,-0.2999806404,2.509538412,-2.714243412
639,1.55965627327e+18,-0.8900764585,-0.3755782843,-2.336117983
640,1.55965627332e+18,-0.3512933254,-2.369442463,-0.728320539
641,1.55965627338e+18,-0.1716989428,-3.343161583,0.6106960177
642,1.55965627343e+18,0.3402061164,-5.280215263,1.459798694
643,1.55965627348e+18,0.856998086,-6.270427704,1.891680479
644,1.55965627353e+18,1.758024454,-4.606431007,2.001025438
645,1.55965627358e+18,1.412274599,-1.778735757,1.818376541
646,1.55965627364e+18,0.6596886516,0.4997916222,0.6534566283
647,1.55965627369e+18,0.3328757286,0.6971010566,-1.209071517
648,1.55965627374e+18,0.6028781533,1.984805107,-1.92989254
649,1.55965627379e+18,0.8105723858,1.138145804,-2.301298618
650,1.55965627384e+18,0.7360467911,2.165621042,-2.440575838
651,1.55965627389e+18,0.7525401711,1.519325733,-2.153469324
652,1.55965627395e+18,1.049420595,1.742902398,-1.810163021
653,1.559656274e+18,0.8606633544,0.3220298588,-0.4632050693
654,1.55965627405e+18,0.0543211922,-0.5496748686,1.079229712
655,1.5596562741e+18,-0.7098712325,-2.963814259,1.318078041
656,1.55965627415e+18,-1.332342863,-4.04993248,0.7896795869
657,1.55965627421e+18,0.6572451591,-4.156834126,-4.805235386
658,1.55965627426e+18,-2.256582022,0.4765787423,0.9766042829
659,1.55965627431e+18,-2.780093431,-3.621105194,0.6504023075
660,1.55965627436e+18,-2.513756275,2.75205183,-1.314140439
661,1.55965627441e+18,-1.341505885,3.350699663,-1.516947627
662,1.55965627447e+18,-1.249265313,4.312812328,-1.160202265
663,1.55965627452e+18,-0.5479919314,6.934035301,-0.104016304
664,1.55965627457e+18,-1.1942873,8.44836998,3.065763474
665,1.55965627462e+18,-3.577272654,-0.6828435063,6.968581676
666,1.55965627467e+18,-1.758116007,-4.117127895,6.690637589
667,1.55965627473e+18,-1.378157854,4.770350456,3.991224289
668,1.55965627478e+18,2.344455004,-1.07562983,-4.588988781
669,1.55965627483e+18,2.605905294,-0.8838181496,-3.895657063
670,1.55965627488e+18,1.331640363,0.1265529543,-3.512033463
671,1.55965627493e+18,0.9370214939,-2.26803875,-2.160188675
672,1.55965627499e+18,0.6945080161,-3.013905287,-0.6452429295
673,1.55965627504e+18,0.4581031203,-4.131177902,1.330906153
674,1.55965627509e+18,0.9590126276,-5.074353695,2.803702116
675,1.55965627514e+18,1.403722525,-5.806170464,3.179995298
676,1.55965627519e+18,1.844156384,-4.386519432,2.522093534
677,1.55965627525e+18,1.52467382,-1.243006945,1.674823284
678,1.5596562753e+18,0.425727278,-0.03043941408,-0.1504420638
679,1.55965627535e+18,-0.3604562879,1.459460974,-1.667220473
680,1.5596562754e+18,-0.3347999454,1.777110815,-2.188288689
681,1.55965627545e+18,-0.6848257184,0.904184401,-3.09847784
682,1.55965627551e+18,-0.3121979535,2.280463934,-3.657419443
683,1.55965627556e+18,0.01828014106,2.587118149,-3.116192818
684,1.55965627561e+18,-0.2914285362,1.979307294,-1.515115023
685,1.55965627566e+18,-0.1716989428,0.8626455665,-0.06186660007
686,1.55965627571e+18,0.2846173942,-2.423198462,-1.464413166
687,1.55965627577e+18,-4.454474926,3.702558041,-2.545033932
688,1.55965627582e+18,-1.158246279,15.23569393,-1.071626782
689,1.55965627587e+18,-0.880302608,-6.469569683,-2.888950825
690,1.55965627592e+18,-2.155789375,0.4814656675,-0.8730956316
691,1.55965627597e+18,-1.56202817,-1.38350594,0.1494927853
692,1.55965627603e+18,-1.649992824,0.4405376911,1.108551264
693,1.55965627608e+18,-1.819813371,2.294513702,2.355937958
694,1.55965627613e+18,-2.500317335,6.042782784,3.36814189
695,1.55965627618e+18,-4.361623764,1.809486747,6.186673641
696,1.55965627623e+18,-5.321292877,-1.539887428,8.493300438
697,1.55965627629e+18,-1.678092599,-6.641222954,4.052310944
698,1.55965627634e+18,1.39211607,1.533375621,-1.424706936
699,1.55965627639e+18,2.474569321,-0.3822977841,-3.471716404
700,1.55965627644e+18,1.343246818,-0.9345199466,-3.361760855
701,1.55965627649e+18,0.3518125713,0.8626455665,-2.391095638
702,1.55965627655e+18,0.01278235577,0.7520789504,-1.196243405
703,1.5596562766e+18,-0.4612490833,-1.636404157,-0.03254506737
704,1.55965627665e+18,-1.011027813,-3.012072802,0.7878469825
705,1.5596562767e+18,-1.000032187,-2.077448845,1.154976964
706,1.55965627675e+18,-0.7110929489,-0.8288402557,1.195294023
707,1.55965627681e+18,0.04699081182,-1.319365144,0.4506493509
708,1.55965627686e+18,0.8160701394,-0.7213280201,-0.01788430288
709,1.55965627691e+18,1.065303206,-0.902755022,-0.8407197595
710,1.55965627696e+18,1.290712357,-0.5020273924,-1.331244588
711,1.55965627701e+18,1.411052823,0.4191574156,-1.546880007
712,1.55965627707e+18,1.324920893,1.57002759,-1.371561646
713,1.55965627712e+18,0.8594415784,0.7966721058,-1.173030496
714,1.55965627717e+18,0.2045940459,0.04469700903,-0.3642449081
715,1.55965627722e+18,-0.2877633274,-0.6187026501,0.214855358
716,1.55965627727e+18,-1.893117189,-3.921651125,-0.7851310372
717,1.55965627733e+18,-0.7153690457,3.95789957,-1.023368478
718,1.55965627738e+18,-0.7074277997,2.783816576,-2.467453957
719,1.55965627743e+18,-1.312795162,-0.2546269596,-1.680659533
720,1.55965627748e+18,-1.059896946,2.027565479,-0.3306473196
721,1.55965627753e+18,-1.48567009,2.621326685,1.227669954
722,1.55965627759e+18,-2.741609097,5.234607697,3.369363546
723,1.55965627764e+18,-4.775179386,0.8980757594,7.229420662
724,1.55965627769e+18,-3.27000761,-4.466543198,6.328394413
725,1.55965627774e+18,-1.985357881,4.497904778,4.858041763
726,1.55965627779e+18,2.172801733,-3.811695337,-2.752117157
727,1.55965627785e+18,1.673725009,0.2456716746,-3.567622423
728,1.5596562779e+18,1.094624758,1.440524101,-2.961032867
729,1.55965627795e+18,0.1722181886,0.6219646335,-2.339172125
730,1.559656278e+18,0.06837109476,-1.100064397,-1.834597588
731,1.55965627805e+18,-0.1594816446,-1.594865322,-1.03925097
732,1.55965627811e+18,-0.2278985381,-1.736586094,0.05114347115
733,1.55965627816e+18,-0.2468353659,-2.294917107,0.5459443331
734,1.55965627821e+18,0.00972802937,-1.76102066,0.9142960906
735,1.55965627826e+18,0.1819920391,-0.8331163526,0.7921229601
736,1.55965627831e+18,0.7745313048,-1.321808577,0.02793059126
737,1.55965627837e+18,0.8631067276,-0.7824145555,-0.7533660531
738,1.55965627842e+18,1.020099163,-0.3059396446,-1.029477119
739,1.55965627847e+18,1.027429581,0.353183955,-1.14859581
740,1.55965627852e+18,0.9333562851,1.095996141,-0.772913754
741,1.55965627857e+18,0.4752073288,-0.00172874867,-0.3727969825
742,1.55965627863e+18,0.2045940459,-0.3438133001,0.2753310204
743,1.55965627868e+18,0.134344548,-0.5783855319,0.9680522084
744,1.55965627873e+18,0.2656805813,-3.454949856,0.9821020961
745,1.55965627878e+18,-2.555906057,-3.149517298,-1.720365763
746,1.55965627883e+18,-1.21078074,8.55221653,2.482998133
747,1.55965627889e+18,-1.172296286,-1.051195145,-2.391706467
748,1.55965627894e+18,-1.32684505,0.8333240151,-2.068558931
749,1.55965627899e+18,-1.069670916,1.587742686,-0.7136597633
750,1.55965627904e+18,-1.542480588,2.870559454,0.8764224052
751,1.55965627909e+18,-2.485045671,5.36166811,1.814100623
752,1.55965627915e+18,-5.065340519,1.364165902,5.779838085
753,1.5596562792e+18,-4.500900745,-2.679761887,7.522025585
754,1.55965627925e+18,-0.4930140674,-4.966230392,3.230696917
755,1.5596562793e+18,1.334083915,1.701363564,-1.103391886
756,1.55965627935e+18,2.598574877,-2.231997728,-3.841900587
757,1.55965627941e+18,1.225349903,-2.301025629,-4.241406918
758,1.55965627946e+18,0.6486930251,-0.1110736281,-3.204157352
759,1.55965627951e+18,0.8484460115,0.9945924878,-1.761904597
760,1.55965627956e+18,0.566837132,-1.843487382,0.009604634717
761,1.55965627961e+18,0.5717240572,-5.066412449,2.129307032
762,1.55965627967e+18,1.02132082,-7.203830242,3.448775768
763,1.55965627972e+18,1.911351562,-6.585634232,2.883725643
764,1.55965627977e+18,2.005424738,-1.40671885,1.887404442
765,1.55965627982e+18,0.6267018914,-0.04143498838,-0.3685209751
766,1.55965627987e+18,-0.2346180677,0.8137763739,-2.078943491
767,1.55965627993e+18,-0.2895959616,1.408759117,-2.476006031
768,1.55965627998e+18,-0.259663552,0.6848837733,-2.365439415
769,1.55965628003e+18,-0.5571548939,2.127747536,-2.730736732
770,1.55965628008e+18,-0.3671758473,2.126525879,-2.554807663
771,1.55965628013e+18,-0.3030349612,3.701947212,-1.665998816
772,1.55965628019e+18,-0.6145762205,2.130801678,-1.013594627
773,1.55965628024e+18,-0.3683975637,2.112475872,-0.1260074526
774,1.55965628029e+18,-0.1503186673,0.4747461677,0.00105252082
775,1.55965628034e+18,0.4043469727,-0.323043853,-0.5023004413
776,1.55965628039e+18,1.093402982,-1.903352261,-1.752741575
777,1.55965628045e+18,0.9370214939,1.479619503,-3.939028263
778,1.5596562805e+18,2.127597809,6.320115566,-2.769221544
779,1.55965628055e+18,-0.05991061032,-2.759785414,-1.304977417
780,1.5596562806e+18,-1.047068834,-1.265608907,-0.07286217809
781,1.55965628065e+18,-1.64449501,-2.36394453,0.8061729074
782,1.55965628071e+18,-2.007349014,-0.8477771282,1.197737575
783,1.55965628076e+18,-1.762392044,1.557199359,1.369390607
784,1.55965628081e+18,-1.251097798,2.862618446,1.793331146
785,1.55965628086e+18,-2.47588253,2.653702497,3.879436016
786,1.55965628091e+18,-2.715341806,-0.8276185393,7.354037762
787,1.55965628097e+18,-1.95237112,-5.435375214,6.58373642
788,1.55965628102e+18,-0.09656251967,1.555977702,5.589859009
789,1.55965628107e+18,1.133109212,0.2597215772,-2.286026955
790,1.55965628112e+18,1.284603715,1.874238372,-3.678799868
791,1.55965628117e+18,0.1990962476,0.7697940469,-2.970196009
792,1.55965628123e+18,-0.9615477324,0.4613071084,-1.88346684
793,1.55965628128e+18,-1.046458006,-0.007837400772,-1.848647475
794,1.55965628133e+18,-0.4288732409,-0.4165062606,-1.523056269
795,1.55965628138e+18,-0.3726736009,-2.390822649,-0.4222770929
796,1.55965628143e+18,-0.3519042134,-4.482425213,0.7744079232
797,1.55965628149e+18,0.1135751158,-5.812889576,1.994916677
798,1.55965628154e+18,0.3579212129,-6.169024467,3.052324533
799,1.55965628159e+18,0.8234004974,-3.444565296,2.556912661
800,1.55965628164e+18,0.9058673978,-2.00292325,1.928943276
801,1.55965628169e+18,0.6932862401,-1.092123151,0.4036127329
802,1.55965628175e+18,0.3023324907,0.6848837733,-1.312307715
803,1.5596562818e+18,0.2497980595,1.411813498,-2.61161828
804,1.55965628185e+18,0.283395648,1.811319351,-3.110695124
805,1.5596562819e+18,-0.08923213929,1.667155147,-3.458277225
806,1.55965628195e+18,-0.2248442173,2.803975344,-3.204768419
807,1.55965628201e+18,-0.2633287311,0.9273972511,-2.918883324
808,1.55965628206e+18,-0.4728555381,0.9188451767,-2.366050243
809,1.55965628211e+18,-0.4655251503,0.05141652748,-1.4864043
810,1.55965628216e+18,-0.1881923079,-1.530113697,-1.337964058
811,1.55965628221e+18,0.2302503884,-0.6345851421,-0.9665580392
812,1.55965628227e+18,0.01461495087,-0.7567581534,-0.8492718935
813,1.55965628232e+18,-0.8570897579,-1.887469769,-1.053300858
814,1.55965628237e+18,-1.485059261,-3.921651125,-0.8285024762
815,1.55965628242e+18,-3.76725173,-4.540457726,-1.289094806
816,1.55965628247e+18,-6.126413345,-0.7653102875,-2.22188592
817,1.55965628253e+18,-1.400148869,-2.326071024,-3.286013365
818,1.55965628258e+18,-0.7917271852,-3.733504534,-1.83398664
819,1.55965628263e+18,0.386631906,-2.714581251,0.7750188112
820,1.55965628268e+18,1.277273417,-1.523393989,1.952156186
821,1.55965628273e+18,1.50451529,0.0856249854,0.4616449177
822,1.55965628279e+18,1.445261359,2.210825205,0.5251749158
823,1.55965628284e+18,1.591258168,5.422754288,1.601519465
824,1.55965628289e+18,0.6890102029,6.635932922,2.424965858
825,1.55965628294e+18,-0.1008385792,6.979850292,3.05354619
826,1.55965628299e+18,-0.2437810451,10.37381744,4.842159748
827,1.55965628305e+18,-3.95600915,6.01712656,6.635660172
828,1.5596562831e+18,-4.708595276,-1.982764721,7.243470669
829,1.55965628315e+18,-1.541258812,0.1485441029,4.197085857
830,1.5596562832e+18,1.078131318,4.497293949,-0.6153104901
831,1.55965628325e+18,2.553981781,-1.104340553,-2.304352999
832,1.55965628331e+18,2.086669922,-2.574693203,-3.071599722
833,1.55965628336e+18,1.012768745,-2.998633623,-2.061228514
834,1.55965628341e+18,0.1447292417,-4.184323311,0.1116191298
835,1.55965628346e+18,-0.530887723,-6.104883194,2.222158432
836,1.55965628351e+18,-0.02814561687,-8.103023529,4.621026516
837,1.55965628357e+18,0.7409337163,-5.682775497,4.072469711
838,1.55965628362e+18,0.6743494272,-1.551493883,3.789027929
839,1.55965628367e+18,0.3658624589,-1.819663644,2.594786406
840,1.55965628372e+18,0.3059976697,0.3079799116,1.579528332
841,1.55965628377e+18,0.3890753388,0.2389521599,0.5123467445
842,1.55965628383e+18,0.6712951064,0.3476861715,-0.591486752
843,1.55965628388e+18,0.8307309151,0.5059002638,-1.487626076
844,1.55965628393e+18,0.6505256891,1.119208932,-2.206003666
845,1.55965628398e+18,0.6273127794,0.8681433797,-2.490666866
846,1.55965628403e+18,0.4886463881,1.014140129,-2.568246603
847,1.55965628409e+18,0.4489401579,2.069104433,-2.219442606
848,1.55965628414e+18,0.3218801618,0.6799969077,-2.180958271
849,1.55965628419e+18,0.3670842052,1.526045322,-1.93294692
850,1.55965628424e+18,0.433668524,0.5211718678,-2.14858222
851,1.55965628429e+18,0.1984854043,2.194331884,-2.30068779
852,1.55965628435e+18,0.224141717,1.624394536,-2.452793121
853,1.5596562844e+18,0.6578561068,2.460058212,-1.955548882
854,1.55965628445e+18,0.952903986,1.602403402,-0.2463479042
855,1.5596562845e+18,0.9076999426,0.1424354613,1.195294023
856,1.55965628455e+18,0.4574922621,0.7679615021,2.118311405
857,1.55965628461e+18,0.523465693,0.808889389,2.176343679
858,1.55965628466e+18,0.5265200138,-2.48917222,0.8299966455
859,1.55965628471e+18,2.251603603,-8.602100372,-3.231035471
860,1.55965628476e+18,0.390297085,8.984098434,1.147646666
861,1.55965628481e+18,-0.5241681933,-3.303455353,0.4414863586
862,1.55965628487e+18,0.6389192343,3.184544325,1.442083597
863,1.55965628492e+18,0.5301852226,0.8418761492,1.363892794
864,1.55965628497e+18,0.3793015182,0.2701062858,1.256991506
865,1.55965628502e+18,0.1752725095,1.117987275,0.7120996714
866,1.55965628507e+18,-1.01224947,-0.1251235306,-0.7778006792
867,1.55965628513e+18,-1.894338965,-0.7054454684,-1.363009572
868,1.55965628518e+18,-2.463054419,-0.8300620317,-2.865127087
869,1.55965628523e+18,-2.324388266,-0.3853521049,-4.298828125
870,1.55965628528e+18,-2.927311897,3.212644339,-1.951883674
871,1.55965628533e+18,-3.839334011,0.3049255908,2.407250643
872,1.55965628539e+18,-0.9145110846,-0.3248764575,6.993627071
873,1.55965628544e+18,-3.104462862,5.301803112,7.469491005
874,1.55965628549e+18,1.239399791,-7.812862873,-1.127215624
875,1.55965628554e+18,0.8007985353,-5.137272835,-6.447241306
876,1.55965628559e+18,-0.2309528738,3.178435802,-5.725198269
877,1.55965628565e+18,-0.5577657819,2.629878759,-2.752727985
878,1.5596562857e+18,-0.43253842,0.3037038743,-2.413086891
879,1.55965628575e+18,-0.7923380136,-2.325460196,-1.078957319
880,1.5596562858e+18,-0.7911163568,-5.165372372,1.225837231
881,1.55965628585e+18,0.4574922621,-7.879446983,2.898386478
882,1.55965628591e+18,1.364627242,-8.79818821,3.469545364
883,1.55965628596e+18,1.923568845,-6.5068326,2.936870813
884,1.55965628601e+18,0.9357997179,-1.464751005,2.42802
885,1.55965628606e+18,-0.6866583228,1.809486747,1.721248984
886,1.55965628611e+18,-1.288360596,2.435623646,0.2276835293
887,1.55965628617e+18,-0.4429231286,1.916998982,-0.6146996617
888,1.55965628622e+18,0.4629900455,1.183349848,-0.7545877695
889,1.55965628627e+18,1.247951865,1.249323249,-0.9219648242
890,1.55965628632e+18,1.562547445,0.207798034,-1.236560464
891,1.55965628637e+18,1.384174824,0.7704049349,-1.396607161
892,1.55965628643e+18,0.9370214939,0.887691021,-1.703872442
893,1.55965628648e+18,0.4837594628,0.5859236717,-1.815049767
894,1.55965628653e+18,0.271178335,1.393487453,-1.636066318
895,1.55965628658e+18,0.1990962476,1.121652484,-1.763126373
896,1.55965628663e+18,0.3884644806,1.137534857,-1.838873625
897,1.55965628669e+18,0.3316540122,1.048959494,-1.85047996
898,1.55965628674e+18,0.2369698882,0.8809715509,-1.171197891
899,1.55965628679e+18,0.1245706975,0.2047436982,-0.4167793095
900,1.55965628684e+18,0.04332561791,-0.2234728336,0.5129575729
901,1.55965628689e+18,0.2027614415,-1.392668962,1.930164933
902,1.55965628695e+18,0.3683059514,-2.991914034,3.007120371
903,1.559656287e+18,-0.6787170768,-5.365125656,2.246593237
904,1.55965628705e+18,-2.522919178,-2.122652769,1.112216473
905,1.5596562871e+18,-0.2926502824,-0.07381084561,0.6467370391
906,1.55965628715e+18,-0.1735315472,-3.566738367,2.446957111
907,1.55965628721e+18,1.563158274,-1.191083431,2.399309635
908,1.55965628726e+18,1.202136993,-0.748206079,0.9821020961
909,1.55965628731e+18,0.6554126143,2.450284481,-0.4796984196
910,1.55965628736e+18,-0.05319108814,2.422795296,-1.612853527
911,1.55965628741e+18,-0.4288732409,4.359848976,-2.22188592
912,1.55965628747e+18,-0.353736788,4.009212494,-2.894448757
913,1.55965628752e+18,-0.9554390907,4.303649426,-2.528540611
914,1.55965628757e+18,-1.843637109,4.04403162,-2.368493557
915,1.55965628762e+18,-1.602956176,6.317672253,-2.18523407
916,1.55965628767e+18,-0.3433520794,7.649969101,-0.8718739152
917,1.55965628773e+18,-2.561403751,2.459447384,3.720611095
918,1.55965628778e+18,-3.352474451,-1.205744147,7.076704502
919,1.55965628783e+18,-1.730016232,-3.581399202,4.241068363
920,1.55965628788e+18,1.438541889,3.339704037,-0.9604493976
921,1.55965628793e+18,3.457451344,-1.368234277,-3.77775979
922,1.55965628799e+18,1.14043963,-0.5863267779,-3.634817362
923,1.55965628804e+18,0.7274947166,-1.310202122,-2.137586594
924,1.55965628809e+18,0.2021505684,-2.16846776,-1.413711429
925,1.55965628814e+18,-0.1649794281,-3.107978582,-0.1253965795
926,1.55965628819e+18,-0.3103653491,-4.826952934,1.562424064
927,1.55965628825e+18,-0.1613142341,-7.548357964,2.529423714
928,1.5596562883e+18,1.260169148,-7.379148483,3.138456345
929,1.55965628835e+18,1.50818038,-2.896008253,4.07308054
930,1.5596562884e+18,0.6761820316,0.84493047,3.867218733
931,1.55965628845e+18,-0.4392579198,0.2023002505,2.079826832
932,1.55965628851e+18,-0.7727903724,0.6696121693,0.1818686426
933,1.55965628856e+18,-0.1558164507,1.856523275,-0.5304002762
934,1.55965628861e+18,0.378079772,0.5779823661,-0.882258594
935,1.55965628866e+18,0.6389192343,0.4698592126,-1.341018438
936,1.55965628871e+18,0.6089867949,0.7245900035,-1.68493557
937,1.55965628877e+18,0.6633538008,0.1735895723,-1.62201643
938,1.55965628882e+18,0.5503437519,0.2444499582,-1.736248255
939,1.55965628887e+18,0.5081940889,0.3708990514,-1.736248255
940,1.55965628892e+18,0.6969513893,0.8418761492,-1.670274734
941,1.55965628897e+18,0.5607284307,0.9878728986,-1.794891357
942,1.55965628903e+18,0.5063614845,1.125317574,-1.947607636
943,1.55965628908e+18,0.7238295078,1.293305516,-1.695320368
944,1.55965628913e+18,1.079964042,1.606068611,-1.190134764
945,1.55965628918e+18,0.9486279488,1.204730153,-0.532232821
946,1.55965628923e+18,0.2901151776,0.9102931023,0.3681825399
947,1.55965628929e+18,-0.4942358136,2.902324677,1.452468395
948,1.55965628934e+18,-0.3726736009,1.942655325,1.190407157
949,1.55965628939e+18,0.1954310536,-0.2088120729,0.9295676947
950,1.55965628944e+18,0.7323815823,-1.835546255,1.095723033
951,1.55965628949e+18,0.4361119568,-4.744486332,0.05541953072
952,1.55965628955e+18,2.348120213,-3.894162178,-3.540744066
953,1.5596562896e+18,1.532004237,1.50710845,2.773769855
954,1.55965628965e+18,0.3566994965,0.8834149837,1.821430922
955,1.5596562897e+18,0.8612741828,2.947528601,0.3535217643
956,1.55965628975e+18,-0.1057255045,0.4539767206,-0.7527551651
957,1.5596562898e+18,-0.05929974467,0.3055364788,-1.174252152
958,1.55965628986e+18,-1.167409301,-0.7213280201,-1.98609221
959,1.55965628991e+18,-2.115472078,-2.230776072,-2.304352999
960,1.55965628996e+18,-2.494819641,-3.13180232,-1.080789804
961,1.55965629001e+18,-2.990842104,-3.339496374,1.368779778
962,1.55965629006e+18,-4.501511574,1.317129254,5.70592308
963,1.55965629012e+18,-4.171033859,-2.633336067,7.374807358
964,1.55965629017e+18,-4.731808186,12.41410732,9.95754528
965,1.55965629022e+18,-0.157038182,6.368984699,0.333363235
966,1.55965629027e+18,1.729313731,-6.629005909,-5.332412243
967,1.55965629032e+18,-0.4716337919,3.871156931,-0.7631399035
968,1.55965629038e+18,-0.4807967544,4.588923454,0.02915232256
969,1.55965629043e+18,0.5680588484,-1.100675344,-0.5701065063
970,1.55965629048e+18,0.8441699743,-2.968090296,-1.221899629
971,1.55965629053e+18,0.8753240705,-1.345632315,-1.25427556
972,1.55965629058e+18,0.6163172126,-1.789731264,-1.00931859
973,1.55965629064e+18,0.6590777636,-2.469624281,-0.5652195215
974,1.55965629069e+18,0.5723348856,-2.960760117,-0.02216035873
975,1.55965629074e+18,0.8557763696,-2.650440454,0.003495981684
976,1.55965629079e+18,0.8967043161,-3.158069611,0.4646992385
977,1.55965629084e+18,0.9467952847,-2.42380929,0.4482058585
978,1.5596562909e+18,0.6493039727,-1.399388433,1.125655413
979,1.55965629095e+18,0.3182149529,-1.431153417,0.9399523735
980,1.559656291e+18,0.01522581559,-0.8624378443,1.049908161
981,1.55965629105e+18,-0.09167559445,-0.8551074862,0.8061729074
982,1.5596562911e+18,0.02438879572,-0.02433076315,0.43110165
983,1.55965629116e+18,0.3322649002,0.3910576105,-0.09668592364
984,1.55965629121e+18,0.6065434217,-0.1556667984,-0.3746296167
985,1.55965629126e+18,0.7940790057,0.21573928,-0.5603326559
986,1.55965629131e+18,0.7439880371,0.4527550042,-0.6959447265
987,1.55965629136e+18,0.5912717581,0.5291131735,-0.7044968009
988,1.55965629142e+18,0.3982383013,1.297581673,-0.6373016238
989,1.55965629147e+18,0.2180330753,0.5547694564,-0.8052896261
990,1.55965629152e+18,0.07020369172,0.3269167542,-0.7270988822
991,1.55965629157e+18,0.02438879572,0.5547694564,-0.9164671302
992,1.55965629162e+18,-0.04158465192,0.9102931023,-1.036807537
993,1.55965629168e+18,0.03049744852,0.3757859766,-1.177917361
994,1.55965629173e+18,0.08608618379,1.055068135,-1.157758832
995,1.55965629178e+18,0.2180330753,0.6928250194,-1.320249081
996,1.55965629183e+18,0.4745964706,0.7734592557,-1.417987466
997,1.55965629188e+18,0.6639647484,0.8174415231,-1.457082748
998,1.55965629194e+18,0.5705023408,0.6793859601,-1.664776921
999,1.55965629199e+18,0.4880355299,1.458850145,-1.502897739
1000,1.55965629204e+18,0.6725168228,0.6378471851,-1.462580562
1001,1.55965629209e+18,0.6822906733,1.13936758,-1.133324265
1002,1.55965629214e+18,0.2388024926,1.615231514,-0.8034570217
1003,1.55965629219e+18,-0.1991878748,-0.3499219418,-0.9366255999
1004,1.55965629225e+18,-0.2731025815,-0.3138808906,-0.8217829466
1005,1.5596562923e+18,-0.3396869004,-0.07381084561,-0.5682738423
1006,1.55965629235e+18,-0.337854296,-1.553326368,-0.05392535031
1007,1.5596562924e+18,-0.3891669512,-2.462293863,0.7896795869
1008,1.55965629245e+18,-0.8760265708,-5.613136768,1.340680003
1009,1.55965629251e+18,-3.033602476,-4.793355942,0.1543796957
1010,1.55965629256e+18,-3.810012341,2.457003832,-2.099713087
1011,1.55965629261e+18,-2.510091066,-1.527059317,-0.08141428232
1012,1.55965629266e+18,-1.420307517,-4.217309475,-2.116206408
1013,1.55965629271e+18,0.3982383013,1.3745507,-1.400883198
1014,1.55965629277e+18,0.3573103547,3.922469378,-1.070405126
1015,1.55965629282e+18,0.5949369669,4.880306244,0.3987258077
1016,1.55965629287e+18,0.07264714688,5.585855484,1.107940316
1017,1.55965629292e+18,-0.8265464902,10.41169167,2.829358578
1018,1.55965629297e+18,-3.09835434,2.7618258,5.688818932
1019,1.55965629303e+18,-3.000616074,-0.6364177465,9.368060112
1020,1.55965629308e+18,0.3683059514,-0.1434494853,6.499436855
1021,1.55965629313e+18,1.246119261,4.378175259,-4.164437294
1022,1.55965629318e+18,1.689607382,1.710526466,-3.922534943
1023,1.55965629323e+18,0.3756363094,-1.092734098,-3.749049425
1024,1.55965629329e+18,0.1294576079,-0.7640885711,-2.560916185
1025,1.55965629334e+18,-0.1814727932,1.01719451,-1.545047402
1026,1.55965629339e+18,-0.3696192801,0.9597731233,-0.08080342412
1027,1.55965629344e+18,-0.8088313937,-3.558186293,2.029736042
1028,1.55965629349e+18,-0.1045037657,-7.18550396,3.462215185
1029,1.55965629355e+18,1.285214663,-6.285089016,3.860498905
1030,1.5596562936e+18,1.340803385,-3.39386344,3.391354799
1031,1.55965629365e+18,0.8637176752,-0.6382502913,2.282634258
1032,1.5596562937e+18,-0.3109762371,1.17296505,1.128709674
1033,1.55965629375e+18,-0.7092604041,0.3220298588,-0.4723680317
1034,1.55965629381e+18,-0.529665947,0.8070568442,-1.111333132
1035,1.55965629386e+18,-0.0501367636,1.109435201,-1.38377893
1036,1.55965629391e+18,0.4074012935,0.5358326435,-1.359344363
1037,1.55965629396e+18,0.6902319193,0.4411485493,-1.239003897
1038,1.55965629401e+18,0.7684226632,-0.3108265698,-1.116219997
1039,1.55965629407e+18,0.7311599255,-0.5704442859,-0.8743174076
1040,1.55965629412e+18,0.5332395434,-1.169092298,-0.5774368644
1041,1.55965629417e+18,0.3102737367,-0.7549256086,-0.2658956051
1042,1.55965629422e+18,0.004841106944,0.01659720764,0.4158300161
1043,1.55965629427e+18,-0.2712699771,-0.8013513684,0.3321414888
1044,1.55965629433e+18,-0.6212957501,-0.2686768472,0.4640883803
1045,1.55965629438e+18,-1.125259638,-0.6816217899,-0.3245386779
1046,1.55965629443e+18,-1.728794456,-0.7139976025,-0.925019145
1047,1.55965629448e+18,-2.081263781,-0.9479590058,-0.88348037
1048,1.55965629453e+18,-2.094702721,-3.041394234,-1.430204749
1049,1.55965629459e+18,-1.021412492,-0.7952426672,-2.23471427
1050,1.55965629464e+18,-0.9584934115,-1.462918401,-2.466843128
1051,1.55965629469e+18,-2.087372303,-0.9656741619,-3.766153574
1052,1.55965629474e+18,-2.719007015,2.281074762,-5.834542751
1053,1.55965629479e+18,0.2638479471,13.69387054,-4.696500778
1054,1.55965629485e+18,0.6670190692,-0.8037948012,-3.391693115
1055,1.5596562949e+18,0.01828014106,-0.3700805008,-2.620780945
1056,1.55965629495e+18,0.386021018,2.59994626,-2.156523466
1057,1.559656295e+18,0.5387372971,1.406926513,-1.642175078
1058,1.55965629505e+18,-0.634123981,1.563308001,-0.7185467482
1059,1.55965629511e+18,-2.438619852,2.034285069,0.2032489181
1060,1.55965629516e+18,-4.014041424,3.201037884,2.140913486
1061,1.55965629521e+18,-5.052512169,5.025081635,4.322924137
1062,1.55965629526e+18,-7.093412876,3.800907373,5.19951582
1063,1.55965629531e+18,-8.569263458,-0.2979983687,6.415748596
1064,1.55965629537e+18,-5.517991543,-6.032801151,7.337543964
1065,1.55965629542e+18,-0.5687613487,5.368387699,6.884892941
1066,1.55965629547e+18,2.743350029,-2.152585268,-3.187664032
1067,1.55965629552e+18,2.403708935,-4.55939436,-3.859004974
1068,1.55965629557e+18,1.025596976,-1.385338545,-2.480893135
1069,1.55965629563e+18,0.2363590449,-0.409786731,-1.783895731
1070,1.55965629568e+18,0.02438879572,-2.338288307,-0.8358328938
1071,1.55965629573e+18,-0.1655903012,-4.43355608,0.183090359
1072,1.55965629578e+18,-0.3329673707,-6.11160326,1.459187865
1073,1.55965629583e+18,-0.03486513346,-5.607639313,2.409083366
1074,1.55965629589e+18,0.173439905,-2.764672279,2.434129
1075,1.55965629594e+18,-0.2333963364,1.458850145,2.262475491
1076,1.55965629599e+18,-0.6194632053,0.8950214386,1.969871163
1077,1.55965629604e+18,-0.6585585475,-0.09335853904,0.6479588151
1078,1.55965629609e+18,-0.4380362034,0.3935010731,0.08901711553
1079,1.55965629615e+18,0.1563356966,0.3250841796,-0.1504420638
1080,1.5596562962e+18,0.661521256,-0.1324539185,-0.3691318035
1081,1.55965629625e+18,0.8105723858,-0.2466857135,-0.4406030476
1082,1.5596562963e+18,0.8551655412,-0.5796073079,-0.8449958563
1083,1.55965629635e+18,0.5570632815,-0.2876136899,-0.3581362367
1084,1.55965629641e+18,0.3457039297,-0.370691359,-0.05087102577
1085,1.55965629646e+18,0.08608618379,-0.002950479044,0.1531579792
1086,1.55965629651e+18,0.06837109476,0.2023002505,0.2350139171
1087,1.55965629656e+18,-0.03303254023,-0.08053036779,0.1574340165
1088,1.55965629661e+18,-0.1533729881,0.1894720793,0.08229760081
1089,1.55965629667e+18,-0.3354108334,0.5755388737,-0.178541854
1090,1.55965629672e+18,-0.4453665912,0.4747461677,-1.034363985
1091,1.55965629677e+18,-0.2523331642,0.4619179666,-1.477241278
1092,1.55965629682e+18,-0.07029531896,1.214503884,-1.139432907
1093,1.55965629687e+18,-0.7666817307,-2.898451567,-0.9879382849
1094,1.55965629693e+18,-1.712301135,-0.7170519233,-2.31046176
1095,1.55965629698e+18,-2.201604366,-0.8948137164,-3.216985703
1096,1.55965629703e+18,-0.7801207304,3.627421618,-5.997033119
1097,1.55965629708e+18,1.771463394,6.187558174,-4.557835102
1098,1.55965629713e+18,-0.4508643746,0.005601634271,-3.610382795
1099,1.55965629719e+18,-0.07579310238,2.484493017,-1.937833786
1100,1.55965629724e+18,0.8026310802,3.298165321,-1.240225673
1101,1.55965629729e+18,0.9150303602,4.674444675,-0.730153203
1102,1.55965629734e+18,0.4098447561,2.905378819,0.5135684609
1103,1.55965629739e+18,-1.418474913,2.462501764,1.238054633
1104,1.55965629745e+18,-4.105060101,3.397736311,4.324145794
1105,1.5596562975e+18,-6.693296432,-1.33036077,8.08829689
1106,1.55965629755e+18,-3.153943062,-8.163499832,5.194628716
1107,1.5596562976e+18,0.03660609946,6.388532639,0.8324401379
1108,1.55965629765e+18,0.1288467497,5.981696129,-2.992187262
1109,1.55965629771e+18,-0.821659565,0.3464644551,-1.760682821
1110,1.55965629776e+18,-1.873569608,0.9365602136,-1.626903296
1111,1.55965629781e+18,-1.74040091,0.0752402693,-1.637288094
1112,1.55965629786e+18,-1.422140121,-1.258278608,-1.262827635
1113,1.55965629791e+18,-1.069059968,-3.506873608,-0.5383414626
1114,1.55965629797e+18,-0.7911163568,-4.211201191,0.2282943875
1115,1.55965629802e+18,-0.5889199376,-4.434777737,1.225837231
1116,1.55965629807e+18,-0.01348484959,-3.789704084,1.814100623
1117,1.55965629812e+18,0.1514487565,-3.097593784,1.926499724
1118,1.55965629817e+18,0.2461328804,-2.390211821,1.036469102
1119,1.55965629823e+18,0.3328757286,-0.5185207725,0.4579797387
1120,1.55965629828e+18,0.5081940889,-0.1984273493,-0.6287495494
1121,1.55965629833e+18,0.8435590863,0.5095654726,-1.153482795
1122,1.55965629838e+18,1.17342627,0.4790221751,-1.271379709
1123,1.55965629843e+18,1.245508432,0.2951517701,-1.501676083
1124,1.55965629849e+18,1.150824308,0.503456831,-1.755795956
1125,1.55965629854e+18,1.06102705,0.5474390984,-2.066115379
1126,1.55965629859e+18,1.153878689,1.191290975,-2.078943491
1127,1.55965629864e+18,1.384785652,0.5077328682,-2.030074358
1128,1.55965629869e+18,1.434265733,1.7819978,-1.413100481
1129,1.55965629875e+18,1.151435137,0.3043147326,-1.177306533
1130,1.5596562988e+18,0.9272476435,1.534597278,-0.625695169
1131,1.55965629885e+18,0.7977442145,0.2963735163,-0.3239277899
1132,1.5596562989e+18,0.369527638,1.620729327,-0.02093862742
1133,1.55965629895e+18,0.8606633544,2.555353165,-0.07958168536
1134,1.55965629901e+18,-0.6738302112,-0.9192483425,-0.9286844134
1135,1.55965629906e+18,2.881405592,8.985320091,-0.6953338385
1136,1.55965629911e+18,-1.030575395,-1.715816617,-0.5389523506
1137,1.55965629916e+18,-1.880289078,-1.069521189,0.8910831809
1138,1.55965629921e+18,-1.293247581,-0.06648045778,0.8159467578
1139,1.55965629927e+18,-0.5614309907,-2.004144907,-0.5560565591
1140,1.55965629932e+18,-0.2370615304,-0.7592016459,-1.11866343
1141,1.55965629937e+18,-0.9994212985,1.194345474,-0.7472574115
1142,1.55965629942e+18,-2.774595737,0.5712628961,0.1250581592
1143,1.55965629947e+18,-2.556516886,-2.396320581,5.2954216
1144,1.55965629953e+18,-1.877234697,-3.324224949,6.807312965
1145,1.55965629958e+18,0.8447808027,5.52721262,2.463450432
1146,1.55965629963e+18,2.346287489,-4.591159344,-5.460693836
1147,1.55965629968e+18,0.9193063974,0.502235055,-5.114943981
1148,1.55965629973e+18,-0.1381013691,1.253599405,-2.930489779
1149,1.55965629979e+18,-0.1625359654,-0.1599428356,-2.59207058
1150,1.55965629984e+18,-0.1900248975,-2.143422365,-0.7613072991
1151,1.55965629989e+18,-0.2810438275,-4.539846897,1.478735566
1152,1.55965629994e+18,0.8221788406,-5.88069582,3.171443224
1153,1.55965629999e+18,1.736033201,-7.173897266,3.675406933
1154,1.55965630005e+18,2.486175776,-4.816568851,2.663814306
1155,1.5596563001e+18,1.811169624,-0.3187678158,2.343109846
1156,1.55965630015e+18,0.3059976697,0.4497006536,1.730412006
1157,1.5596563002e+18,-0.8277682662,0.7807896137,0.2179096788
1158,1.55965630025e+18,-0.7226994038,1.676318169,-0.496802628
1159,1.55965630031e+18,-0.1405448169,1.191290975,-1.232895255
1160,1.55965630036e+18,-0.01531744562,1.110656857,-1.838873625
1161,1.55965630041e+18,-0.1264949143,0.5394978523,-2.278085709
1162,1.55965630046e+18,-0.1203862652,0.846152246,-2.908498526
1163,1.55965630051e+18,-0.4777424335,1.350726962,-3.622600079
1164,1.55965630057e+18,-0.5150051713,1.109435201,-4.205976486
1165,1.55965630062e+18,-0.5522680283,0.3311928213,-4.143057346
1166,1.55965630067e+18,-0.4184885025,-1.83737874,-3.414295197
1167,1.55965630072e+18,0.1392314583,1.407537341,-1.176084876
1168,1.55965630077e+18,-0.1582599133,-0.6694045067,-0.05087102577
1169,1.55965630083e+18,-0.540050745,-4.029163361,0.2099684328
1170,1.55965630088e+18,-1.204672098,-3.979072332,1.132375002
1171,1.55965630093e+18,-3.21747303,-5.126888275,0.9173504114
1172,1.55965630098e+18,-5.079390049,-6.927718639,-1.008707762
1173,1.55965630103e+18,-1.331121206,-0.1947621554,-0.6757861972
1174,1.55965630109e+18,-1.381822944,-5.48302269,-0.01605170593
1175,1.55965630114e+18,-0.007376197726,-2.802545786,2.10365057
1176,1.55965630119e+18,1.800174117,-4.726160526,3.677850246
1177,1.55965630124e+18,1.922347188,-1.302260876,1.069455862
1178,1.55965630129e+18,2.659661293,1.389822245,-0.3929555714
1179,1.55965630135e+18,1.958388209,2.951804638,-1.108278751
1180,1.5596563014e+18,1.486189365,5.124652386,-1.937833786
1181,1.55965630145e+18,0.7500966787,6.275522232,-1.524277925
1182,1.5596563015e+18,-0.1979661584,7.653634071,-0.4448791146
1183,1.55965630155e+18,-0.4752989709,8.291378021,1.16597259
1184,1.55965630161e+18,-0.08190175891,13.03841209,4.690054417
1185,1.55965630166e+18,-4.196079254,4.1955266,6.952088356
1186,1.55965630171e+18,-3.566277027,-2.528878212,8.501242638
1187,1.55965630176e+18,-1.025688648,2.816192627,3.209927797
1188,1.55965630181e+18,3.165457726,0.4191574156,-4.769804955
1189,1.55965630187e+18,2.971202612,0.004379903898,-4.375796795
1190,1.55965630192e+18,1.348133802,0.9952033162,-3.709342957
1191,1.55965630197e+18,1.112339854,-2.401818275,-2.471119165
1192,1.55965630202e+18,0.6364757419,-3.69501996,-0.882869482
1193,1.55965630207e+18,-0.196133554,-4.900867939,1.393825293
1194,1.55965630213e+18,-0.298148036,-7.807364941,4.121338367
1195,1.55965630218e+18,1.481302381,-9.787178993,5.052297592
1196,1.55965630223e+18,1.922958016,-2.323016644,4.368739128
1197,1.55965630228e+18,0.3255453408,1.391654849,3.249022961
1198,1.55965630233e+18,-0.923063159,0.1265529543,1.375499249
1199,1.55965630239e+18,-1.391596794,0.176643908,-0.2341306061
1200,1.55965630244e+18,-1.011027813,0.9823752046,-1.120496035
1201,1.55965630249e+18,-0.2810438275,1.48084116,-1.524888873
1202,1.55965630254e+18,0.4929224253,1.478397727,-1.688600659
1203,1.55965630259e+18,1.199693441,0.8430979252,-1.508395553
1204,1.55965630265e+18,1.555827975,-0.02616335824,-1.407602787
1205,1.5596563027e+18,1.524062991,-0.8233425021,-1.312307715
1206,1.55965630275e+18,1.112339854,-0.7420974374,-1.124772072
1207,1.5596563028e+18,0.4874246418,0.2756040692,-1.366063833
1208,1.55965630285e+18,-0.01592831127,0.2566672266,-1.337964058
1209,1.55965630291e+18,0.4562705457,1.400207043,-1.555432081
1210,1.55965630296e+18,0.6743494272,1.464958787,-1.810163021
1211,1.55965630301e+18,0.8026310802,1.692200541,-0.9873274565
1212,1.55965630306e+18,1.067746639,1.676928997,0.4549253881
1213,1.55965630311e+18,0.8270657063,1.722132921,1.616180182
1214,1.55965630317e+18,0.6230367422,0.6262407303,2.590510368
1215,1.55965630322e+18,1.604697108,0.6421232224,2.922821045
1216,1.55965630327e+18,1.977324963,-2.702363968,2.855014801
1217,1.55965630332e+18,0.224141717,-5.755468369,-0.02277122252
1218,1.55965630337e+18,-0.231563732,2.327500582,3.530631781
1219,1.55965630343e+18,-0.2352289259,-0.3322068453,3.250855684
1220,1.55965630348e+18,-0.3012023866,0.4154922068,2.28202343
1221,1.55965630353e+18,-0.685436666,0.5743172169,0.4628666341
1222,1.55965630358e+18,-1.454515934,2.108810902,-2.560305357
1223,1.55965630363e+18,-1.72390759,2.69585228,-3.415516853
1224,1.55965630369e+18,-3.175934315,2.167453766,-5.290873051
1225,1.55965630374e+18,-2.756269693,2.391641378,-5.347072601
1226,1.55965630379e+18,-2.224205971,4.586480141,-4.317764759
1227,1.55965630384e+18,-1.544924021,7.251685143,-1.998920321
1228,1.55965630389e+18,-3.241296768,1.79849112,3.115243673
1229,1.55965630395e+18,0.1386205852,-5.419492722,6.698579311
1230,1.559656304e+18,-1.448407292,4.755690098,3.641198397
1231,1.55965630405e+18,3.06771946,1.04346168,-5.198021412
1232,1.5596563041e+18,3.308400393,-1.042032242,-5.304312229
1233,1.55965630415e+18,1.485578537,0.9805425406,-4.753311634
1234,1.55965630421e+18,1.31575799,-1.637625813,-4.09296608
1235,1.55965630426e+18,1.214354277,-2.866686821,-2.365439415
1236,1.55965630431e+18,0.532017827,-4.265568256,0.3125938177
1237,1.55965630436e+18,0.3945731223,-6.520271778,3.234973192
1238,1.55965630441e+18,1.514899969,-7.190391064,4.829942226
1239,1.55965630447e+18,2.418369532,-6.436583042,4.654623985
1240,1.55965630452e+18,2.087891579,-1.293708682,3.389522076
1241,1.55965630457e+18,0.4440532327,1.287807703,2.264308453
1242,1.55965630462e+18,-0.7379710078,0.2487259954,0.7487515807
1243,1.55965630467e+18,-1.093494654,0.1858068854,-0.3758513629
1244,1.55965630473e+18,-0.8118857145,1.465569615,-0.6226408482
1245,1.55965630478e+18,-0.03242167458,1.463736892,-0.6611254215
1246,1.55965630483e+18,0.7916355729,0.8174415231,-0.6684558392
1247,1.55965630488e+18,1.329807878,-0.08786074817,-0.5902650356
1248,1.55965630493e+18,1.530171633,-0.3749673963,-0.3233169317
1249,1.55965630499e+18,1.58087337,-0.594878912,-0.1272291839
1250,1.55965630504e+18,1.298653722,-0.7323235869,-0.1877048314
1251,1.55965630509e+18,0.8447808027,-0.5881593823,-0.3330907524
1252,1.55965630514e+18,0.3670842052,-0.2552378178,-0.5585000515
1253,1.55965630519e+18,0.06226243824,0.9628274441,-0.5530022383
1254,1.55965630525e+18,-0.1674228907,-0.0127243232,-0.4687028527
1255,1.5596563053e+18,-0.2016313523,0.2016893774,-0.1186770722
1256,1.55965630535e+18,-0.2443919033,0.08745758235,0.1305559576
1257,1.5596563054e+18,-0.1552055776,-0.1636080295,0.2930461168
1258,1.55965630545e+18,-0.3622889221,-0.2112555206,0.2368465066
1259,1.55965630551e+18,-0.7239211202,-0.1788796633,-0.1760984063
1260,1.55965630556e+18,-1.367162228,-0.1471146643,-0.178541854
1261,1.55965630561e+18,-2.174115181,-0.6663501859,-0.3275929987
1262,1.55965630566e+18,-2.198549747,-0.1794905365,0.2111901641
1263,1.55965630571e+18,-2.136241436,-3.809862852,-0.2542891502
1264,1.55965630577e+18,-5.368940353,0.9664926529,-1.267103791
1265,1.55965630582e+18,-4.966991425,-2.50261116,0.2441768944
1266,1.55965630587e+18,-4.784342289,-1.428709984,-4.361747265
1267,1.55965630592e+18,-1.787437558,0.6250189543,-2.35383296
1268,1.55965630597e+18,-1.400148869,-0.4323887229,-3.129020929
1269,1.55965630603e+18,-0.6732193232,4.422157288,-3.388638735
1270,1.55965630608e+18,0.169774726,4.347631931,-2.730125904
1271,1.55965630613e+18,0.2100918293,4.857093334,-1.270158052
1272,1.55965630618e+18,-0.3781713843,4.380007744,0.1488819122
1273,1.55965630623e+18,-1.489335299,5.041574478,1.508667946
1274,1.55965630629e+18,-2.272464514,5.499112606,2.619220972
1275,1.55965630634e+18,-3.13806057,9.466071129,5.09017086
1276,1.55965630639e+18,-7.230247021,1.588964343,7.637478828
1277,1.55965630644e+18,-6.949860096,-3.276577473,8.630134583
1278,1.55965630649e+18,-2.80391717,1.615231514,6.678420544
1279,1.55965630654e+18,2.524049282,0.05080566555,-2.700193644
1280,1.5596563066e+18,2.579027414,1.362944245,-2.950648546
1281,1.55965630665e+18,1.902799487,-1.269885063,-2.713632584
1282,1.5596563067e+18,1.475193739,-2.031023026,-2.204170942
1283,1.55965630675e+18,1.378677011,-2.270482063,-0.8254481554
1284,1.5596563068e+18,0.5173570514,-3.684635162,0.7976207733
1285,1.55965630686e+18,0.009117163718,-5.078629971,2.980853319
1286,1.55965630691e+18,0.4855920374,-7.935035706,3.97778511
1287,1.55965630696e+18,1.422659278,-6.263097763,3.721832752
1288,1.55965630701e+18,0.9590126276,-1.433596969,3.421897888
1289,1.55965630706e+18,-0.255387485,0.4301529825,1.723692536
1290,1.55965630712e+18,-1.356166601,0.5950866342,0.007772038691
1291,1.55965630717e+18,-1.402592421,1.017805338,-0.9372364879
1292,1.55965630722e+18,-0.9969779253,0.9756556153,-1.442422032
1293,1.55965630727e+18,-0.4380362034,0.8204958439,-1.414322257
1294,1.55965630732e+18,0.1215163693,0.6329602599,-1.430204749
1295,1.55965630738e+18,0.3957948685,0.06607729197,-1.125993848
1296,1.55965630743e+18,0.4666552544,-0.1251235306,-0.8462175727
1297,1.55965630748e+18,0.3279888332,-0.4122301936,-0.4772549868
1298,1.55965630753e+18,0.05004513636,-0.4226149023,-0.07835996151
1299,1.55965630758e+18,-0.1228297278,-0.1947621554,0.4011692405
1300,1.55965630764e+18,-0.08617781103,0.1100595966,0.8617616296
1301,1.55965630769e+18,-0.06052147225,-0.08663901687,1.051129937
1302,1.55965630774e+18,-0.08373434842,-0.1801013947,0.9704956412
1303,1.55965630779e+18,-0.5767026544,-0.0823629573,0.340693593
1304,1.55965630784e+18,-1.241323948,-0.2698985934,-0.4699245989
1305,1.5596563079e+18,-1.895560622,-0.610150516,-1.276877522
1306,1.55965630795e+18,-2.290179729,0.02453845553,-1.816882491
1307,1.559656308e+18,-2.105087519,-0.928411305,-2.422250032
1308,1.55965630805e+18,-2.132576466,-0.2589030266,-2.538924932
1309,1.5596563081e+18,-1.733070612,1.361111522,-3.175446749
1310,1.55965630816e+18,-0.735527575,0.5016242266,-2.55602932
1311,1.55965630821e+18,-0.5076748133,3.801518202,-0.5554457307
1312,1.55965630826e+18,-1.545534968,0.1619831324,1.448192239
1313,1.55965630831e+18,-3.292609453,-1.351740956,-4.022716999
1314,1.55965630836e+18,-3.367745876,1.496112823,-4.220637321
1315,1.55965630842e+18,0.6877884269,3.322599888,-3.865113497
1316,1.55965630847e+18,0.3609755635,-1.908850074,-4.055092812
1317,1.55965630852e+18,0.1728290617,2.165621042,-1.686768174
1318,1.55965630857e+18,0.7739204764,0.157096222,-0.721601069
1319,1.55965630862e+18,0.5540089607,-0.3358720541,0.3009873629
1320,1.55965630868e+18,0.2235308737,0.2389521599,1.285702109
1321,1.55965630873e+18,-0.1796402037,2.447229862,2.013242722
1322,1.55965630878e+18,-0.6878800392,2.335441589,2.70596385
1323,1.55965630883e+18,-1.184513569,4.012877464,3.180606127
1324,1.55965630888e+18,-1.774609327,3.413618803,4.016880512
1325,1.55965630894e+18,-2.723894119,3.613371849,4.673560619
1326,1.55965630899e+18,-4.649341106,0.9365602136,5.558093548
1327,1.55965630904e+18,-6.88938427,-0.7408756614,6.865345001
1328,1.55965630909e+18,-7.599820137,-2.356614351,7.643587589
1329,1.55965630914e+18,-1.050734043,2.569403172,4.811616421
1330,1.5596563092e+18,2.688982964,-6.446967602,-5.637844563
1331,1.55965630925e+18,0.5558415651,3.25235033,-3.034336805
1332,1.5596563093e+18,0.1178511828,0.8107220531,-1.614686012
1333,1.55965630935e+18,-0.9664346576,-2.819039345,-1.422874331
1334,1.5596563094e+18,-1.023855925,-2.712748766,-0.3294255733
1335,1.55965630946e+18,-0.983538866,-3.994954824,0.1030670181
1336,1.55965630951e+18,-0.4062712193,-3.894162178,0.7304255962
1337,1.55965630956e+18,-0.06663012505,-4.313826561,0.8959701061
1338,1.55965630961e+18,0.09280569851,-3.740834951,1.298530221
1339,1.55965630966e+18,0.1050230116,-1.982764721,1.16963768
1340,1.55965630972e+18,-0.05441282317,-0.8410575986,0.7976207733
1341,1.55965630977e+18,0.4367228448,-0.397569418,0.2753310204
1342,1.55965630982e+18,1.01765573,0.07829460502,0.277774483
1343,1.55965630987e+18,1.324310064,-0.9827783108,0.3028199375
1344,1.55965630992e+18,1.288269043,-1.454977155,-0.4228879809
1345,1.55965630998e+18,0.901591301,-0.4696515203,-0.6098127365
1346,1.55965631003e+18,0.5252982974,0.1717569828,-0.9048606753
1347,1.55965631008e+18,0.4581031203,0.8852475882,-1.15165019
1348,1.55965631013e+18,0.5613393784,0.5419413447,-1.296425343
1349,1.55965631018e+18,0.6065434217,0.007434229832,-1.563984275
1350,1.55965631024e+18,0.5283526182,0.4735244215,-1.727085233
1351,1.55965631029e+18,0.5069723725,0.8687542081,-1.758239388
1352,1.55965631034e+18,0.4574922621,0.6476210356,-1.664776921
1353,1.55965631039e+18,0.2986673117,0.4698592126,-1.428982973
1354,1.55965631044e+18,-0.1723098159,0.2957626283,-0.7863527536
1355,1.5596563105e+18,-0.7000974417,-0.03105027974,-0.2976605892
1356,1.55965631055e+18,-1.059286118,0.2804909945,1.363892794
1357,1.5596563106e+18,-0.9108458757,-0.1116844937,2.294851542
1358,1.55965631065e+18,-0.5938068032,-0.2491291612,3.370585203
1359,1.5596563107e+18,-0.08678868413,-0.7036129236,3.324770212
1360,1.55965631076e+18,0.9290801883,-1.308369517,0.9265133739
1361,1.55965631081e+18,1.26627779,0.05263825879,0.6223024726
1362,1.55965631086e+18,1.0243752,-1.630295515,-0.1150118783
1363,1.55965631091e+18,1.221684694,0.4338181615,-1.855977774
1364,1.55965631096e+18,1.577819109,-0.201481685,-1.120496035
1365,1.55965631102e+18,1.883862495,-0.747595191,-0.686170876
1366,1.55965631107e+18,1.828273773,0.08745758235,-0.5029113293
1367,1.55965631112e+18,0.1196837798,-6.987583637,1.115270734
1368,1.55965631117e+18,-0.5919742584,-7.728563309,0.5667137504
1369,1.55965631122e+18,0.7299381495,-1.933895469,1.809824467
1370,1.55965631128e+18,-0.2266768217,3.323821545,-1.525499701
1371,1.55965631133e+18,-0.03303254023,1.469845533,-3.187053204
1372,1.55965631138e+18,0.07325801253,4.847319126,-3.837624788
1373,1.55965631143e+18,-0.5492137074,1.176630259,-5.270103455
1374,1.55965631148e+18,-1.161911488,0.3348580003,-5.096618176
1375,1.55965631154e+18,-2.01529026,-0.8636596203,-4.915190697
1376,1.55965631159e+18,-2.485045671,2.130801678,-4.332425117
1377,1.55965631164e+18,-2.922425032,6.93464613,-0.9635037184
1378,1.55965631169e+18,-3.694558859,-0.5014165044,5.695538521
1379,1.55965631174e+18,-2.480769634,-0.7317126989,8.178094864
1380,1.5596563118e+18,0.7537618876,5.143589497,5.178135395
1381,1.55965631185e+18,4.005397797,-4.855664253,-5.230397224
1382,1.5596563119e+18,2.246716499,3.648191214,-5.659835815
1383,1.55965631195e+18,1.355464101,0.7484137416,-3.077097416
1384,1.559656312e+18,0.4739856124,-2.58874321,-3.190718412
1385,1.55965631206e+18,-0.1936900914,-3.319948673,-2.339783192
1386,1.55965631211e+18,-1.155802846,-4.209368706,-0.720990181
1387,1.55965631216e+18,-0.9927018285,-5.046253681,1.350453854
1388,1.55965631221e+18,-0.7837859392,-6.86724329,3.072482824
1389,1.55965631226e+18,0.8044636846,-8.039493561,3.955183268
1390,1.55965631232e+18,1.247951865,-5.927121639,4.16654253
1391,1.55965631237e+18,0.3805232346,-1.184363842,2.315620899
1392,1.55965631242e+18,-0.6952104568,2.202883959,0.01082636416
1393,1.55965631247e+18,-0.5040096641,2.055054426,-0.3697426617
1394,1.55965631252e+18,-0.06968445331,1.317740202,-0.9897709489
1395,1.55965631258e+18,0.4037361145,1.260318875,-0.8853129148
1396,1.55965631263e+18,0.9449626803,1.037353039,-0.9793861508
1397,1.55965631268e+18,1.214354277,0.08134892583,-1.194410801
1398,1.55965631273e+18,1.275440812,0.1687026471,-1.068572521
1399,1.55965631278e+18,1.084850788,0.2102414817,-1.011151195
1400,1.55965631284e+18,1.004827499,-0.08480641991,-0.7002207637
1401,1.55965631289e+18,0.7073361278,-0.2240836918,-0.3062126935
1402,1.55965631294e+18,0.6297562122,-0.3364829123,-0.003834401025
1403,1.55965631299e+18,0.4342793822,-0.4800362289,-0.01727343537
1404,1.55965631304e+18,0.4348902404,-0.4391082823,-0.2738368511
1405,1.5596563131e+18,0.7623140216,0.7123727202,-0.5945410728
1406,1.55965631315e+18,0.9235824347,1.124706745,-1.411878824
1407,1.5596563132e+18,1.107452869,1.356224775,-1.761904597
1408,1.55965631325e+18,1.010936141,1.540706038,-1.960435748
1409,1.5596563133e+18,0.8398939371,1.128982782,-2.124147654
1410,1.55965631336e+18,0.6138737798,0.4588636458,-1.923172951
1411,1.55965631341e+18,0.5185787678,2.661643744,-0.9292952418
1412,1.55965631346e+18,0.386631906,0.03675575927,-0.9207431674
1413,1.55965631351e+18,0.4177860022,-0.03776979819,-0.2567326128
1414,1.55965631356e+18,0.3090519905,-0.1623863131,0.1898098737
1415,1.55965631362e+18,-0.09534078836,-1.159318328,-1.545047402
1416,1.55965631367e+18,-3.348198175,0.8858584762,-2.493110418
1417,1.55965631372e+18,-0.3262478709,7.015891075,-0.1400573552
1418,1.55965631377e+18,-0.923063159,-1.633349895,-1.979983568
1419,1.55965631382e+18,-1.463678956,0.09478796273,-0.6171431541
1420,1.55965631388e+18,-1.140531301,0.2267348468,0.4775274098
1421,1.55965631393e+18,-1.281641126,1.887066483,0.950948
1422,1.55965631398e+18,-1.542480588,3.365360498,0.7017149925
1423,1.55965631403e+18,-3.200368881,3.309160948,3.851336241
1424,1.55965631408e+18,-5.281587124,0.1228877604,7.564175129
1425,1.55965631414e+18,-3.16799283,-3.202662706,7.787752151
1426,1.55965631419e+18,0.08242098987,6.453284264,5.682710171
1427,1.55965631424e+18,2.593077183,-2.122041941,-4.264008999
1428,1.55965631429e+18,1.936396956,0.2878213823,-3.981788874
1429,1.55965631434e+18,-0.08923213929,-0.5643356442,-2.193175554
1430,1.5596563144e+18,-0.924284935,-1.913126111,-1.901792765
1431,1.55965631445e+18,-1.117318392,-2.303468943,-0.9916034937
1432,1.5596563145e+18,-1.898615003,-4.93629837,0.04686741158
1433,1.55965631455e+18,-2.378755093,-6.121376991,2.216660738
1434,1.5596563146e+18,-1.785604954,-7.293015957,3.893485785
1435,1.55965631466e+18,-0.5284442902,-4.534959793,3.481762648
1436,1.55965631471e+18,-0.2193464339,-2.492226362,2.409694195
1437,1.55965631476e+18,-0.1057255045,-1.991927743,1.542265534
1438,1.55965631481e+18,-0.08556694537,-1.031036735,0.6009221673
1439,1.55965631486e+18,-0.2645504773,0.8589804173,-0.07958168536
1440,1.55965631492e+18,-0.2193464339,1.821093082,-0.3960098922
1441,1.55965631497e+18,0.03110831231,1.598127365,-1.331244588
1442,1.55965631502e+18,0.7977442145,1.202897429,-1.290927529
1443,1.55965631507e+18,1.382953167,0.6812185645,-1.797334671
1444,1.55965631512e+18,1.594923377,-0.003561344463,-1.937222958
1445,1.55965631518e+18,1.459311247,0.1644266099,-1.926227331
1446,1.55965631523e+18,0.9932210445,0.5162850022,-1.962268472
1447,1.55965631528e+18,0.814237535,0.6292950511,-2.104600191
1448,1.55965631533e+18,0.5894391537,0.6311275959,-2.288470507
1449,1.55965631538e+18,0.3670842052,0.7374182343,-2.275031567
1450,1.55965631544e+18,0.2339155674,0.7453594208,-2.81442523
1451,1.55965631549e+18,-0.01592831127,-0.2369118631,-2.698971987
1452,1.55965631554e+18,-0.4807967544,-1.250948071,-2.227994919
1453,1.55965631559e+18,-1.168630958,-1.420768619,-1.593916655
1454,1.55965631564e+18,-2.166785002,-3.412800312,-1.341629267
1455,1.5596563157e+18,-2.243143082,-2.316907883,0.01754588261
1456,1.55965631575e+18,-3.310935497,-4.907587528,1.337625742
1457,1.5596563158e+18,-4.762351036,-5.341301918,2.071885824
1458,1.55965631585e+18,-7.595544338,-2.65227294,2.047451019
1459,1.5596563159e+18,-3.957841873,-6.347396851,0.5984787345
1460,1.55965631596e+18,-3.233966351,0.2713280022,2.787819862
1461,1.55965631601e+18,-2.60111022,-2.252767086,0.906354785
1462,1.55965631606e+18,-0.5571548939,-1.552104712,-0.3544710279
1463,1.55965631611e+18,1.763522148,-0.5863267779,-1.871249557
1464,1.55965631616e+18,2.921722651,1.300635934,-1.848036647
1465,1.55965631622e+18,4.224698067,4.04403162,-1.868806005
1466,1.55965631627e+18,3.566185474,4.285934448,-2.336117983
1467,1.55965631632e+18,2.767173767,5.091054916,-2.253040314
1468,1.55965631637e+18,2.419591427,6.20588398,-2.39353919
1469,1.55965631642e+18,1.783680677,6.809419155,-1.900570989
1470,1.55965631648e+18,1.62057972,6.190001488,0.9857672453
1471,1.55965631653e+18,0.4935332835,9.106272697,1.906952024
1472,1.55965631658e+18,-2.571177721,5.499723434,3.969844103
1473,1.55965631663e+18,-5.963923454,-1.368845224,6.81830883
1474,1.55965631668e+18,-4.225400925,-4.036493778,7.619763851
1475,1.55965631674e+18,0.3762471676,6.918152809,5.694316387
1476,1.55965631679e+18,3.179507732,-3.96318984,-5.325692177
1477,1.55965631684e+18,2.20273447,1.280477405,-3.598165512
1478,1.55965631689e+18,1.454424262,-0.60220927,-2.807095051
1479,1.55965631694e+18,0.5045288801,-1.942447662,-1.744800329
1480,1.559656317e+18,-0.08129089326,-4.550842285,-0.02460381947
1481,1.55965631705e+18,0.1490053087,-5.99248457,2.415802717
1482,1.5596563171e+18,0.6951188445,-7.057222366,4.096292973
1483,1.55965631715e+18,1.703657389,-3.93692255,4.081632137
1484,1.5596563172e+18,1.790400267,-0.8477771282,4.701660633
1485,1.55965631726e+18,1.305984139,-0.696282506,4.356521606
1486,1.55965631731e+18,0.01950187236,-0.2949440479,2.190393448
1487,1.55965631736e+18,-0.4087146521,0.932284236,0.5312835574
1488,1.55965631741e+18,-0.03119994141,1.064231038,-0.05636881292
1489,1.55965631746e+18,0.2791196108,0.6757208109,-0.5340654254
1490,1.55965631752e+18,0.3786906302,-0.08969334513,-0.8712630868
1491,1.55965631757e+18,-0.09228646755,0.144878909,-1.290316701
1492,1.55965631762e+18,-0.5033987761,0.2047436982,-1.844982266
1493,1.55965631767e+18,-0.7880619764,0.7453594208,-2.107654333
1494,1.55965631772e+18,-0.4026060104,0.9005192518,-2.350167751
1495,1.55965631778e+18,0.1386205852,1.527266979,-2.399037123
1496,1.55965631783e+18,0.5698914528,0.3238624334,-2.775330067
1497,1.55965631788e+18,0.8728806376,1.942655325,-2.420417309
1498,1.55965631793e+18,0.8307309151,1.128982782,-2.386819839
1499,1.55965631798e+18,0.7268838286,0.7759026885,-2.195008039
1500,1.55965631804e+18,0.4135099351,0.6708338857,-1.110111356
1501,1.55965631809e+18,0.07081454992,1.201064944,-0.430218339
1502,1.55965631814e+18,0.01828014106,1.248101592,-0.04292977601
1503,1.55965631819e+18,0.4898681045,0.1851960123,0.7750188112
1504,1.55965631824e+18,1.503904462,-1.296152234,1.535546064
1505,1.5596563183e+18,1.587592959,-1.496515989,2.70290947
1506,1.55965631835e+18,1.489854455,-2.613177776,3.395630598
1507,1.5596563184e+18,-0.4019951522,-5.250282764,0.2313487232
1508,1.55965631845e+18,4.203928947,5.858912468,-1.767402291
1509,1.5596563185e+18,-1.055621028,0.2377304286,1.242941499
1510,1.55965631856e+18,-1.453294158,4.543719769,0.4750839472
1511,1.55965631861e+18,-1.434357405,2.004963636,-1.206017256
1512,1.55965631866e+18,-2.181445599,0.6091364622,-2.631165743
1513,1.55965631871e+18,-2.732445955,0.6066930294,-2.669650316
1514,1.55965631876e+18,-3.674400091,-0.7695863843,-2.173627615
1515,1.55965631882e+18,-4.482575417,1.585910082,0.2557833195
1516,1.55965631887e+18,-3.831392527,2.414854288,5.057795048
1517,1.55965631892e+18,-3.516797066,2.130190849,8.162212372
1518,1.55965631897e+18,-1.131979108,5.923664093,7.008898258
1519,1.55965631902e+18,0.6309779882,-4.955845833,-4.636636257
1520,1.55965631908e+18,-0.5418832898,4.679331779,-4.75086832
1521,1.55965631913e+18,0.437944591,6.472221375,-3.014178276
1522,1.55965631918e+18,0.6383083463,-0.4220040143,-2.52243185
1523,1.55965631923e+18,0.3420387208,-2.07622695,-2.191953659
1524,1.55965631928e+18,-0.08739954233,-2.465348482,-1.573758006
1525,1.55965631934e+18,-0.491181463,-2.740848303,-1.027033687
1526,1.55965631939e+18,-0.9041264057,-3.954026937,0.001663386123
1527,1.55965631944e+18,-1.229717493,-4.839170456,1.939938784
1528,1.55965631949e+18,-0.5736482739,-7.566684246,3.889820576
1529,1.55965631954e+18,0.8264548182,-9.973493576,4.005885124
1530,1.5596563196e+18,1.536280274,-5.590534687,2.047451019
1531,1.55965631965e+18,1.070190072,0.7361964583,1.460409522
1532,1.5596563197e+18,0.7696443796,-1.636404157,0.3492456973
1533,1.55965631975e+18,0.5625610948,-1.859369993,-0.3251495063
1534,1.5596563198e+18,0.2119244188,-1.252169967,-0.9280735254
1535,1.55965631986e+18,-0.1112232879,-1.28760004,-1.716700554
1536,1.55965631991e+18,-0.5614309907,0.03125797585,-2.204170942
1537,1.55965631996e+18,-0.7679034472,0.9432798028,-2.507160187
1538,1.55965632001e+18,-0.8711396456,1.349505186,-2.64827013
1539,1.55965632006e+18,-0.6060240865,1.694644094,-2.54564476
1540,1.55965632012e+18,-0.4013842642,1.298803329,-2.301298618
1541,1.55965632017e+18,-0.07518224418,0.8656998873,-2.000752926
1542,1.55965632022e+18,0.2552958429,1.229775667,-1.654392362
1543,1.55965632027e+18,0.4202294648,0.07646200806,-1.306809902
1544,1.55965632032e+18,0.6572451591,0.6903815866,-1.056355238
1545,1.55965632038e+18,0.9070890546,1.099050403,-0.9091367126
1546,1.55965632043e+18,1.036592484,0.6763316393,-0.8211721182
1547,1.55965632048e+18,1.103176713,0.6463993192,-0.441824764
1548,1.55965632053e+18,1.055529356,0.7410833836,-0.135781303
1549,1.55965632058e+18,0.7696443796,0.3440209627,0.1610992104
1550,1.55965632064e+18,0.4342793822,-0.225305438,0.427436471
1551,1.55965632069e+18,-0.007987063378,-0.1458929479,0.7725753188
1552,1.55965632074e+18,-0.2682156563,-0.5484531522,0.6968280673
1553,1.55965632079e+18,-0.5235573053,-0.7469843626,0.3138155341
1554,1.55965632084e+18,-0.6432869434,-0.2576812804,-0.8468284011
1555,1.5596563209e+18,-0.8980177045,0.4350398779,-1.983648658
1556,1.55965632095e+18,-0.8350986242,0.3385231793,-3.084427834
1557,1.559656321e+18,-1.300577879,1.118598104,-3.882217884
1558,1.55965632105e+18,-1.962144971,0.365401268,-1.835208416
1559,1.5596563211e+18,-1.863795638,3.147281408,1.60335207
1560,1.55965632116e+18,-2.417239428,-3.941198826,-2.563359976
1561,1.55965632121e+18,-2.877221107,-11.96369267,-5.753297806
1562,1.55965632126e+18,-1.777663708,8.891246796,-5.183361053
1563,1.55965632131e+18,-0.7935597301,0.3635686636,-6.439299583
1564,1.55965632136e+18,-1.172296286,1.202286601,-3.670247555
1565,1.55965632141e+18,-1.04523623,1.187625885,-1.841928005
1566,1.55965632147e+18,-1.382433891,-0.4953078628,-0.4222770929
1567,1.55965632152e+18,-1.348225474,-0.7976861596,0.7676883936
1568,1.55965632157e+18,-1.295080066,0.9261755347,1.089003563
1569,1.55965632162e+18,-1.449629068,1.585910082,1.928332448
1570,1.55965632167e+18,-1.765446424,3.181489944,2.70596385
1571,1.55965632173e+18,-2.379365921,4.894967079,3.845838308
1572,1.55965632178e+18,-5.028688431,9.457519531,5.983255863
1573,1.55965632183e+18,-9.80932045,-0.3157134652,9.485957146
1574,1.55965632188e+18,-7.609594345,-5.847098351,8.622193336
1575,1.55965632193e+18,-2.163730383,4.321975708,5.514111519
1576,1.55965632199e+18,2.261988163,-0.9662849903,-7.365982533
1577,1.55965632204e+18,2.086669922,0.009877691045,-4.294551849
1578,1.55965632209e+18,1.568045259,-1.144046783,-4.11862278
1579,1.55965632214e+18,0.9382432103,-2.987027168,-1.615296841
1580,1.55965632219e+18,-0.4190993607,-3.889885902,1.669936419
1581,1.55965632225e+18,-0.8173834682,-9.071855545,4.80550766
1582,1.5596563223e+18,2.161195278,-8.63630867,4.624080658
1583,1.55965632235e+18,2.821540833,-5.136662006,4.562994003
1584,1.5596563224e+18,1.858817101,-2.285753965,2.591121197
1585,1.55965632245e+18,0.1587791443,0.8766955137,1.016310573
1586,1.55965632251e+18,-0.7715685964,2.398360729,-0.3837925792
1587,1.55965632256e+18,-1.155802846,1.172354221,-1.523667097
1588,1.55965632261e+18,-1.137476921,0.6250189543,-2.381321907
1589,1.55965632266e+18,-1.033018947,1.124706745,-2.604287863
1590,1.55965632271e+18,-0.4398688078,1.205340981,-2.326954842
1591,1.55965632277e+18,0.1661095321,0.7313095927,-1.81749332
1592,1.55965632282e+18,0.3493691087,-0.5295162797,-1.261605978
1593,1.55965632287e+18,0.2895042896,-0.9931630492,-0.8419415355
1594,1.55965632292e+18,0.3298214078,-1.063412547,-0.06308832765
1595,1.55965632297e+18,0.2278069109,-1.060969114,0.379788965
1596,1.55965632302e+18,0.02194533311,-0.8899267912,0.9491153359
1597,1.55965632308e+18,-0.1533729881,-0.6724588275,0.9393415451
1598,1.55965632313e+18,-0.1203862652,-0.9424612522,1.064568996
1599,1.55965632318e+18,0.2204765379,0.08684670925,0.8599290848
1600,1.55965632323e+18,0.6138737798,0.3269167542,0.9686630964
1601,1.55965632328e+18,0.9755060077,-0.1025215164,0.7872360945
1602,1.55965632334e+18,0.9498496652,-0.3096048236,0.1348320097
1603,1.55965632339e+18,0.5191896558,0.4649722874,-0.925019145
1604,1.55965632344e+18,0.1648878008,0.7233682871,-1.786339283
1605,1.55965632349e+18,0.3890753388,1.994578838,-2.184012413
1606,1.55965632354e+18,0.4012926519,2.619493961,-2.71118927
1607,1.5596563236e+18,0.1563356966,1.919442534,-2.595124722
1608,1.55965632365e+18,-0.5278334022,1.232829928,-1.358733535
1609,1.5596563237e+18,-1.434968233,0.5126197934,1.263100147
1610,1.55965632375e+18,-1.904723644,-5.610693455,0.9320111871
1611,1.5596563238e+18,-3.321320057,-3.478162766,-1.149206758
1612,1.55965632386e+18,-2.161287069,-1.199024677,-2.449127913
1613,1.55965632391e+18,-2.067824602,1.624394536,-1.698374629
1614,1.55965632396e+18,-1.60478878,0.3867815435,-2.397815228
1615,1.55965632401e+18,-1.219943762,2.796644926,-2.540757895
1616,1.55965632406e+18,-0.8479267359,2.137521267,-2.849244595
1617,1.55965632412e+18,-0.6261826754,4.124666214,-2.293357372
1618,1.55965632417e+18,-0.4490317702,3.737988234,-1.769845843
1619,1.55965632422e+18,-0.09045387059,2.435012579,-0.3489732742
1620,1.55965632427e+18,-0.7825642228,2.807640553,-0.3019366562
1621,1.55965632432e+18,-1.63777554,3.731268883,0.4341559708
1622,1.55965632438e+18,-2.725115776,8.908963203,2.253923655
1623,1.55965632443e+18,-6.193608284,0.9218994975,7.967346191
1624,1.55965632448e+18,-8.398832321,-0.6290873289,8.927015305
1625,1.55965632453e+18,-2.210156202,2.807029486,4.646682739
1626,1.55965632458e+18,3.648652315,1.500388861,-4.76491785
1627,1.55965632464e+18,2.351174593,2.860174894,-3.388638735
1628,1.55965632469e+18,0.5228548646,1.086222291,-2.053287268
1629,1.55965632474e+18,0.1654986739,-1.579593658,-2.5096035
1630,1.55965632479e+18,0.3707493842,-2.275369167,-2.238990307
1631,1.55965632484e+18,0.2027614415,-3.658978939,-1.603690386
1632,1.5596563249e+18,-0.03242167458,-5.199581146,-0.3257603645
1633,1.55965632495e+18,-0.2132377923,-5.7652421,1.219117761
1634,1.559656325e+18,0.7928572893,-8.027887344,3.173886776
1635,1.55965632505e+18,2.399432898,-8.731603622,3.923418283
1636,1.5596563251e+18,3.026180744,-5.724925518,3.495812416
1637,1.55965632516e+18,1.952279568,-3.032842159,2.355327129
1638,1.55965632521e+18,-0.3561802804,0.2322326303,0.950948
1639,1.55965632526e+18,-1.772776723,2.307341814,-0.926240921
1640,1.55965632531e+18,-1.863795638,1.824147463,-1.598803639
1641,1.55965632536e+18,-1.293247581,1.125317574,-1.516947627
1642,1.55965632542e+18,-0.641454339,1.521158338,-1.665998816
1643,1.55965632547e+18,0.1257924289,1.279866576,-1.670274734
1644,1.55965632552e+18,0.5625610948,0.9573296905,-1.758850217
1645,1.55965632557e+18,0.6737385392,0.2933191657,-1.722198367
1646,1.55965632562e+18,0.856998086,0.2933191657,-1.200519443
1647,1.55965632568e+18,0.7439880371,0.2688845396,-0.8077331185
1648,1.55965632573e+18,0.5729457736,-0.2411879301,-0.4723680317
1649,1.55965632578e+18,0.3585320711,0.314699471,-0.06186660007
1650,1.55965632583e+18,0.2687349021,-0.1355082393,0.5966461301
1651,1.55965632588e+18,0.7226077914,-1.263165474,0.4146082997
1652,1.55965632594e+18,0.7226077914,-1.773237944,-0.8071221709
1653,1.55965632599e+18,0.386631906,0.09539882839,-0.8700413108
1654,1.55965632604e+18,0.2644588351,-1.741473079,-0.3013257682
1655,1.55965632609e+18,1.151435137,-2.935103655,1.910006523
1656,1.55965632614e+18,1.929066658,-2.773835182,3.740158796
1657,1.5596563262e+18,1.451370001,-2.239328146,6.280746937
1658,1.55965632625e+18,-3.756256104,-1.730477452,-1.52244544
1659,1.5596563263e+18,-2.744663239,-5.264332771,0.8031185865
1660,1.55965632635e+18,-1.577910781,2.14607358,2.537975788
1661,1.5596563264e+18,-2.125246048,-1.907628298,3.539184093
1662,1.55965632646e+18,-2.139295816,-2.889899731,3.361422062
1663,1.55965632651e+18,-3.034213305,1.738015532,0.4414863586
1664,1.55965632656e+18,-2.021399021,1.632335782,-1.523667097
1665,1.55965632661e+18,-1.309129953,4.20957613,-3.458277225
1666,1.55965632666e+18,-1.129535675,6.932202816,-4.292108536
1667,1.55965632672e+18,-0.9737650156,5.999411583,-4.488807201
1668,1.55965632677e+18,-1.11792922,7.913252354,-3.36359334
1669,1.55965632682e+18,-1.427026987,7.345758438,-2.149193048
1670,1.55965632687e+18,-1.545534968,10.56990528,-0.1412790865
1671,1.55965632692e+18,-3.568109512,10.05005836,3.182438612
1672,1.55965632698e+18,-7.40617609,-0.8703791499,5.54709816
1673,1.55965632703e+18,-4.502733231,-1.41343832,6.921545029
1674,1.55965632708e+18,-1.796600461,9.778835297,5.467074871
1675,1.55965632713e+18,4.090918541,-6.233165264,-3.147346973
1676,1.55965632718e+18,1.687163949,-4.552063942,-4.540119648
1677,1.55965632724e+18,-0.5681505203,4.667114258,-0.7661942244
1678,1.55965632729e+18,-0.7324732542,0.8027807474,-1.775343657
1679,1.55965632734e+18,-0.9212306142,-2.373107672,-1.983037829
1680,1.55965632739e+18,-1.088607669,-5.100010395,-1.907901406
1681,1.55965632744e+18,-1.107544541,-5.482411385,-0.5004678369
1682,1.5596563275e+18,-0.208350867,-5.434153557,1.299141169
1683,1.55965632755e+18,0.6395300627,-6.564253807,2.906327724
1684,1.5596563276e+18,2.053683043,-7.151295185,3.358978748
1685,1.55965632765e+18,2.893622875,-5.821442127,3.018726826
1686,1.5596563277e+18,3.105592966,-3.255197048,2.354105473
1687,1.55965632776e+18,2.213118792,-2.194123983,2.264919281
1688,1.55965632781e+18,0.7800291181,-0.7268258333,1.138483644
1689,1.55965632786e+18,-0.727586329,0.7313095927,-0.3275929987
1690,1.55965632791e+18,-1.169241905,1.318961859,-1.226786613
1691,1.55965632796e+18,-1.014082074,1.356835604,-2.022133112
1692,1.55965632802e+18,-0.6811605692,0.6207429171,-2.654378653
1693,1.55965632807e+18,-0.830211699,0.7129836082,-2.96958518
1694,1.55965632812e+18,-0.6188523173,0.9261755347,-2.855353355
1695,1.55965632817e+18,-0.7428579926,0.6506753564,-2.65865469
1696,1.55965632822e+18,-0.6970430017,0.4344290495,-1.835819244
1697,1.55965632828e+18,-0.4398688078,0.1143356487,-1.554821253
1698,1.55965632833e+18,-0.4282623529,0.8046134114,-1.76129365
1699,1.55965632838e+18,0.01400408521,0.9054061174,-2.722184896
1700,1.55965632843e+18,0.516135335,1.975031137,-2.599400997
1701,1.55965632848e+18,0.5326286554,1.667765975,-2.376435041
1702,1.55965632854e+18,0.2925586104,2.38125658,-1.334909797
1703,1.55965632859e+18,-0.1209971309,1.168078303,-0.5267350674
1704,1.55965632864e+18,-0.2230116278,-2.184961081,0.005328577477
1705,1.55965632869e+18,-0.2847090065,-4.033439636,0.9045222402
1706,1.55965632874e+18,-0.2700482607,-3.098204613,1.772561789
1707,1.5596563288e+18,-0.6127436757,-4.509913921,1.101220846
1708,1.55965632885e+18,-3.682952404,-3.263138294,0.1042887494
1709,1.5596563289e+18,-2.359207392,0.5944756866,0.725538671
1710,1.55965632895e+18,-1.676870942,-4.472651482,-0.121731393
1711,1.559656329e+18,-1.873569608,0.9243429303,-0.06003400311
1712,1.55965632906e+18,-1.251097798,3.633530378,-1.948218465
1713,1.55965632911e+18,-0.7740120888,3.621923923,-1.531608343
1714,1.55965632916e+18,-0.7324732542,5.825925827,-0.4100597799
1715,1.55965632921e+18,-1.383655667,7.204648495,1.076175332
1716,1.55965632926e+18,-1.299967051,11.34203911,2.7920959
1717,1.55965632932e+18,-3.764808416,2.273133516,6.299684048
1718,1.55965632937e+18,-3.24374032,-1.952832341,7.471934795
1719,1.55965632942e+18,-3.183875561,2.431958437,4.655234814
1720,1.55965632947e+18,2.120267391,4.569375992,-0.8413306475
1721,1.55965632952e+18,3.469668627,-3.289405584,-3.568233252
1722,1.55965632958e+18,2.221671104,-2.737183332,-4.952453613
1723,1.55965632963e+18,1.520397782,-1.195970297,-3.291511297
1724,1.55965632968e+18,1.737254858,-1.944891095,-1.431426525
1725,1.55965632973e+18,0.7702552676,-4.220974922,0.6681173444
1726,1.55965632978e+18,0.27606529,-6.992470741,3.354091883
1727,1.55965632984e+18,1.061637998,-10.16224957,4.762136459
1728,1.55965632989e+18,2.549705744,-5.514787674,3.724276066
1729,1.55965632994e+18,1.08057487,0.2010785043,3.097528458
1730,1.55965632999e+18,-0.405049473,0.7270334959,1.680321097
1731,1.55965633004e+18,-1.033629775,1.33179009,0.4854686558
1732,1.5596563301e+18,-1.106322765,1.664711714,-0.1846505105
1733,1.55965633015e+18,-0.5504354239,1.138756752,-0.7576420903
1734,1.5596563302e+18,0.1294576079,0.888912797,-0.9879382849
1735,1.55965633025e+18,0.7256621122,0.5291131735,-0.9451777339
1736,1.5596563303e+18,1.174037218,0.1198334321,-0.8914216161
1737,1.55965633036e+18,1.461143851,-0.3639718294,-0.5975953937
1738,1.55965633041e+18,1.396392107,-1.15504241,-0.442435652
1739,1.55965633046e+18,1.099511623,-1.097010136,-0.2958280146
1740,1.55965633051e+18,0.5967695117,-0.06525873393,-0.2720042467
1741,1.55965633056e+18,0.2039831728,1.334233522,-0.4644267857
1742,1.55965633062e+18,0.326767087,0.40449664,-0.3428646326
1743,1.55965633067e+18,0.6212041378,0.9365602136,-0.6189756989
1744,1.55965633072e+18,0.4220620692,1.325681448,-0.9488429427
1745,1.55965633077e+18,0.3249345124,1.234662533,-1.295203447
1746,1.55965633082e+18,0.2559067309,1.627448797,-1.720365763
1747,1.55965633088e+18,0.09586003423,0.8840258718,-1.738691688
1748,1.55965633093e+18,-0.6390108466,-0.3737457097,-1.250610352
1749,1.55965633098e+18,-1.051955819,-1.574095964,0.163542673
1750,1.55965633103e+18,-1.052566648,-1.505679011,1.742629409
1751,1.55965633108e+18,-2.827130079,-5.061525345,0.01571328565
1752,1.55965633114e+18,-6.847845078,0.561488986,-1.448530793
1753,1.55965633119e+18,-2.738554716,-2.338899136,-1.227397442
1754,1.55965633124e+18,-3.689671993,-7.827523232,-0.67822963
1755,1.55965633129e+18,-2.657309532,-0.7280475497,-0.8956976533
1756,1.55965633134e+18,-1.562639117,0.7001553774,-2.384376287
1757,1.5596563314e+18,-0.6145762205,3.52052021,-1.424706936
1758,1.55965633145e+18,0.3609755635,3.91758275,-0.4479334354
1759,1.5596563315e+18,0.1832137555,4.113059521,0.6479588151
1760,1.55965633155e+18,-0.4264297485,5.044629097,1.968038559
1761,1.5596563316e+18,-1.089829445,7.367138863,3.338209391
1762,1.55965633166e+18,-2.85950613,10.86067677,4.902024269
1763,1.55965633171e+18,-5.193622112,-0.6400829554,8.276444435
1764,1.55965633176e+18,-4.213794231,-1.329138875,9.525053024
1765,1.55965633181e+18,-0.4899597466,6.949306488,5.313136578
1766,1.55965633186e+18,3.010298014,0.4344290495,-5.187636852
1767,1.55965633192e+18,3.401252031,-2.776278734,-4.640301704
1768,1.55965633197e+18,1.607751489,-0.9436829686,-3.246307135
1769,1.55965633202e+18,1.131887436,-2.184350252,-2.075278521
1770,1.55965633207e+18,0.4532161951,-3.712735176,0.1775925756
1771,1.55965633212e+18,-0.4612490833,-3.739002228,2.07677269
1772,1.55965633218e+18,0.03538436815,-5.880084991,3.68273735
1773,1.55965633223e+18,0.9357997179,-6.523937225,3.70595026
1774,1.55965633228e+18,1.034149051,-2.696866274,2.862956285
1775,1.55965633233e+18,-0.1142776161,-0.02982855029,1.925888896
1776,1.55965633238e+18,-1.317071319,0.7190922499,-0.02032776177
1777,1.55965633244e+18,-1.682979584,0.2780475318,-0.7338183522
1778,1.55965633249e+18,-1.76055944,0.2175718695,-1.574368954
1779,1.55965633254e+18,-1.391596794,0.998257637,-1.428982973
1780,1.55965633259e+18,-0.4239862859,1.196177959,-1.569482088
1781,1.55965633264e+18,0.6279236674,0.7661288381,-1.289705634
1782,1.5596563327e+18,1.295599341,0.06485556066,-0.7875745296
1783,1.55965633275e+18,1.59064734,0.4026640356,-0.2720042467
1784,1.5596563328e+18,1.377455354,-0.04326758534,0.2118010223
1785,1.55965633285e+18,0.8545547128,-1.195970297,0.6137503386
1786,1.5596563329e+18,0.4813160002,-0.2863919735,1.057238579
1787,1.55965633296e+18,0.1990962476,-0.6064853668,1.037690759
1788,1.55965633301e+18,0.3096628785,-0.5264619589,1.623510599
1789,1.55965633306e+18,0.476429075,0.4900177717,1.13298583
1790,1.55965633311e+18,0.4080121815,0.2951517701,-0.3263712525
1791,1.55965633316e+18,0.6230367422,1.684259295,-0.8492718935
1792,1.55965633322e+18,0.6144846082,0.9481666684,-0.9384582639
1793,1.55965633327e+18,0.3786906302,0.4655831456,-0.7912396789
1794,1.55965633332e+18,0.1709964573,1.411813498,-0.131505236
1795,1.55965633337e+18,-0.2584418058,0.6366254091,0.4292690456
1796,1.55965633342e+18,0.08425358683,-0.4116193354,0.2032489181
1797,1.55965633348e+18,1.357907534,-4.052987099,-0.2206915617
1798,1.55965633353e+18,-1.053788304,-2.481841564,-0.5707173347
1799,1.55965633358e+18,0.5588958859,6.551633835,-1.369118214
1800,1.55965633363e+18,-0.6976539493,-3.203273535,-0.3648557663
1801,1.55965633368e+18,-1.246821761,0.7288661003,2.670533657
1802,1.55965633374e+18,1.673725009,-3.96318984,0.1629318148
1803,1.55965633379e+18,2.293142319,-2.778722286,5.032749653
1804,1.55965633384e+18,-0.8497593999,-8.247187614,4.379734516
1805,1.55965633389e+18,-5.296247482,-3.518480062,4.115230083
1806,1.55965633394e+18,-1.954203725,-0.1263452619,-0.2200807035
1807,1.559656334e+18,-1.378157854,2.784427643,-1.43325901
1808,1.55965633405e+18,-1.596236706,3.419727564,-3.518141985
1809,1.5596563341e+18,-2.861338615,7.860717773,-5.110057354
1810,1.55965633415e+18,-2.398913622,2.332387447,-4.226745605
1811,1.5596563342e+18,-2.824686766,5.307301044,-3.632374048
1812,1.55965633426e+18,-2.438009024,6.292626858,-2.660487413
1813,1.55965633431e+18,-1.401981592,11.2455225,0.5263966322
1814,1.55965633436e+18,-3.747704029,5.161914825,6.465228558
1815,1.55965633441e+18,-5.009140491,-2.859967232,7.723610878
1816,1.55965633446e+18,-2.33355093,6.533918381,7.121297836
1817,1.55965633452e+18,2.908894539,-3.867894888,-5.879746914
1818,1.55965633457e+18,2.973646164,0.1137247831,-6.058730602
1819,1.55965633462e+18,1.626077533,0.2224587947,-4.237130165
1820,1.55965633467e+18,0.9150303602,-1.796450853,-3.333660841
1821,1.55965633472e+18,0.4086230397,-3.368206978,-1.434480786
1822,1.55965633478e+18,-0.2547766268,-4.86055088,0.9320111871
1823,1.55965633483e+18,-0.2547766268,-6.426809788,2.957640409
1824,1.55965633488e+18,0.901591301,-6.197734833,3.975341797
1825,1.55965633493e+18,1.725648522,-2.698698759,4.124392986
1826,1.55965633498e+18,1.798341393,-1.563100338,3.69006753
1827,1.55965633504e+18,1.233901978,-1.198413849,2.192837
1828,1.55965633509e+18,0.4886463881,-0.2766180933,0.9784368873
1829,1.55965633514e+18,0.1606117338,0.06729902327,-0.003834401025
1830,1.55965633519e+18,-0.007376197726,0.6286842227,-0.6580711007
1831,1.55965633524e+18,-0.068462722,0.5315566659,-1.235949636
1832,1.5596563353e+18,-0.1319927126,-0.8233425021,-1.523667097
1833,1.55965633535e+18,-0.1698663533,0.1656483263,-1.44669807
1834,1.5596563354e+18,0.2033723146,-0.3395372331,-1.195021629
1835,1.55965633545e+18,0.03294090554,-0.6950607896,-0.9048606753
1836,1.5596563355e+18,-0.121608004,-0.7317126989,-0.9946578145
1837,1.55965633556e+18,-0.4862945676,-0.7121650577,-0.8230047226
1838,1.55965633561e+18,-0.8363203406,0.3018712699,-0.497413516
1839,1.55965633566e+18,-0.78684026,0.3342471421,-0.2530674338
1840,1.55965633571e+18,-0.786229372,0.2859887779,-0.05453621596
1841,1.55965633576e+18,-0.6939886808,-0.03471547365,0.329087168
1842,1.55965633582e+18,-0.3506824672,0.3556274176,0.7017149925
1843,1.55965633587e+18,-0.208350867,0.2896539569,0.8073946238
1844,1.55965633592e+18,-0.3427412212,1.503443241,0.5997004509
1845,1.55965633597e+18,-0.5437158942,1.058733225,-0.03804285452
1846,1.55965633602e+18,-0.5058422089,-1.97971046,-0.7747463584
1847,1.55965633608e+18,-0.2633287311,-1.86059165,-1.109500527
1848,1.55965633613e+18,-0.2040748149,1.128371954,-1.067350864
1849,1.55965633618e+18,0.02683225647,0.4539767206,-1.278099298
1850,1.55965633623e+18,-0.1888031811,1.499778032,-0.8730956316
1851,1.55965633628e+18,-0.6261826754,-1.394501448,-0.7680267692
1852,1.55965633634e+18,-0.5205029845,-2.648607969,-0.1980895549
1853,1.55965633639e+18,-0.7410253286,-3.632711649,0.4323233962
1854,1.55965633644e+18,-2.984122515,-1.717649221,-0.7252662182
1855,1.55965633649e+18,-1.722685814,4.640236378,-3.308004379
1856,1.55965633654e+18,-1.201617837,-0.3578631878,-3.789366245
1857,1.5596563366e+18,-0.9193980098,2.442342997,-1.586586356
1858,1.55965633665e+18,0.1667204052,2.800920963,-1.923783779
1859,1.5596563367e+18,-0.08862127364,3.590769768,-0.9977121353
1860,1.55965633675e+18,-0.9517738819,4.373288155,0.5037946105
1861,1.5596563368e+18,-0.923674047,8.607805252,2.070664167
1862,1.55965633686e+18,-2.070268154,7.203426838,4.615528584
1863,1.55965633691e+18,-5.323736191,1.36477685,7.966124535
1864,1.55965633696e+18,-3.729989052,-4.101856232,8.564772606
1865,1.55965633701e+18,2.549094915,5.946877003,5.708977699
1866,1.55965633706e+18,3.725010395,-5.862370014,-6.315904617
1867,1.55965633712e+18,1.455646157,2.485714674,-2.773497343
1868,1.55965633717e+18,-0.4343709946,0.4173248112,0.4146082997
1869,1.55965633722e+18,-0.923674047,-0.2912788689,-0.8639326692
1870,1.55965633727e+18,-0.9432217479,-0.6810109019,-1.174252152
1871,1.55965633732e+18,-1.00858438,-2.34745121,-1.501676083
1872,1.55965633738e+18,-1.146639943,-3.422574282,-0.9286844134
1873,1.55965633743e+18,-1.307297468,-3.368206978,-0.1241748556
1874,1.55965633748e+18,-1.585241079,-4.285726547,1.305249929
1875,1.55965633753e+18,-1.128924847,-5.463475227,1.961929917
1876,1.55965633758e+18,-0.5131726265,-3.771989107,3.35836792
1877,1.55965633764e+18,-0.1466534734,-2.437859297,4.312539577
1878,1.55965633769e+18,0.00117591559,-2.765893936,4.081021309
1879,1.55965633774e+18,-0.06479752809,-2.437248468,2.798815489
1880,1.55965633779e+18,0.02438879572,-0.5069143176,1.241719842
1881,1.55965633784e+18,0.02377793007,0.4069401026,0.3144263923
1882,1.5596563379e+18,0.1673312634,-0.4244475067,-0.1956460923
1883,1.55965633795e+18,0.03904956207,-0.1544450521,-0.8926433325
1884,1.559656338e+18,-0.1161102131,0.4185465276,-1.54932344
1885,1.55965633805e+18,-0.2657721937,0.4209899902,-1.780230641
1886,1.5596563381e+18,-0.2364506721,0.8608129621,-1.722809196
1887,1.55965633816e+18,-0.03242167458,0.6195212007,-1.488236904
1888,1.55965633821e+18,-0.03975205496,0.3409666419,-1.432648182
1889,1.55965633826e+18,0.2259743214,-0.449492991,-1.101559162
1890,1.55965633831e+18,0.2143678963,-0.1959839016,-1.4864043
1891,1.55965633836e+18,0.4074012935,-0.1190148741,-2.279307365
1892,1.55965633842e+18,0.9229715466,2.497321129,-2.733180523
1893,1.55965633847e+18,1.056140184,1.559031963,-3.175446749
1894,1.55965633852e+18,1.16365242,2.505262136,-2.745397806
1895,1.55965633857e+18,1.072633505,1.209617019,-2.288470507
1896,1.55965633862e+18,1.104398608,-0.4934752882,-1.617740393
1897,1.55965633868e+18,0.9846689701,0.007434229832,-0.832167685
1898,1.55965633873e+18,1.00788188,2.2358706,0.3846758902
1899,1.55965633878e+18,1.987709761,-2.099439859,2.168402433
1900,1.55965633883e+18,1.547275901,-5.556937695,0.2484529465
1901,1.55965633888e+18,6.78666687,0.7624636889,1.348010421
1902,1.55965633893e+18,2.081172228,-0.8893159628,5.019921303
1903,1.55965633899e+18,1.028040409,2.191277504,2.002857924
1904,1.55965633904e+18,-0.2437810451,3.538235426,-0.9482320547
1905,1.55965633909e+18,-1.14480722,2.833907604,-3.202324629
1906,1.55965633914e+18,-0.830211699,1.552312374,-3.974458456
1907,1.55965633919e+18,-1.461846352,0.9719904661,-4.46620512
1908,1.55965633925e+18,-2.230925798,2.629878759,-4.315932274
1909,1.5596563393e+18,-1.889451981,2.2358706,-1.039861798
1910,1.55965633935e+18,-1.019579887,0.6506753564,5.125601292
1911,1.5596563394e+18,-1.354334116,-0.402456373,6.777991772
1912,1.55965633945e+18,-0.6976539493,5.430696011,5.419427395
1913,1.55965633951e+18,1.32614255,-1.444592357,-3.341602087
1914,1.55965633956e+18,1.58087337,1.994578838,-5.420376301
1915,1.55965633961e+18,0.07203628868,1.675707221,-5.587753296
1916,1.55965633966e+18,-1.031186342,-1.033480048,-2.516323328
1917,1.55965633971e+18,-1.4594028,-2.983361959,-2.091160774
1918,1.55965633977e+18,-1.6243366,-4.849555016,-0.9665580392
1919,1.55965633982e+18,-1.362275243,-7.01995945,1.386494875
1920,1.55965633987e+18,-0.1906357706,-8.663187027,2.84829545
1921,1.55965633992e+18,0.5088049173,-4.319324017,3.277733564
1922,1.55965633997e+18,0.3512016833,-3.209992886,3.164723635
1923,1.55965634003e+18,-0.1222188622,-1.46963799,2.225212812
1924,1.55965634008e+18,-0.1271057874,2.204105616,0.7835709453
1925,1.55965634013e+18,0.618760705,1.23893857,0.580763638
1926,1.55965634018e+18,1.507569551,-0.4403299987,0.04747828096
1927,1.55965634023e+18,1.968161941,-0.07991950214,-0.4729789197
1928,1.55965634029e+18,2.245494843,-0.7365996242,-0.7997918129
1929,1.55965634034e+18,2.257712126,-1.732920885,-0.9128018618
1930,1.55965634039e+18,1.635240436,-2.13181591,-1.246945143
1931,1.55965634044e+18,0.822789669,-1.516674519,-0.9134128094
1932,1.55965634049e+18,-0.1741424054,-0.3254873455,-0.540784955
1933,1.55965634055e+18,-0.3360216916,0.699544549,-0.6916686296
1934,1.5596563406e+18,-0.1625359654,0.7105401158,-0.6531841159
1935,1.55965634065e+18,0.1428966522,-0.4421626031,-1.256718993
1936,1.5596563407e+18,-0.5284442902,1.14608705,-3.162007809
1937,1.55965634075e+18,-0.3299130499,3.238300562,-4.044096947
1938,1.55965634081e+18,-0.006765332539,2.488768816,-3.779592514
1939,1.55965634086e+18,-0.1020603105,2.373926163,-2.829086065
1940,1.55965634091e+18,-0.3677866757,1.145476222,-1.677605271
1941,1.55965634096e+18,-0.5431050658,-0.7659211159,-0.105848901
1942,1.55965634101e+18,-0.3751170635,-3.038950682,0.9411741495
1943,1.55965634107e+18,-0.49545753,-4.439053535,1.461631298
1944,1.55965634112e+18,-1.770944238,-5.335803986,2.226434469
1945,1.55965634117e+18,-5.158802509,-1.615023851,1.291810751
1946,1.55965634122e+18,-2.007349014,-4.948515415,0.8513769507
1947,1.55965634127e+18,-1.738568306,-2.7811656,2.191004276
1948,1.55965634133e+18,-0.7404145002,-2.135480881,1.6430583
1949,1.55965634138e+18,0.3194366992,0.2731606066,0.8306075335
1950,1.55965634143e+18,0.532017827,2.613385201,-1.86025393
1951,1.55965634148e+18,0.8179027438,4.410550594,-3.063047647
1952,1.55965634153e+18,0.7110013366,7.720218658,-2.829086065
1953,1.55965634159e+18,0.3658624589,7.416618824,-1.626292467
1954,1.55965634164e+18,-0.7972249985,7.276730537,0.1220038384
1955,1.55965634169e+18,-2.925479412,7.738544941,3.296670437
