,Time (s),Gyroscope x (rad/s),Gyroscope y (rad/s),Gyroscope z (rad/s)
0,1.55965655405e+18,0.1013578176,0.06913162023,0.09634749591
1,1.5596565541e+18,0.118462041,-0.0279959552,0.2075249851
2,1.55965655415e+18,0.2198656797,-1.759188056,0.536781311
3,1.5596565542e+18,0.4147316813,-3.005964041,0.7066018581
4,1.55965655425e+18,1.013990521,-7.287518501,0.388341099
5,1.5596565543e+18,1.202136993,-10.48417664,-0.9115801454
6,1.55965655435e+18,1.238788962,-8.943573952,-0.7649724483
7,1.5596565544e+18,0.9559583068,-4.082308769,-0.2555108666
8,1.55965655446e+18,0.2577393055,-1.369456053,0.2588376403
9,1.55965655451e+18,0.5717240572,-4.545955181,-0.2585652173
10,1.55965655456e+18,2.475790977,-5.517841816,1.015699744
11,1.55965655461e+18,1.847821474,-2.407927036,0.1800360382
12,1.55965655466e+18,0.9186955094,-2.359668732,0.8684811592
13,1.55965655471e+18,0.1441183835,-0.4128410518,1.049908161
14,1.55965655476e+18,-1.050123215,-0.1788796633,0.3498565555
15,1.55965655481e+18,-0.6616128683,2.50770545,-1.641564131
16,1.55965655487e+18,-0.4728555381,4.985374928,-2.781438828
17,1.55965655492e+18,-0.3934430182,5.970089912,-3.294565439
18,1.55965655497e+18,-0.6029697657,5.843640804,-3.040445566
19,1.55965655502e+18,-0.494846642,5.315853119,-2.286638021
20,1.55965655507e+18,-0.6500064135,4.086181164,-1.570703745
21,1.55965655512e+18,-0.9346696138,3.012891293,-1.255497336
22,1.55965655517e+18,-1.277364969,3.190042257,-1.080178976
23,1.55965655522e+18,-1.55164361,2.624991655,-1.060020328
24,1.55965655527e+18,-1.629223347,2.499764442,-0.7991809845
25,1.55965655532e+18,-1.146639943,3.276174068,-0.2634521127
26,1.55965655537e+18,-0.58158952,4.962772846,1.032193065
27,1.55965655543e+18,-0.6237392426,5.061733246,2.096320391
28,1.55965655548e+18,-5.350003242,-2.318740606,6.20011282
29,1.55965655553e+18,-5.295025826,-4.501973152,7.489649296
30,1.55965655558e+18,-2.621268511,14.09643078,5.60085392
31,1.55965655563e+18,4.500809193,2.171118975,-2.113762856
32,1.55965655568e+18,2.246716499,-5.690716743,-2.620170116
33,1.55965655574e+18,0.4782616496,4.670779228,0.675447762
34,1.55965655579e+18,0.2424676865,0.07707286626,-2.322068214
35,1.55965655584e+18,-0.05258022621,-0.9357417226,-3.830294132
36,1.55965655589e+18,0.3964057267,-2.618064642,-3.825407505
37,1.55965655594e+18,-0.1765858829,-7.041339874,-2.553586006
38,1.55965655599e+18,-0.9798736572,-7.47261095,-0.2579543591
39,1.55965655604e+18,-1.589517236,-8.809183121,2.772548199
40,1.55965655609e+18,-2.171060801,-8.54651165,5.958821297
41,1.55965655614e+18,-1.678703547,-8.095693588,8.74009037
42,1.5596565562e+18,-2.015901089,-7.366320133,7.491481781
43,1.55965655625e+18,-2.83323884,-1.342578053,6.126198292
44,1.5596565563e+18,-2.595001459,2.124693155,3.991835117
45,1.55965655635e+18,-1.145418048,0.1467114985,2.310734034
46,1.5596565564e+18,0.2491872162,-1.583869696,0.2215748727
47,1.55965655645e+18,0.7103904486,-0.3890173137,-1.262827635
48,1.5596565565e+18,0.8429482579,0.9664926529,-2.235325098
49,1.55965655656e+18,1.268110514,1.397763491,-3.405742884
50,1.55965655661e+18,1.383563995,1.104548216,-3.68185401
51,1.55965655666e+18,1.419605017,0.9750447869,-2.951259375
52,1.55965655671e+18,1.097068071,-0.1080192998,-2.476006031
53,1.55965655676e+18,0.7806399465,0.06485556066,-1.594527483
54,1.55965655681e+18,0.2119244188,-0.3987911642,-0.3776839375
55,1.55965655686e+18,-0.2804329395,0.1491549611,0.9466719627
56,1.55965655691e+18,-0.8241029978,-0.5930463076,1.588080406
57,1.55965655696e+18,-0.9132893682,-0.5478422642,1.888626099
58,1.55965655702e+18,-0.7746229172,-1.314478159,2.381594419
59,1.55965655707e+18,-0.2584418058,-2.782998323,2.358992338
60,1.55965655712e+18,0.1154077128,-3.269246817,1.608239055
61,1.55965655717e+18,0.5613393784,-1.082960248,-0.4027293921
62,1.55965655722e+18,1.347522974,0.5272805691,-1.476630449
63,1.55965655727e+18,1.864314914,0.7111510038,-3.243252754
64,1.55965655732e+18,1.621190548,1.558421135,-3.814411879
65,1.55965655737e+18,1.382342339,2.217544794,-3.762488365
66,1.55965655742e+18,1.612027645,1.349505186,-2.828475237
67,1.55965655747e+18,1.791621923,0.5651541948,-2.114373684
68,1.55965655752e+18,1.725648522,0.4057183862,-3.165672779
69,1.55965655758e+18,1.950446844,2.147295237,-3.445449114
70,1.55965655763e+18,1.629742622,0.6971010566,-3.085649729
71,1.55965655768e+18,1.852708459,2.064828396,-2.149803877
72,1.55965655773e+18,1.009103537,4.581593037,-1.285429716
73,1.55965655778e+18,0.3200475872,1.857745171,-0.3343124986
74,1.55965655783e+18,-0.1209971309,1.005588055,0.2759419084
75,1.55965655789e+18,-0.8405963778,-4.225862026,0.8666485548
76,1.55965655794e+18,1.276051641,-4.613150597,0.5398356915
77,1.55965655799e+18,2.532601595,-2.632725239,-0.09729678184
78,1.55965655804e+18,3.162403584,-1.349908352,-1.586586356
79,1.55965655809e+18,2.762286901,1.597516537,-1.408824444
80,1.55965655814e+18,2.317576885,0.4887960553,-1.117441773
81,1.55965655819e+18,2.111715317,1.690367937,0.6149721146
82,1.55965655825e+18,1.437320113,3.635363102,3.243525028
83,1.5596565583e+18,0.4416097701,3.154612064,5.327797413
84,1.55965655835e+18,-0.9450542927,2.050167799,5.691873074
85,1.5596565584e+18,-2.22726059,2.922483206,6.596564293
86,1.55965655845e+18,-2.694572449,0.8278262615,7.387635231
87,1.5596565585e+18,-2.890660048,2.467999458,7.800580025
88,1.55965655855e+18,-2.903488398,-1.677942991,6.096877098
89,1.5596565586e+18,-2.940140247,0.4674157798,4.16654253
90,1.55965655866e+18,-2.976181507,3.402623177,2.734063625
91,1.55965655871e+18,-1.905334473,3.640249729,0.7628014684
92,1.55965655876e+18,-0.06785185635,1.717246056,-1.164478421
93,1.55965655881e+18,1.407998562,-1.930841208,-1.346516252
94,1.55965655886e+18,2.114769697,-2.845917225,-1.351403117
95,1.55965655891e+18,2.285811901,-2.122652769,-1.419209242
96,1.55965655896e+18,1.81605649,-1.607082605,-1.04230535
97,1.55965655901e+18,0.9474061728,0.1821416914,-1.224954009
98,1.55965655907e+18,0.7861377597,1.361111522,-1.05574441
99,1.55965655912e+18,0.9657320976,1.377604961,-0.8401089311
100,1.55965655917e+18,1.095846415,0.7826222777,-1.25122118
101,1.55965655922e+18,1.152656913,0.7056531906,-1.629957676
102,1.55965655927e+18,1.365848899,-1.095177531,-2.581685781
103,1.55965655932e+18,1.426935434,-1.192916036,-2.972028494
104,1.55965655937e+18,0.8160701394,-1.130607724,-2.892616272
105,1.55965655942e+18,0.3554777503,-0.4678189456,-1.607355714
106,1.55965655947e+18,0.5350721478,-1.239952683,-1.253664732
107,1.55965655953e+18,0.7378793955,-0.3120482862,-1.697152853
108,1.55965655958e+18,0.7427663207,0.6372363567,-1.859643102
109,1.55965655963e+18,0.7274947166,1.035520434,-1.709981084
110,1.55965655968e+18,0.4971984923,0.6079148054,-1.584142804
111,1.55965655973e+18,0.4733747542,0.9096822143,-1.247555971
112,1.55965655978e+18,0.5179678798,0.7013771534,-0.8431632519
113,1.55965655983e+18,0.4819268584,-0.0200547073,-0.2487913668
114,1.55965655988e+18,0.177105099,-0.00417220965,0.3009873629
115,1.55965655993e+18,0.3872427344,-1.756744623,0.7365342975
116,1.55965655998e+18,0.2449111491,-2.737794161,0.3571869433
117,1.55965656003e+18,-0.2278985381,-2.473900318,-0.42655316
118,1.55965656009e+18,-0.683604002,-5.988818645,-2.506549358
119,1.55965656014e+18,-0.8192161322,-1.122666478,-2.197451353
120,1.55965656019e+18,-2.22726059,-1.302871704,-0.531621933
121,1.55965656024e+18,-2.127078533,-1.516674519,0.4695861638
122,1.55965656029e+18,-2.527806044,-1.523393989,1.776837826
123,1.55965656034e+18,-2.751382828,-3.362709284,3.205651522
124,1.55965656039e+18,-3.150277853,-2.275979996,4.010160923
125,1.55965656044e+18,-4.102616787,-2.040185928,4.56788063
126,1.55965656049e+18,-3.962117672,0.3525730968,4.118895054
127,1.55965656054e+18,-4.309089184,0.8663107753,2.250869036
128,1.5596565606e+18,-3.719604254,1.252988577,-0.06675352156
129,1.55965656065e+18,-2.941362143,2.366595745,-2.00625062
130,1.5596565607e+18,-2.309116364,4.070909977,-3.899932861
131,1.55965656075e+18,-1.643884182,5.218114853,-4.645188332
132,1.5596565608e+18,-0.9994212985,5.951764107,-4.464983463
133,1.55965656085e+18,-0.4655251503,5.882736206,-3.650699854
134,1.5596565609e+18,-0.298148036,4.926121235,-2.706912994
135,1.55965656095e+18,-0.117331937,3.932243347,-1.78084147
136,1.559656561e+18,-0.5406615734,3.552896023,-1.532219291
137,1.55965656106e+18,-1.201617837,4.529058456,-1.034363985
138,1.55965656111e+18,-1.048901439,6.859509945,-0.4845853448
139,1.55965656116e+18,-0.685436666,6.135634422,-0.5023004413
140,1.55965656121e+18,-2.752604485,2.540692329,1.316856146
141,1.55965656126e+18,-5.986525536,-4.296111107,7.569062233
142,1.55965656131e+18,-4.926063061,-3.471443415,9.193352699
143,1.55965656136e+18,-0.9310044646,13.68409634,6.372376919
144,1.55965656141e+18,5.498352051,2.125303984,-5.441756725
145,1.55965656146e+18,3.721345186,-0.1733818799,-3.939639091
146,1.55965656151e+18,1.61386013,0.8498173952,-0.9091367126
147,1.55965656156e+18,1.056751132,-2.238717318,-2.563359976
148,1.55965656161e+18,0.2736218274,0.1803091019,-2.832751513
149,1.55965656166e+18,0.1062447354,-0.6205351949,-2.617115974
150,1.55965656172e+18,0.2638479471,-1.211852789,-2.761890888
151,1.55965656177e+18,0.1923767328,-0.9711718559,-2.266479254
152,1.55965656182e+18,0.6926753521,-1.592421889,-2.102767229
153,1.55965656187e+18,0.9779494405,-1.2277354,-1.541993022
154,1.55965656192e+18,1.303540707,-1.972380042,-0.8969193697
155,1.55965656197e+18,1.403722525,-1.864867806,-0.1608267725
156,1.55965656202e+18,1.42876792,-1.86059165,0.2008054554
157,1.55965656207e+18,1.444039702,-2.272925854,0.9478936791
158,1.55965656212e+18,1.245508432,-2.20511961,1.236832857
159,1.55965656217e+18,0.7042818069,-2.896008253,1.723692536
160,1.55965656222e+18,0.03294090554,-2.257043123,1.643669248
161,1.55965656227e+18,-0.4178776443,-1.664503932,1.431698918
162,1.55965656232e+18,-0.3824474514,-2.414646387,1.424979329
163,1.55965656237e+18,-0.1313818395,-2.013918877,1.366336346
164,1.55965656242e+18,-0.02875648066,-1.659617066,1.326019287
165,1.55965656248e+18,-0.2370615304,-1.4433707,1.388327479
166,1.55965656253e+18,-0.4563621581,-0.6956716776,1.237443686
167,1.55965656258e+18,-0.5638744235,-0.892981112,1.33823657
168,1.55965656263e+18,-0.5192812681,-0.5991549492,1.415816426
169,1.55965656268e+18,-0.6231283545,-0.5802181363,1.366947293
170,1.55965656273e+18,-0.624350071,-0.2821159065,1.021808386
171,1.55965656278e+18,-0.6017481089,-0.6351959705,0.8299966455
172,1.55965656283e+18,-0.530276835,-0.6840652227,0.5117358565
173,1.55965656288e+18,-0.357401967,-0.3749673963,0.297933042
174,1.55965656293e+18,-0.2731025815,-0.3456458747,0.01388069056
175,1.55965656298e+18,-0.298148036,-0.3260982037,-0.09118813276
176,1.55965656304e+18,-0.3121979535,-0.1782688051,-0.3257603645
177,1.55965656309e+18,-0.1826945245,-0.02310903184,-0.2994931936
178,1.55965656314e+18,-0.0623540692,0.02881451324,-0.3123213649
179,1.55965656319e+18,-0.05441282317,-0.2692877054,-0.1913700253
180,1.55965656324e+18,-0.1051146388,-0.04571104795,-0.01544084027
181,1.55965656329e+18,-0.05441282317,-0.2075903267,0.1067322046
182,1.55965656334e+18,0.06042984501,-0.1550559253,0.3034308255
183,1.5596565634e+18,0.1911550164,-0.5539509058,0.5911483765
184,1.55965656345e+18,0.2693457603,-0.4672080576,0.7371451259
185,1.5596565635e+18,0.3976274729,-0.4207823277,0.864205122
186,1.55965656355e+18,0.3872427344,-0.7420974374,0.9857672453
187,1.5596565636e+18,0.3218801618,-0.4946970046,1.030971289
188,1.55965656365e+18,0.2638479471,-0.4873666167,0.9943193793
189,1.5596565637e+18,0.3872427344,-0.4134519398,1.013256192
190,1.55965656375e+18,0.5106375217,-0.6840652227,0.9998171926
191,1.5596565638e+18,0.5448459983,-0.4708732665,0.6992715001
192,1.55965656386e+18,0.5717240572,-0.2082011998,0.4127756953
193,1.55965656391e+18,0.5760000944,-0.26440081,0.01876761205
194,1.55965656396e+18,0.4471075535,-0.009059132077,-0.1681571454
195,1.55965656401e+18,0.2724000812,-0.1532233208,-0.2897193432
196,1.55965656406e+18,-0.03914118931,0.0453078784,-0.3202626109
197,1.55965656411e+18,-0.09472993016,0.1693135202,-0.3672992289
198,1.55965656416e+18,0.1795485616,0.003769038711,-0.4644267857
199,1.55965656421e+18,0.2901151776,-0.3432024121,-0.218248114
200,1.55965656426e+18,0.2162004858,-0.1862100512,0.01326982584
201,1.55965656432e+18,0.1257924289,-0.4403299987,0.02670885995
202,1.55965656437e+18,0.1728290617,0.04714047164,0.07863240689
203,1.55965656442e+18,0.2015397251,-0.06892392784,0.2374573648
204,1.55965656447e+18,0.1960419267,0.03675575927,0.3498565555
205,1.55965656452e+18,0.2552958429,0.2682736814,0.3077068925
206,1.55965656457e+18,0.3304322958,0.1289964169,0.08962798119
207,1.55965656462e+18,0.3298214078,0.2615541816,-0.3233169317
208,1.55965656467e+18,0.4416097701,0.7850656509,-0.5823237896
209,1.55965656472e+18,0.6230367422,0.5950866342,-0.8694304824
210,1.55965656477e+18,0.8007985353,0.1381593943,-1.232895255
211,1.55965656483e+18,0.9736734033,1.075837493,-1.281764507
212,1.55965656488e+18,0.9706190825,0.7416942716,-1.45647192
213,1.55965656493e+18,0.959623456,1.781386852,-1.281764507
214,1.55965656498e+18,0.7910246849,1.459460974,-1.083233237
215,1.55965656503e+18,0.6725168228,1.511995316,-0.6800622344
216,1.55965656508e+18,0.514913559,1.178462863,-0.1479986012
217,1.55965656513e+18,0.3652516007,0.06180123612,0.01388069056
218,1.55965656518e+18,0.3059976697,-1.259500265,0.1769817024
219,1.55965656523e+18,0.3377626538,-2.968701124,0.4213278294
220,1.55965656528e+18,0.4978093505,-2.382881641,0.8861963153
221,1.55965656534e+18,0.3634189963,-1.739029527,0.9955411553
222,1.55965656539e+18,0.1196837798,-1.781790018,1.313191056
223,1.55965656544e+18,0.2675131559,-1.66206038,1.245385051
224,1.55965656549e+18,-0.1460426003,-2.067675114,0.6699499488
225,1.55965656554e+18,-1.275532484,-3.481828213,-3.449725389
226,1.55965656559e+18,-0.2651613355,0.5877562165,-2.203560114
227,1.55965656564e+18,-0.1283275187,-2.407316208,-2.526096821
228,1.5596565657e+18,-1.591960669,-0.7818036675,-1.859643102
229,1.55965656575e+18,-1.888841152,0.4545875788,-1.076513767
230,1.5596565658e+18,-2.220541,1.267038345,-1.563984275
231,1.55965656585e+18,-2.18083477,2.271911621,-1.653781414
232,1.5596565659e+18,-1.948095083,1.604846835,-1.877969027
233,1.55965656595e+18,-1.632888675,1.872405887,-1.775343657
234,1.559656566e+18,-1.70741415,3.002506495,-1.795502186
235,1.55965656605e+18,-1.496665597,5.092276573,-1.5823102
236,1.5596565661e+18,-0.9810953736,5.637168407,-0.9867165685
237,1.55965656616e+18,-0.4056603312,7.100801468,-0.02704728208
238,1.55965656621e+18,-0.5571548939,8.453256607,2.021183729
239,1.55965656626e+18,-5.633445263,-0.4140627682,5.492120266
240,1.55965656631e+18,-5.711024761,-3.755495548,8.062029839
241,1.55965656636e+18,-3.468538523,7.174105644,7.774923801
242,1.55965656641e+18,4.368251324,-1.838600636,-2.504106045
243,1.55965656646e+18,3.547859669,-0.9363526106,-4.715437889
244,1.55965656651e+18,1.046977162,1.707472205,-0.4656485319
245,1.55965656657e+18,0.6462496519,-0.9106962085,-1.41676569
246,1.55965656662e+18,0.6712951064,-2.825758696,-1.904236197
247,1.55965656667e+18,0.9669538736,-1.454977155,-2.160188675
248,1.55965656672e+18,1.281549454,-4.007172108,-1.789393544
249,1.55965656677e+18,1.135552764,-5.376731873,-0.4094489217
250,1.55965656682e+18,0.07142541558,-5.509901047,1.158642173
251,1.55965656687e+18,-0.5889199376,-6.51294136,2.823250055
252,1.55965656692e+18,0.1422857791,-6.798215389,4.433490753
253,1.55965656697e+18,1.25955832,-4.808627605,4.384010792
254,1.55965656703e+18,1.71343112,-2.269260406,3.971676588
255,1.55965656708e+18,0.959623456,0.5718737245,2.401752949
256,1.55965656713e+18,-0.3274695873,1.460071802,0.2912135124
257,1.55965656718e+18,-0.6438977718,0.7966721058,-1.429593921
258,1.55965656723e+18,-0.2859307528,0.9188451767,-1.317805529
259,1.55965656728e+18,0.177105099,0.8620347381,-1.034974933
260,1.55965656733e+18,0.2742326558,0.750246346,-0.9482320547
261,1.55965656738e+18,0.339595288,0.09600968659,-0.9928252697
262,1.55965656743e+18,0.1691638678,0.3238624334,-0.7887962461
263,1.55965656748e+18,-0.1252731979,0.2328435034,-0.4247205555
264,1.55965656753e+18,-0.3256369829,0.3446318507,0.2655571699
265,1.55965656759e+18,-0.3231935501,-0.201481685,0.4897447228
266,1.55965656764e+18,-0.2749351859,-1.120833874,0.6626195908
267,1.55965656769e+18,-0.1130558848,-0.645580709,0.7041584253
268,1.55965656774e+18,0.02561052516,-0.6865086555,0.6943845749
269,1.55965656779e+18,-0.04708243906,-0.4659863412,0.7084344625
270,1.55965656784e+18,-0.1808619201,-0.5234076381,0.3791781068
271,1.55965656789e+18,-0.3329673707,0.0135428831,-0.05575794727
272,1.55965656795e+18,-0.4471991956,0.2456716746,-0.4002859592
273,1.559656568e+18,-0.2902068198,0.3427992463,-0.4363270104
274,1.55965656805e+18,-0.172920689,0.2920974493,-0.3453080654
275,1.5596565681e+18,-0.01898263767,-0.08297382295,-0.3813491166
276,1.55965656815e+18,-0.1295492351,0.31836465,-0.1406682134
277,1.5596565682e+18,-0.001878410578,0.8760845661,-0.3501950204
278,1.55965656825e+18,1.426324606,2.471664667,-0.8883672357
279,1.55965656831e+18,3.208829403,0.5254479647,-2.745397806
280,1.55965656836e+18,3.032289267,4.50095892,-3.669025898
281,1.55965656841e+18,2.318187714,1.858966827,-3.226759434
282,1.55965656846e+18,1.79284358,5.135036945,-0.9103583694
283,1.55965656851e+18,1.423270226,2.383699894,1.115270734
284,1.55965656856e+18,1.238178015,-0.1446712166,1.443916202
285,1.55965656861e+18,1.324920893,1.078281045,1.817154884
286,1.55965656866e+18,0.8490568995,0.416713953,0.4805817306
287,1.55965656872e+18,0.5760000944,0.1851960123,-0.5261241794
288,1.55965656877e+18,0.07386887819,0.5083436966,-1.019703269
289,1.55965656882e+18,-0.4117689729,0.6347928643,-1.061853051
290,1.55965656887e+18,-0.6719975471,0.4038857818,-0.6018714309
291,1.55965656892e+18,-0.735527575,-0.2527943552,-0.8645434976
292,1.55965656897e+18,-0.6506173015,-0.4439951777,-1.545047402
293,1.55965656902e+18,-0.8595331907,-1.412216544,-2.421639204
294,1.55965656908e+18,-1.292025805,-1.48002255,-2.620170116
295,1.55965656913e+18,-1.341505885,-1.148322701,-2.283583403
296,1.55965656918e+18,-1.496665597,-0.9754479527,-1.026422858
297,1.55965656923e+18,-1.354334116,-3.873392582,0.5312835574
298,1.55965656928e+18,-1.382433891,-5.98698616,1.416427255
299,1.55965656933e+18,-0.8320442438,-4.087806225,2.760330915
300,1.55965656938e+18,-1.373881698,-3.575290442,4.0535326
301,1.55965656943e+18,-1.139920354,-3.466556311,2.965581656
302,1.55965656948e+18,-1.55836308,-2.285753965,2.784765482
303,1.55965656953e+18,-1.670151353,-0.8795421124,1.862969875
304,1.55965656958e+18,-1.697640419,-0.1153496876,1.502559304
305,1.55965656963e+18,-1.289582372,-0.4910317957,1.321743131
306,1.55965656969e+18,-1.1942873,-0.1794905365,1.188574553
307,1.55965656974e+18,-1.375103474,-0.07930862904,1.159863949
308,1.55965656979e+18,-1.391596794,-0.1629971713,1.632062793
309,1.55965656984e+18,-0.7679034472,0.07035334408,1.01386714
310,1.55965656989e+18,-0.3848909438,-0.1483364105,0.7878469825
311,1.55965656994e+18,-0.4777424335,-0.6742913723,0.7707427144
312,1.55965656999e+18,-0.7642382383,0.04042095318,0.8434356451
313,1.55965657004e+18,-0.9591042399,0.5138415098,1.027917027
314,1.5596565701e+18,-0.8424290419,0.3018712699,0.7933447361
315,1.55965657015e+18,-0.6469520926,0.7533007264,0.5190662146
316,1.5596565702e+18,-0.5284442902,0.7056531906,0.2289052606
317,1.55965657025e+18,-0.3201391995,0.6757208109,0.03159578145
318,1.5596565703e+18,-0.1741424054,0.3305819333,-0.1027945727
319,1.55965657035e+18,-0.1973552853,0.5779823661,-0.1498311907
320,1.5596565704e+18,-0.1069472358,0.8766955137,-0.2982714474
321,1.55965657045e+18,0.1923767328,0.3733424842,-0.3899012506
322,1.5596565705e+18,0.2644588351,-0.4317778945,-0.2634521127
323,1.55965657056e+18,0.1135751158,-0.2185859084,0.01021549944
324,1.55965657061e+18,-0.01959350146,-0.3126591444,0.1879772842
325,1.55965657066e+18,0.004230241757,-0.2411879301,0.2038597912
326,1.55965657071e+18,0.07875579596,-0.2912788689,0.1818686426
327,1.55965657076e+18,0.1569465548,-0.6089287996,0.1091756672
328,1.55965657081e+18,0.1062447354,-0.4696515203,0.2423443049
329,1.55965657086e+18,0.08730791509,-0.4690406621,0.332752347
330,1.55965657091e+18,0.1783268452,-0.6211461425,0.2429551482
331,1.55965657097e+18,0.1569465548,-0.5319597721,0.277163595
332,1.55965657102e+18,0.2198656797,-0.7359887958,0.1103973985
333,1.55965657107e+18,0.216811344,0.4295421243,-0.01727343537
334,1.55965657112e+18,0.4006817937,0.7514680624,-0.06247746199
335,1.55965657117e+18,0.866771996,0.3708990514,-0.1993112862
336,1.55965657122e+18,1.358518481,0.2511694729,-0.3294255733
337,1.55965657127e+18,1.665783644,-0.1947621554,-0.6660123467
338,1.55965657132e+18,1.981601119,0.2297891825,-0.882258594
339,1.55965657138e+18,2.048796177,0.08929017931,-0.9738884568
340,1.55965657143e+18,1.869812727,0.5394978523,-0.8712630868
341,1.55965657148e+18,1.593701601,0.5767606497,-0.832167685
342,1.55965657153e+18,1.382342339,0.8388218284,-0.8187286258
343,1.55965657158e+18,1.148380876,0.9536644816,-0.7820767164
344,1.55965657163e+18,1.094624758,0.4936829507,-0.8065113425
345,1.55965657168e+18,0.8710480332,0.1149465069,-0.6385233998
346,1.55965657173e+18,0.5338504314,-0.0005070181214,-0.5200154781
347,1.55965657179e+18,0.3127171993,0.0001038470946,-0.4644267857
348,1.55965657184e+18,0.2192548066,-0.2705094516,-0.4216662347
349,1.55965657189e+18,0.3383735418,-0.2149207145,-0.4491551518
350,1.55965657194e+18,0.4183968902,-0.1287887245,-0.4748114944
351,1.55965657199e+18,0.4923115969,-0.2631790638,-0.4161684215
352,1.55965657204e+18,0.5485111475,0.0453078784,-0.3630231619
353,1.55965657209e+18,0.5191896558,0.2358978242,-0.3422537446
354,1.55965657214e+18,0.4324467778,0.6415123343,-0.2866650224
355,1.5596565722e+18,0.3573103547,0.9347276688,-0.2915519476
356,1.55965657225e+18,0.3994600475,1.033077002,-0.2121394575
357,1.5596565723e+18,0.467876941,0.6598383188,-0.1644919515
358,1.55965657235e+18,0.5631719232,0.223680526,-0.218248114
359,1.5596565724e+18,0.5986021161,0.4918503761,-0.2622303963
360,1.55965657245e+18,0.5014745593,0.2310109138,-0.1614376307
361,1.5596565725e+18,0.32249102,0.05996863917,-0.05514708161
362,1.55965657255e+18,0.1997071207,0.3134777248,0.08351932466
363,1.5596565726e+18,0.1160185859,-0.1605537087,0.07618895173
364,1.55965657265e+18,0.2162004858,-1.092123151,0.2099684328
365,1.5596565727e+18,0.4611574411,-1.467194438,0.2325704545
366,1.55965657275e+18,0.7928572893,-3.390198231,-0.4277748764
367,1.55965657281e+18,0.02622138895,-4.379799843,-1.701429009
368,1.55965657286e+18,-1.138087749,0.03614489734,-1.060020328
369,1.55965657291e+18,-1.040349364,-1.183753014,-0.1522746533
370,1.55965657296e+18,-1.540647984,0.1778656244,0.1158951893
371,1.55965657301e+18,-1.924882174,0.4509223998,0.297933042
372,1.55965657306e+18,-1.921217084,-0.3804652095,0.4689753056
373,1.55965657311e+18,-1.750785589,-0.7897449136,0.2808288038
374,1.55965657316e+18,-1.152748585,-0.4006237388,-0.4063946009
375,1.55965657321e+18,-0.3103653491,0.6616709232,-1.37705946
376,1.55965657327e+18,0.2357481718,1.216336489,-1.925616503
377,1.55965657332e+18,0.6468604803,2.658589363,-1.852312565
378,1.55965657337e+18,0.6321997046,2.843070745,-1.898127556
379,1.55965657342e+18,0.6150954366,2.680580616,-1.772289276
380,1.55965657347e+18,0.5637827516,2.342772007,-1.849869132
381,1.55965657352e+18,0.5882173777,2.261527061,-1.650727034
382,1.55965657357e+18,0.3389844,2.354378462,-1.43325901
383,1.55965657362e+18,0.0005650503444,2.554742098,-1.060020328
384,1.55965657367e+18,-0.2065182626,3.329319239,-0.2970497012
385,1.55965657372e+18,-0.3635106385,4.161317825,0.5147902369
386,1.55965657378e+18,-0.4111581147,4.541275978,1.140927076
387,1.55965657383e+18,-4.158816338,0.08318151534,6.506156921
388,1.55965657388e+18,-5.42269659,-5.687051773,8.281941414
389,1.55965657393e+18,-1.686033964,9.019529343,6.588012695
390,1.55965657398e+18,4.735991955,5.370220184,-5.8773036
391,1.55965657403e+18,1.641349077,1.548036337,-1.895684123
392,1.55965657408e+18,-0.08923213929,-1.387171149,0.973549962
393,1.55965657413e+18,-0.2828764319,-0.5692225099,-0.7771897912
394,1.55965657418e+18,-0.4355927408,0.1051726714,-0.6098127365
395,1.55965657423e+18,-0.1881923079,-1.233844042,-0.5597218275
396,1.55965657429e+18,0.2320829779,-1.982153893,-0.8969193697
397,1.55965657434e+18,0.006673702504,-2.622951508,-1.257329822
398,1.55965657439e+18,-0.2193464339,-3.12874794,-1.380113721
399,1.55965657444e+18,-1.411144495,-3.898438215,-1.235949636
400,1.55965657449e+18,-2.726948261,-4.34498024,-0.1351704299
401,1.55965657454e+18,-2.695794106,-3.754273891,0.7554710507
402,1.55965657459e+18,-2.351876974,-2.5655303,1.058460236
403,1.55965657464e+18,-1.567525983,-2.735350847,1.57341969
404,1.5596565747e+18,-0.7752338052,-2.35050559,1.298530221
405,1.55965657475e+18,-0.3787822425,-1.364569068,1.114048958
406,1.5596565748e+18,-0.2242333591,-0.8673248291,1.180022478
407,1.55965657485e+18,-0.1558164507,-1.098231792,0.9472827911
408,1.5596565749e+18,-0.2260659486,-0.2692877054,0.622913301
409,1.55965657495e+18,-0.184527114,-0.1507798582,0.4573688805
410,1.559656575e+18,-0.1234406009,-0.1532233208,0.1293342263
411,1.55965657505e+18,-0.09106473625,0.1949698627,-0.1596050411
412,1.55965657511e+18,-0.01409571525,0.2377304286,-0.5664412975
413,1.55965657516e+18,0.0579863824,0.4344290495,-0.6880034804
414,1.55965657521e+18,0.1086882055,0.00865595974,-0.729542315
415,1.55965657526e+18,0.01522581559,0.1161682457,-0.5126851797
416,1.55965657531e+18,0.0115606254,-0.3774108887,-0.4094489217
417,1.55965657536e+18,-0.06357580423,-0.5466205478,-0.3782947958
418,1.55965657541e+18,-0.2608852983,-0.4928644001,-0.4363270104
419,1.55965657546e+18,-0.4429231286,-0.2106446624,-0.5004678369
420,1.55965657551e+18,-0.5033987761,-0.1587211192,-0.524291575
421,1.55965657557e+18,-0.4649142623,0.08929017931,-0.4961917996
422,1.55965657562e+18,-0.3176957369,0.02209499478,-0.2377957851
423,1.55965657567e+18,-0.2975372076,-0.03349373862,0.06030644849
424,1.55965657572e+18,-0.2535548806,0.02576018684,0.1061213464
425,1.55965657577e+18,-0.1802510619,0.2701062858,0.1482710391
426,1.55965657582e+18,-0.08739954233,0.0996748805,0.2276835293
427,1.55965657587e+18,0.07081454992,0.02637105249,0.2563942075
428,1.55965657593e+18,0.1997071207,-0.2570704222,0.2832722664
429,1.55965657598e+18,0.2314721048,-0.1324539185,0.293656975
430,1.55965657603e+18,0.232693851,-0.2100338042,0.2881591916
431,1.55965657608e+18,0.2595719099,-0.1715492904,0.2961004376
432,1.55965657613e+18,0.3420387208,-0.2925006151,0.2460094839
433,1.55965657618e+18,0.3707493842,-0.3810760677,0.1525471061
434,1.55965657623e+18,0.2980564237,-0.08847161382,0.183090359
435,1.55965657628e+18,0.2699566483,-0.2912788689,0.02854145691
436,1.55965657633e+18,0.284006536,0.09356623143,0.02731972747
437,1.55965657638e+18,0.386021018,-0.2356901467,0.08229760081
438,1.55965657643e+18,0.4202294648,-0.2863919735,0.136053741
439,1.55965657648e+18,0.3957948685,-0.1978164911,0.1470493227
440,1.55965657654e+18,0.3432604671,-0.2833376229,0.1018452868
441,1.55965657659e+18,0.2620153725,-0.2356901467,0.1409406513
442,1.55965657664e+18,0.1722181886,-0.1965947598,0.2020271868
443,1.55965657669e+18,0.06165157259,-0.2149207145,0.2044706494
444,1.55965657674e+18,0.07814493775,0.004379903898,0.2282943875
445,1.55965657679e+18,0.1722181886,-0.05120883137,0.1549905688
446,1.55965657684e+18,0.2076483667,0.2536129355,0.07557807863
447,1.55965657689e+18,0.2076483667,0.3971662521,0.1708730608
448,1.55965657695e+18,0.3560886085,0.4222117364,0.05358693376
449,1.559656577e+18,0.582719624,0.3055364788,-0.08019255847
450,1.55965657705e+18,0.6792363524,0.2114632279,-0.2231350243
451,1.5596565771e+18,0.7146664858,0.2255131155,-0.3453080654
452,1.55965657715e+18,0.7781965137,0.4075509608,-0.6104235649
453,1.5596565772e+18,0.8356178403,0.9225103855,-0.7918505669
454,1.55965657725e+18,0.9315236807,1.075837493,-0.9500646591
455,1.5596565773e+18,1.073244333,1.09660697,-0.9537298679
456,1.55965657736e+18,1.081796527,1.170521617,-0.9079149961
457,1.55965657741e+18,0.9504604936,0.4778004885,-0.788185358
458,1.55965657746e+18,0.9504604936,0.02392759174,-1.001988173
459,1.55965657751e+18,1.103787661,0.07768373191,-1.218234539
460,1.55965657756e+18,1.122113705,-0.5838832855,-0.8132308125
461,1.55965657761e+18,1.060416222,-0.2845593691,-0.6409668326
462,1.55965657766e+18,0.8343961239,0.3592925966,0.01998934336
463,1.55965657771e+18,0.9981079698,-0.7353779078,-0.03010160662
464,1.55965657777e+18,0.712833941,-0.9974390864,-0.2646738589
465,1.55965657782e+18,0.2583501935,-1.533167958,-0.1822070479
466,1.55965657787e+18,-0.5907524824,-1.718260169,-1.155315399
467,1.55965657792e+18,-1.665264487,2.254196644,-1.471132636
468,1.55965657797e+18,-1.096548915,2.708069563,0.4439298213
469,1.55965657802e+18,-2.195495605,-3.266803503,-0.4094489217
470,1.55965657807e+18,-2.226649761,1.219390869,0.03159578145
471,1.55965657813e+18,-2.240088701,-1.921067357,-0.3544710279
472,1.55965657818e+18,-2.494208574,-3.968687773,0.4341559708
473,1.55965657823e+18,-2.509480238,0.157096222,2.000414371
474,1.55965657828e+18,-1.744676948,-1.51606369,0.5929809809
475,1.55965657833e+18,-0.4062712193,0.1943589896,-0.09546418488
476,1.55965657838e+18,0.7134447694,2.193109989,-1.474187016
477,1.55965657843e+18,1.679833651,3.294500113,-1.498010755
478,1.55965657848e+18,1.798341393,3.42766881,-1.265271068
479,1.55965657853e+18,1.092792153,3.256626368,-1.341018438
480,1.55965657859e+18,0.9058673978,3.1197927,-1.064907312
481,1.55965657864e+18,0.9034239054,2.158290863,-0.9738884568
482,1.55965657869e+18,1.05064249,1.79849112,-0.5139068365
483,1.55965657874e+18,1.053696752,1.697698355,-0.5493370295
484,1.55965657879e+18,1.17037189,1.976863742,-0.7906288505
485,1.55965657884e+18,0.8093506694,1.431971908,-0.6922795177
486,1.55965657889e+18,0.4941441715,2.485714674,0.02976318821
487,1.55965657894e+18,0.05615378916,2.397749901,0.03648270294
488,1.55965657899e+18,0.2992781699,3.592602253,0.7175974846
489,1.55965657905e+18,-1.544313073,0.6470101476,4.247787476
490,1.5596565791e+18,-5.826478481,-3.007796526,7.264240265
491,1.55965657915e+18,-5.463013649,-0.05792835355,7.436504364
492,1.5596565792e+18,4.056099415,12.6523447,-0.4564855397
493,1.55965657925e+18,3.886278868,-1.324862957,-3.50287056
494,1.5596565793e+18,1.738476634,0.9793208838,0.379788965
495,1.55965657935e+18,0.7665900588,0.1717569828,-1.017870784
496,1.5596565794e+18,0.7885812521,-0.9003115296,-1.753352404
497,1.55965657945e+18,0.4874246418,-0.6797891855,-1.790004373
498,1.5596565795e+18,0.8203461766,-3.662033319,-2.131478071
499,1.55965657955e+18,0.7708661556,-3.199608326,-1.693487644
500,1.55965657961e+18,0.7794182301,-4.452493191,-0.8498827219
501,1.55965657966e+18,0.5033071637,-4.448827744,-0.02521468513
502,1.55965657971e+18,-0.1234406009,-4.498307705,1.074342728
503,1.55965657976e+18,-0.4887380004,-4.666296005,2.049894571
504,1.55965657981e+18,-0.3897778392,-5.288156509,2.513541222
505,1.55965657986e+18,0.1044121385,-3.531308174,2.931983948
506,1.55965657991e+18,0.3133280575,-1.923510909,1.930775881
507,1.55965657996e+18,0.1209055036,-0.8477771282,1.203846216
508,1.55965658001e+18,-0.03364340216,-0.4702623785,0.6387958527
509,1.55965658006e+18,-0.1503186673,-0.08602815121,0.2008054554
510,1.55965658012e+18,-0.07457137108,0.1949698627,-0.08569034934
511,1.55965658017e+18,0.009117163718,0.2774366736,0.009604634717
512,1.55965658022e+18,0.08242098987,-0.228970632,0.01204809546
513,1.55965658027e+18,0.002397646196,0.1259420812,0.07130202651
514,1.55965658032e+18,-0.04769330099,-0.1782688051,-0.1437225491
515,1.55965658037e+18,-0.1252731979,-0.358474046,-0.2506239712
516,1.55965658042e+18,-0.2248442173,-0.05365229398,-0.135781303
517,1.55965658048e+18,-0.2126269192,-0.3468676209,-0.01971689798
518,1.55965658053e+18,-0.184527114,-0.3016635776,0.07069116086
519,1.55965658058e+18,-0.1497077942,-0.2094229311,0.1458275914
520,1.55965658063e+18,-0.09228646755,-0.3517545462,0.1849229634
521,1.55965658068e+18,-0.03181080893,-0.3621392548,0.3064851463
522,1.55965658073e+18,0.06898195297,-0.2631790638,0.3742912114
523,1.55965658078e+18,0.145950973,-0.09030420333,0.289991796
524,1.55965658083e+18,0.1581682861,-0.2228619754,0.2557833195
525,1.55965658088e+18,0.1783268452,-0.04937623441,0.1311668307
526,1.55965658094e+18,0.2027614415,0.03247970715,0.1152843237
527,1.55965658099e+18,0.2406350821,-0.09885632247,0.06580423564
528,1.55965658104e+18,0.2607936263,0.06729902327,0.04381308705
529,1.55965658109e+18,0.1997071207,-0.1672732234,0.05419779569
530,1.55965658114e+18,0.07570147514,-0.2497400343,0.07313462347
531,1.55965658119e+18,-0.03303254023,-0.07808690518,-0.04292977601
532,1.55965658124e+18,-0.1649794281,-0.01761124469,-0.07286217809
533,1.55965658129e+18,-0.1875814497,0.1027292088,-0.08019255847
534,1.55965658135e+18,-0.1607033759,0.01598634385,-0.02582555078
535,1.5596565814e+18,-0.08434522152,0.02148413099,0.01754588261
536,1.55965658145e+18,0.005451972596,0.1070052609,0.09940182418
537,1.5596565815e+18,0.1227381006,-0.04326758534,0.09756922722
538,1.55965658155e+18,0.1581682861,0.001936442801,0.1195603758
539,1.5596565816e+18,0.2131461501,-0.09702372551,0.1629318148
540,1.55965658165e+18,0.1923767328,-0.04326758534,0.2203531563
541,1.55965658171e+18,0.181381166,-0.1348973662,0.2258509398
542,1.55965658176e+18,0.1392314583,0.03736662492,0.202638045
543,1.55965658181e+18,0.09219484031,-0.1147388145,0.1708730608
544,1.55965658186e+18,0.03660609946,-0.01211345755,0.1525471061
545,1.55965658191e+18,-0.01776090637,-0.04448931664,0.1763708442
546,1.55965658196e+18,-0.02081523277,0.2902648449,0.1806468964
547,1.55965658201e+18,-0.05563455075,0.8669216037,0.226461798
548,1.55965658206e+18,0.09463829547,0.7697940469,0.2912135124
549,1.55965658211e+18,0.1795485616,0.9493884444,0.4512601793
550,1.55965658216e+18,0.2296395153,0.3256950378,0.3358066678
551,1.55965658222e+18,0.291947782,0.2780475318,0.3119829297
552,1.55965658227e+18,0.3169932663,0.3360797465,0.2588376403
553,1.55965658232e+18,0.3438712955,0.2701062858,0.2405117005
554,1.55965658237e+18,0.4300033152,0.3770076931,0.3193133175
555,1.55965658242e+18,0.4654335082,0.6415123343,0.2460094839
556,1.55965658247e+18,0.531406939,0.6934359074,0.2234074771
557,1.55965658252e+18,0.6431953311,0.8931888342,-0.02582555078
558,1.55965658258e+18,0.7311599255,1.13264811,0.0383152999
559,1.55965658263e+18,0.7647574544,0.8400436044,-0.2420718521
560,1.55965658268e+18,0.7678118348,1.568805814,-0.1602158993
561,1.55965658273e+18,0.6639647484,1.039185643,-0.3159865439
562,1.55965658278e+18,0.5326286554,1.650661707,-0.03132333606
563,1.55965658283e+18,0.4672660828,0.4368725121,-0.1779309958
564,1.55965658288e+18,0.5204113722,0.4332073033,-0.1687680185
565,1.55965658294e+18,0.3896862268,0.7618528008,-0.2347414643
566,1.55965658299e+18,0.1147968546,0.4723026752,-0.02887987718
567,1.55965658304e+18,-0.03058907762,0.4380942285,0.1018452868
568,1.55965658309e+18,-0.03547599912,0.1442680508,0.1281124949
569,1.55965658314e+18,0.06653849781,-0.354808867,0.1867555529
570,1.55965658319e+18,0.2424676865,-0.1898752451,0.2038597912
571,1.55965658325e+18,0.2253634632,-1.121444702,0.1513253748
572,1.5596565833e+18,0.279730469,-0.06220440567,0.4176626205
573,1.55965658335e+18,0.2186439335,0.1125030518,0.3486348689
574,1.5596565834e+18,0.1532813609,0.005601634271,0.333363235
575,1.55965658345e+18,0.1679421216,-0.009669996798,0.4030018747
576,1.5596565835e+18,0.1221272349,-0.2295814753,0.5123467445
577,1.55965658355e+18,0.5063614845,-1.717038274,0.3101503253
578,1.5596565836e+18,0.5546197891,-3.747554541,-1.162645698
579,1.55965658366e+18,-0.09045387059,-1.878917575,-3.632984877
580,1.55965658371e+18,0.2210873961,2.044669867,-1.097283244
581,1.55965658376e+18,-0.915732801,-2.230165243,-2.080165386
582,1.55965658381e+18,-1.202839494,0.5321674943,-0.6580711007
583,1.55965658386e+18,-2.13807416,-1.321197629,-0.8877564073
584,1.55965658391e+18,-1.964588523,-0.8911485672,-0.765583396
585,1.55965658396e+18,-1.196730852,-1.326695442,-1.303144813
586,1.55965658401e+18,-0.3170848787,-0.02249816619,-2.184012413
587,1.55965658406e+18,0.2895042896,1.615231514,-2.382543802
588,1.55965658411e+18,0.3249345124,2.053221941,-2.136975765
589,1.55965658417e+18,0.2229200006,1.46740222,-2.053898096
590,1.55965658422e+18,0.03782783076,1.115543842,-2.033128738
591,1.55965658427e+18,0.2119244188,1.484506369,-1.639731526
592,1.55965658432e+18,0.02499966137,1.874238372,-0.961060226
593,1.55965658437e+18,-0.4581947625,2.455171347,-0.4186119139
594,1.55965658442e+18,-0.9536064267,2.96463275,-0.5267350674
595,1.55965658447e+18,-0.829600811,5.535153866,0.4219386578
596,1.55965658452e+18,-0.7153690457,3.591380596,1.756068349
597,1.55965658457e+18,-3.44593668,-0.3083830774,6.117035389
598,1.55965658462e+18,-4.796559334,-3.447619677,7.598383904
599,1.55965658468e+18,-3.305437803,12.84415627,7.122519493
600,1.55965658473e+18,3.481275082,8.241897583,-3.414906025
601,1.55965658478e+18,1.858206272,-1.172146559,-0.9934360981
602,1.55965658483e+18,0.2681240141,-0.8037948012,0.828164041
603,1.55965658488e+18,-0.1423774064,-0.9155831337,-0.9225757718
604,1.55965658493e+18,-0.1142776161,-0.6956716776,-1.143097997
605,1.55965658498e+18,0.271789223,-0.9937739372,-1.706926703
606,1.55965658503e+18,1.002384067,-2.266817093,-2.437521458
607,1.55965658508e+18,1.29254508,-3.120195866,-2.394150257
608,1.55965658513e+18,1.2894907,-4.195929527,-1.968987942
609,1.55965658519e+18,0.6737385392,-5.060914516,-0.8498827219
610,1.55965658524e+18,-0.590141654,-4.799464226,0.2710549533
611,1.55965658529e+18,-1.348836303,-5.208744049,2.131750584
612,1.55965658534e+18,-0.9542173743,-6.621675491,3.241081715
613,1.55965658539e+18,0.1960419267,-5.021819115,3.249022961
614,1.55965658544e+18,0.610819459,-2.03591013,2.416413784
615,1.55965658549e+18,0.2925586104,-0.3138808906,1.513554811
616,1.55965658554e+18,-0.06601926684,-0.05365229398,0.5154010653
617,1.55965658559e+18,-0.3812257349,0.2328435034,-0.190148294
618,1.55965658564e+18,-0.4930140674,0.8821932077,-0.7118272185
619,1.5596565857e+18,-0.2902068198,0.6390689015,-0.6941121221
620,1.55965658575e+18,-0.2382832617,0.4997916222,-0.6385233998
621,1.5596565858e+18,-0.08617781103,0.3275276124,-0.687392652
622,1.55965658585e+18,0.029886581,-0.1623863131,-0.5682738423
623,1.5596565859e+18,0.07936666906,-0.1025215164,-0.3813491166
624,1.55965658595e+18,0.1319010705,-0.09946718812,-0.1101249531
625,1.559656586e+18,0.1209055036,-0.5930463076,0.02060020901
626,1.55965658605e+18,0.1661095321,-0.4268909693,0.3223676383
627,1.5596565861e+18,0.1508379132,-0.4165062606,0.6192481518
628,1.55965658616e+18,0.0543211922,-0.60220927,0.3852867782
629,1.55965658621e+18,-0.05929974467,-0.06648045778,0.3193133175
630,1.55965658626e+18,-0.04463897645,-0.01333518792,0.2472312152
631,1.55965658631e+18,0.07997753471,-0.0823629573,0.2521181405
632,1.55965658636e+18,0.2308612466,-0.0279959552,0.2563942075
633,1.55965658641e+18,0.3664733171,-0.1917078346,0.3455805182
634,1.55965658647e+18,0.4049578607,-0.1318430454,0.297933042
635,1.55965658652e+18,0.3194366992,-0.150169,0.2038597912
636,1.55965658657e+18,0.1881006807,-0.2509617507,0.1140625924
637,1.55965658662e+18,0.03171917796,-0.2894462943,0.02121107467
638,1.55965658667e+18,-0.09228646755,0.160761416,-0.08202515543
639,1.55965658672e+18,-0.1069472358,0.1503766924,-0.1174553409
640,1.55965658678e+18,-0.1118341535,0.1412137151,-0.09607505053
641,1.55965658683e+18,-0.08190175891,0.4319855571,-0.05148189142
642,1.55965658688e+18,0.02866485156,0.408772707,0.06458250433
643,1.55965658693e+18,0.09524916112,0.3165320456,0.1226147115
644,1.55965658698e+18,0.5485111475,-0.1904861182,0.1653752774
645,1.55965658703e+18,0.6383083463,0.2731606066,0.1427732557
646,1.55965658708e+18,0.755594492,-0.3853521049,0.09695836902
647,1.55965658713e+18,0.9553474188,0.4747461677,-0.3349233568
648,1.55965658718e+18,1.125778794,0.2511694729,-0.8706521392
649,1.55965658723e+18,1.536280274,1.245047212,-1.18463695
650,1.55965658729e+18,1.681055307,1.376383305,-1.246945143
651,1.55965658734e+18,1.472750187,1.456406593,-0.7637507915
652,1.55965658739e+18,1.006660104,0.4484789371,-0.4864179492
653,1.55965658744e+18,0.4391662776,-0.1691058129,0.03648270294
654,1.55965658749e+18,-0.1674228907,-1.086625338,-0.03437766433
655,1.55965658754e+18,-0.05441282317,-2.732296467,-0.4167793095
656,1.55965658759e+18,-0.5504354239,-2.097607374,-1.238393068
657,1.55965658765e+18,-0.6445086598,1.34461832,-0.6098127365
658,1.5596565877e+18,-0.6561151147,-1.220404863,-1.733804822
659,1.55965658775e+18,-1.17107451,-0.2546269596,-0.532843709
660,1.5596565878e+18,-1.409311891,-1.213685393,-0.2243567556
661,1.55965658785e+18,-1.882732511,-0.3749673963,0.2667788863
662,1.5596565879e+18,-2.344546556,-0.9088636637,0.4146082997
663,1.55965658795e+18,-2.500928164,-1.558213353,0.2099684328
664,1.559656588e+18,-1.216889381,-1.983986497,-0.4137249887
665,1.55965658805e+18,-0.08373434842,0.809500277,-1.420430899
666,1.5596565881e+18,0.327377975,2.036728621,-2.45645833
667,1.55965658815e+18,0.374414593,3.282893658,-2.728904247
668,1.5596565882e+18,0.3487582505,3.094136238,-2.511436224
669,1.55965658826e+18,0.2962238193,2.711734533,-2.020911455
670,1.55965658831e+18,0.02072360367,2.611552715,-1.508395553
671,1.55965658836e+18,-0.3665649593,2.188833952,-1.239614725
672,1.55965658841e+18,-0.6829931736,1.681204915,-0.8883672357
673,1.55965658846e+18,-1.109377027,1.413645983,-0.6763970256
674,1.55965658851e+18,-1.249265313,1.060565948,-0.7014424801
675,1.55965658856e+18,-0.9560499191,2.095371485,-0.2451261729
676,1.55965658861e+18,-0.6115218997,3.790522814,0.1091756672
677,1.55965658867e+18,-0.04036292434,6.43434763,0.7597471476
678,1.55965658872e+18,-2.386696339,1.615842462,3.985115767
679,1.55965658877e+18,-6.471552372,-3.65164876,7.506753922
680,1.55965658882e+18,-3.705554485,-0.8990897536,9.041858673
681,1.55965658887e+18,4.125738144,8.659119606,-1.336131454
682,1.55965658892e+18,3.660869598,-3.414632797,-3.617713213
683,1.55965658897e+18,1.152656913,0.9732121825,1.456744432
684,1.55965658903e+18,0.7586488128,-3.021846533,-1.81749332
685,1.55965658908e+18,0.9076999426,-0.8685464859,-1.720365763
686,1.55965658913e+18,0.9235824347,-2.751233101,-2.570690155
687,1.55965658918e+18,0.3414278626,-4.249074936,-1.891407967
688,1.55965658923e+18,-0.08373434842,-5.714540482,-0.8162851334
689,1.55965658928e+18,-0.6829931736,-5.352908134,0.6888867617
690,1.55965658933e+18,-0.9084023833,-5.726758003,2.648542404
691,1.55965658938e+18,-0.5015661716,-6.81348753,3.909979343
692,1.55965658943e+18,0.07142541558,-3.347437859,4.037650108
693,1.55965658949e+18,0.1911550164,-1.293708682,3.40845871
694,1.55965658954e+18,0.1038012803,-0.2332466692,2.165958881
695,1.55965658959e+18,0.1215163693,0.09112276882,0.7285929918
696,1.55965658964e+18,-0.08129089326,0.7838439345,-0.2481804937
697,1.55965658969e+18,0.004230241757,0.852871716,-1.030698895
698,1.55965658974e+18,0.2449111491,0.6744990945,-1.143708944
699,1.55965658979e+18,0.3915188015,0.2297891825,-0.8181177974
700,1.55965658985e+18,0.3169932663,-0.04265671968,-0.8914216161
701,1.5596565899e+18,0.1752725095,-0.06342613697,-0.9305169582
702,1.55965658995e+18,0.08119926602,-0.1043541133,-0.7429813147
703,1.55965659e+18,0.05065600201,-0.4953078628,-0.4015076756
704,1.55965659005e+18,-0.02386956103,-0.6944499612,0.01510242186
705,1.5596565901e+18,-0.08434522152,-0.4501038492,0.2515072823
706,1.55965659015e+18,-0.0550236851,-0.7213280201,0.4439298213
707,1.5596565902e+18,0.04454734921,-0.2424096465,0.5722115636
708,1.55965659026e+18,0.0482125394,-0.1996490955,0.4671427011
709,1.55965659031e+18,0.05187772959,-0.1972056329,0.3180915713
710,1.55965659036e+18,0.0653167665,-0.02310903184,0.226461798
711,1.55965659041e+18,0.0408821553,-0.1837665886,0.09818009287
712,1.55965659046e+18,-0.002489275998,0.02209499478,-0.02582555078
713,1.55965659051e+18,-0.01715004072,-0.02371989749,-0.1516637951
714,1.55965659056e+18,-0.02325869352,0.001325577614,-0.1486094594
715,1.55965659062e+18,-0.06785185635,-0.2784507275,-0.08263601363
716,1.55965659067e+18,-0.1600925177,-0.2479074448,-0.0007800749154
717,1.55965659072e+18,-0.3042567074,0.004379903898,-0.01116478443
718,1.55965659077e+18,-0.349460721,0.02453845553,-0.1547181159
719,1.55965659082e+18,-0.3097544909,-0.06892392784,-0.1907591671
720,1.55965659087e+18,-0.200409621,0.06241210178,-0.2035873383
721,1.55965659092e+18,-0.02875648066,-0.03715893254,-0.08569034934
722,1.55965659097e+18,0.0653167665,-0.1293995827,-0.03315593302
723,1.55965659102e+18,0.07570147514,-0.0127243232,-0.01238651481
724,1.55965659107e+18,0.0592081137,-0.03349373862,0.07435635477
725,1.55965659112e+18,0.01889100857,-0.07258912176,0.07435635477
726,1.55965659117e+18,0.005451972596,-0.06586959958,0.07924327254
727,1.55965659123e+18,0.002397646196,-0.04937623441,0.1623209417
728,1.55965659128e+18,0.04454734921,-0.08541729301,0.1568231732
729,1.55965659133e+18,0.09769262373,-0.1581102461,0.09146057814
730,1.55965659138e+18,0.1239598319,-0.1648297757,0.04992173985
731,1.55965659143e+18,0.06714936346,-0.2705094516,-0.01666257158
732,1.55965659148e+18,-0.07701484114,-0.0695347935,-0.06919698417
733,1.55965659153e+18,-0.1869705766,-0.009059132077,-0.09424245358
734,1.55965659158e+18,-0.2175138444,0.2059654444,-0.1076814979
735,1.55965659163e+18,-0.2211790383,-0.07381084561,-0.1510529369
736,1.55965659169e+18,-0.2340072095,-0.034104608,-0.1638810933
737,1.55965659174e+18,-0.2468353659,0.02148413099,-0.12356399
738,1.55965659179e+18,-0.2511114478,-0.04876537248,-0.12356399
739,1.55965659184e+18,-0.2535548806,0.07279681414,-0.1455551386
740,1.55965659189e+18,-0.2193464339,0.06607729197,-0.1388356239
741,1.55965659194e+18,-0.1802510619,0.1925264001,-0.1144010052
742,1.55965659199e+18,-0.1313818395,0.3342471421,-0.06553179026
743,1.55965659204e+18,-0.06357580423,0.4784113467,-0.04598410428
744,1.55965659209e+18,0.005451972596,0.2817127407,0.01449155621
745,1.55965659215e+18,-0.02509128861,0.4863525629,0.09023884684
746,1.5596565922e+18,0.08547531813,0.3812837601,0.2185205519
747,1.55965659225e+18,0.05187772959,0.1577070802,0.234403044
748,1.5596565923e+18,0.0530994609,-0.1116844937,0.1824794859
749,1.55965659235e+18,-0.01104138978,0.2499477416,0.2050815076
750,1.5596565924e+18,-0.07518224418,-0.1746036112,0.2637245655
751,1.55965659245e+18,-0.1301601082,-0.08114122599,0.3058742583
752,1.5596565925e+18,-0.1814727932,-0.004783074837,0.09451489896
753,1.55965659255e+18,-0.2468353659,0.07829460502,0.1305559576
754,1.5596565926e+18,-0.1906357706,-0.4378865361,-0.0991293788
755,1.55965659265e+18,-0.1967444271,0.460085392,-0.3856251836
756,1.5596565927e+18,-0.07090618461,0.5278913975,-0.540174067
757,1.55965659276e+18,0.07875579596,0.4228225946,-0.636079967
758,1.55965659281e+18,0.2045940459,0.5046785474,-0.8077331185
759,1.55965659286e+18,0.3084411323,-0.2216402441,-0.8340002298
760,1.55965659291e+18,0.3670842052,0.05813604221,-0.8871455789
761,1.55965659296e+18,0.378079772,0.1021183431,-0.9738884568
762,1.55965659301e+18,0.4477184117,-0.1770470738,-0.9946578145
763,1.55965659306e+18,0.32249102,0.2212370634,-1.023368478
764,1.55965659312e+18,0.2497980595,0.3550165296,-1.180360794
765,1.55965659317e+18,0.1716073155,0.9774882197,-0.9482320547
766,1.55965659322e+18,0.09769262373,0.3684555888,-0.6708992124
767,1.55965659327e+18,0.153892234,0.05080566555,-0.5713281631
768,1.55965659332e+18,0.08303186297,0.1980241835,-0.2603977919
769,1.55965659337e+18,0.007284567691,0.1387702674,-0.178541854
770,1.55965659342e+18,-0.1277166456,-1.185585618,-0.08324687928
771,1.55965659347e+18,-0.1142776161,-1.724368811,0.1696513146
772,1.55965659352e+18,-0.1038929075,-1.453755498,0.5306726694
773,1.55965659358e+18,-0.1649794281,-2.712137938,-0.07164043933
774,1.55965659363e+18,-0.4832402468,-2.101272821,-0.788185358
775,1.55965659368e+18,-0.531498611,2.972574234,-1.072848678
776,1.55965659373e+18,0.5069723725,-2.621729851,-1.570092916
777,1.55965659378e+18,0.9028130174,-1.111060023,-0.6440211535
778,1.55965659383e+18,0.373803705,-0.5802181363,-0.0771382302
779,1.55965659388e+18,-0.1454317421,1.784441233,0.1275016218
780,1.55965659393e+18,-0.07029531896,1.909057736,-0.8175069094
781,1.55965659398e+18,-0.3983299434,2.959135056,-0.9286844134
782,1.55965659404e+18,-0.1545947194,3.15644455,-0.8498827219
783,1.55965659409e+18,-0.4636925459,2.968909025,-0.9983230233
784,1.55965659414e+18,-0.6005263925,2.386754513,-1.008096814
785,1.55965659419e+18,-0.590141654,1.410591722,-0.8162851334
786,1.55965659424e+18,-0.9908692837,1.805821538,-0.7582529783
787,1.55965659429e+18,-1.124037862,2.282296419,-0.6916686296
788,1.55965659434e+18,-1.119761825,2.233427286,-0.6391342878
789,1.5596565944e+18,-1.384266496,2.935922146,-0.7319858074
790,1.55965659445e+18,-0.8418180943,4.756911755,-0.04292977601
791,1.5596565945e+18,-0.3714518845,5.59379673,0.9821020961
792,1.55965659455e+18,-2.864392996,2.528475046,3.776810646
793,1.5596565946e+18,-6.232704163,-2.34378624,7.966735363
794,1.55965659465e+18,-3.184486389,-2.304079771,7.535464287
795,1.5596565947e+18,2.925998688,12.26688862,1.432309866
796,1.55965659476e+18,3.668200016,-4.104300022,-2.614672422
797,1.55965659481e+18,0.8160701394,-0.6468024254,-0.09179899842
798,1.55965659486e+18,0.2119244188,0.8742520213,-1.512671471
799,1.55965659491e+18,0.3512016833,-1.837989569,-2.631165743
800,1.55965659496e+18,0.5601176023,-2.238106489,-2.903000832
801,1.55965659501e+18,0.728105545,-4.633919716,-2.906055212
802,1.55965659506e+18,0.4593248665,-4.275952816,-1.962268472
803,1.55965659512e+18,0.1068556085,-5.150712013,-0.584156394
804,1.55965659517e+18,-0.5754808784,-5.767074585,1.092668653
805,1.55965659522e+18,-1.417863965,-5.41643858,2.334557772
806,1.55965659527e+18,-1.281030297,-2.818428516,2.2856884
807,1.55965659532e+18,-1.156413674,-1.374342918,2.594175577
808,1.55965659537e+18,-0.4062712193,-2.795215607,2.448178768
809,1.55965659543e+18,0.09769262373,-1.98642993,2.146411419
810,1.55965659548e+18,0.271789223,-1.221626639,1.627175808
811,1.55965659553e+18,0.173439905,-0.8770986199,0.5942026973
812,1.55965659558e+18,-0.1087798327,0.2242913991,-0.4851962328
813,1.55965659563e+18,-0.07334964722,0.6793859601,-0.8688195944
814,1.55965659568e+18,0.1062447354,0.4429811537,-1.107056975
815,1.55965659574e+18,0.1685529947,0.7087075114,-1.212736726
816,1.55965659579e+18,0.3469256461,0.3782294393,-0.9861057401
817,1.55965659584e+18,0.4226729572,0.4081618488,-0.730153203
818,1.55965659589e+18,0.6089867949,-0.3096048236,-0.2585652173
819,1.55965659594e+18,0.4599356949,-0.6883413196,0.09695836902
820,1.55965659599e+18,0.2058157623,-0.7628667951,0.3309197426
821,1.55965659604e+18,-0.0928973332,-0.4953078628,0.5129575729
822,1.5596565961e+18,-0.2645504773,-0.3499219418,0.6058091521
823,1.55965659615e+18,-0.2633287311,-0.4751493335,0.4976859689
824,1.5596565962e+18,-0.2211790383,-0.2082011998,0.4793600142
825,1.55965659625e+18,-0.1662011594,-0.3560305834,0.4347668588
826,1.5596565963e+18,0.001786780776,-0.2375227362,0.3602412641
827,1.55965659635e+18,0.1422857791,-0.2332466692,0.2533398867
828,1.5596565964e+18,0.2082592249,-0.3224330246,0.183090359
829,1.55965659645e+18,0.0763123408,-0.124512665,0.02365453541
830,1.55965659651e+18,-0.1442100108,-0.04143498838,-0.143111676
831,1.55965659656e+18,-0.3293021917,0.2328435034,-0.2420718521
832,1.55965659661e+18,-0.39283216,0.1522092968,-0.3453080654
833,1.55965659666e+18,-0.4123798609,0.06546643376,-0.4192227721
834,1.55965659671e+18,-0.4307058156,0.1467114985,-0.4161684215
835,1.55965659676e+18,-0.4148232937,0.0563034527,-0.3886795044
836,1.55965659681e+18,-0.3671758473,-0.03532633558,-0.2610086799
837,1.55965659687e+18,-0.3806148767,-0.1141279489,-0.1021837071
838,1.55965659692e+18,-0.3903886974,-0.1104627624,-0.178541854
839,1.55965659697e+18,-0.3409086168,0.06546643376,-0.1644919515
840,1.55965659702e+18,-0.1319927126,-0.03349373862,0.0505326055
841,1.55965659707e+18,0.07936666906,-0.1293995827,0.136053741
842,1.55965659712e+18,0.1978745311,-0.1599428356,0.1036778763
843,1.55965659717e+18,0.2381916344,-0.2308032215,0.02793059126
844,1.55965659722e+18,0.2705674767,-0.02371989749,0.0444239527
845,1.55965659727e+18,0.2424676865,-0.1281778514,0.07069116086
846,1.55965659732e+18,0.1593900174,-0.1385625601,0.04503481835
847,1.55965659737e+18,0.09769262373,-0.05548489094,-0.007499592844
848,1.55965659742e+18,0.06470590085,0.08379238844,-0.01238651481
849,1.55965659748e+18,0.01889100857,-0.03471547365,-0.02277122252
850,1.55965659753e+18,-0.01715004072,-0.1031323746,-0.04109717906
851,1.55965659758e+18,-0.1203862652,-0.08358469605,-0.05453621596
852,1.55965659763e+18,-0.2010204792,0.01537547819,-0.07958168536
853,1.55965659768e+18,-0.2278985381,0.06241210178,-0.06736438721
854,1.55965659773e+18,-0.1704772115,0.07768373191,-0.08446861058
855,1.55965659778e+18,-0.08984300494,0.04836220294,-0.08263601363
856,1.55965659783e+18,0.029886581,-0.1208474711,-0.03376679868
857,1.55965659789e+18,0.0885296464,0.005601634271,-0.02643641457
858,1.55965659794e+18,0.1221272349,-0.1281778514,-0.006277862005
859,1.55965659799e+18,0.1367879957,-0.02860681899,0.06641510129
860,1.55965659804e+18,0.1386205852,0.02637105249,0.0688585639
861,1.55965659809e+18,0.1667204052,0.1436571777,0.1177277863
862,1.55965659814e+18,0.2308612466,0.1735895723,0.1849229634
863,1.55965659819e+18,0.2895042896,0.1870286167,0.2172988057
864,1.55965659824e+18,0.3023324907,0.3171429038,0.2728875279
865,1.55965659829e+18,0.2950021029,0.2450608015,0.2460094839
866,1.55965659835e+18,0.1435075253,0.2346761078,0.2429551482
867,1.5596565984e+18,0.04027128965,0.01048855577,0.1684295982
868,1.55965659845e+18,-0.1399339586,0.1986350566,0.09512577206
869,1.5596565985e+18,-0.1625359654,-0.07930862904,0.01754588261
870,1.55965659855e+18,-0.1582599133,0.09051190317,-0.02399295382
871,1.5596565986e+18,-0.1356578916,-0.04326758534,0.07374548167
872,1.55965659865e+18,-0.007376197726,-0.5014165044,0.04808914661
873,1.5596565987e+18,-0.2065182626,0.06363382936,0.2307378501
874,1.55965659875e+18,-0.3592346013,0.1002857462,0.4555362463
875,1.5596565988e+18,-0.4496426284,0.2548346519,0.6143612266
876,1.55965659886e+18,-0.396497339,0.4881851673,0.3211458921
877,1.55965659891e+18,-0.04097378626,0.2865996361,-0.1516637951
878,1.55965659896e+18,0.437944591,0.4264878035,-0.6085910201
879,1.55965659901e+18,0.661521256,0.4564201832,-0.7032750845
880,1.55965659906e+18,0.8270657063,0.1436571777,-1.012372971
881,1.55965659911e+18,0.9223607183,0.8864693046,-1.014205456
882,1.55965659916e+18,0.9193063974,0.5804258585,-1.035585761
883,1.55965659922e+18,0.8612741828,1.226721287,-0.7741354704
884,1.55965659927e+18,0.8136267066,0.6421232224,-0.7350401282
885,1.55965659932e+18,0.728716433,0.7490246296,-0.4277748764
886,1.55965659937e+18,0.6273127794,0.1925264001,-0.4021185338
887,1.55965659942e+18,0.6609104276,-0.00172874867,-0.2603977919
888,1.55965659947e+18,0.5552307367,-0.2417987883,-0.2115285844
889,1.55965659952e+18,0.4324467778,-0.1208474711,-0.07286217809
890,1.55965659957e+18,0.2333047092,-0.4482712448,-0.1009619758
891,1.55965659962e+18,0.09158396721,0.152820155,0.007772038691
892,1.55965659967e+18,-0.005543602165,-0.03043941408,-0.03376679868
893,1.55965659972e+18,0.04027128965,0.1790873557,0.003495981684
894,1.55965659977e+18,0.1074664667,-0.0218873024,0.1079539433
895,1.55965659983e+18,0.2956129909,-0.4898100793,-0.1211205274
896,1.55965659988e+18,0.4745964706,-0.3786326051,-0.2640630007
897,1.55965659993e+18,0.5778326988,-0.7072781324,-0.3037692308
898,1.55965659998e+18,0.5772218704,-0.9259678125,-0.1724332124
899,1.55965660003e+18,0.582108736,-1.683440804,-0.3581362367
900,1.55965660008e+18,-0.3628997803,-2.238717318,-1.527943254
901,1.55965660013e+18,-1.33661902,1.890731812,-1.307420731
902,1.55965660018e+18,-1.025077581,0.6097473502,0.4262147248
903,1.55965660023e+18,-0.491181463,-2.464737415,0.7084344625
904,1.55965660029e+18,-1.240102291,-1.371899486,0.9228482246
905,1.55965660034e+18,-1.338451505,-2.215504408,1.167194247
906,1.55965660039e+18,-1.102046728,-0.4122301936,1.958264828
907,1.55965660044e+18,-1.282251954,-0.03838066384,0.8251097202
908,1.55965660049e+18,-0.9419999719,1.643942237,-0.05636881292
909,1.55965660054e+18,0.06042984501,1.430750251,-1.195021629
910,1.55965660059e+18,0.6987839937,2.101480246,-1.94638586
911,1.55965660065e+18,1.134941816,2.770377636,-2.377656698
912,1.5596566007e+18,1.458089471,2.824744701,-2.377656698
913,1.55965660075e+18,1.2626127,2.832075119,-2.328176737
914,1.5596566008e+18,1.304762363,2.390419483,-1.923172951
915,1.55965660085e+18,0.7055035233,2.524809837,-1.252442956
916,1.5596566009e+18,0.1661095321,2.141797304,-1.284818888
917,1.55965660095e+18,-0.1112232879,2.225485802,-1.162034869
918,1.559656601e+18,-0.1716989428,1.618896723,-0.926851809
919,1.55965660106e+18,-0.2010204792,0.7233682871,-0.8278915882
920,1.55965660111e+18,-0.3250261247,0.6690012813,-0.583545506
921,1.55965660116e+18,-0.4313166738,0.6329602599,-0.4766440988
922,1.55965660121e+18,-0.4435339868,1.538873434,-0.2475696355
923,1.55965660126e+18,-0.2584418058,2.639652491,0.4341559708
924,1.55965660131e+18,-0.1026711762,3.49058795,1.018754005
925,1.55965660136e+18,-2.321944475,-0.05059796944,4.641796112
926,1.55965660141e+18,-6.192386627,-2.853247881,8.685112953
927,1.55965660147e+18,-2.398302794,9.317020416,8.825000763
928,1.55965660152e+18,5.120226383,3.25906992,-6.672650337
929,1.55965660157e+18,1.1935848,-0.124512665,-0.8993628621
930,1.55965660162e+18,0.1276250184,-1.007823825,0.1012344211
931,1.55965660167e+18,0.08303186297,-1.659006119,-1.705094099
932,1.55965660172e+18,0.007895433344,-0.9168048501,-2.045346022
933,1.55965660177e+18,0.3579212129,-3.065217972,-1.888964653
934,1.55965660182e+18,0.3499799669,-5.638793468,-1.6782161
935,1.55965660187e+18,0.1196837798,-4.651634693,-0.7551986575
936,1.55965660192e+18,-0.137490496,-4.871546268,0.565492034
937,1.55965660197e+18,-0.1857488602,-5.329084396,1.860526323
938,1.55965660203e+18,0.339595288,-4.277785778,1.94788003
939,1.55965660208e+18,0.2858391106,-4.007172108,2.554469347
940,1.55965660213e+18,0.3279888332,-1.319975972,1.963762522
941,1.55965660218e+18,0.08058839291,-0.2472965717,1.173303008
942,1.55965660223e+18,0.05187772959,-0.4439951777,0.435377717
943,1.55965660228e+18,-0.2529440224,0.08990103751,0.2698332071
944,1.55965660233e+18,-0.235839799,0.2884322405,-0.003834401025
945,1.55965660238e+18,-0.1967444271,0.5914213657,-0.2701716721
946,1.55965660244e+18,0.00117591559,0.3971662521,-0.3697426617
947,1.55965660249e+18,0.076923199,0.1277746856,-0.3282038569
948,1.55965660254e+18,0.02072360367,-0.1171822846,-0.3208734691
949,1.55965660259e+18,-0.1991878748,-0.0707565248,-0.3037692308
950,1.55965660264e+18,-0.3519042134,-0.3694696426,-0.135781303
951,1.55965660269e+18,-0.3555693924,-0.2265271544,-0.08324687928
952,1.55965660274e+18,-0.3256369829,-0.3065505028,0.1171169207
953,1.55965660279e+18,-0.2932611406,-0.5380684137,0.151936233
954,1.55965660284e+18,-0.2028530687,-0.169716686,0.1995837241
955,1.55965660289e+18,-0.06174320728,-0.2876136899,0.2588376403
956,1.55965660295e+18,-0.05135849491,-0.2424096465,0.3040416837
957,1.559656603e+18,-0.05196936056,-0.1086301655,0.3150372505
958,1.55965660305e+18,-0.1625359654,0.1033400744,0.3070960045
959,1.5596566031e+18,-0.2022422254,0.2346761078,0.3584086895
960,1.55965660315e+18,-0.298758924,0.2151284218,0.3107612133
961,1.5596566032e+18,-0.2602744102,0.06057950482,0.1226147115
962,1.55965660325e+18,-0.2645504773,0.21573928,0.02976318821
963,1.55965660331e+18,-0.2193464339,0.03309056908,-0.104016304
964,1.55965660336e+18,-0.1857488602,0.2163501382,-0.1797636002
965,1.55965660341e+18,-0.09106473625,0.1546527594,-0.229854539
966,1.55965660346e+18,-0.04891503602,-0.0127243232,-0.2103068531
967,1.55965660351e+18,0.02316706441,-0.008448266424,-0.2133611739
968,1.55965660357e+18,0.08303186297,-0.02433076315,-0.115622744
969,1.55965660362e+18,0.1092990637,-0.1801013947,-0.05209275335
970,1.55965660367e+18,0.120294638,-0.05792835355,0.03587184101
971,1.55965660372e+18,0.1221272349,-0.1141279489,0.0505326055
972,1.55965660377e+18,0.07997753471,-0.1153496876,0.1116191298
973,1.55965660382e+18,0.0592081137,-0.04876537248,0.0932931751
974,1.55965660387e+18,0.02866485156,-0.07625430822,0.1281124949
975,1.55965660393e+18,0.01033889409,-0.01028086152,0.1543796957
976,1.55965660398e+18,0.03049744852,-0.1110736281,0.2075249851
977,1.55965660403e+18,0.09280569851,0.00865595974,0.1580448896
978,1.55965660408e+18,0.07447974384,0.3049255908,0.07924327254
979,1.55965660413e+18,0.1630552113,0.4857417345,-0.1449442804
980,1.55965660418e+18,0.1117425263,0.8656998873,-0.4668702781
981,1.55965660423e+18,0.2033723146,0.7160379291,-0.6495189667
982,1.55965660429e+18,0.3023324907,0.3629578054,-0.8816477656
983,1.55965660434e+18,0.4904789627,0.5816475749,-1.34040761
984,1.55965660439e+18,0.6199824214,0.1302181333,-1.014205456
985,1.55965660444e+18,0.6370866299,-0.4696515203,-0.7393161654
986,1.55965660449e+18,0.5295743346,0.2499477416,-0.2237458974
987,1.55965660454e+18,0.4049578607,-1.724979639,-0.03132333606
988,1.5596566046e+18,0.5124701262,-1.356016994,0.2637245655
989,1.55965660465e+18,0.5540089607,-2.303468943,-0.3935664296
990,1.5596566047e+18,-0.5376072526,-2.684648991,-1.783284903
991,1.55965660475e+18,-1.183291793,1.47412169,-1.314751267
992,1.5596566048e+18,0.1551139504,-2.503221989,-1.333077192
993,1.55965660485e+18,0.390297085,-2.743292093,-0.8492718935
994,1.55965660491e+18,0.1667204052,-1.52950263,0.230126977
995,1.55965660496e+18,0.16183348,-1.48613131,0.9362872243
996,1.55965660501e+18,0.2559067309,0.2102414817,1.600908518
997,1.55965660506e+18,0.2962238193,-0.559448719,2.406639814
998,1.55965660511e+18,-0.2822655737,0.8443196416,2.966192484
999,1.55965660516e+18,-0.2834872603,-1.75430119,1.861137152
1000,1.55965660521e+18,-0.1399339586,0.6781642437,0.1983619928
1001,1.55965660526e+18,0.01033889409,3.289002419,-2.318402767
1002,1.55965660532e+18,-0.4557512701,5.176576138,-3.327552319
1003,1.55965660537e+18,0.02683225647,5.460017681,-3.449114561
1004,1.55965660542e+18,0.2943912446,4.456365585,-2.943928719
1005,1.55965660547e+18,0.6077650785,4.63290596,-2.245709896
1006,1.55965660552e+18,0.3261562288,3.245630741,-1.820547581
1007,1.55965660557e+18,0.08058839291,2.360486984,-1.17180872
1008,1.55965660562e+18,-0.5412724018,2.398971796,-1.090563774
1009,1.55965660567e+18,-0.8906873465,1.788106441,-0.8065113425
1010,1.55965660572e+18,-1.269423842,1.68914628,-0.7631399035
1011,1.55965660577e+18,-1.353723168,1.846749544,-0.6592927575
1012,1.55965660582e+18,-1.172296286,2.534583807,-0.3721861541
1013,1.55965660588e+18,-0.7856185436,2.609109402,-0.1406682134
1014,1.55965660593e+18,-0.2333963364,4.739807129,0.8935266733
1015,1.55965660598e+18,-2.168617487,1.602403402,2.869675875
1016,1.55965660603e+18,-6.566847324,-3.622937918,7.062654972
1017,1.55965660608e+18,-2.915705681,-3.988846302,8.661289215
1018,1.55965660613e+18,2.99136138,14.46661472,1.608239055
1019,1.55965660618e+18,5.51423502,-6.255766869,-4.025160313
1020,1.55965660623e+18,1.946781754,1.154028296,-0.7478682995
1021,1.55965660628e+18,1.246730089,-0.1813231409,-1.628125072
1022,1.55965660633e+18,1.154489517,-1.918623924,-1.659890175
1023,1.55965660639e+18,0.9492387772,-2.323627472,-2.431412935
1024,1.55965660644e+18,0.7946898937,-4.534348488,-1.991590023
1025,1.55965660649e+18,-0.07396051288,-5.020597458,-1.106446147
1026,1.55965660654e+18,-0.6542824507,-5.64184761,0.6400175691
1027,1.55965660659e+18,-1.125870466,-8.029109001,2.548971415
1028,1.55965660664e+18,-0.6518390775,-5.798229218,3.820182085
1029,1.55965660669e+18,-0.4154341817,-3.622327089,3.438391447
1030,1.55965660674e+18,-0.306089282,-1.910071731,2.214828014
1031,1.5596566068e+18,-0.2144595236,-1.302871704,1.945436597
1032,1.55965660685e+18,-0.1387122124,-0.4409408569,0.906354785
1033,1.5596566069e+18,0.01094975974,-0.2198076546,0.2618919611
1034,1.55965660695e+18,0.01217149012,0.1601505429,-0.304380089
1035,1.559656607e+18,0.01400408521,0.4081618488,-0.6537950635
1036,1.55965660705e+18,0.1361771375,-0.03105027974,-0.7716920376
1037,1.5596566071e+18,0.1978745311,0.4710809588,-0.6030932069
1038,1.55965660715e+18,0.08425358683,0.1595396698,-0.5774368644
1039,1.5596566072e+18,0.1453401148,-0.3267090321,-0.6061475277
1040,1.55965660726e+18,0.1630552113,0.2908757031,-0.2084742635
1041,1.55965660731e+18,0.1685529947,-0.5344032645,-0.1089032218
1042,1.55965660736e+18,0.1031904146,-0.5124121308,0.09023884684
1043,1.55965660741e+18,-0.001878410578,-0.5789964199,0.2759419084
1044,1.55965660746e+18,-0.1533729881,-0.3792434633,0.3810107112
1045,1.55965660751e+18,-0.3946647644,-0.2973875105,0.4940207899
1046,1.55965660756e+18,-0.8601440787,0.3360797465,0.6528457403
1047,1.55965660761e+18,-1.318903923,0.6158559918,1.172081232
1048,1.55965660767e+18,-1.731237888,0.2169610113,1.971703887
1049,1.55965660772e+18,-1.927936554,-0.3664153218,3.010174751
1050,1.55965660777e+18,-1.438633442,-0.150169,3.283231497
1051,1.55965660782e+18,-1.607843161,-1.140381575,3.528799295
1052,1.55965660787e+18,-1.294469237,-0.3713022172,2.525758505
1053,1.55965660792e+18,-1.21750021,-1.008434653,1.869689345
1054,1.55965660797e+18,-0.641454339,-0.1300104558,1.217896104
1055,1.55965660803e+18,-0.1234406009,-1.313256502,0.289991796
1056,1.55965660808e+18,0.05371032655,-2.739015818,0.7145431638
1057,1.55965660813e+18,0.224141717,-2.103716135,0.1000126898
1058,1.55965660818e+18,0.2736218274,-1.167870522,-0.1174553409
1059,1.55965660823e+18,0.1551139504,-0.6144265532,-0.05331448838
1060,1.55965660828e+18,0.007895433344,-0.7091107368,0.05297606811
1061,1.55965660833e+18,-0.08739954233,0.1497658342,0.3028199375
1062,1.55965660838e+18,-0.04891503602,0.1277746856,0.4133865535
1063,1.55965660843e+18,0.004230241757,-0.8141794801,0.3687933981
1064,1.55965660848e+18,0.09891435504,-1.064634323,0.1910316199
1065,1.55965660854e+18,0.002397646196,-0.5337923765,0.1690404713
1066,1.55965660859e+18,0.01583668217,-0.1593319923,0.1207821146
1067,1.55965660864e+18,0.1373988688,-0.01944383979,-0.006277862005
1068,1.55965660869e+18,0.1392314583,-0.06098267809,-0.2793346345
1069,1.55965660874e+18,0.1691638678,-0.1098518968,-0.2280219495
1070,1.55965660879e+18,0.0482125394,-0.221029371,-0.1284509152
1071,1.55965660884e+18,-0.05319108814,0.2187936157,-0.06308832765
1072,1.5596566089e+18,-0.1759750098,0.5853127241,-0.1559398472
1073,1.55965660895e+18,-0.2175138444,0.6415123343,-0.2261893451
1074,1.559656609e+18,-0.3121979535,0.5920323133,-0.1962569654
1075,1.55965660905e+18,-0.5394397974,1.168078303,-0.2408501059
1076,1.5596566091e+18,-0.7257537246,2.185168982,-0.2762803137
1077,1.55965660915e+18,-0.7208667994,2.305509329,-0.1962569654
1078,1.5596566092e+18,-0.6017481089,1.324459672,-0.09057725966
1079,1.55965660925e+18,-0.494846642,1.372717977,0.04014789686
1080,1.5596566093e+18,-0.2773786187,1.032466054,-0.1021837071
1081,1.55965660936e+18,-0.06174320728,0.6451775432,-0.1168444753
1082,1.55965660941e+18,0.03904956207,0.05019479617,0.0334283784
1083,1.55965660946e+18,0.05004513636,-0.4983621836,-0.02277122252
1084,1.55965660951e+18,0.002397646196,-0.7036129236,-0.01055391878
1085,1.55965660956e+18,0.01889100857,-0.6913956404,-0.03376679868
1086,1.55965660961e+18,0.06653849781,-0.5563943982,-0.02521468513
1087,1.55965660966e+18,0.1349553913,-0.4604885578,-0.08630120754
1088,1.55965660971e+18,0.0543211922,-0.1495581418,-0.2188589573
1089,1.55965660976e+18,0.003008511383,0.05691431463,-0.2720042467
1090,1.55965660982e+18,-0.07151705027,0.3385231793,-0.2640630007
1091,1.55965660987e+18,-0.0116522545,0.1283855438,-0.1522746533
1092,1.55965660992e+18,0.04699081182,-0.1654406339,-0.006277862005
1093,1.55965660997e+18,0.0005650503444,-0.1715492904,0.05114347115
1094,1.55965661002e+18,-0.1148884818,0.1021183431,0.0505326055
1095,1.55965661007e+18,-0.14115569,0.2682736814,0.09573663026
1096,1.55965661012e+18,-0.1032820418,0.267051965,0.1036778763
1097,1.55965661017e+18,-0.06540839374,0.3928901851,0.03587184101
1098,1.55965661022e+18,-0.08251262456,0.4741352797,0.02182194032
1099,1.55965661027e+18,-0.05135849491,0.7673506141,-0.04903842881
1100,1.55965661033e+18,-0.0147065809,0.471691817,-0.1809853166
1101,1.55965661038e+18,-0.001267545391,0.451533258,-0.2652847171
1102,1.55965661043e+18,0.01705841348,0.2438390851,-0.5255132914
1103,1.55965661048e+18,-0.005543602165,0.3073690832,-0.5884324312
1104,1.55965661053e+18,-0.08251262456,0.5437739491,-0.5151286125
1105,1.55965661058e+18,-0.1063363627,0.6812185645,-0.2518456876
1106,1.55965661063e+18,-0.172920689,0.2963735163,-0.1345595717
1107,1.55965661068e+18,-0.0672409907,0.8052242398,-0.1168444753
1108,1.55965661073e+18,-0.0611323379,-0.3816869259,-0.6159213781
1109,1.55965661078e+18,0.1147968546,0.6830512285,-0.9256300926
1110,1.55965661084e+18,0.1007469445,0.2493368685,-0.9592276812
1111,1.55965661089e+18,0.2003179789,-0.01516778395,-0.7784115672
1112,1.55965661094e+18,0.157557413,0.04469700903,-0.4650376439
1113,1.55965661099e+18,0.0543211922,0.08440325409,-0.2048090696
1114,1.55965661104e+18,-0.02020436898,-0.008448266424,-0.0392645821
1115,1.55965661109e+18,-0.1222188622,-0.1898752451,0.1507145017
1116,1.55965661114e+18,-0.2340072095,-0.3297633827,0.3810107112
1117,1.55965661119e+18,-0.294482857,-0.5258511305,0.6418501735
1118,1.55965661124e+18,-0.4081037939,0.2847670615,1.064568996
1119,1.55965661129e+18,-0.3415195048,1.012307525,1.1397053
1120,1.55965661135e+18,-0.1973552853,0.2798801363,1.118935943
1121,1.5596566114e+18,-0.04219551757,-0.1306213289,0.4720296264
1122,1.55965661145e+18,0.02316706441,0.1204442978,0.02121107467
1123,1.5596566115e+18,0.1264032871,0.2212370634,-0.3672992289
1124,1.55965661155e+18,0.05371032655,0.4936829507,-0.1706006229
1125,1.5596566116e+18,0.076923199,-0.1165714115,-0.006277862005
1126,1.55965661165e+18,0.05859724805,-0.7756950259,-0.1651028246
1127,1.55965661171e+18,0.27606529,-1.913126111,-0.5310111046
1128,1.55965661176e+18,0.2363590449,-0.5093577504,-0.4247205555
1129,1.55965661181e+18,0.1502270401,0.700766325,-0.3697426617
1130,1.55965661186e+18,0.185657233,0.8009482026,-0.2787237465
1131,1.55965661191e+18,0.3121063113,0.4576418996,-0.5627761483
1132,1.55965661196e+18,0.3420387208,0.8870801926,-0.7460356355
1133,1.55965661201e+18,0.464211762,0.412437886,-0.9244083166
1134,1.55965661206e+18,0.4794833958,0.2652193606,-1.06246388
1135,1.55965661211e+18,0.4733747542,0.1192225739,-1.063685536
1136,1.55965661217e+18,0.3683059514,0.05691431463,-0.8382763267
1137,1.55965661222e+18,0.3927405477,-0.1263452619,-0.8810368776
1138,1.55965661227e+18,0.4978093505,-0.2039251477,-0.9995447397
1139,1.55965661232e+18,0.5943260789,-0.495918721,-1.222510576
1140,1.55965661237e+18,0.6786254644,-0.018832976,-1.437535167
1141,1.55965661242e+18,0.7158882618,0.2713280022,-1.399050713
1142,1.55965661247e+18,0.610819459,0.06913162023,-1.548101664
1143,1.55965661252e+18,0.6120411158,1.037963867,-1.540771365
1144,1.55965661258e+18,0.6370866299,0.888912797,-1.479074001
1145,1.55965661263e+18,0.7843051553,0.2053545713,-1.411878824
1146,1.55965661268e+18,1.343246818,-1.791563988,-2.143695354
1147,1.55965661273e+18,1.490465283,-4.216087818,-2.452793121
1148,1.55965661278e+18,0.6511365175,-1.728644729,-1.199297786
1149,1.55965661283e+18,-0.07090618461,2.689743519,-0.1455551386
1150,1.55965661288e+18,0.6645755768,-6.026082039,-0.8407197595
1151,1.55965661293e+18,1.103787661,1.756952286,1.594189048
1152,1.55965661299e+18,0.6383083463,-0.799518764,2.418246269
1153,1.55965661304e+18,0.4904789627,0.7649071217,2.905106068
1154,1.55965661309e+18,0.7672009468,-1.073186398,1.572197914
1155,1.55965661314e+18,0.9638995528,-0.5618921518,0.1146734506
1156,1.55965661319e+18,0.6236475706,0.3037038743,-1.664776921
1157,1.55965661324e+18,0.1685529947,2.067882776,-3.160785913
1158,1.55965661329e+18,0.0347735025,2.885831356,-3.667804241
1159,1.55965661334e+18,-0.1429882795,4.131385803,-3.536468029
1160,1.55965661339e+18,-0.2786003649,4.228513241,-3.315335035
1161,1.55965661345e+18,-0.2211790383,4.235843182,-2.710578442
1162,1.5596566135e+18,-0.5357746482,4.140548229,-2.320846081
1163,1.55965661355e+18,-0.7550752759,2.754495144,-1.716700554
1164,1.5596566136e+18,-0.8363203406,2.99090004,-1.257329822
1165,1.55965661365e+18,-1.444131255,3.14300561,-1.315972924
1166,1.5596566137e+18,-1.428859591,4.703766346,-1.022757649
1167,1.55965661375e+18,-1.221776247,4.667114258,-1.110111356
1168,1.5596566138e+18,-0.778899014,3.910862923,-0.3306473196
1169,1.55965661385e+18,-1.026299477,3.174159765,1.452468395
1170,1.5596566139e+18,-4.639567375,0.6225755811,5.267932415
1171,1.55965661395e+18,-7.152056217,-5.571598053,7.198266506
1172,1.55965661401e+18,-4.568096161,7.736712456,8.439544678
1173,1.55965661406e+18,4.254019737,5.358003139,-5.13449192
1174,1.55965661411e+18,3.679806471,-5.316256523,-3.848009348
1175,1.55965661416e+18,1.55094099,1.696476698,-0.582934618
1176,1.55965661421e+18,0.6694624424,-1.946112752,-0.6110345125
1177,1.55965661426e+18,0.2736218274,-3.007796526,-1.694098473
1178,1.55965661431e+18,0.4666552544,-1.640680194,-1.441200376
1179,1.55965661437e+18,0.1691638678,-3.451284647,-1.533440948
1180,1.55965661442e+18,0.2540741265,-3.803143024,-0.9861057401
1181,1.55965661447e+18,-0.247446239,-4.602154732,0.08290845901
1182,1.55965661452e+18,-0.8173834682,-3.308953047,0.4543145299
1183,1.55965661457e+18,-0.9010720253,-2.792772055,1.486676812
1184,1.55965661462e+18,-1.039738417,-2.447633266,2.029125214
1185,1.55965661467e+18,-0.2914285362,-2.509330511,2.279579878
1186,1.55965661472e+18,-0.003100140952,-2.93388176,2.533699751
1187,1.55965661477e+18,0.2937803566,-2.170911074,1.996749282
1188,1.55965661482e+18,0.1935984641,-1.061579943,1.250271916
1189,1.55965661487e+18,0.1777159721,-0.697504282,0.7066018581
1190,1.55965661492e+18,0.01889100857,-0.260124743,-0.2274110913
1191,1.55965661498e+18,0.05981897563,-0.5386793017,-0.642799437
1192,1.55965661503e+18,0.07386887819,-0.2277488858,-0.8492718935
1193,1.55965661508e+18,0.1911550164,0.05019479617,-0.7606964111
1194,1.55965661513e+18,0.1819920391,-0.1703275591,-0.5059656501
1195,1.55965661518e+18,0.2155896127,-0.4885883629,-0.2078633904
1196,1.55965661523e+18,0.1648878008,-0.6816217899,0.05603039265
1197,1.55965661528e+18,-0.03853032738,-0.4323887229,0.2380682379
1198,1.55965661533e+18,-0.119775407,-0.5783855319,0.4164408743
1199,1.55965661539e+18,-0.1662011594,-0.0524305664,0.4201060832
1200,1.55965661544e+18,-0.219957307,-0.1574993879,0.4139974415
1201,1.55965661549e+18,-0.2627178729,0.1008966118,0.5551072955
1202,1.55965661554e+18,-0.3042567074,0.4002205729,0.5581616163
1203,1.55965661559e+18,-0.4508643746,-0.2833376229,0.6259676218
1204,1.55965661564e+18,-0.6677215695,0.08195979148,0.5172336698
1205,1.55965661569e+18,-0.9865931869,-0.1923187077,0.761579752
1206,1.55965661574e+18,-1.582186818,-0.08480641991,1.152533412
1207,1.5596566158e+18,-2.076987505,-0.2491291612,1.960708261
1208,1.55965661585e+18,-2.438009024,-0.307772249,2.610057831
1209,1.5596566159e+18,-2.211377859,-1.268663168,3.294227123
1210,1.55965661595e+18,-1.64144063,-1.919845581,3.415789366
1211,1.559656616e+18,-0.976208508,-2.81109786,3.434726
1212,1.55965661605e+18,-0.1704772115,-2.932049274,2.410305023
1213,1.5596566161e+18,0.03171917796,-1.927175999,0.7878469825
1214,1.55965661615e+18,0.02927571721,-0.3835195303,0.00227425131
1215,1.55965661621e+18,-0.04891503602,0.1864177436,-0.1211205274
1216,1.55965661626e+18,-0.05380195752,0.3452427089,-0.03865372017
1217,1.55965661631e+18,0.01278235577,0.1906937957,-0.1205096692
1218,1.55965661636e+18,0.05371032655,-0.02616335824,-0.2597869337
1219,1.55965661641e+18,0.04454734921,0.1186117008,-0.4308291972
1220,1.55965661646e+18,0.02072360367,0.306147337,-0.5694956183
1221,1.55965661651e+18,0.07386887819,0.3171429038,-0.5664412975
1222,1.55965661656e+18,0.03538436815,0.1094487235,-0.5664412975
1223,1.55965661661e+18,-0.003711006371,0.1735895723,-0.4351052642
1224,1.55965661666e+18,-0.04402811453,0.3348580003,-0.2640630007
1225,1.55965661672e+18,-0.08984300494,0.2652193606,-0.04842756316
1226,1.55965661677e+18,-0.09961685538,0.2701062858,0.05297606811
1227,1.55965661682e+18,-0.1209971309,0.3458535671,0.01510242186
1228,1.55965661687e+18,-0.1185536757,0.2242913991,0.030374052
1229,1.55965661692e+18,-0.09167559445,0.2395630181,0.0810758695
1230,1.55965661697e+18,-0.07762569934,-0.018832976,0.1067322046
1231,1.55965661702e+18,-0.07151705027,0.05385999009,0.1103973985
1232,1.55965661707e+18,-0.1295492351,0.12960729,0.1537688226
1233,1.55965661712e+18,-0.0550236851,-0.1165714115,0.1433841288
1234,1.55965661717e+18,-0.0672409907,-0.256459564,0.1763708442
1235,1.55965661722e+18,-0.05868887529,-0.07808690518,0.1708730608
1236,1.55965661727e+18,-0.04341724887,-0.2204184979,0.1256690323
1237,1.55965661733e+18,0.02927571721,-0.3260982037,-0.01055391878
1238,1.55965661738e+18,0.008506298065,-0.2778398395,-0.02338209003
1239,1.55965661743e+18,0.003008511383,0.0984531492,0.04259135947
1240,1.55965661748e+18,-0.04341724887,0.1619831324,0.04198049009
1241,1.55965661753e+18,-0.02692388557,0.3996097147,-0.01055391878
1242,1.55965661758e+18,-0.03303254023,0.2542237937,-0.07652736455
1243,1.55965661763e+18,-0.009208793752,0.8174415231,-0.5035221577
1244,1.55965661768e+18,-0.05746714771,0.9316733479,-1.047803044
1245,1.55965661773e+18,0.3634189963,0.8052242398,-1.942720652
1246,1.55965661778e+18,0.5686697364,1.193123698,-2.331230879
1247,1.55965661783e+18,0.6224258542,1.490004182,-2.391095638
1248,1.55965661789e+18,0.5955477953,1.457017422,-2.213944912
1249,1.55965661794e+18,0.6523582935,1.095996141,-2.078332663
1250,1.55965661799e+18,0.7342142463,0.6977120042,-2.04595685
1251,1.55965661804e+18,0.6829015613,-0.1177931428,-2.102767229
1252,1.55965661809e+18,0.6523582935,0.1913046688,-2.150414705
1253,1.55965661814e+18,0.5888283253,-0.3731348217,-2.204782009
1254,1.55965661819e+18,0.4544379413,-0.7311018705,-1.988535523
1255,1.55965661824e+18,0.3603646755,-0.8325054646,-1.75090909
1256,1.55965661829e+18,0.3108845949,-0.1947621554,-1.232284427
1257,1.55965661835e+18,0.1294576079,-0.1348973662,-0.9592276812
1258,1.5596566184e+18,0.185657233,-0.747595191,-0.7606964111
1259,1.55965661845e+18,0.197263658,-0.7231605649,-0.3856251836
1260,1.5596566185e+18,-0.02814561687,0.0996748805,0.08535192162
1261,1.55965661855e+18,0.08486445248,-0.5038599968,0.2172988057
1262,1.5596566186e+18,0.327377975,-1.39022541,0.384065032
1263,1.55965661865e+18,0.2785087228,-2.890510559,0.521509707
1264,1.55965661871e+18,-0.4600273371,-2.737794161,0.00227425131
1265,1.55965661876e+18,0.4147316813,-4.601543903,-0.6195865273
1266,1.55965661881e+18,-0.2486679703,-0.1629971713,1.009591103
1267,1.55965661886e+18,1.039036036,-0.9571220279,1.581971765
1268,1.55965661891e+18,0.4672660828,0.7361964583,2.677864075
1269,1.55965661896e+18,0.8747131824,0.1467114985,2.56363225
1270,1.55965661901e+18,0.4868137836,-0.4275018275,2.757276535
1271,1.55965661906e+18,0.6932862401,-1.960773587,2.269806147
1272,1.55965661911e+18,0.86555022,0.2114632279,0.6375740767
1273,1.55965661917e+18,-0.04891503602,0.235286966,-1.491291285
1274,1.55965661922e+18,-0.3977190852,2.310396194,-3.02273035
1275,1.55965661927e+18,-0.7501883507,3.60970664,-4.136337757
1276,1.55965661932e+18,-0.4533078372,4.123444557,-4.540119648
1277,1.55965661937e+18,-0.04586071149,5.450854301,-4.093577385
1278,1.55965661942e+18,0.5252982974,4.211408615,-3.498594522
1279,1.55965661947e+18,0.2705674767,3.546176434,-2.935376644
1280,1.55965661953e+18,-0.4826293588,3.786857367,-2.582907438
1281,1.55965661958e+18,-1.364107966,3.111240387,-1.72769618
1282,1.55965661963e+18,-1.503385186,3.56694603,-1.046581388
1283,1.55965661968e+18,-1.201006889,4.661616802,-0.4717571735
1284,1.55965661973e+18,-0.7581295967,5.458184719,-0.5236807466
1285,1.55965661978e+18,-0.06907358766,5.668322086,-0.2756694257
1286,1.55965661983e+18,-3.048263311,1.047126889,4.983269691
1287,1.55965661988e+18,-5.778831005,-2.640055656,8.821946144
1288,1.55965661993e+18,-3.915692091,2.931035519,8.393118858
1289,1.55965661998e+18,3.779988289,12.38722992,-3.293954611
1290,1.55965662003e+18,3.47150135,-6.023638248,-2.690419674
1291,1.55965662008e+18,0.3878535926,1.438080668,-2.043513536
1292,1.55965662013e+18,-0.1997987479,-0.3138808906,-1.636066318
1293,1.55965662019e+18,-1.033018947,-2.713970423,-2.216388464
1294,1.55965662024e+18,-1.324401617,-3.077435255,-1.786339283
1295,1.55965662029e+18,-1.998796821,-6.283866882,-1.220067143
1296,1.55965662034e+18,-3.133784533,-7.334555149,-0.4803093076
1297,1.55965662039e+18,-3.56505537,-3.635155201,1.065179825
1298,1.55965662044e+18,-4.262052536,-5.178200722,1.782946467
1299,1.5596566205e+18,-3.387904644,-5.315645695,3.281399012
1300,1.55965662055e+18,-2.419683218,-8.776197433,4.462812424
1301,1.5596566206e+18,-0.7996683717,-6.764617443,4.300322056
1302,1.55965662065e+18,-0.7245320082,-2.073783636,3.726108789
1303,1.5596566207e+18,-0.3604562879,-2.709694386,2.301571131
1304,1.55965662075e+18,0.0885296464,-2.062177181,1.450635791
1305,1.5596566208e+18,0.07936666906,-0.461099416,0.490355581
1306,1.55965662085e+18,0.06898195297,0.5456064939,-0.5200154781
1307,1.55965662091e+18,0.1471727192,0.5382761359,-1.312918544
1308,1.55965662096e+18,0.1416749209,0.263386786,-1.914010048
1309,1.55965662101e+18,0.06042984501,0.9884838462,-2.137586594
1310,1.55965662106e+18,0.1783268452,1.056289792,-2.480893135
1311,1.55965662111e+18,0.1887115538,0.4826873839,-2.372159004
1312,1.55965662116e+18,0.2247525901,0.2413956076,-2.100323915
1313,1.55965662121e+18,0.05554292351,-0.1434494853,-1.676994205
1314,1.55965662126e+18,-0.1258840561,0.04836220294,-0.9757210016
1315,1.55965662131e+18,-0.2621069849,0.3226406872,-0.1797636002
1316,1.55965662137e+18,-0.3708409965,0.1687026471,0.5441116691
1317,1.55965662142e+18,-0.3708409965,-0.06831305474,1.205678821
1318,1.55965662147e+18,-0.3848909438,-0.01822211035,1.834869981
1319,1.55965662152e+18,-0.3311347663,0.04469700903,2.026070833
1320,1.55965662157e+18,-0.1808619201,-0.3743565381,1.822041869
1321,1.55965662162e+18,-0.006765332539,-0.8312837481,1.347399592
1322,1.55965662167e+18,0.08608618379,-0.8300620317,0.6522348523
1323,1.55965662172e+18,0.1483944356,-0.799518764,0.1397189349
1324,1.55965662177e+18,0.1215163693,-0.6150375009,-0.05820140988
1325,1.55965662182e+18,0.04515821487,-0.04510018229,-0.01666257158
1326,1.55965662187e+18,-0.01104138978,0.3550165296,-0.05392535031
1327,1.55965662192e+18,-0.08739954233,0.6268515587,-0.1999221444
1328,1.55965662198e+18,-0.1301601082,0.6488426924,-0.474200666
1329,1.55965662203e+18,-0.1698663533,0.8815823793,-0.7136597633
1330,1.55965662208e+18,-0.1277166456,0.9958142042,-0.8181177974
1331,1.55965662213e+18,-0.02509128861,0.7313095927,-0.7161032557
1332,1.55965662218e+18,0.04393647984,0.1906937957,-0.5395632386
1333,1.55965662223e+18,0.02744312026,-0.02310903184,-0.3611905873
1334,1.55965662228e+18,-0.07029531896,0.08501411229,-0.1889265776
1335,1.55965662234e+18,-0.09045387059,0.2426173538,-0.003834401025
1336,1.55965662239e+18,-0.05319108814,0.09662055224,0.09390404075
1337,1.55965662244e+18,-0.03914118931,-0.2472965717,0.2521181405
1338,1.55965662249e+18,-0.02814561687,-0.3328177333,0.4298799038
1339,1.55965662254e+18,-0.02203696407,-0.1483364105,0.5862613916
1340,1.55965662259e+18,-0.0147065809,-0.1709384173,0.5147902369
1341,1.55965662264e+18,-0.005543602165,-0.1129062176,0.5105141401
1342,1.55965662269e+18,0.001786780776,-0.2827267647,0.3651282191
1343,1.55965662274e+18,0.04699081182,-0.5319597721,0.1623209417
1344,1.55965662279e+18,0.06837109476,-0.3835195303,0.05114347115
1345,1.55965662285e+18,0.01278235577,-0.08663901687,-0.03193420172
1346,1.5596566229e+18,-0.02875648066,0.07585113496,-0.09240985662
1347,1.55965662295e+18,-0.07029531896,0.3311928213,-0.1211205274
1348,1.559656623e+18,-0.03181080893,0.3171429038,-0.1956460923
1349,1.55965662305e+18,0.01889100857,0.09173363447,-0.296438843
1350,1.5596566231e+18,0.04454734921,-0.08602815121,-0.3740187287
1351,1.55965662316e+18,0.01094975974,0.07951632887,-0.3263712525
1352,1.55965662321e+18,-0.006765332539,0.1515984386,-0.20969598
1353,1.55965662326e+18,-0.02264782973,0.1442680508,-0.1168444753
1354,1.55965662331e+18,-0.01043052413,0.02698191814,-0.01666257158
1355,1.55965662336e+18,0.01400408521,-0.09335853904,0.0816867277
1356,1.55965662341e+18,0.007895433344,-0.1000780538,0.08779538423
1357,1.55965662347e+18,-4.581489338e-05,0.04347528145,-0.006277862005
1358,1.55965662352e+18,-0.001267545391,0.1827525496,0.008993769065
1359,1.55965662357e+18,0.008506298065,0.353183955,0.0004416555748
1360,1.55965662362e+18,-0.002489275998,0.3831163645,0.04136962444
1361,1.55965662367e+18,0.02438879572,-0.02738508955,0.02548713051
1362,1.55965662372e+18,-0.01043052413,0.1687026471,-0.0081104571
1363,1.55965662377e+18,0.005451972596,-0.08908247948,-0.03682112321
1364,1.55965662382e+18,-0.02020436898,-0.2472965717,0.005939442664
1365,1.55965662388e+18,-0.02570215613,-0.08358469605,0.01082636416
1366,1.55965662393e+18,-0.06479752809,0.1283855438,0.01326982584
1367,1.55965662398e+18,-0.01898263767,0.06057950482,-0.03804285452
1368,1.55965662403e+18,0.05187772959,-0.3279307783,-0.08385775238
1369,1.55965662408e+18,0.03538436815,-0.3890173137,-0.1296726316
1370,1.55965662413e+18,-0.02875648066,-0.1910969764,-0.03865372017
1371,1.55965662418e+18,-0.02997821197,-0.1691058129,0.0004416555748
1372,1.55965662424e+18,-0.05624542013,-0.2979983687,0.008382904343
1373,1.55965662429e+18,0.120294638,0.06241210178,-0.2072525322
1374,1.55965662434e+18,0.1092990637,0.2652193606,-0.4821418822
1375,1.55965662439e+18,0.275454402,-0.1648297757,-0.7173250318
1376,1.55965662444e+18,0.7384902835,1.011085868,-1.187691331
1377,1.55965662449e+18,1.301707983,0.9127365351,-1.838262677
1378,1.55965662454e+18,1.561325788,0.6311275959,-2.395371914
1379,1.55965662459e+18,1.559493184,0.6549513936,-2.610396385
1380,1.55965662465e+18,1.274219155,0.7685723305,-2.432634592
1381,1.5596566247e+18,0.8985369802,0.8033916354,-1.798556566
1382,1.55965662475e+18,0.6584669352,0.002547307871,-1.382557273
1383,1.5596566248e+18,0.4971984923,-0.006004805677,-1.217623711
1384,1.55965662485e+18,0.5338504314,-0.4262800813,-1.187080264
1385,1.5596566249e+18,0.3847992718,-0.6272547841,-1.323303342
1386,1.55965662495e+18,0.208870098,-0.4623211324,-1.268325448
1387,1.559656625e+18,0.1997071207,-0.6162591577,-1.14493072
1388,1.55965662505e+18,0.1850463599,-1.329138875,-1.111333132
1389,1.55965662511e+18,0.2699566483,-0.7439299822,-0.9989339113
1390,1.55965662516e+18,0.3896862268,-1.173979163,-1.019703269
1391,1.55965662521e+18,0.6370866299,-2.387768269,-1.134546041
1392,1.55965662526e+18,0.6389192343,-2.149530888,-1.176084876
1393,1.55965662531e+18,-0.4502535164,-0.2747855186,-1.268325448
1394,1.55965662536e+18,-1.554087043,4.689716339,2.217882633
1395,1.55965662541e+18,-0.9395565987,-3.916153431,0.3724585772
1396,1.55965662547e+18,-0.39283216,0.3672338426,1.337014794
1397,1.55965662552e+18,0.2485763431,-3.957081318,1.468350887
1398,1.55965662557e+18,0.3200475872,-2.332179785,2.682140112
1399,1.55965662562e+18,-0.8277682662,-0.1581102461,3.224588394
1400,1.55965662567e+18,-1.348836303,-0.4073432684,2.186728239
1401,1.55965662572e+18,-0.8998503685,0.4270986617,0.4109431207
1402,1.55965662577e+18,-1.120983481,1.555977702,-1.399050713
1403,1.55965662582e+18,-1.289582372,3.05687356,-2.877955437
1404,1.55965662588e+18,-0.9731541872,3.871156931,-3.701401711
1405,1.55965662593e+18,-0.3891669512,3.890704632,-3.929254293
1406,1.55965662598e+18,-0.1649794281,4.409328938,-3.441783905
1407,1.55965662603e+18,-0.08129089326,4.007380009,-2.835805655
1408,1.55965662608e+18,-0.1741424054,3.210811615,-2.526707649
1409,1.55965662613e+18,-0.2639396191,2.827188253,-2.220053434
1410,1.55965662618e+18,-0.5272225142,2.554131269,-1.425928712
1411,1.55965662623e+18,-1.161300659,2.646982908,-1.064296484
1412,1.55965662628e+18,-1.571802139,2.977460861,-1.02581203
1413,1.55965662633e+18,-1.073336005,4.071520805,-0.6165322065
1414,1.55965662639e+18,-0.8577006459,4.960329533,-0.1498311907
1415,1.55965662644e+18,-0.8369312286,4.631684303,0.8318293095
1416,1.55965662649e+18,-3.474647284,-0.05792835355,4.655845642
1417,1.55965662654e+18,-6.150847912,-3.294903278,9.906844139
1418,1.55965662659e+18,-3.951122284,2.042226315,7.516527653
1419,1.55965662664e+18,4.892374039,5.204675674,-4.450322628
1420,1.55965662669e+18,2.90522933,-0.4916426837,-3.962852001
1421,1.55965662674e+18,1.293155909,1.975642085,-1.788171768
1422,1.55965662679e+18,0.7189425826,-0.2766180933,-1.743578672
1423,1.55965662685e+18,0.5576741099,0.6085256338,-2.176071405
1424,1.5596566269e+18,0.6297562122,-1.378008127,-1.527943254
1425,1.55965662695e+18,0.8240113854,-2.140978813,-1.681270361
1426,1.559656627e+18,0.9974971414,-3.268635988,-1.707537651
1427,1.55965662705e+18,1.230236769,-3.901492357,-1.278099298
1428,1.5596566271e+18,0.5778326988,-5.385283947,-0.5487262011
1429,1.55965662715e+18,-1.12464869,-7.364487171,1.172081232
1430,1.55965662721e+18,-2.135630608,-8.740156174,3.460993052
1431,1.55965662726e+18,-2.404411316,-8.228862762,5.234945774
1432,1.55965662731e+18,-0.8399855494,-6.026082039,6.184841156
1433,1.55965662736e+18,-0.3176957369,-3.493434668,6.294186115
1434,1.55965662741e+18,0.1966527998,-5.381618977,5.583138943
1435,1.55965662746e+18,1.218630314,-3.706626415,3.532464504
1436,1.55965662751e+18,0.6945080161,0.3568491638,1.644280076
1437,1.55965662756e+18,0.2644588351,-0.189264372,0.8660377264
1438,1.55965662761e+18,0.2589610517,-0.1550559253,0.2160770893
1439,1.55965662766e+18,0.1160185859,-0.3438133001,-0.2041981965
1440,1.55965662771e+18,-0.07762569934,-0.3370937705,-0.6922795177
1441,1.55965662777e+18,-0.1796402037,0.361736089,-0.9366255999
1442,1.55965662782e+18,-0.2786003649,1.014140129,-1.168754339
1443,1.55965662787e+18,-0.3018132448,0.9481666684,-1.411267996
1444,1.55965662792e+18,-0.3244152665,0.7777352929,-1.383168101
1445,1.55965662797e+18,-0.4502535164,0.94755584,-1.20479548
1446,1.55965662802e+18,-0.6182414293,1.38127017,-0.9445669055
1447,1.55965662807e+18,-0.5919742584,1.701363564,-0.6079801321
1448,1.55965662812e+18,-0.3610671759,1.431361079,-0.4528203309
1449,1.55965662817e+18,-0.3219718039,0.5914213657,-0.1840396374
1450,1.55965662822e+18,-0.3421303332,-0.146503821,-0.06247746199
1451,1.55965662827e+18,-0.2975372076,0.06302297115,0.3180915713
1452,1.55965662832e+18,-0.3091436028,0.2560563982,0.6730042696
1453,1.55965662838e+18,-0.1313818395,-0.05548489094,0.7066018581
1454,1.55965662843e+18,0.02744312026,-0.457434237,0.6039764881
1455,1.55965662848e+18,0.0579863824,-0.6168700457,0.3260328472
1456,1.55965662853e+18,0.09280569851,-0.5710551739,0.324200213
1457,1.55965662858e+18,0.03660609946,-0.4629320204,0.3046525717
1458,1.55965662863e+18,0.076923199,-0.8917593956,0.2032489181
1459,1.55965662868e+18,0.1581682861,-0.8538857698,0.09940182418
1460,1.55965662874e+18,0.029886581,-0.1312321723,0.1213929728
1461,1.55965662879e+18,-0.04524984211,0.4692483544,0.07802154869
1462,1.55965662884e+18,-0.09900598228,0.4118270278,-0.07530563325
1463,1.55965662889e+18,-0.1582599133,0.4588636458,-0.03437766433
1464,1.55965662894e+18,-0.05685628206,0.6335710883,-0.05270362273
1465,1.55965662899e+18,0.001786780776,0.2401738912,-0.3960098922
1466,1.55965662904e+18,-0.03669773042,-0.1978164911,-0.4864179492
1467,1.55965662909e+18,-0.04402811453,0.1461006403,-0.2316871285
1468,1.55965662914e+18,-0.06052147225,0.3342471421,-0.04964929447
1469,1.55965662919e+18,-0.03730859235,0.1833634228,-0.0081104571
1470,1.55965662925e+18,0.02499966137,-0.04754364118,-0.006277862005
1471,1.5596566293e+18,-0.006765332539,-0.1006889194,-0.1046271697
1472,1.55965662935e+18,-0.03303254023,-0.2283597589,-0.02032776177
1473,1.5596566294e+18,-0.02264782973,-0.05304142833,-0.09546418488
1474,1.55965662945e+18,-0.05685628206,-0.08419555426,-0.1840396374
1475,1.5596566295e+18,-0.1429882795,-0.08541729301,-0.4277748764
1476,1.55965662955e+18,-0.1539838612,0.1803091019,-0.5975953937
1477,1.5596566296e+18,-0.1148884818,0.3715099096,-0.634247303
1478,1.55965662966e+18,0.004841106944,0.3385231793,-0.6037040949
1479,1.55965662971e+18,-0.02142609842,-0.004783074837,-0.6745644808
1480,1.55965662976e+18,-0.137490496,0.4338181615,-0.7393161654
1481,1.55965662981e+18,-0.2657721937,0.54682827,-0.8602674603
1482,1.55965662986e+18,-0.3824474514,0.613412559,-1.070405126
1483,1.55965662991e+18,-0.4624707997,1.095996141,-1.254886508
1484,1.55965662996e+18,-0.4917923212,1.3250705,-1.578644991
1485,1.55965663001e+18,-0.5797569752,1.705639601,-1.818715096
1486,1.55965663007e+18,-0.3855017722,1.45762825,-2.353222132
1487,1.55965663012e+18,-0.08556694537,1.431971908,-2.672704697
1488,1.55965663017e+18,0.1001360863,0.4741352797,-2.956757069
1489,1.55965663022e+18,0.2559067309,0.1913046688,-3.182166338
1490,1.55965663027e+18,0.4471075535,-1.67183435,-3.197438002
1491,1.55965663032e+18,0.5937151909,-2.287586451,-2.862072945
1492,1.55965663037e+18,0.7720878124,-0.7408756614,-1.491902113
1493,1.55965663042e+18,0.2583501935,-1.874030709,-0.6232517958
1494,1.55965663048e+18,-0.05624542013,-2.186793804,-1.673939943
1495,1.55965663053e+18,-0.2401158661,-1.452533722,-1.643396735
1496,1.55965663058e+18,0.8905956745,4.363513947,1.684597135
1497,1.55965663063e+18,1.662729383,-3.147073984,-0.8627109528
1498,1.55965663068e+18,2.306581259,-0.3151026368,2.083492279
1499,1.55965663073e+18,2.542375326,-0.03715893254,2.476278543
1500,1.55965663078e+18,2.8160429,0.3647904098,2.926486015
1501,1.55965663083e+18,2.025583267,0.8901345134,3.050492048
1502,1.55965663089e+18,1.415328979,-0.03471547365,1.120157599
1503,1.55965663094e+18,1.154489517,0.5785932541,-1.659890175
1504,1.55965663099e+18,0.1288467497,3.081918955,-3.204768419
1505,1.55965663104e+18,-0.3683975637,4.788065434,-4.153441906
1506,1.55965663109e+18,-0.7654599547,5.538818836,-4.135726929
1507,1.55965663114e+18,-0.5125617385,5.27187109,-3.445449114
1508,1.55965663119e+18,-0.5663178563,4.496072292,-3.034336805
1509,1.55965663125e+18,-0.3714518845,3.550452709,-2.251818657
1510,1.5596566313e+18,-0.4765206873,2.838794708,-1.686768174
1511,1.55965663135e+18,-0.7966140509,3.184544325,-1.423485279
1512,1.5596566314e+18,-1.433135629,3.262735128,-1.314140439
1513,1.55965663145e+18,-1.414809704,3.876654863,-1.403326631
1514,1.5596566315e+18,-0.8124966025,4.697046757,-0.4234988093
1515,1.55965663155e+18,-0.2877633274,5.69520092,0.958278358
1516,1.5596566316e+18,-2.310949087,1.453963161,2.77193737
1517,1.55965663166e+18,-7.561946869,-4.070702076,6.78898716
1518,1.55965663171e+18,-2.453280449,-3.900881529,9.085841179
1519,1.55965663176e+18,3.130027533,14.07810402,1.05051899
1520,1.55965663181e+18,4.027999401,-7.940533638,-2.719741106
1521,1.55965663186e+18,0.6199824214,0.8266045451,-1.18463695
1522,1.55965663191e+18,0.4880355299,1.493669271,-1.478463173
1523,1.55965663196e+18,0.6792363524,-3.812306166,-2.905444384
1524,1.55965663201e+18,-0.2743242979,-4.520909786,-2.337950468
1525,1.55965663206e+18,-1.125870466,-5.713929653,-1.903625369
1526,1.55965663211e+18,-3.159440994,-7.65892458,0.009604634717
1527,1.55965663217e+18,-4.073906422,-6.153752327,1.673601508
1528,1.55965663222e+18,-4.722033978,-6.435361385,3.7193892
1529,1.55965663227e+18,-3.416615248,-6.860523701,6.328394413
1530,1.55965663232e+18,-2.149069786,-8.738934517,6.346109867
1531,1.55965663237e+18,-1.408701062,-1.437262058,4.977160454
1532,1.55965663242e+18,-0.5577657819,-0.5240185261,1.82509625
1533,1.55965663248e+18,0.3579212129,-0.51607728,-0.2726151049
1534,1.55965663253e+18,0.6902319193,-0.6437481046,-1.056355238
1535,1.55965663258e+18,0.7488750219,-0.06892392784,-1.670274734
1536,1.55965663263e+18,0.7238295078,0.8290479779,-2.02274394
1537,1.55965663268e+18,0.7012274861,0.6427340508,-2.207225323
1538,1.55965663273e+18,0.7598705292,0.8858584762,-2.351389647
1539,1.55965663278e+18,0.7458207011,0.5462173223,-2.21455574
1540,1.55965663283e+18,0.5992130041,0.1778656244,-1.814438939
1541,1.55965663288e+18,0.2681240141,-0.1306213289,-1.315362096
1542,1.55965663293e+18,-0.1997987479,0.02514932305,-0.8291133642
1543,1.55965663299e+18,-0.6206848621,-0.1691058129,-0.1021837071
1544,1.55965663304e+18,-0.7489666343,-0.3322068453,0.6711716652
1545,1.55965663309e+18,-0.7953923345,-0.9785022736,1.410929561
1546,1.55965663314e+18,-0.7507991791,-1.290043592,1.930775881
1547,1.55965663319e+18,-0.5663178563,-1.08234942,2.192837
1548,1.55965663324e+18,-0.3787822425,-0.6608523726,2.196502209
1549,1.55965663329e+18,-0.2303420156,-0.1691058129,1.725525141
1550,1.55965663334e+18,-0.03914118931,-0.1568885148,1.078618765
1551,1.55965663339e+18,0.1074664667,-0.2472965717,0.379788965
1552,1.55965663345e+18,0.2113135457,-0.2662333846,-0.1510529369
1553,1.5596566335e+18,0.1777159721,-0.1452820748,-0.4674811065
1554,1.55965663355e+18,0.1062447354,0.2346761078,-0.5383414626
1555,1.5596566336e+18,0.06837109476,0.3892250061,-0.57560426
1556,1.55965663365e+18,0.02072360367,0.2920974493,-0.7057185769
1557,1.5596566337e+18,-0.07090618461,0.365401268,-0.8217829466
1558,1.55965663375e+18,-0.1607033759,0.3818946183,-0.8022353053
1559,1.5596566338e+18,-0.219957307,0.4533658326,-0.634858191
1560,1.55965663386e+18,-0.2828764319,0.4374833703,-0.4033402801
1561,1.55965663391e+18,-0.239504993,0.2951517701,-0.2750585675
1562,1.55965663396e+18,-0.2669939399,0.1283855438,-0.1046271697
1563,1.55965663401e+18,-0.3293021917,0.21573928,0.05908472091
1564,1.55965663406e+18,-0.3354108334,0.4014423192,0.1299450845
1565,1.55965663411e+18,-0.3445738256,0.4399268329,0.1067322046
1566,1.55965663416e+18,-0.2437810451,0.498569876,0.08535192162
1567,1.55965663422e+18,-0.1429882795,0.1375485212,0.1122299954
1568,1.55965663427e+18,-0.08862127364,0.1858068854,0.1568231732
1569,1.55965663432e+18,-0.07090618461,0.2126849592,0.1439950019
1570,1.55965663437e+18,-0.0928973332,0.3379123211,0.1592666209
1571,1.55965663442e+18,-0.08739954233,0.4399268329,0.1525471061
1572,1.55965663447e+18,-0.02203696407,0.2688845396,0.03098491952
1573,1.55965663452e+18,-0.01104138978,0.223680526,-0.1003511101
1574,1.55965663457e+18,-0.01531744562,0.1888612062,-0.1877048314
1575,1.55965663463e+18,-0.01104138978,0.2890431285,-0.3550819159
1576,1.55965663468e+18,-0.01653917693,0.40449664,-0.5676630139
1577,1.55965663473e+18,0.076923199,0.8308805823,-0.7979592085
1578,1.55965663478e+18,0.1465618461,1.075226665,-1.025201082
1579,1.55965663483e+18,0.2595719099,1.130815387,-1.086287618
1580,1.55965663488e+18,0.2852282524,0.9884838462,-1.107667804
1581,1.55965663493e+18,0.1667204052,1.345229149,-0.9665580392
1582,1.55965663499e+18,-0.1136667505,1.413035154,-1.0325315
1583,1.55965663504e+18,-0.3012023866,1.289640427,-1.209682345
1584,1.55965663509e+18,0.1019686833,1.449687123,-1.152871966
1585,1.55965663514e+18,0.7476532459,-0.4195605814,-1.325746775
1586,1.55965663519e+18,1.084850788,-1.663893104,-1.867584229
1587,1.55965663524e+18,1.215576053,-0.4482712448,-2.280529022
1588,1.55965663529e+18,1.296820998,-0.1483364105,-2.629944086
1589,1.55965663534e+18,1.18991971,-0.3157134652,-2.870014191
1590,1.55965663539e+18,0.9223607183,0.2572781146,-2.569468498
1591,1.55965663545e+18,0.6474713683,0.1717569828,-2.20844698
1592,1.5596566355e+18,0.437333703,0.05263825879,-1.540160537
1593,1.55965663555e+18,0.3090519905,-1.171535611,-1.201130271
1594,1.5596566356e+18,0.1954310536,-1.645567179,-0.7014424801
1595,1.55965663565e+18,-0.3720627427,-2.877071619,-1.66844213
1596,1.5596566357e+18,-0.4716337919,5.543095112,-1.348959684
1597,1.55965663575e+18,0.7103904486,-7.585620403,-2.102767229
1598,1.55965663581e+18,1.311481833,1.543760419,1.720638156
1599,1.55965663586e+18,1.623633981,-1.850817919,3.501310349
1600,1.55965663591e+18,1.50451529,-0.9742261767,4.616750717
1601,1.55965663596e+18,0.6425843835,-1.553326368,3.712669611
1602,1.55965663601e+18,1.165485144,-0.5667791367,0.03526097536
1603,1.55965663606e+18,0.3487582505,2.186390638,-2.358720064
1604,1.55965663611e+18,0.1661095321,4.631684303,-4.027603626
1605,1.55965663617e+18,-0.2065182626,5.015918255,-4.207198143
1606,1.55965663622e+18,0.07814493775,4.952999115,-4.010499477
1607,1.55965663627e+18,0.3200475872,4.777070045,-3.265244007
1608,1.55965663632e+18,0.08303186297,3.640249729,-2.758836746
1609,1.55965663637e+18,-0.001267545391,2.772821188,-2.122925997
1610,1.55965663642e+18,-0.5779243112,2.405080318,-1.584142804
1611,1.55965663647e+18,-1.477728844,2.122249842,-1.159591436
1612,1.55965663652e+18,-2.10142231,2.284739733,-0.8205612302
1613,1.55965663658e+18,-1.762392044,3.083751678,-0.6318038702
1614,1.55965663663e+18,-0.9291718602,3.612761021,-0.3343124986
1615,1.55965663668e+18,-0.3879452646,5.566308022,0.3742912114
1616,1.55965663673e+18,-3.591322422,1.661046505,3.955183268
1617,1.55965663678e+18,-6.602277279,-2.786663294,8.839051247
1618,1.55965663683e+18,-2.960298777,-0.6156483293,8.868371964
1619,1.55965663688e+18,3.863676786,12.13188744,-2.339783192
1620,1.55965663693e+18,3.180118561,-2.011475563,-1.82726717
1621,1.55965663698e+18,1.48802197,-0.2008708119,-1.793669581
1622,1.55965663703e+18,1.054918408,-0.6834543347,-1.939055562
1623,1.55965663708e+18,1.089126945,-2.34378624,-3.433231831
1624,1.55965663714e+18,1.035370708,-2.285143137,-2.882231474
1625,1.55965663719e+18,1.043922901,-4.497696877,-2.260370493
1626,1.55965663724e+18,0.3102737367,-5.34679985,-0.9415125847
1627,1.55965663729e+18,-0.838152945,-4.93629837,0.384065032
1628,1.55965663734e+18,-1.758726835,-5.092068672,1.266154408
1629,1.55965663739e+18,-1.751396537,-5.674834251,2.7426157
1630,1.55965663744e+18,-2.272464514,-5.88069582,3.511084318
1631,1.55965663749e+18,-2.01529026,-5.238065243,5.124990463
1632,1.55965663754e+18,-1.81675899,-5.94605875,5.717529297
1633,1.5596566376e+18,-0.4032168984,-7.45367384,4.404169559
1634,1.55965663765e+18,-0.9774302244,-0.5967115164,4.274665833
1635,1.5596566377e+18,-0.1894140542,-0.003561344463,2.46406126
1636,1.55965663775e+18,-0.1991878748,1.196177959,1.451246619
1637,1.5596566378e+18,0.3249345124,-0.7799710631,-0.3929555714
1638,1.55965663785e+18,0.4220620692,-1.611358643,-1.00931859
1639,1.5596566379e+18,0.244300276,-0.4244475067,-1.279931903
1640,1.55965663796e+18,0.1624443382,0.2713280022,-1.414322257
1641,1.55965663801e+18,0.06653849781,0.1326616108,-1.287262321
1642,1.55965663806e+18,-0.006765332539,-0.004783074837,-1.078346372
1643,1.55965663811e+18,0.01400408521,0.06546643376,-0.8877564073
1644,1.55965663816e+18,-0.1313818395,-0.1764362007,-0.4357161224
1645,1.55965663821e+18,-0.2370615304,0.1198334321,0.09512577206
1646,1.55965663826e+18,-0.4740772545,0.888912797,0.7243169546
1647,1.55965663831e+18,-0.5931959748,1.480230331,0.8299966455
1648,1.55965663836e+18,-0.4129907191,0.8131654859,0.683999896
1649,1.55965663841e+18,-0.2364506721,-0.1434494853,0.4103322327
1650,1.55965663847e+18,0.1056338698,-1.364569068,0.05358693376
1651,1.55965663852e+18,0.2980564237,-1.188029051,0.04259135947
1652,1.55965663857e+18,0.1129642576,-0.6761239767,0.07313462347
1653,1.55965663862e+18,0.00972802937,-0.1978164911,0.06702596694
1654,1.55965663867e+18,0.01950187236,0.31836465,0.04381308705
1655,1.55965663872e+18,0.04027128965,0.4979590178,-0.02399295382
1656,1.55965663877e+18,0.1636660695,0.3018712699,-0.1198987961
1657,1.55965663882e+18,0.1465618461,-0.3670261502,-0.05697967857
1658,1.55965663887e+18,0.2107027024,-0.5820507407,-0.07041871548
1659,1.55965663893e+18,0.2180330753,-0.4372756779,-0.1565507054
1660,1.55965663898e+18,0.2235308737,-0.3413698077,-0.3294255733
1661,1.55965663903e+18,0.2473546118,-0.1153496876,-0.3300364316
1662,1.55965663908e+18,0.27606529,-0.2753964067,-0.4167793095
1663,1.55965663913e+18,0.283395648,-0.1049649715,-0.398453325
1664,1.55965663918e+18,0.3023324907,-0.06586959958,-0.6171431541
1665,1.55965663923e+18,0.3084411323,0.2383412868,-0.7869636416
1666,1.55965663929e+18,0.2675131559,0.7160379291,-0.7093837857
1667,1.55965663934e+18,0.2107027024,0.21573928,-0.7234336734
1668,1.55965663939e+18,0.1428966522,0.2304000407,-0.6128670573
1669,1.55965663944e+18,0.1337336749,-0.401845485,-0.788185358
1670,1.55965663949e+18,0.1319010705,-0.2411879301,-0.8932542205
1671,1.55965663954e+18,0.1746616513,0.1351050735,-1.129048228
1672,1.55965663959e+18,0.1319010705,0.6030278206,-1.232895255
1673,1.55965663965e+18,0.06287330389,0.750246346,-1.212125897
1674,1.5596566397e+18,-0.09228646755,1.130204558,-1.204184532
1675,1.55965663975e+18,-0.1417665631,1.527266979,-1.094839692
1676,1.5596566398e+18,-0.1350470334,1.888899207,-0.7234336734
1677,1.55965663985e+18,0.01339322049,1.615231514,-0.6495189667
1678,1.5596566399e+18,0.1838246286,1.52360177,-0.4668702781
1679,1.55965663995e+18,0.3921296597,0.9414471984,-0.441824764
1680,1.55965664e+18,0.5741675496,0.6402906775,-0.4137249887
1681,1.55965664005e+18,0.5772218704,0.8760845661,-0.4247205555
1682,1.5596566401e+18,0.6737385392,0.6011952758,-0.4002859592
1683,1.55965664015e+18,0.7036709785,0.7905634642,-0.3636340201
1684,1.5596566402e+18,0.7439880371,0.5669867992,-0.4320509434
1685,1.55965664026e+18,0.8014093637,0.5675976276,-0.5310111046
1686,1.55965664031e+18,0.8197353482,0.6946576834,-0.6171431541
1687,1.55965664036e+18,0.7745313048,0.5309457183,-0.5982062817
1688,1.55965664041e+18,0.7720878124,0.5847018957,-0.7790223956
1689,1.55965664046e+18,0.7891920805,0.4423702657,-0.909747541
1690,1.55965664051e+18,0.8887631297,-0.03532633558,-1.069794297
1691,1.55965664056e+18,1.043922901,-0.8734334707,-1.366674781
1692,1.55965664062e+18,1.011547089,-1.131218672,-1.212736726
1693,1.55965664067e+18,0.8875413537,-2.935714483,-1.23778224
1694,1.55965664072e+18,0.9614560604,-2.993135691,-0.669677496
1695,1.55965664077e+18,1.068968415,-3.068882942,0.2710549533
1696,1.55965664082e+18,-1.064173102,-5.825717926,-0.4149467051
1697,1.55965664087e+18,-1.463678956,3.4044559,0.3608521521
1698,1.55965664092e+18,-1.834474087,-4.264346123,2.372431278
1699,1.55965664097e+18,-0.9994212985,-0.9113071561,3.864775181
1700,1.55965664102e+18,-1.405646682,-1.880750299,4.03703928
1701,1.55965664107e+18,-0.8283790946,-0.842890203,3.045604944
1702,1.55965664112e+18,-0.436203599,-0.3908499181,0.226461798
1703,1.55965664118e+18,0.1868789494,1.577968717,-2.068558931
1704,1.55965664123e+18,0.5576741099,3.000673771,-3.461331844
1705,1.55965664128e+18,0.5387372971,3.792966127,-4.292108536
1706,1.55965664133e+18,0.6401410103,4.372066498,-3.899322033
1707,1.55965664138e+18,0.5876065493,4.030592918,-3.457666397
1708,1.55965664143e+18,0.582108736,3.398347139,-2.714243412
1709,1.55965664148e+18,0.3322649002,2.595059395,-2.142473698
1710,1.55965664153e+18,-0.04891503602,2.147906065,-1.603690386
1711,1.55965664159e+18,-0.5394397974,1.79177165,-1.417987466
1712,1.55965664164e+18,-1.230328321,2.243812084,-1.275044918
1713,1.55965664169e+18,-1.027521133,2.742888927,-0.9506755471
1714,1.55965664174e+18,-0.5260007977,2.883998871,-0.7161032557
1715,1.55965664179e+18,-0.3720627427,3.849165678,-0.4619833231
1716,1.55965664184e+18,-0.5113400221,4.496683121,0.3669608235
1717,1.55965664189e+18,-3.726323843,1.315907598,5.798774242
1718,1.55965664194e+18,-7.124567509,-3.037118196,8.853100777
1719,1.559656642e+18,-1.461846352,8.726924896,7.346096039
1720,1.55965664205e+18,5.599144936,3.315880299,-4.103351116
1721,1.5596566421e+18,3.333445787,-9.931954384,-4.920078278
1722,1.55965664215e+18,0.6169281006,5.181462765,-0.1070706248
1723,1.5596566422e+18,0.7415446043,0.6946576834,-1.703872442
1724,1.55965664225e+18,0.4770399332,-2.35722518,-1.899960041
1725,1.5596566423e+18,0.9351888895,-1.396945,-2.287859678
1726,1.55965664235e+18,1.598588467,-1.922899961,-2.191953659
1727,1.5596566424e+18,1.56743443,-2.600960493,-1.797334671
1728,1.55965664246e+18,1.485578537,-3.303455353,-0.7680267692
1729,1.55965664251e+18,0.7183317542,-3.490380049,0.2191314101
1730,1.55965664256e+18,-0.09534078836,-3.843460321,1.17269206
1731,1.55965664261e+18,-0.1246623248,-3.853234053,1.960097432
1732,1.55965664266e+18,-0.0806800276,-3.224042892,2.23559761
1733,1.55965664271e+18,-0.06174320728,-3.195943117,2.015686274
1734,1.55965664276e+18,0.1209055036,-1.431764245,1.16963768
1735,1.55965664281e+18,0.05187772959,-0.9894978404,0.9136852026
1736,1.55965664286e+18,-0.01653917693,-0.8483880162,0.4201060832
1737,1.55965664292e+18,-0.14115569,-0.3645827174,0.1898098737
1738,1.55965664297e+18,-0.09534078836,-0.05059796944,0.003495981684
1739,1.55965664302e+18,0.0530994609,0.0611903742,0.03587184101
1740,1.55965664307e+18,0.1050230116,-0.08786074817,0.07435635477
1741,1.55965664312e+18,0.09891435504,-0.3523653746,0.2063032389
1742,1.55965664317e+18,0.003008511383,-0.5075252056,0.281439662
1743,1.55965664322e+18,-0.03058907762,-0.5985440612,0.43110165
1744,1.55965664328e+18,-0.07273877412,-0.2570704222,0.5441116691
1745,1.55965664333e+18,-0.04341724887,-0.03715893254,0.7902904153
1746,1.55965664338e+18,-0.05441282317,-0.4763710201,1.133596659
1747,1.55965664343e+18,-0.02509128861,-0.2308032215,1.315023661
1748,1.55965664348e+18,0.05676465109,-0.4317778945,1.575863123
1749,1.55965664353e+18,0.1917658746,-0.4849231541,1.516609311
1750,1.55965664358e+18,0.3768580258,-0.3768000305,1.291199923
1751,1.55965664363e+18,0.5705023408,-0.5704442859,1.17269206
1752,1.55965664368e+18,0.6639647484,-0.4476603568,0.9851564169
1753,1.55965664373e+18,0.5973803997,-0.3645827174,0.7408102751
1754,1.55965664378e+18,0.4098447561,-0.5930463076,0.4445406795
1755,1.55965664383e+18,0.1728290617,-0.3218221366,0.2154662162
1756,1.55965664389e+18,-0.04952589795,-0.0127243232,0.03281751275
1757,1.55965664394e+18,-0.1521512568,-0.05304142833,-0.1571615785
1758,1.55965664399e+18,-0.2144595236,-0.04998710379,-0.281167239
1759,1.55965664404e+18,-0.1277166456,0.1906937957,-0.3153756857
1760,1.55965664409e+18,-0.02875648066,0.1338833272,-0.2365740687
1761,1.55965664414e+18,0.06470590085,0.06668815762,-0.229854539
1762,1.55965664419e+18,0.1031904146,-0.1410060227,-0.1547181159
1763,1.55965664424e+18,0.03782783076,-0.04937623441,-0.07958168536
1764,1.55965664429e+18,-0.04158465192,0.0001038470946,-0.05636881292
1765,1.55965664434e+18,-0.1387122124,-0.02921768464,-0.1877048314
1766,1.55965664439e+18,-0.1289383918,-0.03166114539,-0.147387743
1767,1.55965664444e+18,-0.1118341535,0.06485556066,-0.09302072972
1768,1.5596566445e+18,-0.08739954233,-0.04387845099,-0.0771382302
1769,1.55965664455e+18,-0.08434522152,-0.0005070181214,-0.09302072972
1770,1.5596566446e+18,-0.08862127364,-0.04632190987,-0.09974024445
1771,1.55965664465e+18,-0.07212791592,0.07096421719,-0.1046271697
1772,1.5596566447e+18,-0.02142609842,-0.01944383979,-0.08874467015
1773,1.55965664475e+18,0.04515821487,0.08318151534,-0.02277122252
1774,1.5596566448e+18,0.08914051205,-0.1012997851,0.0230436679
1775,1.55965664486e+18,0.05859724805,-0.07686517388,0.02609799616
1776,1.55965664491e+18,0.03721696511,-0.07686517388,0.01937847957
1777,1.55965664496e+18,0.04943427071,0.05324912444,0.07863240689
1778,1.55965664501e+18,0.07936666906,-0.1037432477,0.1103973985
1779,1.55965664506e+18,0.08914051205,-0.03288287669,0.1024561524
1780,1.55965664511e+18,0.09769262373,-0.05548489094,0.045645684
1781,1.55965664516e+18,0.1306793541,-0.03715893254,0.07496721298
1782,1.55965664521e+18,0.1172403097,-0.1177931428,0.0505326055
1783,1.55965664526e+18,0.1239598319,-0.1843774617,0.1061213464
1784,1.55965664531e+18,0.1019686833,-0.1171822846,0.1177277863
1785,1.55965664536e+18,0.08669704944,-0.1611645818,0.1006235555
1786,1.55965664542e+18,0.08242098987,-0.1080192998,0.08046500385
1787,1.55965664547e+18,0.07875579596,-0.07258912176,0.1152843237
1788,1.55965664552e+18,0.120294638,-0.03471547365,0.1427732557
1789,1.55965664557e+18,0.1514487565,-0.04265671968,0.1201712415
1790,1.55965664562e+18,0.134344548,0.06974248588,0.06397163868
1791,1.55965664567e+18,0.1166294515,0.08501411229,0.01388069056
1792,1.55965664572e+18,0.08425358683,0.1131139174,0.02243280411
1793,1.55965664578e+18,0.06287330389,0.2383412868,0.03465010971
1794,1.55965664583e+18,-0.02386956103,0.3415775001,0.06824769825
1795,1.55965664588e+18,-0.1820836663,0.5963083506,0.1061213464
1796,1.55965664593e+18,-0.3244152665,0.2902648449,0.045645684
1797,1.55965664598e+18,-0.4019951522,0.4338181615,-0.05270362273
1798,1.55965664603e+18,-0.3696192801,-0.006615670864,-0.0575905405
1799,1.55965664608e+18,-0.2786003649,-0.02555249445,-0.162659362
1800,1.55965664613e+18,-0.1613142341,-0.2320249528,-0.1290617883
1801,1.55965664619e+18,-0.06418666989,0.03981008753,-0.09729678184
1802,1.55965664624e+18,-0.04097378626,0.05141652748,-0.06431005895
1803,1.55965664629e+18,-0.0788474381,0.08684670925,-0.04903842881
1804,1.55965664634e+18,-0.1106124297,0.05691431463,-0.04048631713
1805,1.55965664639e+18,-0.06663012505,-0.02371989749,-0.02521468513
1806,1.55965664644e+18,-0.01592831127,-0.05120883137,-0.01116478443
1807,1.55965664649e+18,0.05126686394,-0.06159354374,0.045645684
1808,1.55965664654e+18,0.08425358683,0.05752518028,0.09879095852
1809,1.55965664659e+18,0.03966042772,-0.01516778395,0.1531579792
1810,1.55965664664e+18,-0.001878410578,0.009877691045,0.2918243706
1811,1.5596566467e+18,-0.1234406009,0.003158173291,0.5722115636
1812,1.55965664675e+18,-0.2144595236,-0.5124121308,1.016310573
1813,1.5596566468e+18,-0.3134196699,-0.06403700262,1.316245317
1814,1.55965664685e+18,-0.4832402468,0.1650374532,1.665049434
1815,1.5596566469e+18,-0.6548933983,-0.6651284099,1.898400068
1816,1.55965664695e+18,-0.8613657951,-0.3804652095,2.221547604
1817,1.559656647e+18,-0.6390108466,-0.3853521049,2.385870457
1818,1.55965664705e+18,-0.8894656301,-0.2900571525,2.387092352
1819,1.55965664711e+18,-0.8931307793,-1.265608907,2.664425135
1820,1.55965664716e+18,-0.3855017722,-2.52582407,2.426187515
1821,1.55965664721e+18,-0.04036292434,-3.782984734,1.766453147
1822,1.55965664726e+18,0.05981897563,-1.630906343,1.051740766
1823,1.55965664731e+18,-0.068462722,-0.6767348647,0.6693391204
1824,1.55965664736e+18,0.0530994609,-1.063412547,-0.08324687928
1825,1.55965664741e+18,-0.02753474936,0.02942537889,-0.1455551386
1826,1.55965664747e+18,-0.08251262456,0.2334543765,-0.03682112321
1827,1.55965664752e+18,0.02561052516,0.1057835296,0.04747828096
1828,1.55965664757e+18,0.004841106944,-0.03532633558,0.08290845901
1829,1.55965664762e+18,-0.01043052413,0.03553403169,0.08779538423
1830,1.55965664767e+18,-0.02020436898,-0.08663901687,0.01937847957
1831,1.55965664772e+18,-0.04219551757,0.0001038470946,0.0444239527
1832,1.55965664777e+18,-0.02203696407,-0.1220691949,0.03587184101
1833,1.55965664782e+18,0.001786780776,0.04897306859,0.1158951893
1834,1.55965664787e+18,0.01522581559,0.06057950482,0.01449155621
1835,1.55965664793e+18,-0.06357580423,0.2169610113,-0.05209275335
1836,1.55965664798e+18,-0.0147065809,0.2658302188,-0.03071247041
1837,1.55965664803e+18,-0.05258022621,0.4332073033,0.1067322046
1838,1.55965664808e+18,0.03110831231,0.2804909945,-0.06431005895
1839,1.55965664813e+18,0.029886581,0.08929017931,-0.2341306061
1840,1.55965664818e+18,-0.07090618461,0.2737714946,-0.1809853166
1841,1.55965664823e+18,0.01217149012,0.4949046969,0.07679980993
1842,1.55965664828e+18,0.07020369172,0.1363268048,0.1439950019
1843,1.55965664833e+18,0.06104071066,-0.09641286731,0.0517543368
1844,1.55965664839e+18,0.09402743727,-0.4910317957,0.02976318821
1845,1.55965664844e+18,0.1264032871,-1.203911543,0.1391080618
1846,1.55965664849e+18,0.1147968546,-1.24483943,0.05786298588
1847,1.55965664854e+18,0.03904956207,-0.7567581534,0.02915232256
1848,1.55965664859e+18,0.007284567691,-0.299831003,-0.008721322753
1849,1.55965664864e+18,0.06776022911,-0.08480641991,0.01082636416
1850,1.55965664869e+18,-0.01898263767,0.750246346,0.006550308317
1851,1.55965664875e+18,-0.07273877412,0.7319204211,0.04259135947
1852,1.5596566488e+18,-0.0794582963,0.3293601871,0.06519337744
1853,1.55965664885e+18,-0.005543602165,-0.1361191124,0.1287233531
1854,1.5596566489e+18,-0.006154467352,-0.1446712166,0.1415515244
1855,1.55965664895e+18,-0.004932736978,-0.2265271544,0.01388069056
1856,1.559656649e+18,0.03233004361,-0.1532233208,0.02365453541
1857,1.55965664905e+18,0.06959282607,0.08195979148,0.07557807863
1858,1.5596566491e+18,0.07570147514,0.5321674943,0.1427732557
1859,1.55965664915e+18,0.1703855842,0.06057950482,0.05908472091
1860,1.55965664921e+18,0.2021505684,-0.05181969702,-0.1345595717
1861,1.55965664926e+18,0.1838246286,-0.1544450521,-0.2048090696
1862,1.55965664931e+18,0.1319010705,-0.1562776417,-0.1528855264
1863,1.55965664936e+18,0.1233489588,-0.05487402529,-0.02032776177
1864,1.55965664941e+18,0.1117425263,-0.1672732234,-0.009332188405
1865,1.55965664946e+18,0.177105099,-0.2082011998,-0.2255784869
1866,1.55965664951e+18,0.2620153725,0.01659720764,-0.3844034374
1867,1.55965664956e+18,0.4752073288,0.3397449255,-0.4705354571
1868,1.55965664961e+18,0.6480821967,0.2939300239,-0.5688847899
1869,1.55965664966e+18,0.7262729406,0.4075509608,-0.7930723429
1870,1.55965664972e+18,0.7739204764,0.3489078879,-0.9928252697
1871,1.55965664977e+18,0.7781965137,0.2010785043,-1.114387393
1872,1.55965664982e+18,0.76292485,-0.1434494853,-1.092396259
1873,1.55965664987e+18,0.6548017859,-0.3890173137,-1.029477119
1874,1.55965664992e+18,0.5918826461,-0.4794253707,-0.926240921
1875,1.55965664997e+18,0.5527872443,-0.6242004633,-0.8413306475
1876,1.55965665002e+18,0.582719624,-0.4409408569,-0.8016244173
1877,1.55965665008e+18,0.6798472404,-0.5961006284,-0.9366255999
1878,1.55965665013e+18,0.7824725509,-0.7072781324,-1.051468253
1879,1.55965665018e+18,0.7696443796,-0.2124772668,-1.213347554
1880,1.55965665023e+18,0.6932862401,0.2071871608,-1.278099298
1881,1.55965665028e+18,0.6334214211,0.613412559,-1.381335616
1882,1.55965665033e+18,0.6370866299,0.7868982553,-1.488236904
1883,1.55965665038e+18,0.7678118348,0.9194560647,-1.458915353
1884,1.55965665043e+18,0.6914536357,0.4490898252,-1.432648182
1885,1.55965665049e+18,0.6639647484,0.7722374797,-1.284208059
1886,1.55965665054e+18,0.6346431971,0.4154922068,-1.108889699
1887,1.55965665059e+18,0.6627429724,-0.5289054513,-0.8150634766
1888,1.55965665064e+18,0.5790544152,-1.206354976,-0.4558746815
1889,1.55965665069e+18,0.2119244188,-2.710305214,-0.7142707109
1890,1.55965665074e+18,-0.779509902,-1.726201296,-1.173641324
1891,1.55965665079e+18,-1.41908586,-0.7274366617,-1.729528666
1892,1.55965665084e+18,-0.9957561493,-0.6559654474,-0.6568493843
1893,1.55965665089e+18,-1.42275095,-0.7469843626,0.8190010786
1894,1.55965665094e+18,-0.9053480625,-1.021873713,0.8257206082
1895,1.559656651e+18,-0.9957561493,-1.610136986,0.5508312583
1896,1.55965665105e+18,-1.143585563,-0.9516242146,0.6412393451
1897,1.5596566511e+18,-1.686644793,-1.438483715,1.035247445
1898,1.55965665115e+18,-2.171671867,-2.250934601,1.467129111
1899,1.5596566512e+18,-2.260858059,-1.412827492,2.256977797
1900,1.55965665125e+18,-2.236423492,-0.4103975892,2.248425722
1901,1.5596566513e+18,-2.404411316,-0.3719130754,1.955821276
1902,1.55965665135e+18,-1.728183627,0.4063292146,0.709656179
1903,1.5596566514e+18,-1.12159431,1.585910082,-1.322692513
1904,1.55965665145e+18,-0.6176305413,2.158290863,-2.958589554
1905,1.55965665151e+18,-0.2419484556,3.292056561,-3.897489548
1906,1.55965665156e+18,-0.01898263767,3.694617033,-4.100296974
1907,1.55965665161e+18,0.1160185859,4.471026421,-3.736220837
1908,1.55965665166e+18,0.04576907679,3.89131546,-3.216374874
1909,1.55965665171e+18,-0.2505005598,3.253571987,-2.717297792
1910,1.55965665176e+18,-0.8656418324,2.575511694,-2.100934744
1911,1.55965665181e+18,-1.230328321,2.097815275,-1.371561646
1912,1.55965665186e+18,-1.122816205,2.797866583,-0.8566023111
1913,1.55965665191e+18,-1.175350547,2.622548342,-0.6623470783
1914,1.55965665197e+18,-1.013471246,3.481424809,-0.7161032557
1915,1.55965665202e+18,-0.4245971739,5.301803112,0.1378863305
1916,1.55965665207e+18,-0.4856836796,5.226666927,1.293643475
1917,1.55965665212e+18,-3.668291569,0.2756040692,6.66681385
1918,1.55965665217e+18,-5.418420315,-3.777486801,9.052853584
1919,1.55965665222e+18,-4.324360847,11.00484085,7.645420551
1920,1.55965665227e+18,2.01825285,16.94856071,-2.882231474
1921,1.55965665232e+18,3.22349,-8.935022354,-1.917675138
1922,1.55965665237e+18,2.222892761,0.8986866474,-0.6996099353
1923,1.55965665242e+18,1.920514584,0.08073806018,-1.574368954
1924,1.55965665247e+18,1.246730089,-3.161123753,-2.358109236
1925,1.55965665252e+18,0.4666552544,-1.564321995,-2.587794542
1926,1.55965665257e+18,0.0482125394,-2.614399433,-2.678202391
1927,1.55965665263e+18,-0.06601926684,-3.580177307,-1.928670764
1928,1.55965665268e+18,-0.8259356022,-4.123236179,-1.231062651
1929,1.55965665273e+18,-1.355555773,-4.845890045,-0.1174553409
