,Time (s),Gyroscope x (rad/s),Gyroscope y (rad/s),Gyroscope z (rad/s)
0,1.55965562305e+18,-0.5870873332,0.04958393052,0.3999475539
1,1.5596556231e+18,-0.4600273371,-0.3132700324,0.5343378782
2,1.55965562316e+18,-0.4282623529,-0.4409408569,0.3700151443
3,1.55965562321e+18,-0.3873343766,0.1839742959,0.1281124949
4,1.55965562326e+18,-0.2022422254,0.1216660291,0.07741067559
5,1.55965562331e+18,-0.09350819141,0.3415775001,-0.03743198887
6,1.55965562336e+18,-0.08678868413,0.6231864095,-0.04781670123
7,1.55965562342e+18,0.1251815557,0.2975952029,0.1030670181
8,1.55965562347e+18,0.2827847898,0.5578237772,0.1275016218
9,1.55965562352e+18,0.5625610948,-0.6248112917,0.2594485283
10,1.55965562357e+18,0.8044636846,-1.675499558,0.3339740932
11,1.55965562362e+18,1.298653722,-3.906379461,-0.07652736455
12,1.55965562368e+18,1.562547445,-9.167151451,-0.9036388993
13,1.55965562373e+18,0.4990310967,-9.329030037,-1.606133938
14,1.55965562378e+18,-0.49545753,-2.604625463,-0.3465298116
15,1.55965562383e+18,-0.9609368443,0.4845199883,0.5422791243
16,1.55965562388e+18,-0.742247045,-2.348062277,0.622913301
17,1.55965562394e+18,0.9028130174,-0.78424716,1.417649031
18,1.55965562399e+18,2.252214432,-3.037729025,0.9472827911
19,1.55965562404e+18,2.174023628,0.1106704548,0.6174155474
20,1.55965562409e+18,2.759232521,1.354392052,0.06824769825
21,1.55965562414e+18,2.395156622,2.858342171,-0.4613724649
22,1.5596556242e+18,1.993207574,2.392252207,-0.06308832765
23,1.55965562425e+18,1.010325313,2.511370897,0.2643354535
24,1.5596556243e+18,-0.7172015905,3.114905834,1.178189874
25,1.55965562435e+18,-2.332329273,0.7697940469,2.073718309
26,1.5596556244e+18,-3.726323843,-0.2100338042,3.115854502
27,1.55965562446e+18,-4.847872734,-1.550883055,3.478708267
28,1.55965562451e+18,-4.152707577,-2.345007896,3.004066229
29,1.55965562456e+18,-3.49602747,-3.597892284,3.551401377
30,1.55965562461e+18,-1.843637109,-2.825758696,2.499491453
31,1.55965562466e+18,-0.3079219162,-0.4751493335,-0.2017547488
32,1.55965562472e+18,1.111118078,-0.1147388145,-0.3074344099
33,1.55965562477e+18,1.929066658,-0.4873666167,-1.282375336
34,1.55965562482e+18,2.527103662,0.7581876516,-1.813828111
35,1.55965562487e+18,3.781820774,-0.8862615824,-2.749673605
36,1.55965562492e+18,3.790373087,0.6250189543,-2.983634949
37,1.55965562498e+18,1.976714134,1.913333774,-3.097867012
38,1.55965562503e+18,0.04699081182,1.704417825,-1.38377893
39,1.55965562508e+18,-0.7734012604,4.507067204,0.4329342246
40,1.55965562513e+18,0.1935984641,0.7453594208,0.9454501867
41,1.55965562518e+18,-3.853994608,-3.113476276,2.172067642
42,1.55965562524e+18,-4.321917534,-4.137897491,3.287507534
43,1.55965562529e+18,-1.692753434,0.09112276882,2.918545008
44,1.55965562534e+18,-0.4398688078,-2.093331337,0.6888867617
45,1.55965562539e+18,0.7531510592,-2.524602413,0.8587073088
46,1.55965562544e+18,1.000551462,-0.8019621968,-0.6812839508
47,1.5596556255e+18,1.257725716,-0.7689754963,-2.40636754
48,1.55965562555e+18,2.182575703,0.7606310844,-2.262814045
49,1.5596556256e+18,1.284603715,0.3519622087,-1.577423215
50,1.55965562565e+18,-0.727586329,1.333622694,-0.815674305
51,1.5596556257e+18,0.1514487565,4.982931614,0.07496721298
52,1.55965562576e+18,0.7757530808,1.565140605,-0.6421886086
53,1.55965562581e+18,-2.828351736,-2.03591013,1.096944809
54,1.55965562586e+18,-4.475244522,-2.202676296,2.067609549
55,1.55965562591e+18,-1.529041529,-4.003507137,1.892291307
56,1.55965562596e+18,-0.1081689596,0.7563550472,1.824485183
57,1.55965562601e+18,0.4318359196,0.1015074775,-0.05270362273
58,1.55965562607e+18,1.155100346,0.8308805823,0.4659209549
59,1.55965562612e+18,2.122710943,-2.109824657,0.5966461301
60,1.55965562617e+18,1.496573925,-0.3676370382,-1.050857425
61,1.55965562622e+18,0.7971333265,-0.08602815121,-1.723420024
62,1.55965562627e+18,1.347522974,0.5840910077,-3.724003553
63,1.55965562633e+18,1.566212654,-1.308369517,-0.3141539395
64,1.55965562638e+18,-0.9456652403,-2.480009079,-2.718519449
65,1.55965562643e+18,-7.388461113,5.55653429,4.807340145
66,1.55965562648e+18,-5.120929241,-2.88379097,4.136610508
67,1.55965562653e+18,-2.00857091,1.066063762,2.996124744
68,1.55965562659e+18,1.003605723,1.544982076,-1.304977417
69,1.55965562664e+18,2.106217623,-4.483036041,-2.668428659
70,1.55965562669e+18,1.32247746,0.06668815762,-1.277488351
71,1.55965562674e+18,1.468474269,-1.835546255,-0.8364437222
72,1.55965562679e+18,1.612638474,-1.902741313,-0.8211721182
73,1.55965562685e+18,2.320020437,-1.635182381,-1.005653381
74,1.5596556269e+18,1.893025637,-2.861188889,-2.250596762
75,1.55965562695e+18,0.2699566483,2.437456131,-2.772886515
76,1.559655627e+18,2.528936386,4.962162018,-3.59572196
77,1.55965562705e+18,-2.942583799,3.832061529,2.420689583
78,1.55965562711e+18,-7.483756065,-0.6559654474,6.388259888
79,1.55965562716e+18,-2.355542183,0.7514680624,5.996695042
80,1.55965562721e+18,-0.726975441,3.946904182,-1.305588245
81,1.55965562726e+18,0.6871775985,0.07646200806,-1.501065016
82,1.55965562731e+18,1.80261755,-2.179463387,-1.158980608
83,1.55965562737e+18,2.869188309,-5.166594028,-2.223718643
84,1.55965562742e+18,1.861871481,-1.338912725,-1.83398664
85,1.55965562747e+18,0.6920645237,-0.7304909825,-1.725863576
86,1.55965562752e+18,-0.2486679703,2.55657506,-2.001363754
87,1.55965562757e+18,1.445261359,6.18267107,-2.048400402
88,1.55965562763e+18,-2.274908066,4.471026421,0.2832722664
89,1.55965562768e+18,-5.216835022,-1.359071255,1.563034892
90,1.55965562773e+18,-2.627377272,-4.961343765,3.031554937
91,1.55965562778e+18,-1.950538516,3.996995211,3.225199223
92,1.55965562783e+18,-0.4111581147,-3.387754917,-0.5957627892
93,1.55965562789e+18,-0.2853198946,-1.536222339,0.1568231732
94,1.55965562794e+18,0.6444169879,1.306744576,-1.04597044
95,1.55965562799e+18,2.0310812,-0.5392901897,-1.626292467
96,1.55965562804e+18,3.121475697,-1.673056006,-3.934141397
97,1.55965562809e+18,1.808726192,0.4295421243,-3.537078857
98,1.55965562815e+18,1.457478642,1.393487453,-2.287859678
99,1.5596556282e+18,0.9718407989,-0.7097215652,-1.276266694
100,1.55965562825e+18,-0.1888031811,2.420962811,-0.6886143088
101,1.5596556283e+18,-0.1307709813,0.0752402693,-1.038640141
102,1.55965562835e+18,0.3035542071,-0.04326758534,-0.3764621913
103,1.55965562841e+18,-0.5003444552,1.176630259,3.150673866
104,1.55965562846e+18,-3.362247944,-2.36394453,3.920363903
105,1.55965562851e+18,-4.507009983,1.122263312,7.09686327
106,1.55965562856e+18,-3.746482372,1.179073691,6.054116249
107,1.55965562861e+18,-0.830822587,1.304301143,0.5868723392
108,1.55965562867e+18,1.282160282,-2.758563757,-1.770456672
109,1.55965562872e+18,2.982809067,-1.580815434,-4.36357975
110,1.55965562877e+18,2.758621693,-0.2766180933,-5.096007347
111,1.55965562882e+18,1.920514584,1.292083859,-3.241420269
112,1.55965562887e+18,2.025583267,0.1485441029,-1.325135946
113,1.55965562893e+18,2.133095741,0.4686374962,0.3791781068
114,1.55965562898e+18,2.133095741,-4.202038288,-0.5768259764
115,1.55965562903e+18,1.753137469,-2.805600405,-3.201102972
116,1.55965562908e+18,0.8905956745,3.097190619,-2.424082518
117,1.55965562913e+18,-3.232744694,-1.299206495,3.523301601
118,1.55965562919e+18,-4.11544466,-3.225875378,7.916644573
119,1.55965562924e+18,-4.532666206,6.091041088,9.821322441
120,1.55965562929e+18,-1.635331988,-2.325460196,0.6247459054
121,1.55965562934e+18,-0.4294840693,-1.792174816,-2.320235252
122,1.55965562939e+18,0.4984202385,1.602403402,-3.024563074
123,1.55965562945e+18,1.789178491,-3.253364563,-3.074654102
124,1.5596556295e+18,1.099511623,0.4069401026,-1.710591912
125,1.55965562955e+18,1.370735884,0.1228877604,-1.572536349
126,1.5596556296e+18,1.426324606,0.7771244645,-1.508395553
127,1.55965562965e+18,0.09158396721,1.642109632,-1.640342355
128,1.55965562971e+18,2.257712126,-0.7256040573,-2.694695711
129,1.55965562976e+18,-2.554073572,7.794133186,0.1275016218
130,1.55965562981e+18,-6.287070751,-1.935728192,5.076732159
131,1.55965562986e+18,-2.728169918,-4.266179085,6.0113554
132,1.55965562991e+18,-1.703749061,0.03186883777,1.662606001
133,1.55965562997e+18,-0.8546463251,2.66958499,-0.7087728977
134,1.55965563002e+18,0.9357997179,2.126525879,-2.364217758
135,1.55965563007e+18,2.145923853,-0.2576812804,-3.336104155
136,1.55965563012e+18,2.761065245,0.5486608148,-4.467426777
137,1.55965563017e+18,1.529560804,1.130204558,-2.579853058
138,1.55965563023e+18,1.072633505,1.520547509,-1.091785431
139,1.55965563028e+18,0.5198005438,2.51014924,-0.02154949307
140,1.55965563033e+18,1.681055307,-0.6773456931,0.9466719627
141,1.55965563038e+18,1.25955832,-3.625381231,0.3669608235
142,1.55965563043e+18,-0.4985118508,2.365374088,-0.1070706248
143,1.55965563049e+18,-2.381198406,-3.650426865,2.587455988
144,1.55965563054e+18,-5.196065426,1.790549874,6.717515945
145,1.55965563059e+18,-4.651173592,1.970144272,7.388856888
146,1.55965563064e+18,-0.9890366197,-3.815360546,0.3706260026
147,1.55965563069e+18,0.3634189963,0.2621650398,-2.414308548
148,1.55965563075e+18,1.358518481,2.352545977,-2.627500772
149,1.5596556308e+18,2.54787302,-3.364542007,-3.525472641
150,1.55965563085e+18,0.7433772087,0.8040025234,-2.76433444
151,1.5596556309e+18,1.39211607,0.5914213657,-2.303131104
152,1.55965563095e+18,0.6877884269,1.97747457,-1.784506559
153,1.55965563101e+18,0.3847992718,4.049529552,-1.438145995
154,1.55965563106e+18,0.2699566483,4.13627243,-1.422874331
155,1.55965563111e+18,-0.07212791592,1.075226665,-1.532219291
156,1.55965563116e+18,-2.100811243,-1.129996777,-0.229854539
157,1.55965563121e+18,-5.078168392,-2.20511961,2.643655539
158,1.55965563127e+18,-4.596195698,-4.231970787,4.101180077
159,1.55965563132e+18,-3.438606262,2.185168982,5.174470425
160,1.55965563137e+18,-0.3354108334,-1.192305088,-0.6318038702
161,1.55965563142e+18,1.085461617,0.8174415231,-2.053898096
162,1.55965563147e+18,2.155697823,-1.03958869,-3.024563074
163,1.55965563153e+18,0.8643285036,-1.675499558,-1.922562122
164,1.55965563158e+18,0.67007339,1.777721643,-2.296411514
165,1.55965563163e+18,0.7030600309,0.2566672266,-2.71118927
166,1.55965563168e+18,0.4629900455,2.576122522,-2.472951651
167,1.55965563173e+18,1.112950683,2.777097225,-3.154066324
168,1.55965563179e+18,1.281549454,-0.02066557109,-1.417987466
169,1.55965563184e+18,-0.9902583361,-6.017529964,-1.662944436
170,1.55965563189e+18,-1.66770792,-2.195956707,1.142759681
171,1.55965563194e+18,-4.777623177,0.3525730968,5.647279739
172,1.55965563199e+18,-5.419641972,2.916374445,6.548305988
173,1.55965563205e+18,-3.725712776,7.461822987,3.854390383
174,1.5596556321e+18,0.09097310901,1.841862559,-1.260384202
175,1.55965563215e+18,1.239399791,0.8705868125,-4.438716412
176,1.5596556322e+18,0.9303019643,0.3739533722,-4.998879433
177,1.55965563225e+18,0.03233004361,0.8107220531,-3.21454215
178,1.55965563231e+18,-0.08862127364,2.171729803,-2.283583403
179,1.55965563236e+18,1.753748298,0.837600112,0.2753310204
180,1.55965563241e+18,0.7598705292,-4.027330875,-0.2463479042
181,1.55965563246e+18,-4.327414989,-6.848306656,-2.231049061
182,1.55965563251e+18,-6.712843895,7.281006813,0.7426429391
183,1.55965563257e+18,-6.571123123,1.392265797,0.8324401379
184,1.55965563262e+18,-3.751980305,1.359279037,6.446902275
185,1.55965563267e+18,-3.825894833,8.166150093,8.299045563
186,1.55965563272e+18,-0.540050745,-2.008420944,5.600243092
187,1.55965563277e+18,0.2565175891,-3.351102829,-3.360538721
188,1.55965563283e+18,0.6340323091,1.415478587,-3.360538721
189,1.55965563288e+18,1.762300372,1.353781223,-4.997657776
190,1.55965563293e+18,1.248562694,1.468623877,-4.843719959
191,1.55965563298e+18,0.8093506694,1.771002173,-3.692849636
192,1.55965563303e+18,0.2931694984,0.9328950644,-1.807108641
193,1.55965563309e+18,0.9584017396,-0.4861449003,-0.4913048744
194,1.55965563314e+18,1.536891103,-2.405483484,0.04931087419
195,1.55965563319e+18,0.1361771375,-1.13549459,0.7017149925
196,1.55965563324e+18,-1.123427033,4.978655815,5.355286598
197,1.55965563329e+18,-2.291401386,-5.719427109,6.972246647
198,1.55965563335e+18,-0.880302608,2.505872965,6.895277977
199,1.5596556334e+18,-0.6310696602,4.606638908,-0.2469587773
200,1.55965563345e+18,-0.9426109195,2.176616669,-1.303755641
201,1.5596556335e+18,0.0579863824,1.06362021,-1.997087598
202,1.55965563355e+18,1.686553121,0.1662591994,-3.279904842
203,1.55965563361e+18,2.510610342,0.8333240151,-3.573730946
204,1.55965563366e+18,1.826441288,1.047126889,-2.722184896
205,1.55965563371e+18,1.833160758,1.17296505,-1.455250263
206,1.55965563376e+18,1.186254501,-0.8734334707,-0.09607505053
207,1.55965563381e+18,0.3169932663,-0.3236547112,0.9747717381
208,1.55965563387e+18,-0.4343709946,-3.487936735,2.254534483
209,1.55965563392e+18,0.1807702929,0.8308805823,2.699855328
210,1.55965563397e+18,-1.423361778,0.2468934059,5.156144619
211,1.55965563402e+18,-1.904723644,9.504556656,7.032111168
212,1.55965563407e+18,-0.8815243244,-4.634530544,0.7377559543
213,1.55965563413e+18,-0.6707758904,1.052013755,-0.4283857346
214,1.55965563418e+18,1.333472967,-0.9858326316,-3.885272264
215,1.55965563423e+18,1.905853748,2.403858662,-4.993381977
216,1.55965563428e+18,3.052447796,0.6531187892,-5.011707306
217,1.55965563433e+18,1.985266209,2.54680109,-3.665971518
218,1.55965563439e+18,0.6083759665,1.458239079,-1.198686719
219,1.55965563444e+18,-0.4093255401,1.437469721,-0.8999736905
220,1.55965563449e+18,1.029873013,5.884568691,0.6223024726
221,1.55965563454e+18,2.496560574,-2.116544247,-1.833375812
222,1.55965563459e+18,-1.089218497,0.1980241835,0.5312835574
223,1.55965563465e+18,-6.889995098,-1.953443289,4.032763004
224,1.5596556347e+18,-5.010973454,-3.475719452,5.002817154
225,1.55965563475e+18,-2.448393822,1.274368763,3.04010725
226,1.5596556348e+18,-0.9945344329,-1.449479342,-0.6641797423
227,1.55965563485e+18,0.7971333265,-0.740264833,-1.117441773
228,1.55965563491e+18,2.348120213,-2.527656555,-2.098491192
229,1.55965563496e+18,2.704865456,-3.299790382,-2.554807663
230,1.55965563501e+18,2.913781404,-0.4556016326,-1.967766166
231,1.55965563506e+18,3.525257587,-1.921678185,-1.442422032
232,1.55965563511e+18,3.564963818,0.2304000407,0.04870000854
233,1.55965563517e+18,2.038411617,-0.6089287996,-0.6537950635
234,1.55965563522e+18,0.9999406338,-1.353573442,-2.619559288
235,1.55965563527e+18,-1.318292975,4.254169464,1.567921877
236,1.55965563532e+18,-3.536344767,-4.589937687,4.539781094
237,1.55965563537e+18,-3.290165901,0.9005192518,7.868997097
238,1.55965563542e+18,-2.979846478,4.857093334,6.647266388
239,1.55965563548e+18,-1.582797647,-0.5667791367,1.401155591
240,1.55965563553e+18,-0.4117689729,-0.8606052995,-1.769845843
241,1.55965563558e+18,0.8527220488,2.438678026,-2.269533634
242,1.55965563563e+18,2.717693567,-2.409148693,-3.742940664
243,1.55965563568e+18,1.863704085,0.2517803311,-2.731347561
244,1.55965563574e+18,1.376844525,0.3770076931,-2.584129095
245,1.55965563579e+18,0.7336033583,0.5566021204,-1.573758006
246,1.55965563584e+18,0.4593248665,1.342785597,-0.6391342878
247,1.55965563589e+18,1.361572862,-4.58627224,-2.750284433
248,1.55965563594e+18,-2.098978758,6.646317959,1.247217655
249,1.559655636e+18,-4.458140373,-3.543525457,3.945409536
250,1.55965563605e+18,-2.740998268,0.4527550042,7.273403168
251,1.5596556361e+18,-1.788048387,4.751413345,5.238611221
252,1.55965563615e+18,-0.8754156828,1.317129254,1.481789947
253,1.5596556362e+18,0.4300033152,-5.803116322,-2.414308548
254,1.55965563626e+18,0.5002527833,-0.3334285915,-2.870014191
255,1.55965563631e+18,1.803228378,0.8834149837,-3.337937117
256,1.55965563636e+18,2.571696758,-2.551480293,-3.471105576
257,1.55965563641e+18,1.897912502,0.04714047164,-3.590224266
258,1.55965563646e+18,0.5973803997,0.5773715377,-2.745397806
259,1.55965563652e+18,-0.1393230855,2.07032609,-1.562762499
260,1.55965563657e+18,1.147770047,2.929202557,-2.23471427
261,1.55965563662e+18,-0.8998503685,3.428890467,1.233167768
262,1.55965563667e+18,-4.248613834,0.20413284,2.184895754
263,1.55965563672e+18,-3.169825792,-2.314464569,4.873313427
264,1.55965563678e+18,-3.052539587,2.866894484,5.960653782
265,1.55965563683e+18,-1.149694204,-1.76774013,0.7866252661
266,1.55965563688e+18,-0.8094422817,0.3043147326,-1.004431725
267,1.55965563693e+18,0.5863848329,2.390419483,-2.654989481
268,1.55965563698e+18,2.362170219,0.3672338426,-3.220039845
269,1.55965563704e+18,2.139815092,-1.087847114,-2.539536238
270,1.55965563709e+18,3.095819235,0.03309056908,-2.388041496
271,1.55965563714e+18,2.230223179,0.2377304286,-0.8388872147
272,1.55965563719e+18,1.020099163,0.7197031379,-0.229854539
273,1.55965563724e+18,1.565601826,-0.495918721,-1.399661541
274,1.5596556373e+18,1.843545556,-0.8526640534,-2.98974371
275,1.55965563735e+18,0.03721696511,1.014140129,-1.943331599
276,1.5596556374e+18,-2.676857471,-0.5380684137,3.253909826
277,1.55965563745e+18,-4.44653368,-1.923510909,6.626497269
278,1.5596556375e+18,-4.172866344,-0.3352611661,7.467658043
279,1.55965563756e+18,-3.01527667,3.742875338,5.667438507
280,1.55965563761e+18,0.318825841,-0.9821674824,-0.48947227
281,1.55965563766e+18,1.547886729,-1.680386424,-2.919494152
282,1.55965563771e+18,2.349341869,-0.8367815614,-4.348918915
283,1.55965563776e+18,2.459297657,0.6415123343,-3.353208542
284,1.55965563782e+18,2.28947711,0.5340000391,-2.697139263
285,1.55965563787e+18,1.825219512,0.499180764,-2.215166569
286,1.55965563792e+18,0.4318359196,2.783816576,-1.65866828
287,1.55965563797e+18,-1.686644793,3.259680986,-2.525485992
288,1.55965563802e+18,-2.607829571,4.398944378,-3.281737328
289,1.55965563808e+18,-2.643870592,4.648788452,2.424965858
290,1.55965563813e+18,-4.787396908,-1.013321638,3.434115171
291,1.55965563818e+18,-5.423918247,-3.697463274,3.896540165
292,1.55965563823e+18,-2.799030304,-4.229527473,4.735868931
293,1.55965563828e+18,0.5271309018,-1.757355452,1.127488017
294,1.55965563834e+18,1.481913328,0.1699243933,-1.685546398
295,1.55965563839e+18,3.863065958,-5.034647465,-4.325095177
296,1.55965563844e+18,3.618109226,-1.979099512,-3.755157948
297,1.55965563849e+18,2.506945133,1.34156394,-3.283569813
298,1.55965563854e+18,2.553370953,-0.1923187077,-1.199908614
299,1.5596556386e+18,1.594312549,0.3751751184,-0.3110996187
300,1.55965563865e+18,0.8007985353,-0.5118012428,-0.005666996818
301,1.5596556387e+18,2.287033796,-4.681567192,-3.548074484
302,1.55965563875e+18,-0.5461593866,-3.275966644,2.382205248
303,1.5596556388e+18,-4.816718102,-4.877044201,5.197683334
304,1.55965563886e+18,-2.830795527,2.416075945,8.657012939
305,1.55965563891e+18,-0.7007082701,1.562697172,3.005287886
306,1.55965563896e+18,-0.1723098159,-2.936936378,-1.557875633
307,1.55965563901e+18,0.6199824214,3.417284012,-1.692265987
308,1.55965563906e+18,2.265042543,2.188223124,-2.520599127
309,1.55965563912e+18,3.376817226,-1.910071731,-2.14858222
310,1.55965563917e+18,3.747001648,-4.083530426,-1.882244945
311,1.55965563922e+18,3.718291044,-2.180685043,-1.619572997
312,1.55965563927e+18,3.816640139,-1.892967582,-0.6470754743
313,1.55965563932e+18,1.982211947,-2.053014278,-0.7790223956
314,1.55965563938e+18,0.3292105496,1.419754624,-3.013567448
315,1.55965563943e+18,-0.9102350473,4.597475529,0.8348836303
316,1.55965563948e+18,-2.313392639,0.243228212,4.571546555
317,1.55965563953e+18,-3.800849438,2.241979361,6.650931835
318,1.55965563958e+18,-3.147223711,-0.4953078628,7.077926159
319,1.55965563964e+18,-0.5559331775,-6.621064663,2.505600214
320,1.55965563969e+18,-0.1405448169,1.014140129,-2.26098156
321,1.55965563974e+18,1.853930235,3.664073467,-3.223094225
322,1.55965563979e+18,3.51792717,-0.4934752882,-4.520572186
323,1.55965563984e+18,3.422021151,-1.056082129,-2.303131104
324,1.5596556399e+18,2.378663301,-2.146476507,-1.906068683
325,1.55965563995e+18,1.335916519,1.041018248,-0.9299061298
326,1.55965564e+18,0.8985369802,1.712970018,0.171483919
327,1.55965564005e+18,0.3756363094,5.661602974,-0.007499592844
328,1.5596556401e+18,0.5564524531,0.2420064807,1.278982639
329,1.55965564016e+18,-0.639621675,-0.559448719,3.543459892
330,1.55965564021e+18,-3.018331051,-3.040783405,5.185465813
331,1.55965564026e+18,-2.715952635,-8.629590034,3.710837126
332,1.55965564031e+18,-1.83630681,1.190680146,4.087740898
333,1.55965564036e+18,-0.3818365932,-1.527670145,2.430463552
334,1.55965564042e+18,2.703643799,-3.916153431,-0.391122967
335,1.55965564047e+18,4.447053432,-0.4250583351,-3.058771372
336,1.55965564052e+18,4.370083809,-0.2265271544,-3.46988368
337,1.55965564057e+18,3.409803867,0.5755388737,-2.628111601
338,1.55965564062e+18,1.63707304,0.1705352515,-1.341018438
339,1.55965564068e+18,0.07020369172,1.92799449,-0.7680267692
340,1.55965564073e+18,-0.7202559114,1.643942237,-0.737483561
341,1.55965564078e+18,-0.2468353659,3.82228756,0.01204809546
342,1.55965564083e+18,-1.946262479,1.048959494,1.390160084
343,1.55965564088e+18,-5.494778633,-3.230151653,4.544056892
344,1.55965564094e+18,-5.252875805,-4.136675835,5.093835831
345,1.55965564099e+18,-0.9682672024,-7.142743587,1.858082891
346,1.55965564104e+18,0.7103904486,0.2914865613,-1.101559162
347,1.55965564109e+18,2.139815092,-0.7622559667,-1.623849034
348,1.55965564114e+18,3.503266335,-2.018805742,-1.748465538
349,1.5596556412e+18,4.086031914,-2.453742027,-2.185844898
350,1.55965564125e+18,3.78915143,0.2621650398,-2.040459156
351,1.5596556413e+18,2.342011452,0.8333240151,-1.308031797
352,1.55965564135e+18,0.09647089243,1.370274544,-0.6880034804
353,1.5596556414e+18,0.06837109476,7.531461239,-0.1064597592
354,1.55965564146e+18,0.5521764159,-0.5881593823,0.8220553994
355,1.55965564151e+18,-2.152734756,-0.142227754,4.132945061
356,1.55965564156e+18,-4.825881481,-9.944171906,3.115243673
357,1.55965564161e+18,-4.465470791,1.201064944,5.712031841
358,1.55965564166e+18,-1.645716786,5.802102089,-0.01727343537
359,1.55965564172e+18,-0.3604562879,-5.438429356,-0.6562384367
360,1.55965564177e+18,-0.08617781103,-5.510511875,0.3614630103
361,1.55965564182e+18,1.657231569,-2.524602413,-2.504106045
362,1.55965564187e+18,3.047560692,0.8192741871,-4.199256897
363,1.55965564192e+18,3.823359966,0.9035735726,-3.031893253
364,1.55965564198e+18,2.801382065,0.6628926396,-2.713632584
365,1.55965564203e+18,1.539945483,0.4429811537,-1.483960986
366,1.55965564208e+18,0.3487582505,2.166231871,0.2203531563
367,1.55965564213e+18,1.279105902,2.978071928,-1.536495328
368,1.55965564218e+18,-1.896782398,-0.3297633827,0.9723282456
369,1.55965564224e+18,-4.937058449,-2.777500391,3.869051218
370,1.55965564229e+18,-4.237007141,-2.737183332,5.194628716
371,1.55965564234e+18,-0.5999154449,1.210227847,3.579501152
372,1.55965564239e+18,-1.445353031,2.469221115,-1.064296484
373,1.55965564244e+18,-0.5003444552,5.147254467,-1.165700078
374,1.5596556425e+18,0.7366576791,-0.7439299822,-2.446073771
375,1.55965564255e+18,3.215548754,-0.3071613908,-2.975083113
376,1.5596556426e+18,2.438528299,-1.086625338,-2.348946095
377,1.55965564265e+18,1.854541063,1.926772833,-1.576201558
378,1.5596556427e+18,1.277884245,6.780707836,1.915504098
379,1.55965564276e+18,-0.9908692837,-4.283894062,0.9466719627
380,1.55965564281e+18,-4.089788437,-1.664503932,2.860512733
381,1.55965564286e+18,-3.013444185,-1.224070072,2.726733208
382,1.55965564291e+18,-2.327442408,2.144240856,2.699855328
383,1.55965564296e+18,-0.5492137074,5.45390892,-1.666609645
384,1.55965564302e+18,-0.1381013691,-4.001063347,-1.169365287
385,1.55965564307e+18,0.6077650785,-1.982764721,0.4433189631
386,1.55965564312e+18,2.591244698,-1.889913201,-2.375824213
387,1.55965564317e+18,3.949198008,-0.3028853238,-4.46987009
388,1.55965564322e+18,4.872215271,1.260318875,-3.49004221
389,1.55965564328e+18,4.460492134,0.1338833272,-0.8920324445
390,1.55965564333e+18,3.723177671,-2.903949499,1.83853519
391,1.55965564338e+18,1.897912502,-4.853831768,1.935662746
392,1.55965564343e+18,-1.700083733,1.335455298,0.9228482246
393,1.55965564348e+18,0.1600008905,0.1632048637,-2.606120348
394,1.55965564354e+18,-2.560182095,6.82530117,2.098763704
395,1.55965564359e+18,-5.235161304,-5.623521328,3.981450558
396,1.55965564364e+18,-4.340854168,6.927315712,8.457260132
397,1.55965564369e+18,-2.975570202,-0.3761891425,2.397476912
398,1.55965564374e+18,-1.281641126,-1.717649221,-1.37033999
399,1.5596556438e+18,-0.5351637602,1.297581673,-2.521821022
400,1.55965564385e+18,0.3292105496,1.273757935,-4.072807789
401,1.5596556439e+18,2.012144327,-1.009656429,-2.614061594
402,1.55965564395e+18,3.295572281,-1.885026217,-2.315348387
403,1.559655644e+18,4.054877758,-2.729242086,-0.1571615785
404,1.55965564406e+18,0.3762471676,-1.618078232,-0.5236807466
405,1.55965564411e+18,-1.865017414,2.270689964,-0.01299738046
406,1.55965564416e+18,-0.7446905375,-0.4085650146,-1.860864758
407,1.55965564421e+18,-2.596223116,4.639014721,1.787222505
408,1.55965564426e+18,-3.623698473,-4.437831879,4.378512859
409,1.55965564432e+18,-2.406854868,4.78562212,7.796914577
410,1.55965564437e+18,-1.31340611,2.767934322,4.701660633
411,1.55965564442e+18,0.1483944356,-3.332165956,-0.6733427048
412,1.55965564447e+18,1.398224711,-2.800713301,-2.989132881
413,1.55965564452e+18,2.384161234,-1.177644253,-5.056911469
414,1.55965564458e+18,2.390269756,1.53032124,-4.010499477
415,1.55965564463e+18,2.002370596,1.293916345,-3.728890657
416,1.55965564468e+18,1.106842041,1.887066483,-2.251818657
417,1.55965564473e+18,-0.04769330099,0.9011300802,-1.599414468
418,1.55965564478e+18,-0.4838510752,0.6781642437,-0.8089547753
419,1.55965564484e+18,-0.8491485119,-1.519728899,0.5709897876
420,1.55965564489e+18,1.332862139,-0.2943331897,-0.8291133642
421,1.55965564494e+18,-5.120318413,-1.428709984,5.118270397
422,1.55965564499e+18,-3.518018723,1.654326916,7.171388626
423,1.55965564504e+18,-1.315238595,2.667141676,2.814697742
424,1.5596556451e+18,-0.2181247175,-2.45007658,-2.22188592
425,1.55965564515e+18,0.5448459983,0.5749280453,-2.266479254
426,1.5596556452e+18,2.059180975,1.012307525,-3.855339766
427,1.55965564525e+18,1.791621923,-1.233844042,-3.441783905
428,1.5596556453e+18,1.415939808,0.9383928776,-2.311072588
429,1.55965564536e+18,0.9626777768,-0.3731348217,-1.119885206
430,1.55965564541e+18,1.407387733,-1.14526844,-0.02460381947
431,1.55965564546e+18,0.9254150391,-3.773821592,-0.4796984196
432,1.55965564551e+18,0.8765458465,-0.6272547841,-2.682478428
433,1.55965564556e+18,-2.770930767,3.009836912,1.552650213
434,1.55965564562e+18,-4.125218868,-1.899687052,6.043731213
435,1.55965564567e+18,-1.951760292,2.282907248,7.142678261
436,1.55965564572e+18,-0.3781713843,-0.4232257605,0.9100199938
437,1.55965564577e+18,-1.299967051,2.378813267,-1.875525475
438,1.55965564582e+18,-0.778288126,6.073936939,-3.222483397
439,1.55965564588e+18,0.8295091987,2.491212368,-3.735610008
440,1.55965564593e+18,1.852097631,2.047724009,-2.297022343
441,1.55965564598e+18,1.943116546,0.6506753564,-0.830945909
442,1.55965564603e+18,1.971827149,0.4497006536,-0.5212372541
443,1.55965564608e+18,1.256504059,1.092330933,-0.6043149233
444,1.55965564614e+18,1.439152718,1.733128548,0.007161173504
445,1.55965564619e+18,1.662118554,-2.643720865,1.980255842
446,1.55965564624e+18,1.795897961,-4.056041241,-0.6446320415
447,1.55965564629e+18,-3.346976519,-1.11228168,3.7193892
448,1.55965564634e+18,-6.821578026,0.4533658326,5.982034206
449,1.5596556464e+18,-2.70740056,-1.283324003,4.743199348
450,1.55965564645e+18,-0.6945996284,0.9090713263,-0.7997918129
451,1.5596556465e+18,0.5191896558,4.037312031,-2.588405371
452,1.55965564655e+18,1.630964398,0.9848185778,-2.293968201
453,1.5596556466e+18,1.699381351,-1.811111569,-0.5670521855
454,1.55965564666e+18,1.0738554,-0.7457626462,-0.874928236
455,1.55965564671e+18,0.4080121815,0.5474390984,0.0383152999
456,1.55965564676e+18,-0.3238043785,0.6848837733,1.116492391
457,1.55965564681e+18,-0.05258022621,2.681802273,3.369363546
458,1.55965564686e+18,-1.949927688,-0.4256692231,2.720624447
459,1.55965564692e+18,-0.5675396323,-6.495837212,1.201402664
460,1.55965564697e+18,-0.743468821,-1.962606192,1.54348731
461,1.55965564702e+18,-0.08312349021,0.5993626714,-1.153482795
462,1.55965564707e+18,0.6126520634,-1.020041108,-0.002001805231
463,1.55965564712e+18,1.175258875,-1.977267027,-0.245737046
464,1.55965564718e+18,3.078104258,-1.776903152,-1.774732828
465,1.55965564723e+18,5.95527935,2.741667032,-3.245696306
466,1.55965564728e+18,5.062194347,0.7661288381,-1.940888047
467,1.55965564733e+18,3.076271534,0.01415374782,-0.831556797
468,1.55965564738e+18,1.851486683,0.1302181333,-0.6666231751
469,1.55965564744e+18,1.721372485,-0.1061867028,-1.266492963
470,1.55965564749e+18,0.1899332702,2.307952642,-0.5731608272
471,1.55965564754e+18,-1.832030654,0.8467630744,-0.2683390379
472,1.55965564759e+18,-4.539385319,0.05141652748,3.506197214
473,1.55965564764e+18,-5.860075951,-2.666322947,5.310082436
474,1.5596556477e+18,-3.418447733,-5.971714973,3.95762682
475,1.55965564775e+18,-0.1619251072,-5.671779633,2.137248278
476,1.5596556478e+18,1.549108386,-1.629684567,-0.06186660007
477,1.55965564785e+18,4.461713791,-0.8202881217,-1.763737202
478,1.5596556479e+18,6.115937233,0.2065762877,-2.321457148
479,1.55965564796e+18,5.205136776,-2.156250477,-0.96961236
480,1.55965564801e+18,2.42875433,-1.430542588,-1.322081566
481,1.55965564806e+18,0.1288467497,1.824147463,-2.099713087
482,1.55965564811e+18,-0.07762569934,2.648815393,-1.983037829
483,1.55965564816e+18,0.8203461766,2.01046133,-2.130256414
484,1.55965564822e+18,0.1923767328,2.362319708,-2.37704587
485,1.55965564827e+18,-1.004308343,4.163150311,1.031582117
486,1.55965564832e+18,-4.581535339,-2.450687408,3.953961372
487,1.55965564837e+18,-6.562571526,-5.081073284,5.787778854
488,1.55965564842e+18,-3.526570797,-8.115241051,5.525106907
489,1.55965564848e+18,-0.302424103,-6.224001884,4.293602467
490,1.55965564853e+18,2.196625471,-2.329125166,-0.6568493843
491,1.55965564858e+18,4.260739326,-0.7359887958,-1.560929894
492,1.55965564863e+18,4.046325684,-1.368234277,-2.142473698
493,1.55965564868e+18,3.197833776,0.04103181884,-1.670274734
494,1.55965564874e+18,1.327975273,0.7306986451,-1.176695704
495,1.55965564879e+18,-0.2718808651,2.612163544,-1.888353586
496,1.55965564884e+18,-0.07151705027,3.869935036,-2.210279703
497,1.55965564889e+18,1.853930235,1.962813854,-0.4222770929
498,1.55965564894e+18,1.63707304,0.1216660291,-0.343475461
499,1.559655649e+18,-1.50216341,-2.257653952,3.979007006
500,1.55965564905e+18,-4.135603428,-3.424406767,5.39804697
501,1.5596556491e+18,-4.226622581,-7.885555744,5.519609451
502,1.55965564915e+18,-2.986565828,-2.054847002,3.131125927
503,1.5596556492e+18,-0.7599621415,2.697073936,0.9631652832
504,1.55965564926e+18,1.621801376,-0.9662849903,-1.527332306
505,1.55965564931e+18,2.532601595,-1.120833874,-2.90055728
506,1.55965564936e+18,3.205163956,0.6720556021,-3.22126174
507,1.55965564941e+18,2.49472785,1.567584157,-3.314724207
508,1.55965564946e+18,1.288269043,3.849776506,-1.053911686
509,1.55965564952e+18,1.548497558,1.389822245,0.3602412641
510,1.55965564957e+18,-2.343935728,-0.7714189291,2.240484715
511,1.55965564962e+18,-4.476466179,-0.8453336954,4.04742384
512,1.55965564967e+18,-3.11118269,-4.461044788,3.15617156
513,1.55965564972e+18,-2.037281275,-1.909460902,2.464672089
514,1.55965564978e+18,-1.025077581,1.93104887,0.4616449177
515,1.55965564983e+18,-1.230328321,0.836378336,0.4249930084
516,1.55965564988e+18,-0.5681505203,-2.850193262,0.01082636416
517,1.55965564993e+18,1.086072683,-2.063398838,-1.404548407
518,1.55965564998e+18,2.872242689,-2.533765078,-3.372145176
519,1.55965565004e+18,3.882613659,-0.9406285882,-4.990327835
520,1.55965565009e+18,3.576570272,-0.7170519233,-3.428344965
521,1.55965565014e+18,2.491062641,1.866297126,-2.092993736
522,1.55965565019e+18,0.4287815988,1.989081025,-0.4980243742
523,1.55965565024e+18,-0.3745062053,1.407537341,0.3730694652
524,1.5596556503e+18,-0.5876981616,1.089276552,0.6748369336
525,1.55965565035e+18,-1.158246279,-0.6981151104,1.614958525
526,1.5596556504e+18,-1.069670916,-2.423198462,1.117714286
527,1.55965565045e+18,-2.433732986,1.031855226,6.278303623
528,1.5596556505e+18,-4.963325977,3.315880299,6.496993542
529,1.55965565056e+18,-2.397691965,0.6861055493,2.70596385
530,1.55965565061e+18,-0.3268587291,-4.61559391,-1.273823261
531,1.55965565066e+18,0.8435590863,-1.848985195,-2.862072945
532,1.55965565071e+18,2.212507963,-1.487963915,-4.739872456
533,1.55965565076e+18,2.550316572,0.2572781146,-3.449114561
534,1.55965565082e+18,2.458686829,-0.5600595474,-2.709967613
535,1.55965565087e+18,2.139204264,-0.2637899518,-1.591473103
536,1.55965565092e+18,1.376233697,2.165621042,-1.264660239
537,1.55965565097e+18,2.025583267,-2.296138763,-2.229827404
538,1.55965565102e+18,1.51795435,-3.392641783,-4.001336575
539,1.55965565108e+18,-0.5620418787,1.978696465,-1.369118214
540,1.55965565113e+18,-3.1777668,-2.691368341,3.093863249
541,1.55965565118e+18,-3.335370064,0.6537296772,8.005830765
542,1.55965565123e+18,-2.987787724,3.258459091,8.880589485
543,1.55965565128e+18,-1.918162704,6.337219715,5.922780037
544,1.55965565134e+18,0.2772870064,-2.78421998,-1.649505377
545,1.55965565139e+18,0.6883993149,-2.833699942,-4.213917255
546,1.55965565144e+18,0.3524234295,0.9756556153,-3.339158773
547,1.55965565149e+18,1.250395417,-0.756147325,-2.686754704
548,1.55965565154e+18,1.05430758,0.7154270411,-2.452793121
549,1.5596556516e+18,1.073244333,2.858342171,-1.954327106
550,1.55965565165e+18,1.066524863,4.246228218,-2.126590967
551,1.5596556517e+18,0.3634189963,0.836378336,-2.503494978
552,1.55965565175e+18,-0.786229372,0.6103582382,-1.2212888
553,1.5596556518e+18,-0.6127436757,-5.402388096,-1.987313867
554,1.55965565185e+18,-5.689033508,2.848568678,5.499450684
555,1.55965565191e+18,-5.882067204,-0.9387960434,7.2532444
556,1.55965565196e+18,-2.400135279,0.117389977,5.837259293
557,1.55965565201e+18,0.5460677147,0.4613071084,-2.246320724
558,1.55965565206e+18,1.301707983,0.7099292874,-3.133908033
559,1.55965565211e+18,2.86857748,-2.595462561,-4.020273209
560,1.55965565217e+18,2.482510567,-0.78424716,-2.705080509
561,1.55965565222e+18,1.914405942,-0.6437481046,-1.521834612
562,1.55965565227e+18,-0.3195283413,1.597516537,-2.019689798
563,1.55965565232e+18,-0.8912982345,5.039131165,-1.788782597
564,1.55965565237e+18,-0.1478752047,3.454546928,-0.1516637951
565,1.55965565243e+18,0.9577909112,-2.41037035,-1.507784724
566,1.55965565248e+18,-3.244961977,-1.511176705,2.757276535
567,1.55965565253e+18,-4.954163074,-6.001646996,5.730357647
568,1.55965565258e+18,-3.741595507,0.3800620437,7.572727203
569,1.55965565263e+18,-1.970086217,3.543122292,2.17939806
570,1.55965565269e+18,1.111118078,-2.692589998,-2.789990664
571,1.55965565274e+18,1.327975273,-0.6687935591,-2.895059586
572,1.55965565279e+18,3.034121752,-0.01028086152,-3.395358086
573,1.55965565284e+18,2.333459377,-2.192291498,-2.896281242
574,1.55965565289e+18,2.753734589,-0.03105027974,-2.060006857
575,1.55965565295e+18,3.732340813,0.2609432936,-0.3227060437
576,1.559655653e+18,3.148964643,-3.495267153,0.1574340165
577,1.55965565305e+18,3.648652315,-3.749387026,-2.376435041
578,1.5596556531e+18,0.8649393916,2.14607358,-0.7625290751
579,1.55965565315e+18,-3.290165901,-0.8380032778,3.167166948
580,1.55965565321e+18,-3.329261541,0.5382761359,7.324715614
581,1.55965565326e+18,-4.786174774,5.17291069,9.817046165
582,1.55965565331e+18,-1.158246279,0.1406028569,2.056613922
583,1.55965565336e+18,0.01278235577,-1.169092298,-3.467440367
584,1.55965565341e+18,0.4403880239,3.555339575,-3.81380105
585,1.55965565347e+18,2.552760124,1.119208932,-4.201700211
586,1.55965565352e+18,1.900966763,-1.392668962,-3.012345791
587,1.55965565357e+18,2.269929409,-0.04815450683,-2.044735193
588,1.55965565362e+18,0.4110665023,1.63294661,-1.196243405
589,1.55965565367e+18,-0.2529440224,3.075810194,0.4653101265
590,1.55965565373e+18,0.9040347338,3.752038002,-2.446073771
591,1.55965565378e+18,-2.322555304,0.5266696811,-0.6146996617
592,1.55965565383e+18,-4.896741867,-3.853234053,3.576446772
593,1.55965565388e+18,-4.493570805,2.455171347,5.782892227
594,1.55965565393e+18,-2.569344997,8.535723686,-0.09118813276
595,1.55965565399e+18,-0.5565440655,-2.717635632,1.143981457
596,1.55965565404e+18,1.384174824,-4.562448502,-0.730153203
597,1.55965565409e+18,3.206385851,-2.283310652,-2.025187492
598,1.55965565414e+18,4.972397327,-1.027982354,-2.759447575
599,1.55965565419e+18,3.931482792,-3.096982956,-2.681867599
600,1.55965565425e+18,1.970605493,4.532113075,-1.395996332
601,1.5596556543e+18,0.1709964573,1.48084116,-1.298868775
602,1.55965565435e+18,0.5986021161,-0.5698334575,-1.26771462
603,1.5596556544e+18,1.413496375,-1.213074565,-0.5059656501
604,1.55965565445e+18,0.5717240572,-4.63880682,-0.9922143817
605,1.55965565451e+18,-1.456348538,-0.8251751065,0.8318293095
606,1.55965565456e+18,-1.914497495,-2.932660103,1.985753655
607,1.55965565461e+18,-4.114833832,4.474081039,5.900178432
608,1.55965565466e+18,-3.721436739,3.37513423,4.584985256
609,1.55965565471e+18,-0.9389456511,-2.299192905,1.006536722
610,1.55965565477e+18,0.2730109692,-2.881958485,-1.791226029
611,1.55965565482e+18,1.546665072,0.5394978523,-3.026395798
612,1.55965565487e+18,1.260779977,-1.618078232,-2.31412673
613,1.55965565492e+18,1.01765573,1.813151836,-1.761904597
614,1.55965565497e+18,1.981601119,2.913320303,-0.582934618
615,1.55965565503e+18,2.407373905,-1.737196922,-1.790615201
616,1.55965565508e+18,1.764133096,0.02148413099,-2.598179102
617,1.55965565513e+18,0.6883993149,-0.4360539317,-2.366050243
618,1.55965565518e+18,0.6731277108,-6.452466011,-5.786895275
619,1.55965565523e+18,-1.322569132,4.045253277,1.160474777
620,1.55965565529e+18,-5.648106098,0.2756040692,5.578863144
621,1.55965565534e+18,-4.457529068,-0.8215098977,7.708339214
622,1.55965565539e+18,-4.361012459,6.348215103,5.394992828
623,1.55965565544e+18,-0.7000974417,1.000090241,-1.35384655
624,1.55965565549e+18,0.5179678798,-2.797048092,-3.430788279
625,1.55965565555e+18,0.2858391106,-0.6113722324,-2.651935339
626,1.5596556556e+18,-0.2016313523,0.353794843,-2.317791939
627,1.55965565565e+18,0.523465693,1.644553065,-1.768013239
628,1.5596556557e+18,1.619968891,-0.980945766,-1.147984982
629,1.55965565575e+18,1.053085804,-1.543552637,-1.910955667
630,1.55965565581e+18,-1.699472904,1.725798249,-2.269533634
631,1.55965565586e+18,-3.418447733,6.185114384,-2.619559288
632,1.55965565591e+18,-4.764183998,3.711110115,-3.924978495
633,1.55965565596e+18,-6.256527901,4.00676918,0.6730042696
634,1.55965565601e+18,-7.356695652,-0.01150259282,3.251466513
635,1.55965565607e+18,-5.295636654,4.035479546,5.900789261
636,1.55965565612e+18,-1.857076168,1.667765975,0.4885229766
637,1.55965565617e+18,1.332862139,0.06607729197,-3.921924114
638,1.55965565622e+18,2.860636234,-2.916777611,-4.816230774
639,1.55965565627e+18,2.079339504,-1.328528047,-4.52668047
640,1.55965565633e+18,1.274829984,-1.239952683,-2.467453957
641,1.55965565638e+18,1.301097155,-0.1629971713,-0.3697426617
642,1.55965565643e+18,-0.08190175891,0.07157508284,-0.3288146853
643,1.55965565648e+18,-1.72696197,2.601167917,-1.293981791
644,1.55965565653e+18,-3.113015175,3.966451883,-2.78754735
645,1.55965565659e+18,-1.269423842,2.181503773,-2.278696537
646,1.55965565664e+18,-2.993896484,-2.779943943,-0.3972316384
647,1.55965565669e+18,-4.902850151,-3.018181324,3.550790548
648,1.55965565674e+18,-3.480756044,3.934075832,7.591663837
649,1.55965565679e+18,-2.14418292,-3.241758108,2.717570305
650,1.55965565685e+18,-1.00858438,-3.25458622,-1.708148479
651,1.5596556569e+18,-0.1973552853,0.54682827,-2.35077858
652,1.55965565695e+18,0.157557413,-1.566765547,-3.45644474
653,1.559655657e+18,0.5479003191,-1.843487382,-3.003182888
654,1.55965565705e+18,0.6908427477,0.7380290627,-2.49249959
655,1.55965565711e+18,-0.0794582963,3.953012943,-2.951259375
656,1.55965565716e+18,-0.02875648066,2.08376503,-2.541368723
657,1.55965565721e+18,-0.4392579198,2.707458496,-0.57560426
658,1.55965565726e+18,-0.7746229172,-0.2558487058,0.04747828096
659,1.55965565731e+18,-1.35677743,-4.915528774,-3.388027906
660,1.55965565737e+18,-3.068421841,5.087389469,3.75909543
661,1.55965565742e+18,-3.118512869,-5.641236782,5.673547268
662,1.55965565747e+18,-2.377533436,6.108756542,6.382761955
663,1.55965565752e+18,-1.442298651,1.796047568,1.415205598
664,1.55965565757e+18,-0.6738302112,-1.392668962,-1.585364461
665,1.55965565763e+18,0.6480821967,0.9945924878,-2.950037479
666,1.55965565768e+18,1.505126119,0.5645433068,-5.251777649
667,1.55965565773e+18,1.856984496,1.917609811,-5.373950481
668,1.55965565778e+18,1.252227902,1.409980893,-3.006847858
669,1.55965565783e+18,0.6291453838,1.642720461,-1.202962875
670,1.55965565789e+18,-0.3696192801,4.126498699,-0.8773717284
671,1.55965565794e+18,-1.052566648,4.987207413,-2.056341648
672,1.55965565799e+18,-0.0611323379,2.223653316,-0.8370545506
673,1.55965565804e+18,-0.5852547288,-1.902130485,0.1299450845
674,1.55965565809e+18,-3.791686296,-5.712707996,3.884322882
675,1.55965565815e+18,-3.273672581,-6.983918667,7.908092499
676,1.5596556582e+18,-1.496665597,-0.07503257692,3.347983122
677,1.55965565825e+18,-0.4765206873,-0.034104608,-1.871249557
678,1.5596556583e+18,0.9883341789,1.325681448,-2.728904247
679,1.55965565835e+18,2.081783056,-0.03715893254,-3.882217884
680,1.55965565841e+18,2.79282999,0.6079148054,-3.692238808
681,1.55965565846e+18,1.635851264,1.469845533,-2.219442606
682,1.55965565851e+18,1.403722525,0.412437886,-0.7387052774
683,1.55965565856e+18,-0.2639396191,3.24868536,-0.5597218275
684,1.55965565861e+18,-0.5956394076,5.419700146,0.1171169207
685,1.55965565867e+18,0.5979912877,0.009877691045,-0.3306473196
686,1.55965565872e+18,-1.985968709,0.1265529543,2.789652348
687,1.55965565877e+18,-3.453877926,-7.474443436,3.037052631
688,1.55965565882e+18,-3.400121927,-1.114725232,6.360770702
689,1.55965565887e+18,-3.842998981,5.973144054,4.823833466
690,1.55965565893e+18,-1.050734043,-1.928397655,-0.6544058919
691,1.55965565898e+18,0.9712299109,-2.475121975,-2.107043505
692,1.55965565903e+18,2.276648998,-0.9846109152,-3.259746075
693,1.55965565908e+18,3.622385025,-2.818428516,-4.946345329
694,1.55965565913e+18,2.622398615,1.642720461,-3.061214924
695,1.55965565919e+18,2.701200247,1.651883364,-1.520612836
696,1.55965565924e+18,2.126376152,0.9976468086,-0.9060823917
697,1.55965565929e+18,2.482510567,2.262748718,-1.640953302
698,1.55965565934e+18,2.017031193,-0.8288402557,-0.7008316517
699,1.55965565939e+18,0.7073361278,-1.414659977,-0.1486094594
700,1.55965565945e+18,0.06287330389,-3.305288076,0.08840624988
701,1.5596556595e+18,-4.477687836,0.2835453153,7.510418892
702,1.55965565955e+18,-4.494181633,-0.05059796944,7.500034332
703,1.5596556596e+18,-1.382433891,1.273757935,2.545306206
704,1.55965565965e+18,0.284006536,-1.685884237,-1.571314573
705,1.55965565971e+18,1.329807878,-0.8758769035,-3.253026724
706,1.55965565976e+18,2.062846184,-2.511773825,-4.679397106
707,1.55965565981e+18,1.68349874,2.538859844,-2.78449297
708,1.55965565986e+18,1.092792153,0.9060170054,-1.93661201
709,1.55965565991e+18,0.6499148011,2.461280107,-1.115609169
710,1.55965565997e+18,0.07386887819,2.383699894,-1.269547224
711,1.55965566002e+18,0.1160185859,-0.8178447485,-0.7625290751
712,1.55965566007e+18,0.02377793007,0.3342471421,-0.9647253752
713,1.55965566012e+18,0.006062837783,-7.487882137,-2.894448757
714,1.55965566017e+18,-2.57789731,0.9432798028,5.418816566
715,1.55965566023e+18,-2.256582022,-1.068299413,6.886725426
716,1.55965566028e+18,-2.535747528,2.754495144,5.351010323
717,1.55965566033e+18,-0.1191645339,2.925537586,0.3724585772
718,1.55965566038e+18,1.252227902,-1.449479342,-2.587183475
719,1.55965566043e+18,1.768409014,-2.729242086,-3.134518862
720,1.55965566049e+18,1.34569025,-0.004783074837,-3.139405727
721,1.55965566054e+18,1.200915337,1.125928521,-2.538924932
722,1.55965566059e+18,1.525895476,2.143629789,-1.694709301
723,1.55965566064e+18,1.73297894,2.961578608,-1.597581744
724,1.55965566069e+18,0.6731277108,-1.798894286,-0.7845202088
725,1.55965566075e+18,-0.03669773042,1.452741504,-1.285429716
726,1.5596556608e+18,0.07020369172,2.677526236,0.4414863586
727,1.55965566085e+18,-3.388515472,-0.09946718812,6.642379284
728,1.5596556609e+18,-4.237007141,-3.253364563,5.51350069
729,1.55965566095e+18,-3.536955595,3.460044622,3.862331867
730,1.55965566101e+18,-0.003711006371,1.840640903,-0.8559914231
731,1.55965566106e+18,1.580262542,-3.247866631,-2.006861687
732,1.55965566111e+18,3.349328279,-2.362722874,-3.309226274
733,1.55965566116e+18,2.202123404,-1.518507242,-2.082608938
734,1.55965566121e+18,2.061624289,0.1497658342,-1.199908614
735,1.55965566127e+18,1.18320024,0.09662055224,-0.1699897498
736,1.55965566132e+18,3.204553127,-1.731088281,0.9845455885
737,1.55965566137e+18,2.330404997,-6.093887806,-0.7704702616
738,1.55965566142e+18,-0.3561802804,0.1357159317,-0.7564204335
739,1.55965566147e+18,-0.3115870953,-1.913126111,-1.72769618
740,1.55965566153e+18,-1.702527165,1.708693981,4.311928749
741,1.55965566158e+18,-2.414185286,-1.291265249,5.525717735
742,1.55965566163e+18,-3.825894833,7.541846275,7.971011162
743,1.55965566168e+18,-1.458181143,4.311590672,3.60027051
744,1.55965566173e+18,1.035981655,-4.883152962,-1.931114316
745,1.55965566179e+18,1.722594142,-2.890510559,-4.299438953
746,1.55965566184e+18,1.378677011,-1.732309937,-4.800348282
747,1.55965566189e+18,1.028040409,1.398374438,-3.122301579
748,1.55965566194e+18,1.211299896,0.742915988,-2.0587852
749,1.55965566199e+18,2.149588823,2.370871782,-0.4888614118
750,1.55965566205e+18,3.958361149,-2.420755148,-0.6055366993
751,1.5596556621e+18,5.014546871,-6.33090353,-0.4234988093
752,1.55965566215e+18,3.574737549,-6.420089722,-0.6818948388
753,1.5596556622e+18,-0.3561802804,-4.236857414,-3.609161139
754,1.55965566225e+18,-2.81002593,9.332902908,3.851336241
755,1.55965566231e+18,-3.711663008,-0.5783855319,5.760900974
756,1.55965566236e+18,-1.930990815,6.736114979,5.354675293
757,1.55965566241e+18,-0.357401967,3.277395964,1.897789121
758,1.55965566246e+18,0.9834471941,-5.203246117,-2.143695354
759,1.55965566251e+18,1.360351086,-3.591783762,-4.480865955
760,1.55965566256e+18,0.8576090336,-0.3719130754,-2.332452536
761,1.55965566262e+18,0.6816797853,1.163802147,-1.937222958
762,1.55965566267e+18,0.7299381495,0.7319204211,-1.838873625
763,1.55965566272e+18,0.2412459552,0.9848185778,-1.844371319
764,1.55965566277e+18,-0.4551404119,1.452741504,-1.025201082
765,1.55965566282e+18,-1.221776247,-2.032244921,-1.000766516
766,1.55965566288e+18,-1.580965042,0.117389977,0.2252400666
767,1.55965566293e+18,-3.753201962,1.004977226,5.855585098
768,1.55965566298e+18,-1.560806513,3.428890467,5.886739254
769,1.55965566303e+18,-3.244351149,5.380604744,3.486038923
770,1.55965566308e+18,-0.6231283545,-0.1636080295,1.393214345
771,1.55965566314e+18,0.3896862268,0.05874691159,-2.793045282
772,1.55965566319e+18,1.137385249,2.130190849,-4.075251102
773,1.55965566324e+18,1.147770047,-2.637612343,-3.473549128
774,1.55965566329e+18,0.9400758147,-0.9754479527,-1.721587539
775,1.55965566334e+18,1.020709991,-1.929008603,-1.105835319
776,1.5596556634e+18,-0.5669287443,0.4851308465,-1.266492963
777,1.55965566345e+18,-2.062937737,4.56998682,-2.158967018
778,1.5596556635e+18,-2.729391813,4.232178211,-3.138794899
779,1.55965566355e+18,-3.450823545,3.902921915,-2.692252398
780,1.5596556636e+18,-3.107517242,-1.411605716,-1.16508925
781,1.55965566366e+18,-4.988371372,-0.4971404672,2.523315191
782,1.55965566371e+18,-4.581535339,0.9646601081,3.522079945
783,1.55965566376e+18,-2.094702721,-0.2216402441,0.769520998
784,1.55965566381e+18,-0.01409571525,-1.9931494,-1.373394251
785,1.55965566386e+18,1.2894907,2.733114958,-3.137573004
786,1.55965566392e+18,2.520384312,1.782608628,-4.217583179
787,1.55965566397e+18,1.984044552,-1.412827492,-4.107626915
788,1.55965566402e+18,1.209467411,0.9548862576,-1.512060642
789,1.55965566407e+18,1.062248945,-0.8147904277,1.183687568
790,1.55965566412e+18,0.7604814172,-0.9436829686,1.420092583
791,1.55965566418e+18,1.392726898,-2.028579473,-1.904236197
792,1.55965566423e+18,-2.601721048,-0.7390431166,-2.268922806
793,1.55965566428e+18,-3.375687361,-0.05853921548,-2.713021755
794,1.55965566433e+18,-5.893063068,1.172354221,1.364503741
795,1.55965566438e+18,-5.614508152,0.4338181615,6.196447849
796,1.55965566444e+18,-5.417809486,5.784997463,7.466436386
797,1.55965566449e+18,-3.450823545,6.696408749,2.049894571
798,1.55965566454e+18,-0.2743242979,2.122249842,-0.1186770722
799,1.55965566459e+18,1.840491176,-5.147047043,-4.566997528
800,1.55965566464e+18,1.953501225,-0.9381851554,-5.530332088
801,1.5596556647e+18,1.116005063,1.216336489,-4.401453018
802,1.55965566475e+18,1.980379224,-0.5484531522,-2.692863226
803,1.5596556648e+18,1.913184047,-1.65839529,0.3529108763
804,1.55965566485e+18,-0.9529955983,-1.032258391,0.4152191579
805,1.5596556649e+18,-1.153970242,-4.255183697,-3.760044575
806,1.55965566496e+18,-4.468524933,2.743499756,1.583193541
807,1.55965566501e+18,-4.295650482,1.604236007,5.592302322
808,1.55965566506e+18,-4.555268288,5.194901943,6.67597723
809,1.55965566511e+18,-0.2718808651,-3.158069611,-1.548712611
810,1.55965566516e+18,-1.299356222,4.062968731,-0.9555624127
811,1.55965566522e+18,-0.5864764452,1.416089535,-1.865751743
812,1.55965566527e+18,1.075687885,1.322016239,-3.535246372
813,1.55965566532e+18,2.527103662,1.287196875,-4.752700806
814,1.55965566537e+18,2.666380882,-0.2692877054,-5.268270969
815,1.55965566542e+18,1.115394115,2.224264145,-3.057549715
816,1.55965566548e+18,-0.7306406498,2.637820005,-0.5560565591
817,1.55965566553e+18,-1.489335299,2.386754513,0.131777674
818,1.55965566558e+18,-1.299967051,1.829645276,0.1971402615
819,1.55965566563e+18,-1.109987974,0.1234986261,1.308304191
820,1.55965566568e+18,-2.183278322,-3.682802677,2.19589138
821,1.55965566574e+18,-5.172852516,-1.409773231,7.330214024
822,1.55965566579e+18,-3.68050909,-0.4849231541,6.729733467
823,1.55965566584e+18,-0.3769496679,-1.709707975,-1.319027185
824,1.55965566589e+18,-0.2908176482,2.802753687,-2.586572647
825,1.55965566594e+18,0.5533980727,1.22244525,-2.931100607
826,1.559655666e+18,2.009089947,-0.06892392784,-3.483933687
827,1.55965566605e+18,2.971813679,-0.902755022,-2.202949286
828,1.5596556661e+18,2.980365753,-0.1678840965,-1.56581676
829,1.55965566615e+18,0.4697095752,3.477759838,-0.5273458958
830,1.5596556662e+18,1.016433954,1.199843168,-2.805873394
831,1.55965566626e+18,-1.704970717,1.879125357,1.235000372
832,1.55965566631e+18,-3.931574345,-1.415881872,1.908784628
833,1.55965566636e+18,-2.934031487,-4.231359959,3.928305149
834,1.55965566641e+18,-3.116069317,-0.5991549492,4.255729198
835,1.55965566646e+18,-1.542480588,1.362944245,0.564881146
836,1.55965566652e+18,-0.5785351992,-1.402442694,-0.3715752959
837,1.55965566657e+18,1.205802083,0.1228877604,-1.901792765
838,1.55965566662e+18,2.072619915,0.5065111518,-3.17178154
839,1.55965566667e+18,2.982198238,1.094163418,-2.639718056
840,1.55965566672e+18,2.785499811,-1.071353793,-0.9525080919
841,1.55965566678e+18,0.9657320976,-1.370066881,0.4457624257
842,1.55965566683e+18,1.068357587,3.087416649,-1.697763681
843,1.55965566688e+18,-2.776428461,4.730033398,1.002260685
844,1.55965566693e+18,-4.720201492,-3.809862852,5.076732159
845,1.55965566698e+18,-0.4979009926,-4.043213367,5.055351734
846,1.55965566704e+18,1.13372004,-7.476886749,-3.419181824
847,1.55965566709e+18,0.09341656417,1.340342164,-2.275642395
848,1.55965566714e+18,-0.7037625909,1.703806996,0.5764876008
849,1.55965566719e+18,0.2320829779,-2.297971249,0.6332980394
850,1.55965566724e+18,2.145313025,-1.129385948,-1.309253454
851,1.5596556673e+18,3.053669453,-0.8850399256,-3.044721603
852,1.55965566735e+18,1.204580426,-15.05222702,-12.17715645
853,1.5596556674e+18,1.179535031,6.326224327,-0.6458537579
854,1.55965566745e+18,0.02011273801,-7.8910532,2.853182316
855,1.5596556675e+18,0.3756363094,-8.926469803,5.374223232
856,1.55965566756e+18,-0.1662011594,1.934103251,5.8690238
857,1.55965566761e+18,0.952903986,0.9866512418,1.968038559
858,1.55965566766e+18,-0.8424290419,2.64637208,-1.212125897
859,1.55965566771e+18,-1.318292975,4.802115917,-0.4735897779
860,1.55965566776e+18,-1.425194502,2.123471498,-0.2280219495
861,1.55965566782e+18,-0.872361362,1.441745877,-0.6177539825
862,1.55965566787e+18,-0.1326035708,3.068480015,-1.909123063
863,1.55965566792e+18,0.8594415784,1.884012222,-2.953702688
864,1.55965566797e+18,2.36888957,-1.838600636,-1.826656222
865,1.55965566802e+18,1.719539762,-3.583231688,0.1103973985
866,1.55965566808e+18,-0.119775407,0.1015074775,1.930775881
867,1.55965566813e+18,-0.5241681933,0.357460022,1.539211154
868,1.55965566818e+18,0.06409504265,-0.7903558016,-0.07164043933
869,1.55965566823e+18,-1.746509552,2.922483206,3.307666063
870,1.55965566828e+18,-1.109987974,1.006809711,5.135375023
871,1.55965566834e+18,-1.165576696,4.907795429,4.1268363
872,1.55965566839e+18,-0.231563732,-3.677915812,0.2478420883
873,1.55965566844e+18,-0.2266768217,-2.687092304,-0.3355342448
874,1.55965566849e+18,0.6065434217,-0.08297382295,-2.323289871
875,1.55965566854e+18,0.9840580821,1.413035154,-4.799737453
876,1.55965566859e+18,2.095221996,1.667155147,-5.200464725
877,1.55965566865e+18,1.70976603,-0.1929295659,-3.066712618
878,1.5596556687e+18,1.099511623,0.6152451634,-0.9292952418
879,1.55965566875e+18,0.7103904486,0.7258117795,-0.4228879809
880,1.5596556688e+18,0.952293098,-1.435429454,-0.7362618446
881,1.55965566885e+18,-0.06357580423,-1.668780088,-0.6391342878
882,1.55965566891e+18,-1.26026082,1.382491946,-0.2274110913
883,1.55965566896e+18,-0.8509810567,0.3733424842,2.579514742
884,1.55965566901e+18,-3.047041655,0.6934359074,6.439572334
885,1.55965566906e+18,-2.81002593,2.780762434,5.864137173
886,1.55965566911e+18,-1.717798829,1.804599762,0.7921229601
887,1.55965566917e+18,-0.3293021917,-0.9045875669,-1.158980608
888,1.55965566922e+18,0.420840323,-0.8160121441,-1.903014421
889,1.55965566927e+18,2.506945133,-0.6431372762,-2.517544985
890,1.55965566932e+18,2.480678082,-3.932035685,-0.2255784869
891,1.55965566937e+18,3.211272717,-4.589937687,-0.9256300926
892,1.55965566943e+18,3.613832951,-4.125069141,-1.23778224
893,1.55965566948e+18,3.023736954,-2.763450384,-1.523667097
894,1.55965566953e+18,-0.4099363983,1.016583562,-0.438159585
895,1.55965566958e+18,-1.102657557,4.508900166,-0.344086349
896,1.55965566963e+18,-3.393402338,1.899894834,1.56670022
897,1.55965566969e+18,-2.952357769,0.9298407435,5.837259293
898,1.55965566974e+18,-3.855827093,4.866256237,8.417553902
899,1.55965566979e+18,-1.706803322,0.4564201832,3.064541817
900,1.55965566984e+18,-0.30670017,-3.491601706,-2.396593571
901,1.55965566989e+18,0.6138737798,0.4252660573,-3.262800455
902,1.55965566995e+18,2.309024811,-0.1416168809,-4.321430206
903,1.55965567e+18,2.0310812,-2.178852558,-3.995838881
904,1.55965567005e+18,1.837436914,0.2817127407,-3.009902239
905,1.5596556701e+18,1.904632092,-0.3890173137,-1.790004373
906,1.55965567015e+18,1.807504416,-0.2595138848,-1.409435272
907,1.55965567021e+18,1.910129786,-0.3749673963,-1.841928005
908,1.55965567026e+18,2.508777857,-0.417727977,-0.1479986012
909,1.55965567031e+18,1.288269043,-1.097620964,0.07924327254
910,1.55965567036e+18,-2.20404768,4.072131634,4.894083023
911,1.55965567041e+18,-5.652381897,8.287101746,5.854363441
912,1.55965567047e+18,-3.516797066,-4.731657982,4.649126053
913,1.55965567052e+18,-2.634096622,2.147295237,2.501934767
914,1.55965567057e+18,-1.01530385,2.147906065,-1.709981084
915,1.55965567062e+18,0.06898195297,1.981750727,-2.647659063
916,1.55965567067e+18,3.189281702,-1.746359825,-1.824212909
917,1.55965567073e+18,3.331002474,-6.900229931,-0.6800622344
918,1.55965567078e+18,4.060986519,-3.916764259,-0.442435652
919,1.55965567083e+18,2.486786604,-3.291848898,-0.7020534277
920,1.55965567088e+18,0.1661095321,-2.556977987,-0.9653363228
921,1.55965567093e+18,-1.546145797,0.998868525,-1.378281236
922,1.55965567099e+18,-1.154581189,0.9298407435,-2.378267527
923,1.55965567104e+18,-2.134408951,7.184490204,2.765828609
924,1.55965567109e+18,-5.143531322,-1.834324479,4.66317606
925,1.55965567114e+18,-2.516810656,2.991510868,7.638089657
926,1.55965567119e+18,-1.85646534,4.371455669,4.124392986
927,1.55965567125e+18,0.618149817,-5.235621929,0.289380908
928,1.5596556713e+18,1.215576053,-2.919221163,-3.59205699
929,1.55965567135e+18,2.674322367,0.3037038743,-4.749646664
930,1.5596556714e+18,2.838034153,1.620118499,-4.65862751
931,1.55965567145e+18,2.756788969,1.827201724,-3.509590149
932,1.55965567151e+18,2.118434906,0.5651541948,-1.645840168
933,1.55965567156e+18,1.268110514,0.3220298588,-0.9561733603
934,1.55965567161e+18,0.6535800099,-0.9204701185,-1.031920671
935,1.55965567166e+18,0.283395648,0.519339323,-1.068572521
936,1.55965567171e+18,-2.713509321,7.856441975,2.539808512
937,1.55965567177e+18,-5.944375515,-2.379216194,3.474432468
938,1.55965567182e+18,-5.353669167,-10.00525761,4.545890331
939,1.55965567187e+18,-0.7544643879,-3.853234053,5.682710171
940,1.55965567192e+18,0.2186439335,-2.348062277,-0.5865998268
941,1.55965567197e+18,1.940062284,-2.045683861,-1.914010048
942,1.55965567203e+18,4.028610706,0.243228212,-2.922548532
943,1.55965567208e+18,5.202082634,-0.004783074837,-2.457680225
944,1.55965567213e+18,4.020058155,-2.707251072,-1.314751267
945,1.55965567218e+18,2.32918334,-1.246061325,-1.390498519
946,1.55965567223e+18,1.475193739,2.438678026,-0.7038859725
947,1.55965567229e+18,2.90828371,0.9646601081,-2.182179928
948,1.55965567234e+18,1.596145034,0.3055364788,-2.864516258
949,1.55965567239e+18,-0.1075581014,4.959718704,2.460396051
950,1.55965567244e+18,-3.505190611,-2.36394453,6.051062107
951,1.55965567249e+18,-5.095273018,-4.788468838,8.197642326
952,1.55965567255e+18,-2.150902271,-11.34366417,5.389494419
953,1.5596556726e+18,0.4043469727,-0.4403299987,0.4005583823
954,1.55965567265e+18,1.644403458,2.2853508,-0.9848839641
955,1.5596556727e+18,3.117199421,-3.423795938,-2.31046176
956,1.55965567275e+18,4.626036644,-3.007796526,-3.391082287
957,1.55965567281e+18,3.464781761,-0.5747203231,-2.709356785
958,1.55965567286e+18,1.624855757,2.126525879,-3.314724207
959,1.55965567291e+18,1.584538579,5.802712917,-1.823601961
960,1.55965567296e+18,2.267486095,2.376980543,0.2289052606
961,1.55965567301e+18,1.720761538,-0.6987259984,-0.02643641457
962,1.55965567307e+18,-1.830198169,-0.2717311978,3.730384827
963,1.55965567312e+18,-4.382392883,-3.959524632,7.035777092
964,1.55965567317e+18,-3.0849154,-10.57458401,8.164655685
965,1.55965567322e+18,0.05187772959,-1.457420707,0.7994533777
966,1.55965567327e+18,-0.2761569023,3.657964945,-0.5389523506
967,1.55965567333e+18,0.4917007089,-0.5893810987,-1.868195057
968,1.55965567338e+18,1.254060507,0.357460022,-2.921326876
969,1.55965567343e+18,2.541153669,0.196191594,-3.804027081
970,1.55965567348e+18,2.463573694,-0.5741094947,-4.01966238
971,1.55965567353e+18,2.621176958,0.5657650828,-2.408810854
972,1.55965567359e+18,1.839880228,1.642720461,-0.9134128094
973,1.55965567364e+18,1.563769221,-0.1177931428,-3.829683304
974,1.55965567369e+18,1.049420595,6.642652512,-1.879190683
975,1.55965567374e+18,-1.172296286,0.3446318507,0.07496721298
976,1.55965567379e+18,-4.507009983,1.112489462,2.945423126
977,1.55965567385e+18,-5.321903706,-2.691368341,4.844603062
978,1.5596556739e+18,-3.713495493,-1.487353086,7.60999012
979,1.55965567395e+18,-1.668318868,-5.259445667,4.018712997
980,1.559655674e+18,-1.603567123,1.109435201,1.472626925
981,1.55965567405e+18,-0.5015661716,3.478981495,-0.824226439
982,1.55965567411e+18,1.624244928,0.3727316558,-3.017232656
983,1.55965567416e+18,1.326753497,-1.603417516,-2.924991846
984,1.55965567421e+18,1.926012278,-0.2741746604,-3.105197191
985,1.55965567426e+18,0.918084681,1.881568789,-2.411865234
986,1.55965567431e+18,1.099511623,3.090471268,-1.788171768
987,1.55965567437e+18,2.23938632,0.452144146,-1.657446623
988,1.55965567442e+18,2.244884014,-0.30410707,-3.772873163
989,1.55965567447e+18,-1.53209579,6.026289463,1.570976138
990,1.55965567452e+18,-6.070213795,-3.372483253,3.614931345
991,1.55965567457e+18,-4.699431896,-4.574666023,6.594120979
992,1.55965567463e+18,-4.341465473,1.388600588,7.259964466
993,1.55965567468e+18,-1.359220982,0.9548862576,1.341901779
994,1.55965567473e+18,1.006049275,-2.353559971,-2.408810854
995,1.55965567478e+18,1.74947226,-1.841654897,-3.964684486
996,1.55965567483e+18,1.579651713,-1.027371407,-2.766166925
997,1.55965567489e+18,2.211897135,-1.043864846,-3.105197191
998,1.55965567494e+18,2.252214432,0.05935777724,-2.069780827
999,1.55965567499e+18,1.721372485,0.502845943,-1.366063833
1000,1.55965567504e+18,1.506958723,-0.0402132608,-2.3239007
1001,1.55965567509e+18,0.9260258675,0.31836465,-2.881009817
1002,1.55965567515e+18,1.858206272,1.039796472,-5.406326771
1003,1.5596556752e+18,-0.8619766831,0.9188451767,2.133583069
1004,1.55965567525e+18,-5.737902641,-0.8282294273,7.011342049
1005,1.5596556753e+18,-3.726323843,-2.803767681,7.956350803
1006,1.55965567535e+18,-2.518032551,5.152141094,7.390689373
1007,1.55965567541e+18,0.09158396721,0.05508171767,-1.573758006
1008,1.55965567546e+18,0.7659791708,-2.698087931,-3.728279829
1009,1.55965567551e+18,1.175258875,-1.335247517,-3.933530569
1010,1.55965567556e+18,1.412274599,0.9170125723,-3.088093042
1011,1.55965567561e+18,1.690829277,0.5327783227,-2.662320137
1012,1.55965567567e+18,1.540556312,1.213282228,-1.560319066
1013,1.55965567572e+18,0.712833941,2.648815393,0.2032489181
1014,1.55965567577e+18,-0.5608201027,-2.005977631,-0.01849516667
1015,1.55965567582e+18,0.3915188015,0.310423404,-0.7820767164
1016,1.55965567587e+18,-3.531457663,0.4808548093,2.72245717
1017,1.55965567593e+18,-3.848496914,-5.631463051,6.101763725
1018,1.55965567598e+18,-3.30360508,4.942614555,10.11026192
1019,1.55965567603e+18,-2.808193445,7.615760803,4.534894466
1020,1.55965567608e+18,0.1881006807,0.939003706,-1.38377893
1021,1.55965567613e+18,1.170982957,-2.305301428,-2.965309143
1022,1.55965567619e+18,1.837436914,-0.4977513552,-4.518128395
1023,1.55965567624e+18,1.826441288,1.257875323,-2.972639322
1024,1.55965567629e+18,2.123321772,1.309188128,-3.096645117
1025,1.55965567634e+18,1.072022676,1.98419416,-2.377656698
1026,1.55965567639e+18,-0.6048024297,5.286531925,-2.932933331
1027,1.55965567645e+18,-0.9004611969,3.092303753,-2.1516366
1028,1.5596556765e+18,1.858817101,-2.980307579,-2.923770189
1029,1.55965567655e+18,-3.248016357,-2.227721691,3.72916317
1030,1.5596556766e+18,-3.041543961,-9.580095291,6.069998741
1031,1.55965567665e+18,-2.580340624,-1.698101521,5.130487919
1032,1.55965567671e+18,-0.5143943429,2.598724604,-0.4057837129
1033,1.55965567676e+18,0.5595067739,0.7197031379,-2.191953659
1034,1.55965567681e+18,2.616900921,-0.9161940217,-3.547463655
1035,1.55965567686e+18,3.908880949,-0.0279959552,-4.170546532
1036,1.55965567691e+18,3.336500168,-1.831270099,-2.998295784
1037,1.55965567697e+18,2.309635639,-4.754260063,-2.946983099
1038,1.55965567702e+18,1.29254508,2.445397377,-1.350181341
1039,1.55965567707e+18,2.818486214,5.298138142,0.5905374885
1040,1.55965567712e+18,4.685901165,-2.114100933,-0.06797525287
1041,1.55965567717e+18,2.015198708,-3.769545555,-0.3734078705
1042,1.55965567722e+18,-2.494208574,-1.170313954,2.8849473
1043,1.55965567728e+18,-2.522919178,-3.051167965,6.932540417
1044,1.55965567733e+18,-1.089218497,1.932881474,7.804244995
1045,1.55965567738e+18,-1.845469713,1.802767158,1.951545238
1046,1.55965567743e+18,-1.387931585,0.7160379291,0.2484529465
1047,1.55965567748e+18,0.3053868115,1.497945428,-2.73806715
1048,1.55965567754e+18,2.046963692,1.198621511,-3.405132055
1049,1.55965567759e+18,2.754956484,0.8040025234,-3.110084295
1050,1.55965567764e+18,2.089113235,-0.006004805677,-2.099713087
1051,1.55965567769e+18,0.4513836205,1.165634751,-1.129048228
1052,1.55965567774e+18,-1.510104775,4.554104328,-1.909734011
1053,1.5596556778e+18,-0.640843451,4.784400463,-2.947593927
1054,1.55965567785e+18,-1.219332933,2.483270884,-1.860864758
1055,1.5596556779e+18,-0.7294189334,-1.89357841,-2.332452536
1056,1.55965567795e+18,-4.486240387,0.981764257,4.216633797
1057,1.559655678e+18,-5.960868835,-5.403610229,5.300919533
1058,1.55965567806e+18,-4.119110584,-2.814152241,4.392562866
1059,1.55965567811e+18,-0.9786519408,0.4277095199,0.8690920472
1060,1.55965567816e+18,1.116005063,-0.6242004633,-2.426525831
1061,1.55965567821e+18,2.70975256,0.6580057144,-4.008666992
1062,1.55965567826e+18,3.085434675,-1.024317145,-4.005001545
1063,1.55965567832e+18,1.991985679,0.699544549,-2.794877768
1064,1.55965567837e+18,1.70304656,1.441745877,-1.708759308
1065,1.55965567842e+18,1.743974447,1.776499987,-0.6470754743
1066,1.55965567847e+18,0.4116773605,1.020859718,-1.464413166
1067,1.55965567852e+18,-1.420918345,2.34155035,-2.31718111
1068,1.55965567858e+18,-0.7233102322,3.397125483,-1.629346848
1069,1.55965567863e+18,-2.05499649,-4.323600769,-0.2579543591
1070,1.55965567868e+18,-4.29015255,-2.38349247,4.647904396
1071,1.55965567873e+18,-5.717744827,-2.969311953,6.114591599
1072,1.55965567878e+18,-2.541856289,-3.818414688,2.994903088
1073,1.55965567884e+18,0.5857739449,-1.1587075,-1.548712611
1074,1.55965567889e+18,1.612638474,-0.0218873024,-2.110097647
1075,1.55965567894e+18,2.344455004,-4.95706749,-2.774719238
1076,1.55965567899e+18,1.238788962,-0.4476603568,-2.474173307
1077,1.55965567904e+18,1.114783168,1.188847661,-1.758239388
1078,1.5596556791e+18,1.232680321,0.6354036927,-2.338561296
1079,1.55965567915e+18,1.210689068,2.513814211,-2.729515076
1080,1.5596556792e+18,0.6676298976,1.52360177,-1.9628793
1081,1.55965567925e+18,-0.2914285362,0.6488426924,-1.724030852
1082,1.5596556793e+18,0.4452749491,5.77216959,3.347983122
1083,1.55965567936e+18,-3.311546326,0.001325577614,5.774950504
1084,1.55965567941e+18,-5.094662189,1.52360177,5.958821297
1085,1.55965567946e+18,-3.432497501,1.614009738,3.837286472
1086,1.55965567951e+18,-0.5156160593,-0.800129652,-1.258551598
1087,1.55965567956e+18,1.336527348,0.9616057277,-2.54259038
1088,1.55965567962e+18,2.521605968,-1.470248818,-4.710551262
1089,1.55965567967e+18,0.3683059514,-1.362125635,-3.516920328
1090,1.55965567972e+18,-0.07212791592,1.431971908,-2.255483627
1091,1.55965567977e+18,-0.3134196699,-0.0707565248,-1.672718287
1092,1.55965567982e+18,-1.373270869,1.59995997,-2.472951651
1093,1.55965567988e+18,-1.048290491,3.563280821,-4.504078388
1094,1.55965567993e+18,0.5906608701,0.3507405221,-5.052024841
1095,1.55965567998e+18,1.164874315,-2.107992172,-3.176668406
1096,1.55965568003e+18,0.421451211,-2.414035559,2.391368151
1097,1.55965568008e+18,-2.729391813,2.061774254,5.180579185
1098,1.55965568014e+18,-5.91566515,1.175408602,6.562355995
1099,1.55965568019e+18,-5.839306831,12.23023701,5.678433895
1100,1.55965568024e+18,-2.559571266,4.364735603,0.6449044943
1101,1.55965568029e+18,0.1984854043,-5.696214199,-3.82418561
1102,1.55965568034e+18,-0.6878800392,-2.556977987,-4.805235386
1103,1.5596556804e+18,-1.098381519,-1.511787653,-2.821145058
1104,1.55965568045e+18,-1.39953804,-0.1886535138,-1.750298142
1105,1.5596556805e+18,-0.4966792464,-1.835546255,-0.7136597633
1106,1.55965568055e+18,2.690815687,-7.095096111,-1.2212888
1107,1.5596556806e+18,2.073230743,-3.080489397,-2.121093273
1108,1.55965568066e+18,-3.232133865,1.47412169,-1.618962169
1109,1.55965568071e+18,-2.588892937,-1.56920898,-5.100893974
1110,1.55965568076e+18,-4.183250904,6.571181297,-1.846814871
1111,1.55965568081e+18,-5.056787968,2.304287672,2.140913486
1112,1.55965568086e+18,-4.36590004,8.111783028,6.050451279
1113,1.55965568092e+18,-4.771513939,3.019610882,6.37848568
1114,1.55965568097e+18,-2.99572897,-0.6785674691,4.867815971
1115,1.55965568102e+18,0.4672660828,-0.9119179845,-2.411254406
1116,1.55965568107e+18,2.230834007,-0.7170519233,-4.030658245
1117,1.55965568112e+18,1.555827975,-2.560032368,-4.290886879
1118,1.55965568118e+18,0.3420387208,2.56695962,-2.743564844
1119,1.55965568123e+18,0.2223091274,0.06546643376,-1.746632934
1120,1.55965568128e+18,0.01705841348,-0.3651935756,-1.033753157
1121,1.55965568133e+18,-0.5333311558,-0.1904861182,-1.312918544
1122,1.55965568138e+18,-1.257817388,1.425252438,-0.9885491729
1123,1.55965568144e+18,-0.3103653491,0.3843380809,0.3229785264
1124,1.55965568149e+18,-3.79718399,-1.519118071,3.919753075
1125,1.55965568154e+18,-2.048887968,-2.214282751,7.795082092
1126,1.55965568159e+18,-2.063548565,6.69213295,4.82872057
1127,1.55965568164e+18,0.1874898225,-2.795826435,-2.804651499
1128,1.5596556817e+18,0.3878535926,2.212046862,-3.877941847
1129,1.55965568175e+18,0.6706842184,1.700141788,-3.855950594
1130,1.5596556818e+18,1.002994895,1.297581673,-2.287859678
1131,1.55965568185e+18,2.158141136,-1.173368335,-0.6849491596
1132,1.5596556819e+18,2.638892174,-1.648010612,-0.4595398903
1133,1.55965568196e+18,1.394559622,1.17601943,-0.7332075238
1134,1.55965568201e+18,0.4409989119,0.5156741142,-1.389276743
1135,1.55965568206e+18,1.961442471,-1.425655603,-4.366633892
1136,1.55965568211e+18,-1.602345347,2.961578608,0.7884578109
1137,1.55965568216e+18,-3.73059988,-2.114711761,3.421897888
1138,1.55965568222e+18,-2.214432478,-1.42015779,5.459133148
1139,1.55965568227e+18,-2.216875792,2.488768816,5.991197109
1140,1.55965568232e+18,-0.3225826621,-1.26805234,-1.343461871
1141,1.55965568237e+18,0.8356178403,0.9121256471,-2.691641569
1142,1.55965568242e+18,1.892414689,0.5443847775,-3.620767593
1143,1.55965568248e+18,1.917460203,-0.1324539185,-3.984232426
1144,1.55965568253e+18,1.577819109,1.108824253,-1.72769618
1145,1.55965568258e+18,1.440985322,-1.481244326,-2.293968201
1146,1.55965568263e+18,-0.9365022779,4.273106575,-2.025798321
1147,1.55965568268e+18,-1.041571021,6.098982334,-3.378253937
1148,1.55965568274e+18,-0.8253247738,1.89806211,-1.469910979
1149,1.55965568279e+18,1.695105195,0.4014423192,-2.319624424
1150,1.55965568284e+18,-2.903488398,-2.313853741,4.101790905
1151,1.55965568289e+18,-5.384212017,-4.79152298,4.929512978
1152,1.55965568294e+18,-3.19120574,-6.329070568,4.658899784
1153,1.559655683e+18,-2.137463331,1.444800138,3.740158796
1154,1.55965568305e+18,0.4611574411,0.6189103127,-0.343475461
1155,1.5596556831e+18,2.592466354,-3.515425444,-2.667817593
1156,1.55965568315e+18,3.626661062,-1.627852082,-3.096645117
1157,1.5596556832e+18,2.957152843,0.1210551709,-2.075889349
1158,1.55965568326e+18,2.312079191,1.455795765,-0.7997918129
1159,1.55965568331e+18,2.060402632,1.626837969,0.1055104733
1160,1.55965568336e+18,0.3939622939,1.870573282,-1.143708944
1161,1.55965568341e+18,-0.3470172584,1.577357888,-3.215152979
1162,1.55965568346e+18,-0.4563621581,3.004339218,-3.000739336
1163,1.55965568352e+18,-0.7526317835,-0.1813231409,-0.6220300198
1164,1.55965568357e+18,-2.797808647,-1.604639173,4.519011497
1165,1.55965568362e+18,-5.331677914,-2.45313096,6.312512398
1166,1.55965568367e+18,-4.643843174,-5.037090778,6.458508968
1167,1.55965568372e+18,0.1483944356,-3.424406767,0.0517543368
1168,1.55965568378e+18,0.8686045408,2.822912216,-2.123536825
1169,1.55965568383e+18,1.484356642,-1.359682083,-3.329384804
1170,1.55965568388e+18,1.343857646,-1.535611272,-2.202338457
1171,1.55965568393e+18,1.794676304,-0.9742261767,-1.228619218
1172,1.55965568398e+18,1.435487509,-0.2558487058,-1.417376637
1173,1.55965568404e+18,1.28277123,1.363555074,-1.299479604
1174,1.55965568409e+18,2.068343878,1.592018723,-1.799778223
1175,1.55965568414e+18,1.151435137,-0.398180306,-1.957992315
1176,1.55965568419e+18,2.263820887,4.676887989,-0.4125032425
1177,1.55965568424e+18,-1.879067302,-0.06464786828,3.63997674
1178,1.5596556843e+18,-4.71714735,-1.817220211,6.594731808
1179,1.55965568435e+18,-3.671956778,1.711748242,7.960015774
1180,1.5596556844e+18,-1.607232332,1.908446908,0.7963990569
1181,1.55965568445e+18,0.8264548182,-1.971769214,-2.324511528
1182,1.5596556845e+18,2.166693211,-0.2228619754,-3.527915955
1183,1.55965568455e+18,2.381717682,-2.089666367,-2.770443201
1184,1.55965568461e+18,1.704879045,-0.6040418744,-2.374602556
1185,1.55965568466e+18,1.616303563,0.6030278206,-1.439367652
1186,1.55965568471e+18,1.919903636,-0.3199895322,-0.4735897779
1187,1.55965568476e+18,2.035357237,-1.682829976,-0.7478682995
1188,1.55965568481e+18,1.582095265,-0.9907196164,-0.6140888333
1189,1.55965568487e+18,-1.384266496,-1.999258041,0.2557833195
1190,1.55965568492e+18,-1.344560146,2.156458139,1.527604699
1191,1.55965568497e+18,-3.383628368,-1.508122444,3.87210536
1192,1.55965568502e+18,-3.248627186,2.396528244,7.049826622
1193,1.55965568507e+18,-2.120359182,3.161331654,4.128668785
1194,1.55965568513e+18,0.3029433489,-1.880139351,-1.278710246
1195,1.55965568518e+18,1.597977638,-2.812319756,-3.432010174
1196,1.55965568523e+18,2.664548397,-1.258278608,-4.412448883
1197,1.55965568528e+18,2.348120213,-0.9247461557,-2.979969978
1198,1.55965568533e+18,2.14714551,0.1888612062,-2.463177919
1199,1.55965568539e+18,1.569877863,0.3055364788,-1.716089725
1200,1.55965568544e+18,1.207023978,0.3379123211,-1.603079557
1201,1.55965568549e+18,0.5393481851,0.05447085574,-2.719130278
1202,1.55965568554e+18,-0.494846642,-0.2698985934,-2.7014153
1203,1.55965568559e+18,-1.497276545,-1.078073382,0.06397163868
1204,1.55965568565e+18,-1.01530385,5.950541973,3.83178854
1205,1.5596556857e+18,-4.248613834,0.4826873839,6.56052351
1206,1.55965568575e+18,-5.265704155,6.124638557,4.730370998
1207,1.5596556858e+18,-1.571802139,1.641498804,1.727357626
1208,1.55965568585e+18,0.3334866166,-5.067023277,-2.078332663
1209,1.55965568591e+18,1.254060507,-2.220391273,-4.458263874
1210,1.55965568596e+18,1.552162766,-0.5832724571,-2.892616272
1211,1.55965568601e+18,1.481913328,-0.3254873455,-2.643993855
1212,1.55965568606e+18,1.897912502,0.887691021,-1.805886865
1213,1.55965568611e+18,2.245494843,1.042240024,-1.268936276
1214,1.55965568617e+18,1.897301674,0.4002205729,-2.001974583
1215,1.55965568622e+18,2.595520496,-1.015154123,-1.595138311
1216,1.55965568627e+18,1.968161941,-3.625381231,0.4182734787
1217,1.55965568632e+18,-1.09166193,-3.396306992,3.622872591
1218,1.55965568637e+18,-1.32317996,0.1088378578,5.979590893
1219,1.55965568643e+18,-2.540634394,1.790549874,6.045564175
1220,1.55965568648e+18,-2.056218147,7.328043461,4.415164471
1221,1.55965568653e+18,0.1392314583,-3.184947491,-0.05026016012
1222,1.55965568658e+18,0.6022673249,-2.633947134,-3.064880133
1223,1.55965568663e+18,0.1086882055,0.01232115179,-3.246307135
1224,1.55965568669e+18,-0.1045037657,1.100883007,-1.627514243
1225,1.55965568674e+18,0.3084411323,1.66959846,-1.389887691
1226,1.55965568679e+18,1.64684689,2.499764442,-0.9311278462
1227,1.55965568684e+18,2.704254627,0.2835453153,-2.017857075
1228,1.55965568689e+18,4.106190205,-2.476343632,-1.474797845
1229,1.55965568695e+18,4.156281471,-3.26802516,-2.075278521
1230,1.559655687e+18,0.7006166577,-2.730463982,0.6406283975
1231,1.55965568705e+18,-1.958479762,3.704390526,2.592342854
1232,1.5596556871e+18,-4.000602245,2.867505312,4.501907825
1233,1.55965568715e+18,-5.047014713,-0.2179750502,3.608211994
1234,1.55965568721e+18,-3.043987274,9.389714241,1.991251469
1235,1.55965568726e+18,-0.1252731979,2.690354586,-0.6611254215
1236,1.55965568731e+18,1.714042068,-4.614983082,-2.028241873
1237,1.55965568736e+18,2.079950333,-4.79396677,-0.7906288505
1238,1.55965568741e+18,2.409817696,-0.9778914452,-0.3239277899
1239,1.55965568747e+18,2.119656563,-1.024317145,-1.090563774
1240,1.55965568752e+18,1.938229561,0.7123727202,-1.20784986
1241,1.55965568757e+18,2.461130381,0.04469700903,-1.821769357
1242,1.55965568762e+18,2.866744757,-2.60584712,-1.750298142
1243,1.55965568767e+18,1.637683988,-2.45007658,0.5514420867
1244,1.55965568773e+18,-1.230939388,1.247490764,2.589288473
1245,1.55965568778e+18,-3.205255747,5.871740818,3.771923542
1246,1.55965568783e+18,-5.738513947,3.442940474,3.489703894
1247,1.55965568788e+18,-2.814912796,-3.835519075,3.304611921
1248,1.55965568793e+18,-0.4759098589,1.238327742,1.871521831
1249,1.55965568799e+18,0.7177208066,-1.563711166,-2.756393194
1250,1.55965568804e+18,0.04943427071,-2.538041353,-1.168143511
1251,1.55965568809e+18,0.515524447,0.3134777248,-0.86698699
1252,1.55965568814e+18,1.564380169,0.7765135765,-1.334909797
1253,1.55965568819e+18,2.089724064,1.527266979,-1.392331004
1254,1.55965568825e+18,1.69327271,4.103896618,-1.669053078
1255,1.5596556883e+18,1.514289141,2.160123348,-2.020300627
1256,1.55965568835e+18,-0.1790293306,1.641498804,-0.4314400554
1257,1.5596556884e+18,-0.3415195048,2.650037289,3.25879693
1258,1.55965568845e+18,-5.744011879,1.261540532,5.118881226
1259,1.55965568851e+18,-3.890035629,-9.812835693,3.825068951
1260,1.55965568856e+18,-0.923674047,-6.629616737,2.476889372
1261,1.55965568861e+18,1.793454647,0.5346109867,-1.797945738
1262,1.55965568866e+18,4.576556683,-0.1434494853,-1.795502186
1263,1.55965568871e+18,5.47819376,-0.5643356442,-0.2463479042
1264,1.55965568877e+18,4.21309185,-2.899062395,0.4915772974
1265,1.55965568882e+18,2.321852922,-3.227097273,-0.4589290023
1266,1.55965568887e+18,1.789178491,0.8547043204,-0.9854948521
1267,1.55965568892e+18,2.583303213,2.072158575,-1.022757649
1268,1.55965568897e+18,2.737241507,1.634779334,-1.324524999
1269,1.55965568903e+18,1.134941816,4.088014126,0.4622557759
1270,1.55965568908e+18,-2.199771404,1.59324038,3.652194023
1271,1.55965568913e+18,-4.88024807,3.650634527,5.77678299
1272,1.55965568918e+18,-6.058607578,-1.659006119,4.950282574
1273,1.55965568923e+18,-3.614535332,-7.454284668,4.211746693
1274,1.55965568929e+18,-0.8002793193,-6.56303215,1.384051442
1275,1.55965568934e+18,1.18014586,-0.8465553522,-2.336117983
1276,1.55965568939e+18,3.785485983,-2.306523323,-3.030671597
1277,1.55965568944e+18,2.817264557,-1.177644253,-2.517544985
1278,1.55965568949e+18,2.226558208,0.4979590178,-1.957381487
1279,1.55965568955e+18,1.925401449,0.2010785043,-1.067961693
1280,1.5596556896e+18,0.7910246849,1.548647165,-0.917688787
1281,1.55965568965e+18,1.275440812,3.711110115,-0.5817129612
1282,1.5596556897e+18,0.7898029089,2.086819649,2.814697742
1283,1.55965568975e+18,-0.547381103,-4.526407719,0.0566412583
1284,1.55965568981e+18,-4.783120632,-5.039534569,5.862915516
1285,1.55965568986e+18,-3.225414276,-8.907533646,5.841535091
1286,1.55965568991e+18,-0.5858656168,1.45762825,1.104275107
1287,1.55965568996e+18,-0.08801040798,2.953637123,-0.1742658019
1288,1.55965569001e+18,2.109882832,-1.256445885,-1.597581744
1289,1.55965569007e+18,3.24975729,-1.756133795,-2.931100607
1290,1.55965569012e+18,4.274788857,-2.465959311,-2.979969978
1291,1.55965569017e+18,3.070773602,-2.297971249,-2.807095051
1292,1.55965569022e+18,1.290712357,1.920664191,-1.620183825
1293,1.55965569027e+18,-0.1350470334,1.533375621,-0.7264879942
1294,1.55965569033e+18,-0.3793931305,3.934686899,0.09818009287
1295,1.55965569038e+18,-1.162522316,2.383089066,0.337028414
1296,1.55965569043e+18,-0.1161102131,-4.155612469,-2.878566265
1297,1.55965569048e+18,-2.609051228,0.007434229832,3.969233036
1298,1.55965569053e+18,-3.762364864,-3.045059443,6.760276318
1299,1.55965569059e+18,-3.288944244,2.960356951,6.835412979
1300,1.55965569064e+18,-1.066005588,-5.781125069,-0.8199504018
1301,1.55965569069e+18,-1.067227364,-0.5557835102,-1.261605978
1302,1.55965569074e+18,-0.2150703818,4.193693638,-1.410657048
1303,1.55965569079e+18,1.227182508,-1.8703655,-2.752117157
1304,1.55965569085e+18,1.07752049,0.4784113467,-2.76433444
1305,1.5596556909e+18,1.221073866,0.502845943,-2.746619463
1306,1.55965569095e+18,1.098900795,1.857745171,-2.195008039
1307,1.559655691e+18,1.203969598,4.698268414,-1.921951294
1308,1.55965569105e+18,1.120891929,2.334830761,-2.043513536
1309,1.55965569111e+18,0.901591301,0.05324912444,-4.58165884
1310,1.55965569116e+18,-2.191830397,-0.3682478964,1.826928735
1311,1.55965569121e+18,-4.74036026,-3.229540825,5.621623516
1312,1.55965569126e+18,-4.059856415,-1.426266432,9.325910568
1313,1.55965569131e+18,-1.912054062,2.524199009,3.026057243
1314,1.55965569137e+18,-0.05563455075,5.447189331,-3.084427834
1315,1.55965569142e+18,1.62729919,4.627408028,-3.22492671
1316,1.55965569147e+18,2.85513854,0.4264878035,-2.769832373
1317,1.55965569152e+18,2.562533855,-1.689549446,-1.396607161
1318,1.55965569157e+18,2.370111227,-1.985208273,-0.5475044847
1319,1.55965569163e+18,2.673100471,-1.017597675,0.3608521521
1320,1.55965569168e+18,4.013949871,-2.715802908,1.92161274
1321,1.55965569173e+18,3.444623232,-8.468931198,0.1152843237
1322,1.55965569178e+18,-0.2657721937,-0.8147904277,-2.942096233
1323,1.55965569183e+18,-2.866836309,2.449673653,2.959472895
1324,1.55965569189e+18,-2.42579174,-3.821469307,6.683918476
1325,1.55965569194e+18,-3.267564058,7.089194775,10.37659931
1326,1.55965569199e+18,-1.636553884,2.458225489,3.205040693
1327,1.55965569204e+18,-0.3097544909,1.64944005,-2.556640387
1328,1.55965569209e+18,1.086072683,1.090498328,-4.423444271
1329,1.55965569215e+18,2.145923853,2.273744345,-4.501024246
1330,1.5596556922e+18,1.663340211,2.009239674,-3.128410101
1331,1.55965569225e+18,1.712820292,1.563918829,-1.967766166
1332,1.5596556923e+18,0.6132628918,2.616439581,-1.903014421
1333,1.55965569235e+18,-0.2107943296,6.42762804,-1.125993848
1334,1.55965569241e+18,1.4318223,2.3048985,-1.550545216
1335,1.55965569246e+18,-1.357999325,1.98419416,0.1720947921
1336,1.55965569251e+18,-3.864990234,-2.751843929,1.834869981
1337,1.55965569256e+18,-5.084277153,-3.77076745,3.304611921
1338,1.55965569261e+18,-4.162481308,-1.626019359,4.628967762
1339,1.55965569267e+18,-1.821645975,0.982986033,1.424979329
1340,1.55965569272e+18,0.8417264819,-1.060358286,-1.188302159
1341,1.55965569277e+18,2.800160408,-1.602806568,-2.198673248
1342,1.55965569282e+18,4.503863811,-1.002326012,-3.376421452
1343,1.55965569287e+18,3.9650805,-1.431764245,-4.179098129
1344,1.55965569293e+18,3.497157812,0.9927598834,-2.069780827
1345,1.55965569298e+18,2.767784595,0.07829460502,0.3559652269
1346,1.55965569303e+18,1.784902453,-0.3725239635,1.518441796
1347,1.55965569308e+18,1.293766737,-3.531919003,1.196515799
1348,1.55965569313e+18,1.277273417,-3.501986504,1.87824142
1349,1.55965569319e+18,-0.03425426781,-6.153752327,-1.518169284
1350,1.55965569324e+18,-1.874180436,0.8278262615,5.848254681
1351,1.55965569329e+18,-3.275505304,4.111227036,8.118841171
1352,1.55965569334e+18,-1.417253137,4.920012474,4.674171925
1353,1.55965569339e+18,-0.7685142756,-6.392601013,-3.794863939
1354,1.55965569345e+18,0.03843869269,2.466777563,-3.423458099
1355,1.5596556935e+18,2.101330519,4.014099598,-3.45339036
1356,1.55965569355e+18,3.488605738,-2.619286299,-1.947607636
1357,1.5596556936e+18,2.514886379,-1.751857638,-1.809552073
1358,1.55965569365e+18,1.189308882,1.132037163,-0.8730956316
1359,1.55965569371e+18,0.6004347205,1.014140129,-0.5811020732
1360,1.55965569376e+18,0.4190077484,0.7856765985,-1.16508925
1361,1.55965569381e+18,-0.1796402037,0.6329602599,-0.281167239
1362,1.55965569386e+18,-1.852800012,1.168078303,1.439640164
1363,1.55965569391e+18,-1.761781096,-5.194694519,1.767674804
1364,1.55965569397e+18,-2.877221107,-0.5942680836,5.773118019
1365,1.55965569402e+18,-4.131327629,2.717232466,6.672311783
1366,1.55965569407e+18,-2.430678606,3.830839872,3.985726595
1367,1.55965569412e+18,0.3670842052,-2.525213242,-1.06246388
1368,1.55965569417e+18,1.176480532,-3.170286894,-3.36359334
1369,1.55965569423e+18,2.254046917,-1.622965097,-5.566984177
1370,1.55965569428e+18,1.949836016,1.670820355,-4.47658968
1371,1.55965569433e+18,1.94189477,1.810708404,-2.755782127
1372,1.55965569438e+18,2.100108862,1.689757109,-1.996476769
1373,1.55965569443e+18,2.00481391,2.026343822,-2.074667454
1374,1.55965569449e+18,1.543610692,-1.943669319,-1.954937935
1375,1.55965569454e+18,0.2363590449,-0.2143098563,-1.799778223
1376,1.55965569459e+18,-1.18084836,2.40141511,1.77561605
1377,1.55965569464e+18,-2.844845295,2.424628019,4.913630962
1378,1.55965569469e+18,-5.729961872,2.194942713,5.122546673
1379,1.55965569475e+18,-5.392153263,0.8730302453,4.718153954
1380,1.5596556948e+18,-0.5846438408,-1.431764245,0.7212626338
1381,1.55965569485e+18,1.813613057,-2.684038162,-2.544422865
1382,1.5596556949e+18,2.002981424,-0.8031839728,-3.265854836
1383,1.55965569495e+18,1.423881054,-0.7604234219,-2.31046176
1384,1.55965569501e+18,1.121502757,-0.1605537087,-1.976929188
1385,1.55965569506e+18,1.264445186,1.097217798,-1.601857901
1386,1.55965569511e+18,0.7549836636,1.698920012,-2.180958271
1387,1.55965569516e+18,-0.07273877412,3.489366293,-0.8199504018
1388,1.55965569521e+18,-0.4514752328,1.764282703,-0.1412790865
1389,1.55965569527e+18,-0.7642382383,-1.871587276,1.557537079
1390,1.55965569532e+18,-5.315184116,-0.8050165176,3.363865614
1391,1.55965569537e+18,-6.408633232,-1.242396116,5.14026165
1392,1.55965569542e+18,-3.285889864,-0.4378865361,3.259407759
1393,1.55965569547e+18,-0.09900598228,-1.026760578,-1.067350864
1394,1.55965569553e+18,1.387229085,1.329346657,-1.733193994
1395,1.55965569558e+18,3.807477236,-1.134272933,-3.010513067
1396,1.55965569563e+18,3.323671818,-3.8568995,-3.387417078
1397,1.55965569568e+18,2.456243515,0.1088378578,-2.182790756
1398,1.55965569573e+18,2.269318581,-0.2979983687,-0.9121910334
1399,1.55965569579e+18,1.890582204,-0.6058744788,0.1281124949
1400,1.55965569584e+18,1.286436439,-0.929022193,1.178800702
1401,1.55965569589e+18,-0.1753641367,-7.425574303,-5.931670666
1402,1.55965569594e+18,-2.841790915,3.67262578,3.308276892
1403,1.55965569599e+18,-2.698848486,-4.629643917,3.7193892
1404,1.55965569605e+18,-1.113042235,1.727019906,3.321105242
1405,1.5596556961e+18,-0.3464064002,-3.787871599,0.4292690456
1406,1.55965569615e+18,-0.08739954233,-0.550896585,-0.5554457307
1407,1.5596556962e+18,2.08422637,1.875460148,-2.000752926
1408,1.55965569625e+18,3.459284067,0.9396146536,-2.236546993
1409,1.55965569631e+18,3.707906246,-1.922899961,-2.489444971
1410,1.55965569636e+18,0.7030600309,0.306147337,-2.096047878
1411,1.55965569641e+18,-1.073946953,4.190639496,-1.312918544
1412,1.55965569646e+18,-1.731237888,2.750830173,-0.3410319984
1413,1.55965569651e+18,-2.005516291,1.612788081,1.91122818
1414,1.55965569657e+18,-2.693961382,-1.420768619,2.737118006
1415,1.55965569662e+18,-3.027493954,-2.612566948,3.327824593
1416,1.55965569667e+18,-2.499706268,-7.326003075,4.356521606
1417,1.55965569672e+18,-0.5192812681,-7.057222366,0.9503371119
1418,1.55965569677e+18,-0.239504993,1.731906891,-0.4754223526
1419,1.55965569683e+18,1.662729383,2.435623646,-0.6018714309
1420,1.55965569688e+18,4.63764286,-1.898465276,-2.565192461
1421,1.55965569693e+18,6.119602203,0.2878213823,-2.861461878
1422,1.55965569698e+18,6.282702923,0.02148413099,-1.163867593
1423,1.55965569703e+18,3.703630209,-1.393279791,0.3999475539
1424,1.55965569709e+18,1.836825967,3.234024525,-0.4021185338
1425,1.55965569714e+18,2.814821243,1.499778032,0.8800876141
1426,1.55965569719e+18,2.049407005,-0.4470494986,4.276498318
1427,1.55965569724e+18,-2.11791563,4.391614437,6.59778595
1428,1.55965569729e+18,-5.370772839,-8.054764748,6.873897552
1429,1.55965569735e+18,-1.59806931,-9.346135139,5.114605427
1430,1.5596556974e+18,-0.9981996417,3.907808781,2.794539213
1431,1.55965569745e+18,-0.08434522152,-1.451922894,1.054795027
1432,1.5596556975e+18,1.632186174,-3.497099638,-0.67151016
1433,1.55965569755e+18,2.945546389,-0.5686116815,-2.653156996
1434,1.55965569761e+18,4.164833546,-0.461099416,-4.376407623
1435,1.55965569766e+18,3.694467306,0.5730954409,-3.493707418
1436,1.55965569771e+18,2.622398615,-0.1831557304,-2.339783192
1437,1.55965569776e+18,0.7781965137,2.059330463,-0.6556276083
1438,1.55965569781e+18,0.07203628868,1.403872252,-0.3349233568
1439,1.55965569787e+18,-0.7960032225,2.145462751,0.4103322327
1440,1.55965569792e+18,0.1691638678,4.345799446,1.023640871
1441,1.55965569797e+18,-1.774609327,-0.9021440744,1.919169426
1442,1.55965569802e+18,-4.130716801,-2.664490223,3.725497723
1443,1.55965569807e+18,-3.276116133,-7.037064075,4.524509907
1444,1.55965569813e+18,-1.137476921,-3.564294815,6.806702137
1445,1.55965569818e+18,-0.734916687,4.68299675,-0.06064487249
1446,1.55965569823e+18,0.8838762045,0.9603840113,-1.485182643
1447,1.55965569828e+18,1.775739551,-1.954664946,-4.073418617
1448,1.55965569833e+18,1.869812727,0.8577586412,-2.645826578
1449,1.55965569839e+18,2.04452014,-0.9815565944,-2.202949286
1450,1.55965569844e+18,1.318201423,1.193734527,-2.204782009
1451,1.55965569849e+18,1.323088288,2.326889753,-0.8590457439
1452,1.55965569854e+18,0.7946898937,1.584688187,-1.411267996
1453,1.55965569859e+18,1.616303563,1.78871727,-0.9726666808
1454,1.55965569865e+18,2.123321772,1.254821062,-1.826045394
1455,1.5596556987e+18,0.2644588351,-1.293097854,0.4048344493
1456,1.55965569875e+18,-4.899185181,-1.180087805,4.887363911
1457,1.5596556988e+18,-4.509453297,-3.086598158,6.167126656
1458,1.55965569885e+18,-1.120372653,-2.800102472,2.158017874
1459,1.55965569891e+18,-0.3305239379,-0.4812579751,-0.4876396656
1460,1.55965569896e+18,1.700603008,1.713580847,-1.217012763
1461,1.55965569901e+18,1.62729919,-3.658368111,-2.256094456
1462,1.55965569906e+18,0.4813160002,-1.30409348,-1.31047523
1463,1.55965569911e+18,0.5546197891,2.570624828,-0.5737716556
1464,1.55965569917e+18,1.001162291,0.6225755811,-0.186483115
1465,1.55965569922e+18,0.2467437387,2.061163187,-1.881023288
1466,1.55965569927e+18,0.3426496089,1.884012222,-1.815049767
1467,1.55965569932e+18,2.115380526,3.753259897,-0.9170779586
1468,1.55965569937e+18,0.1068556085,-2.874017,-0.3245386779
1469,1.55965569943e+18,-3.810012341,-2.359668732,4.063306332
1470,1.55965569948e+18,-4.261441708,-1.593643546,6.530591488
1471,1.55965569953e+18,-3.007335424,2.76549077,5.913006306
1472,1.55965569958e+18,-0.8961851001,5.010420322,-1.488847733
1473,1.55965569963e+18,2.255879641,-2.715802908,-1.45647192
1474,1.55965569969e+18,2.449523926,-1.26805234,-3.081373453
1475,1.55965569974e+18,2.128208637,0.4405376911,-1.712424397
1476,1.55965569979e+18,1.511845708,-0.6718478799,-1.096061349
1477,1.55965569984e+18,0.9284693599,0.9023517966,-0.343475461
1478,1.55965569989e+18,0.8563872576,1.438691497,-0.3758513629
1479,1.55965569995e+18,0.468487829,-1.183142066,0.3266437054
1480,1.5596557e+18,-0.4319275618,-1.762853265,1.297308564
1481,1.55965570005e+18,-0.3225826621,-3.987624407,5.205013752
1482,1.5596557001e+18,-4.301758766,0.306147337,6.005857944
1483,1.55965570015e+18,-1.606010556,1.078281045,5.817100525
1484,1.55965570021e+18,0.008506298065,3.300608873,-1.499843359
1485,1.55965570026e+18,1.952890396,-0.2863919735,-1.924394727
1486,1.55965570031e+18,2.2662642,-1.817831159,-1.692265987
1487,1.55965570036e+18,3.388423681,-2.525213242,-2.510214567
1488,1.55965570041e+18,2.03780055,-2.279645205,-1.778397918
1489,1.55965570046e+18,1.033538222,0.5077328682,-1.381335616
1490,1.55965570052e+18,0.6877884269,1.142421842,-0.8101764917
1491,1.55965570057e+18,0.04027128965,1.636611819,-0.8162851334
1492,1.55965570062e+18,-0.6970430017,0.518728435,0.3339740932
1493,1.55965570067e+18,-1.18390274,-0.8361706734,-2.188288689
1494,1.55965570072e+18,-3.704332829,-0.7023911476,1.864802361
1495,1.55965570078e+18,-4.707984447,-0.8911485672,4.557496548
1496,1.55965570083e+18,-4.722644806,6.53819418,5.671714306
1497,1.55965570088e+18,-1.571191311,-2.090888023,0.9112417698
1498,1.55965570093e+18,0.8893739581,-1.172757387,-1.064907312
1499,1.55965570098e+18,2.886292458,-0.2821159065,-1.670274734
1500,1.55965570104e+18,4.530741692,-2.814152241,-3.392914772
1501,1.55965570109e+18,3.927206755,-1.164205313,-2.973250151
1502,1.55965570114e+18,3.646208763,0.05324912444,-1.956770658
1503,1.55965570119e+18,2.817264557,-0.1782688051,-0.9409016967
1504,1.55965570124e+18,2.304137945,-0.2369118631,-0.7985700965
1505,1.5596557013e+18,2.288866282,-3.940587997,-1.499232531
1506,1.55965570135e+18,1.454424262,-1.939393282,-0.4680919945
1507,1.5596557014e+18,2.500225544,-6.141535282,-1.703261495
1508,1.55965570145e+18,-3.973724127,5.012253284,4.620415688
1509,1.5596557015e+18,-5.07511425,2.265192032,7.773701668
1510,1.55965570156e+18,-5.995687962,9.838088989,6.905051708
1511,1.55965570161e+18,-1.81675899,2.40813446,-0.1351704299
1512,1.55965570166e+18,0.5986021161,-3.892329693,-2.633609295
1513,1.55965570171e+18,2.13737154,-2.48917222,-4.097853661
1514,1.55965570176e+18,1.500239253,-1.389003634,-2.871846676
1515,1.55965570182e+18,1.509402275,0.9646601081,-2.27747488
1516,1.55965570187e+18,2.296196461,0.5132306814,-1.463802338
1517,1.55965570192e+18,1.719539762,-0.2363010049,-1.784506559
1518,1.55965570197e+18,0.6755711436,1.755119801,-2.416141272
1519,1.55965570202e+18,-0.1564273238,-0.4940861464,-2.574966192
1520,1.55965570208e+18,-1.018969059,3.913917542,-1.988535523
1521,1.55965570213e+18,-0.5547114611,-1.46963799,-0.8028461337
1522,1.55965570218e+18,-4.056190968,1.127761126,5.112162113
1523,1.55965570223e+18,-5.708581448,0.1729787141,7.074872017
1524,1.55965570228e+18,-4.549769878,1.707472205,6.498826027
1525,1.55965570234e+18,0.1380097419,-1.654730082,-1.192578077
1526,1.55965570239e+18,0.6291453838,1.56025362,-3.491264105
1527,1.55965570244e+18,1.995651007,0.2548346519,-3.8009727
1528,1.55965570249e+18,1.400668263,-1.762853265,-2.53281641
1529,1.55965570254e+18,1.555827975,-0.08724988252,-1.413711429
1530,1.5596557026e+18,2.997469902,-0.8373923898,-0.2048090696
1531,1.55965570265e+18,2.495949507,-0.1458929479,-1.389887691
1532,1.5596557027e+18,1.647457719,0.7551332712,-1.478463173
1533,1.55965570275e+18,1.379898787,-0.9540677071,-1.397828817
1534,1.5596557028e+18,1.308427453,-0.5417336226,-0.5652195215
1535,1.55965570286e+18,-1.93893218,-2.189848185,3.101193666
1536,1.55965570291e+18,-4.57237196,-3.775043488,7.883657932
1537,1.55965570296e+18,-3.61148119,3.245630741,8.688777924
1538,1.55965570301e+18,-1.673816562,3.566335201,0.8697028756
1539,1.55965570306e+18,0.5026962757,-3.186169147,-3.16811657
1540,1.55965570312e+18,1.695105195,0.6989337206,-2.841303349
1541,1.55965570317e+18,2.444026232,-2.655938148,-2.229216576
1542,1.55965570322e+18,1.968772769,-0.8215098977,-1.650116205
1543,1.55965570327e+18,1.086683512,-0.4995839298,-1.096672416
1544,1.55965570332e+18,0.8117940426,1.039185643,-0.686781764
1545,1.55965570338e+18,1.136774421,-0.09213680029,-1.461969733
1546,1.55965570343e+18,2.094611168,-3.884999037,-5.505897522
1547,1.55965570348e+18,-0.009208793752,6.499710083,-1.084455132
1548,1.55965570353e+18,-3.36652422,-0.398180306,2.555691004
1549,1.55965570358e+18,-4.255332947,-0.9253569841,6.671090126
1550,1.55965570364e+18,-2.929144859,0.5559912324,5.20562458
1551,1.55965570369e+18,-1.269423842,-1.684662461,0.3736803234
1552,1.55965570374e+18,0.2522415221,2.135077953,-1.988535523
1553,1.55965570379e+18,0.8979260921,0.6732773185,-3.31105876
1554,1.55965570384e+18,2.137982368,-1.266830683,-3.978734732
1555,1.5596557039e+18,1.648068547,0.2951517701,-2.389873981
1556,1.55965570395e+18,1.252227902,0.5633215904,-1.981816053
1557,1.559655704e+18,0.8533329368,0.7642962933,-1.555432081
1558,1.55965570405e+18,0.181381166,2.253585577,-1.493123889
1559,1.5596557041e+18,-0.0116522545,2.042226315,-0.9451777339
1560,1.55965570416e+18,0.2943912446,-3.387754917,-5.28720808
1561,1.55965570421e+18,-3.455710411,-2.748178959,2.740783215
1562,1.55965570426e+18,-4.424542904,-5.292432785,6.636271
1563,1.55965570431e+18,-1.927936554,4.024484158,3.897151232
1564,1.55965570436e+18,-1.292636752,-0.1495581418,0.2692223489
1565,1.55965570442e+18,-0.6011372209,0.1558744758,0.4408755004
1566,1.55965570447e+18,0.9235824347,-0.7616451383,-0.4851962328
1567,1.55965570452e+18,3.167901278,-1.323641062,-1.581088543
1568,1.55965570457e+18,2.679209232,-4.307106972,-0.5743825436
1569,1.55965570462e+18,2.930885792,-2.761007071,-0.8639326692
1570,1.55965570468e+18,3.850848675,-2.983972788,-0.6079801321
1571,1.55965570473e+18,4.407958031,-3.884388208,-0.8651544452
1572,1.55965570478e+18,1.715263844,0.3941119313,-1.046581388
1573,1.55965570483e+18,-0.1539838612,-1.720703483,-3.341602087
1574,1.55965570488e+18,-1.679314375,6.943198204,1.182465911
1575,1.55965570494e+18,-3.073919773,2.90476799,4.396227837
1576,1.55965570499e+18,-3.24068594,0.8760845661,5.068790436
1577,1.55965570504e+18,-2.434343815,-0.0817520991,4.225796223
1578,1.55965570509e+18,-1.076390386,-2.014529705,-0.5621652007
1579,1.55965570514e+18,0.2632370889,3.714775324,-2.351389647
1580,1.5596557052e+18,2.288255453,1.541316867,-2.838860035
1581,1.55965570525e+18,3.337110996,-1.091512322,-2.629944086
1582,1.5596557053e+18,2.277870655,-0.8245642185,-1.762515426
1583,1.55965570535e+18,1.894858122,0.8956323266,-0.6611254215
1584,1.5596557054e+18,0.9736734033,-1.272939324,-0.5029113293
1585,1.55965570546e+18,-0.7000974417,0.3586817384,-0.6971664429
1586,1.55965570551e+18,-0.9456652403,1.871794939,-1.163256645
1587,1.55965570556e+18,-1.128924847,4.443537712,-0.9427342415
1588,1.55965570561e+18,-3.382406712,-2.559421539,4.304598331
1589,1.55965570566e+18,-3.634694099,-3.285129309,5.308860779
1590,1.55965570572e+18,-1.583408594,-9.576430321,5.128044605
1591,1.55965570577e+18,0.4196186364,-5.456144333,-0.1021837071
1592,1.55965570582e+18,1.891193032,3.108186245,-0.8340002298
1593,1.55965570587e+18,4.45438385,-1.454977155,-3.376421452
1594,1.55965570592e+18,4.959569454,2.387365341,-4.968336582
1595,1.55965570598e+18,3.746390581,3.006782532,-4.414892673
1596,1.55965570603e+18,1.343246818,2.204105616,-2.702026129
1597,1.55965570608e+18,0.7409337163,2.921261549,-2.257316351
1598,1.55965570613e+18,-0.8974068761,-2.30713439,-0.01971689798
1599,1.55965570618e+18,-3.448380232,0.02759278379,2.728565931
1600,1.55965570624e+18,-3.401343584,-2.638223171,5.148202896
1601,1.55965570629e+18,-3.284668207,-4.884985447,6.010133743
1602,1.55965570634e+18,-0.9474977851,-10.95393181,6.035789967
1603,1.55965570639e+18,1.885084391,-14.30880356,0.9967628717
1604,1.55965570644e+18,-0.4465883076,-7.145797729,-1.10522449
1605,1.5596557065e+18,-1.396483779,7.144783497,-0.5462827086
1606,1.55965570655e+18,1.094624758,4.05685997,-1.703872442
1607,1.5596557066e+18,3.031678438,2.35132432,-2.127201796
1608,1.55965570665e+18,3.972410917,4.150322437,-1.874303818
1609,1.5596557067e+18,3.228376865,2.365984917,-2.959200382
1610,1.55965570676e+18,2.161195278,4.419713974,-1.837651849
1611,1.55965570681e+18,0.3133280575,1.116154671,-0.4393813312
1612,1.55965570686e+18,-1.601734519,0.9909272194,2.287521124
1613,1.55965570691e+18,-1.763002872,-0.5875484943,0.06458250433
1614,1.55965570696e+18,-3.188762426,0.6897706985,2.144578695
1615,1.55965570702e+18,-3.634694099,-6.085335732,4.862929344
1616,1.55965570707e+18,-2.649979353,-5.456755161,2.209941149
1617,1.55965570712e+18,-1.744066,2.810083866,0.9393415451
1618,1.55965570717e+18,-0.9108458757,-1.185585618,-0.2707825005
1619,1.55965570722e+18,1.783680677,-8.072480202,0.3187024593
1620,1.55965570728e+18,4.77630949,-6.969257832,-0.7558094859
1621,1.55965570733e+18,6.204512596,-4.563670635,-3.12169075
1622,1.55965570738e+18,4.815404892,-0.6852869987,-3.495540142
1623,1.55965570743e+18,3.145299435,0.7563550472,-2.219442606
1624,1.55965570748e+18,1.860649824,-0.8984789252,-0.5285676122
1625,1.55965570754e+18,1.39517045,-2.426252842,0.08474105597
1626,1.55965570759e+18,1.220462918,-0.05181969702,0.187366426
1627,1.55965570764e+18,1.203969598,0.9787099361,0.9161286354
1628,1.55965570769e+18,-0.4270406067,-0.2986092567,3.646696329
1629,1.55965570774e+18,1.168539405,3.744707823,5.517165661
1630,1.5596557078e+18,-3.266342402,5.548592567,3.793914795
1631,1.55965570785e+18,-3.668902636,0.3910576105,1.574641347
1632,1.5596557079e+18,-2.948081493,2.692797899,2.3846488
1633,1.55965570795e+18,-2.697626591,-1.425044775,-0.009943053126
1634,1.559655708e+18,-1.24071312,0.8052242398,-1.798556566
1635,1.55965570806e+18,0.7806399465,-0.07442171127,-4.270117283
1636,1.55965570811e+18,1.561325788,0.5010133386,-2.862072945
1637,1.55965570816e+18,2.624841928,1.320794582,-2.802207947
1638,1.55965570821e+18,1.575986624,0.5340000391,-0.772302866
1639,1.55965570826e+18,-0.3848909438,-1.858148217,-2.220053434
1640,1.55965570832e+18,-0.6390108466,11.13556671,2.334557772
1641,1.55965570837e+18,-3.323152781,-4.210590363,1.953377843
1642,1.55965570842e+18,-1.780717969,-6.049905777,2.965581656
1643,1.55965570847e+18,-2.393415689,4.306092739,4.071247578
1644,1.55965570852e+18,0.03233004361,2.255418301,-1.988535523
1645,1.55965570858e+18,-0.09595166147,1.440524101,-1.854756117
1646,1.55965570863e+18,-0.04952589795,0.1326616108,-2.584739923
1647,1.55965570868e+18,1.303540707,1.706250429,-3.380697489
1648,1.55965570873e+18,3.67675209,-0.02494162694,-3.376421452
1649,1.55965570878e+18,3.003578663,-1.45009017,-1.695320368
1650,1.55965570884e+18,1.117837548,1.476565242,-0.7252662182
1651,1.55965570889e+18,-2.274297237,2.059941292,0.5306726694
1652,1.55965570894e+18,-2.814912796,4.813111305,3.093863249
1653,1.55965570899e+18,0.4917007089,-4.789079666,0.392006278
1654,1.55965570904e+18,-1.58829546,-0.791577518,1.076175332
1655,1.5596557091e+18,-2.340881348,-4.533126831,1.798828959
1656,1.55965570915e+18,-2.782537222,-0.4006237388,3.595994473
1657,1.5596557092e+18,-1.996964335,1.79849112,2.486052275
1658,1.55965570925e+18,-1.098992467,-0.1177931428,0.5465551615
1659,1.5596557093e+18,-0.2779895067,-1.379229903,-0.9402908087
1660,1.55965570936e+18,1.822776079,-0.661463201,-2.938431263
1661,1.55965570941e+18,3.980962992,0.07585113496,-4.104572773
1662,1.55965570946e+18,4.402460098,-0.4995839298,-3.034947872
1663,1.55965570951e+18,2.401876211,1.049570322,-2.602455139
1664,1.55965570956e+18,-0.4820185006,3.588326454,-1.867584229
1665,1.55965570962e+18,-1.902891159,3.668349504,-0.5090199709
1666,1.55965570967e+18,-1.029964566,4.023873329,0.5581616163
1667,1.55965570972e+18,1.246730089,-5.850763798,-2.133310556
1668,1.55965570977e+18,-2.202826023,1.728241563,2.03706646
1669,1.55965570982e+18,-3.420891047,-5.856261253,5.274041653
1670,1.55965570988e+18,-1.725740075,-5.238065243,3.969844103
1671,1.55965570993e+18,-0.4197102487,-1.476968288,0.3529108763
1672,1.55965570998e+18,-1.578521609,3.739820719,-0.6617362499
1673,1.55965571003e+18,-0.3439629376,2.389808655,-2.702636957
1674,1.55965571008e+18,1.841712832,2.351935148,-2.568246603
1675,1.55965571014e+18,3.934537172,0.1265529543,-1.820547581
1676,1.55965571019e+18,2.959596157,-1.62540853,-0.6244735122
1677,1.55965571024e+18,2.450745583,-3.21793437,1.174524665
1678,1.55965571029e+18,1.918071032,-2.924108267,1.989418983
1679,1.55965571034e+18,1.231458545,-1.319365144,0.01876761205
1680,1.5596557104e+18,1.678000927,-4.022443771,-4.008056164
1681,1.55965571045e+18,-0.3323565125,2.424628019,-1.457082748
1682,1.5596557105e+18,-1.675038338,-0.2277488858,3.357146263
1683,1.55965571055e+18,-2.675635576,-1.998036385,6.676588058
1684,1.5596557106e+18,-1.759337783,1.705639601,8.944120407
1685,1.55965571066e+18,-0.7184233665,0.8485956192,5.393160343
1686,1.55965571071e+18,-0.3201391995,-1.598530531,-1.333077192
1687,1.55965571076e+18,-0.2480570972,2.799699306,-3.034336805
1688,1.55965571081e+18,1.574764729,2.259694338,-4.540730476
1689,1.55965571086e+18,0.9455736279,0.7655180097,-3.676967144
1690,1.55965571092e+18,0.9651212692,2.312839508,-2.408200026
1691,1.55965571097e+18,0.9461844563,0.0746294111,-1.794891357
1692,1.55965571102e+18,0.523465693,1.882179737,-1.700817943
1693,1.55965571107e+18,0.3157715201,1.608512044,-2.3239007
1694,1.55965571112e+18,-0.4172667861,3.428279638,-2.964698315
1695,1.55965571118e+18,-2.324388266,4.465528965,-2.289081335
1696,1.55965571123e+18,-4.481352806,2.642706871,3.288118362
1697,1.55965571128e+18,-4.25411129,-3.533140659,2.637546778
1698,1.55965571133e+18,-3.513742685,-0.2534052134,4.097514629
1699,1.55965571138e+18,-2.058661699,-1.428099155,2.032790184
1700,1.55965571144e+18,0.5039179921,-1.402442694,-1.182804346
1701,1.55965571149e+18,1.99809432,-1.66511488,-2.879177094
1702,1.55965571154e+18,2.651720285,-1.670001745,-3.272574186
1703,1.55965571159e+18,1.60042119,-1.517285347,-2.226162195
1704,1.55965571164e+18,1.216797709,-0.2674551308,-0.8498827219
1705,1.5596557117e+18,1.967551112,-0.5680008531,0.5917592049
1706,1.55965571175e+18,3.356658697,-3.767712831,1.673601508
1707,1.5596557118e+18,2.21006465,-7.690689564,0.9619435668
1708,1.55965571185e+18,-0.1484860629,3.665906191,1.495839715
1709,1.5596557119e+18,-2.430678606,0.3684555888,3.768258572
1710,1.55965571196e+18,-0.9865931869,-5.013877869,5.875743866
1711,1.55965571201e+18,-1.219332933,4.475913525,6.807312965
1712,1.55965571206e+18,-0.7642382383,1.47412169,1.456744432
1713,1.55965571211e+18,-0.5773134828,-1.206965804,-1.757017732
1714,1.55965571216e+18,0.5026962757,0.846152246,-3.034336805
1715,1.55965571222e+18,1.777572036,0.7966721058,-4.934127808
1716,1.55965571227e+18,2.294363976,0.6799969077,-3.783257484
1717,1.55965571232e+18,2.167915106,-0.1782688051,-3.124744892
1718,1.55965571237e+18,1.42876792,0.7105401158,-1.631179452
1719,1.55965571242e+18,1.470306873,0.8870801926,-0.4473225772
1720,1.55965571248e+18,1.142272234,0.09539882839,1.029138684
1721,1.55965571253e+18,0.8918174505,-3.640042305,-1.371561646
1722,1.55965571258e+18,-0.8082205057,2.959135056,2.695579052
1723,1.55965571263e+18,-2.83018446,-2.159304619,5.200126648
1724,1.55965571268e+18,-2.939529181,0.8589804173,8.856155396
1725,1.55965571274e+18,-2.16495204,3.645136833,4.7260952
1726,1.55965571279e+18,-0.6585585475,-1.423212171,-1.509617209
1727,1.55965571284e+18,0.2705674767,1.026357412,-2.127201796
1728,1.55965571289e+18,1.142883062,0.4136596024,-3.584726572
1729,1.55965571294e+18,1.210689068,0.1796982288,-3.589613199
1730,1.559655713e+18,1.473361254,2.267024755,-2.892005444
1731,1.55965571305e+18,2.178299665,0.2065762877,-1.763737202
1732,1.5596557131e+18,2.514886379,0.3018712699,-0.8535479903
1733,1.55965571315e+18,2.253436089,0.4747461677,0.07435635477
1734,1.5596557132e+18,0.7268838286,0.2395630181,0.6442936659
1735,1.55965571326e+18,-0.3311347663,0.4478680789,-1.312307715
1736,1.55965571331e+18,-1.982914448,2.373926163,2.882503986
1737,1.55965571336e+18,-4.669499397,-1.62540853,4.358354568
1738,1.55965571341e+18,-5.017693043,0.9493884444,6.515930176
1739,1.55965571346e+18,-1.486281037,-4.425614834,1.562424064
1740,1.55965571352e+18,-0.8088313937,-1.881361127,-2.338561296
1741,1.55965571357e+18,0.5992130041,5.21017313,-2.742954016
1742,1.55965571362e+18,3.761051416,1.218780041,-4.036156178
1743,1.55965571367e+18,4.680403709,-1.078073382,-2.003196239
1744,1.55965571372e+18,4.099470615,-0.7054454684,-2.34039402
1745,1.55965571378e+18,2.800160408,1.006198883,-0.9751101732
1746,1.55965571383e+18,1.582095265,-0.894202888,-0.0991293788
1747,1.55965571388e+18,0.5460677147,1.449687123,-1.380113721
1748,1.55965571393e+18,0.1264032871,2.364152431,-3.077708244
1749,1.55965571398e+18,-1.968253613,4.661616802,-0.2475696355
1750,1.55965571404e+18,-4.11177969,-4.361474037,2.469559193
1751,1.55965571409e+18,-5.124594212,-0.3267090321,4.875757217
1752,1.55965571414e+18,-4.227844238,-2.836754322,4.448151588
1753,1.55965571419e+18,-1.512548208,-7.432904243,3.015672684
1754,1.55965571424e+18,0.6993948817,-2.417700768,0.3858976066
1755,1.5596557143e+18,2.915003061,-1.24483943,-0.4485443234
1756,1.55965571435e+18,4.54784584,-0.1367299706,-1.499232531
1757,1.5596557144e+18,3.90216136,-0.1293995827,-0.8248372674
1758,1.55965571445e+18,2.767784595,-1.180698752,-0.1767092645
1759,1.5596557145e+18,1.417161465,-0.09030420333,0.5581616163
1760,1.55965571456e+18,0.6480821967,-0.5093577504,0.1977511346
1761,1.55965571461e+18,-0.1692554951,2.389197826,0.8904722929
1762,1.55965571466e+18,-0.3775605559,2.635987282,1.443305373
1763,1.55965571471e+18,-0.9181762934,-4.283283234,4.790846825
1764,1.55965571476e+18,-1.868682623,-2.994357586,5.613071442
1765,1.55965571482e+18,-0.09595166147,-12.83784008,2.758498192
1766,1.55965571487e+18,1.178313255,-1.557602525,-2.354443789
1767,1.55965571492e+18,0.6609104276,0.0996748805,-0.6519623995
1768,1.55965571497e+18,1.528339028,-3.624159575,-1.146763325
1769,1.55965571502e+18,1.39883554,1.438691497,-1.31047523
1770,1.55965571508e+18,1.804450035,1.781386852,-0.882258594
1771,1.55965571513e+18,1.933953524,-0.06403700262,-0.1999221444
1772,1.55965571518e+18,1.194195628,-0.2124772668,0.07191288471
1773,1.55965571523e+18,2.080561161,7.004895687,2.918545008
1774,1.55965571528e+18,-2.219319344,-2.795826435,4.123171329
1775,1.55965571534e+18,-2.981678963,-4.501362324,3.691900492
1776,1.55965571539e+18,-2.116082907,0.125331223,4.363241196
1777,1.55965571544e+18,-1.18390274,3.605430365,1.393825293
1778,1.55965571549e+18,0.5381264687,-1.820885539,-2.067948103
1779,1.55965571554e+18,1.686553121,-0.7512603998,-3.143070698
1780,1.5596557156e+18,2.098887205,0.6512861848,-3.408797264
1781,1.55965571565e+18,2.051239729,0.518728435,-2.359941721
1782,1.5596557157e+18,2.356672287,1.081946135,-0.6379125118
1783,1.55965571575e+18,2.993193865,0.7942286134,-1.321470737
1784,1.5596557158e+18,3.467836142,-0.4592668116,-0.8614891768
1785,1.55965571586e+18,2.988917828,-0.9278004766,0.2124118954
1786,1.55965571591e+18,2.315133572,-1.324862957,4.688221455
1787,1.55965571596e+18,-4.610856533,-0.7311018705,5.066347122
1788,1.55965571601e+18,-7.065313339,2.565126896,7.00828743
1789,1.55965571606e+18,-4.943778515,2.273744345,7.061433315
1790,1.55965571612e+18,-0.5571548939,-3.117141485,2.888612509
1791,1.55965571617e+18,1.208245635,-5.030371666,-4.749035835
1792,1.55965571622e+18,2.04452014,3.267621994,-3.906652451
1793,1.55965571627e+18,2.284590006,-1.027371407,-4.110681534
1794,1.55965571632e+18,0.7678118348,1.555366874,-2.907276869
1795,1.55965571638e+18,-0.1008385792,2.698906422,-2.338561296
1796,1.55965571643e+18,0.4080121815,6.033008575,-0.5120742917
1797,1.55965571648e+18,0.1355662644,-1.96993649,-0.01544084027
1798,1.55965571653e+18,1.641349077,-5.531280994,-5.405715942
1799,1.55965571658e+18,-2.864392996,1.902949095,2.299738407
1800,1.55965571664e+18,-4.09773016,-5.800061703,5.16347456
1801,1.55965571669e+18,-1.34639287,-3.404247999,7.463993073
1802,1.55965571674e+18,-0.6029697657,2.709902048,-0.9311278462
1803,1.55965571679e+18,0.476429075,2.206549168,-2.550531387
1804,1.55965571684e+18,2.021918058,-0.1440603435,-2.940874577
1805,1.55965571689e+18,3.330391645,-0.8019621968,-4.587156296
1806,1.55965571695e+18,2.101941347,-1.414049149,-2.681867599
1807,1.559655717e+18,1.626688361,0.3421883881,-2.018467903
1808,1.55965571705e+18,0.8246222734,1.448465347,-1.476630449
1809,1.5596557171e+18,0.9144194126,3.205924511,-0.5444501638
1810,1.55965571715e+18,1.168539405,1.304911971,-0.1925917715
1811,1.55965571721e+18,2.098887205,-3.624159575,-4.803402901
1812,1.55965571726e+18,-2.040335655,3.58343935,2.038288116
1813,1.55965571731e+18,-3.997548103,-6.955818653,6.319231987
1814,1.55965571736e+18,-4.222957134,2.805807829,7.861666679
1815,1.55965571741e+18,-3.542453289,6.955415726,3.280177355
1816,1.55965571747e+18,-0.8350986242,-0.2833376229,-0.8468284011
1817,1.55965571752e+18,0.8893739581,-2.772002697,-1.889575481
1818,1.55965571757e+18,2.987695932,-1.54599607,-2.99646306
1819,1.55965571762e+18,3.300458908,-3.546579838,-4.193148613
1820,1.55965571767e+18,2.935161591,0.6971010566,-3.293343782
1821,1.55965571773e+18,2.494117022,0.2200153321,-2.125980139
1822,1.55965571778e+18,2.272983551,0.9958142042,-1.047803044
1823,1.55965571783e+18,2.415926218,-0.4794253707,-1.454639435
1824,1.55965571788e+18,1.450148344,-0.9571220279,-0.7698594332
1825,1.55965571793e+18,1.230847597,1.311631441,-2.877955437
1826,1.55965571799e+18,-1.214445949,0.02392759174,1.526993871
1827,1.55965571804e+18,-4.596806526,-2.110435486,5.622234344
1828,1.55965571809e+18,-4.105670929,-1.535000443,7.284399033
1829,1.55965571814e+18,-1.86623919,6.109367371,3.236805677
1830,1.55965571819e+18,-0.08312349021,1.741680622,-3.160175085
1831,1.55965571825e+18,2.17707777,-1.734142542,-1.909123063
1832,1.5596557183e+18,2.493506193,-3.096372128,-1.759461045
1833,1.55965571835e+18,2.074452639,-1.338301897,-1.196243405
1834,1.5596557184e+18,1.94494915,0.2481151372,-0.7197684646
1835,1.55965571845e+18,2.097665548,-1.139770746,-0.4289966226
1836,1.55965571851e+18,1.509402275,0.1277746856,-1.468689203
1837,1.55965571856e+18,-0.6225175261,1.392265797,-0.2445152998
1838,1.55965571861e+18,-1.920606256,-3.659589767,-5.053246498
1839,1.55965571866e+18,-1.982303619,1.804599762,3.161669254
1840,1.55965571871e+18,-4.236396313,0.2756040692,5.584361076
1841,1.55965571877e+18,-3.789242983,-2.357836008,6.688194275
1842,1.55965571882e+18,-2.356153011,2.600557089,4.831163883
1843,1.55965571887e+18,-0.5131726265,2.17600584,-1.687379003
1844,1.55965571892e+18,0.7354359031,1.801545382,-3.16811657
1845,1.55965571897e+18,2.175245285,-1.183753014,-4.720935822
1846,1.55965571903e+18,1.709155202,-0.8868724704,-3.100310326
1847,1.55965571908e+18,1.056140184,1.232829928,-1.867584229
1848,1.55965571913e+18,1.175258875,1.724576473,-0.6727318764
1849,1.55965571918e+18,1.728702903,0.8321022987,-0.06125573441
1850,1.55965571923e+18,1.496573925,-0.4885883629,0.0816867277
1851,1.55965571929e+18,-0.8693070412,-1.620521665,1.286923885
1852,1.55965571934e+18,-1.615173578,-1.988873363,0.1061213464
1853,1.55965571939e+18,-4.820383072,-1.574706793,4.497020721
1854,1.55965571944e+18,-4.171033859,-1.002326012,7.229420662
1855,1.55965571949e+18,-1.54858923,0.9518319368,2.650985956
1856,1.55965571955e+18,-0.4117689729,-0.2851702273,-1.466856718
1857,1.5596557196e+18,0.9748951197,1.089276552,-2.168740749
1858,1.55965571965e+18,2.723802328,-0.001117883483,-2.500440598
1859,1.5596557197e+18,3.329780579,-1.84409833,-2.072834969
1860,1.55965571975e+18,2.35545063,-0.303496182,-1.453417659
1861,1.55965571981e+18,-0.007987063378,1.970144272,-1.683713913
1862,1.55965571986e+18,-0.6634454727,4.871754169,-1.153482795
1863,1.55965571991e+18,-0.5748699903,3.559004784,-0.11195755
1864,1.55965571996e+18,0.8105723858,-3.193499804,-2.643993855
1865,1.55965572001e+18,-2.608440399,2.064828396,1.245995879
1866,1.55965572007e+18,-3.457543135,-9.179368019,3.798190832
1867,1.55965572012e+18,-3.251070499,3.232802629,6.864734173
1868,1.55965572017e+18,-2.271853685,4.954832077,1.740796804
1869,1.55965572022e+18,-0.119775407,-3.855677605,-0.2622303963
1870,1.55965572027e+18,1.596755981,-2.791550398,-2.207225323
1871,1.55965572033e+18,2.805047274,-0.6828435063,-3.988508224
1872,1.55965572038e+18,2.989528894,-0.4287235439,-4.944512844
1873,1.55965572043e+18,2.325518131,0.09417709708,-2.735623837
1874,1.55965572048e+18,1.59064734,1.342174768,-2.232270718
1875,1.55965572053e+18,0.7769747972,2.328722239,-0.7191575766
1876,1.55965572059e+18,0.4159534276,1.549258113,0.7817382812
1877,1.55965572064e+18,0.2950021029,-1.718870997,-0.7161032557
1878,1.55965572069e+18,-0.6567259431,-0.4482712448,-0.3593579829
1879,1.55965572074e+18,-3.474647284,-0.5203533173,4.056586742
1880,1.55965572079e+18,-2.584005833,-3.484271526,6.596564293
1881,1.55965572085e+18,-2.000629425,1.174186945,2.425576687
1882,1.5596557209e+18,-0.5986937284,0.9884838462,0.1250581592
1883,1.55965572095e+18,-0.2749351859,0.8614238501,-2.552975178
1884,1.559655721e+18,0.8551655412,0.648231864,-2.319624424
1885,1.55965572105e+18,2.74945879,1.018416166,-1.379502892
1886,1.55965572111e+18,2.520384312,-4.121403694,-0.720990181
1887,1.55965572116e+18,2.423256636,-1.88685894,0.1415515244
1888,1.55965572121e+18,1.182589412,0.3715099096,0.7298147678
1889,1.55965572126e+18,0.566226244,0.7239791751,0.3034308255
1890,1.55965572131e+18,-0.1503186673,-0.1623863131,-0.3654666245
1891,1.55965572137e+18,1.538723707,-1.96321702,-3.703234434
1892,1.55965572142e+18,-2.617603302,3.946293116,1.924667239
1893,1.55965572147e+18,-4.125829697,-2.29736042,5.493952751
1894,1.55965572152e+18,-3.66157198,2.535194635,6.274027824
1895,1.55965572157e+18,-0.8552571535,-2.136702776,1.223393917
1896,1.55965572163e+18,-0.2065182626,-0.457434237,-2.195618868
1897,1.55965572168e+18,1.337749004,2.822301388,-3.394747257
1898,1.55965572173e+18,2.474569321,1.254210234,-4.087468624
1899,1.55965572178e+18,2.540542841,-1.873419762,-1.990368128
1900,1.55965572183e+18,1.850875854,-3.557575464,-2.013581038
1901,1.55965572189e+18,0.8722697496,1.028800845,-0.1724332124
1902,1.55965572194e+18,0.01766927727,2.138743162,2.027903557
1903,1.55965572199e+18,0.8478351235,0.7380290627,-0.9036388993
1904,1.55965572204e+18,-2.403189659,-0.08053036779,1.997970939
1905,1.55965572209e+18,-2.025063992,-3.045059443,2.057835579
1906,1.55965572215e+18,-2.016511917,-1.544774413,4.263670444
1907,1.5596557222e+18,-0.7801207304,-4.471429825,0.9711065292
1908,1.55965572225e+18,-0.882135272,-2.179463387,0.07130202651
1909,1.5596557223e+18,-1.011027813,2.899270296,-0.3556927741
1910,1.55965572235e+18,0.9584017396,4.315255642,-1.700207114
1911,1.55965572241e+18,4.296169281,-0.1208474711,-2.207225323
1912,1.55965572246e+18,5.792788982,-0.6523002386,-1.73441565
1913,1.55965572251e+18,4.867328644,-1.320586801,0.01632415131
1914,1.55965572256e+18,3.863065958,-0.3450350165,1.717583895
1915,1.55965572261e+18,3.057334661,-1.707875371,3.459771395
1916,1.55965572267e+18,2.091556787,-5.342523575,3.19587779
1917,1.55965572272e+18,-1.395872951,3.037325859,1.763398767
1918,1.55965572277e+18,-3.326206923,1.919442534,3.034609318
1919,1.55965572282e+18,-1.962755919,-8.314382553,4.107899189
1920,1.55965572287e+18,-1.474063635,-3.043837547,4.259394169
1921,1.55965572293e+18,-0.7660708427,0.4875743091,-0.158994168
1922,1.55965572298e+18,-0.4215428531,0.9347276688,-1.243890882
1923,1.55965572303e+18,0.6780145764,1.973809481,-0.399064213
1924,1.55965572308e+18,3.797703266,1.416089535,-2.109486818
1925,1.55965572313e+18,7.022460938,-0.8746551871,-1.813217282
1926,1.55965572319e+18,8.224643707,-3.15501523,-0.4943591952
1927,1.55965572324e+18,5.98093605,-3.863618851,1.70597744
1928,1.55965572329e+18,3.10742569,-4.704780102,2.862345219
1929,1.55965572334e+18,0.1117425263,0.3421883881,3.226420879
1930,1.55965572339e+18,-0.2517222762,3.039769173,3.112800121
1931,1.55965572345e+18,-2.381809235,0.9396146536,3.173886776
1932,1.5596557235e+18,-2.729391813,-2.235662937,3.260629416
1933,1.55965572355e+18,-0.58158952,-5.22768116,3.253909826
1934,1.5596557236e+18,0.04149302468,-0.6895629764,2.471391678
1935,1.55965572365e+18,-0.915732801,3.414229631,-1.383168101
1936,1.55965572371e+18,-0.6316804886,1.38493526,-1.805886865
1937,1.55965572376e+18,1.070190072,-0.6804000139,-1.642175078
1938,1.55965572381e+18,2.18990612,0.7142053246,-2.045346022
1939,1.55965572386e+18,4.02189064,0.3501296341,-3.764931679
1940,1.55965572391e+18,3.285798311,0.6940467358,-3.19499445
1941,1.55965572397e+18,1.381731272,2.003130913,-2.207225323
1942,1.55965572402e+18,0.2125352919,2.088652134,-1.089952707
1943,1.55965572407e+18,-1.176572323,2.365984917,-0.02277122252
1944,1.55965572412e+18,-1.397094607,1.918831587,0.6772803068
1945,1.55965572417e+18,-1.662821054,3.04343462,1.666882038
1946,1.55965572423e+18,-2.661585808,-0.1507798582,2.115257025
1947,1.55965572428e+18,-5.176517963,-3.439678431,3.427395821
1948,1.55965572433e+18,-4.288930893,-3.693798304,6.030903339
1949,1.55965572438e+18,-1.133200765,-3.103702307,0.5361704826
1950,1.55965572443e+18,-1.177183151,0.0856249854,-0.626916945
1951,1.55965572449e+18,-0.1289383918,-1.440927267,-1.639120579
1952,1.55965572454e+18,0.996886313,-3.464723825,-2.902390003
1953,1.55965572459e+18,0.9651212692,-9.688830376,-3.282958984
1954,1.55965572464e+18,1.216186881,-1.371899486,-2.64827013
1955,1.55965572469e+18,1.172815442,3.249907017,-2.386208773
1956,1.55965572475e+18,1.382953167,1.61339891,-2.092382669
1957,1.5596557248e+18,0.6028781533,3.395903826,-1.503508568
1958,1.55965572485e+18,-0.1900248975,2.733725786,-0.918299675
1959,1.5596557249e+18,-1.21383512,3.619480371,1.45430088
1960,1.55965572495e+18,-2.457556725,-1.011489034,5.363227367
1961,1.55965572501e+18,-3.169825792,-2.200843811,6.599007607
1962,1.55965572506e+18,-2.034837961,5.779500008,6.941703796
1963,1.55965572511e+18,-0.4355927408,-1.624186873,-0.9506755471
1964,1.55965572516e+18,0.2620153725,-0.9021440744,-4.303103924
1965,1.55965572521e+18,1.342635989,0.8113328815,-4.302493095
1966,1.55965572527e+18,3.359713078,1.401428699,-4.036156178
1967,1.55965572532e+18,2.425089121,-1.664503932,-1.452195883
1968,1.55965572537e+18,1.128222346,-0.2100338042,-0.531621933
1969,1.55965572542e+18,-0.1350470334,3.233413458,-0.5291785002
1970,1.55965572547e+18,0.1044121385,2.485103846,-1.662944436
1971,1.55965572553e+18,1.156322122,2.250531435,-1.422874331
1972,1.55965572558e+18,2.020085573,-0.2118663937,-3.970182419
1973,1.55965572563e+18,-1.54858923,1.35500288,1.448803067
1974,1.55965572568e+18,-5.25470829,-1.232011318,4.968608856
1975,1.55965572573e+18,-4.089177608,-5.743861675,4.823833466
1976,1.55965572579e+18,-2.770930767,2.025732994,5.420038223
1977,1.55965572584e+18,-0.4019951522,3.092303753,-0.3856251836
1978,1.55965572589e+18,2.144091368,-1.734142542,-2.460123539
1979,1.55965572594e+18,3.321839333,-2.921664476,-3.133297205
1980,1.55965572599e+18,2.803825617,-1.523393989,-1.598803639
1981,1.55965572605e+18,2.317576885,-1.404886246,-0.5035221577
