,Time (s),Linear Acceleration x (m/s^2),Linear Acceleration y (m/s^2),Linear Acceleration z (m/s^2)
0,1.55965381706e+18,-0.2329387665,1.330778122,-2.523197651
1,1.55965381712e+18,1.467708588,0.480969429,-2.746710539
2,1.55965381718e+18,3.257137775,0.00923538208,-3.034811497
3,1.55965381724e+18,4.80749464,-0.08260345459,-3.379693985
4,1.5596538173e+18,5.983695507,0.1496114731,-4.043595314
5,1.55965381736e+18,6.734052658,0.5283384323,-4.767422676
6,1.55965381742e+18,-2.521346569,-12.52865791,0.371160984
7,1.55965381748e+18,-3.068820477,-12.84896755,0.265504837
8,1.55965381754e+18,-2.291253805,-11.8669796,-1.076369762
9,1.5596538176e+18,0.2295532227,-10.8887291,-1.180149078
10,1.55965381766e+18,2.569113493,-8.411722183,-2.522462845
11,1.55965381772e+18,2.433884859,-8.068977356,-0.2508592606
12,1.55965381778e+18,-4.147780418,-6.96483326,-4.223685741
13,1.55965381784e+18,-3.105403423,-4.923606396,-3.550159931
14,1.5596538179e+18,-2.125935555,-6.973361969,-3.539124012
15,1.55965381796e+18,1.153433323,-6.322603226,-3.208889484
16,1.55965381802e+18,-0.07485580444,-3.858341694,-3.295316219
17,1.55965381808e+18,-1.625235081,-0.6906132698,-2.555644989
18,1.55965381814e+18,-3.655444145,-2.401369095,-1.859124064
19,1.5596538182e+18,-1.037698746,-4.063447952,0.01737165451
20,1.55965381826e+18,0.5510005951,-4.022627354,-0.5022311211
21,1.55965381832e+18,1.779678345,-4.028346062,0.03056120872
22,1.55965381838e+18,3.440236568,-4.290970802,0.229906559
23,1.55965381844e+18,3.502068758,-2.979785919,1.896247387
24,1.5596538185e+18,1.141237259,0.3677210808,-1.653015852
25,1.55965381856e+18,0.4634242058,-1.807947159,-2.02929616
26,1.55965381862e+18,-0.09818935394,-1.473213196,-1.453962803
27,1.55965381868e+18,0.2950158119,0.1335959435,-2.539889812
28,1.55965381874e+18,0.8980522156,0.5903682709,-1.684859991
29,1.5596538188e+18,3.302583694,1.666941285,-0.6219210625
30,1.55965381886e+18,3.920358658,0.4563231468,1.785400867
31,1.55965381892e+18,8.940811157,0.7843775749,0.3116617203
32,1.55965381898e+18,-1.353585243,0.2138035297,0.1049499512
33,1.55965381904e+18,-6.354245186,0.1341576576,-5.218680382
34,1.5596538191e+18,-5.439890862,-0.7820463181,-6.058393955
35,1.55965381916e+18,-3.518900871,-3.640830517,-3.005764961
36,1.55965381922e+18,-5.697288036,-2.793438911,-1.983644485
37,1.55965381928e+18,-5.48176384,-3.804309845,-0.02173089981
38,1.55965381934e+18,-8.003827095,-6.907518387,0.7200422287
39,1.5596538194e+18,-2.828595161,-4.912624836,-2.616127014
40,1.55965381946e+18,4.283848286,-4.544648647,-3.809532881
41,1.55965381952e+18,2.798990726,-2.470264435,-6.27712822
42,1.55965381958e+18,5.857637405,-2.111182451,-8.144127846
43,1.55965381964e+18,8.464483261,-0.4170722961,-10.91255188
44,1.5596538197e+18,7.992578506,0.2463140488,-12.02481079
45,1.55965381976e+18,2.739850998,-0.5107672215,-8.379130363
46,1.55965381982e+18,-10.96612072,1.33391583,-4.312942028
47,1.55965381988e+18,7.962514877,-53.79254532,18.5447731
48,1.55965381994e+18,-10.62219238,-7.54488945,-3.690215111
49,1.55965382e+18,-2.19794035,-4.318812847,-1.737176895
50,1.55965382006e+18,0.173759222,-0.04619073868,0.6534795761
51,1.55965382012e+18,-0.2431044579,0.2638807297,2.151800156
52,1.55965382018e+18,-1.143654346,1.272807598,-0.1877160072
53,1.55965382023e+18,-3.208745241,0.2902193069,-1.258865356
54,1.55965382029e+18,-2.86854887,0.7825422287,-2.188924313
55,1.55965382035e+18,-1.902043581,-0.38449049,-1.946815491
56,1.55965382041e+18,-0.3501698971,-0.3803710938,-0.812623024
57,1.55965382047e+18,-0.3497924805,-1.569569111,-0.3010573387
58,1.55965382053e+18,-0.3733992577,-1.752418995,-0.9712996483
59,1.55965382059e+18,-0.3648612499,-2.267323494,-1.07156086
60,1.55965382065e+18,0.703813076,-0.9830160141,-1.514031887
61,1.55965382071e+18,0.7741734982,-0.7477374077,-1.654955387
62,1.55965382077e+18,0.9497724771,-0.2236585617,-1.641681671
63,1.55965382083e+18,1.051828027,-0.2211699486,-1.398098469
64,1.55965382089e+18,0.2593579292,-1.099294662,-0.6328830719
65,1.55965382095e+18,0.5340543985,-0.9232344627,0.2698335648
66,1.55965382101e+18,-0.5549502373,-1.464130402,0.4376373291
67,1.55965382107e+18,-2.255712509,-0.8625478745,0.3634977341
68,1.55965382113e+18,-1.864978552,-0.0179028511,0.6008639336
69,1.55965382119e+18,-0.846496582,-0.09092092514,0.4643406868
70,1.55965382125e+18,-1.060150623,-0.02251386642,0.251470089
71,1.55965382131e+18,-0.5505952835,-0.1492552757,0.02741670609
72,1.55965382137e+18,-0.9189176559,-0.7582316399,0.6324467659
73,1.55965382143e+18,0.0269651413,-0.0814743042,0.6145763397
74,1.55965382149e+18,0.2980999947,0.7453305721,0.6527476311
75,1.55965382155e+18,-2.053658009,-0.2049152851,1.964699745
76,1.55965382161e+18,-1.159277439,0.5557596684,3.038165569
77,1.55965382167e+18,-1.106386662,0.7912686467,1.54984951
78,1.55965382173e+18,1.684205532,1.920816183,-2.004327297
79,1.55965382179e+18,3.34862709,1.052732944,-3.201927185
80,1.55965382185e+18,2.824442387,-1.934956789,-4.344288826
81,1.55965382191e+18,0.4337244034,-6.212569237,-4.073881626
82,1.55965382197e+18,0.05149126053,-9.269561768,-2.68235755
83,1.55965382203e+18,-9.130298615,-8.282858849,-53.27056122
84,1.55965382209e+18,3.327010632,11.80004501,-3.12117362
85,1.55965382215e+18,-3.243234634,0.7413219213,1.666752338
86,1.55965382221e+18,-3.820335865,3.865829468,5.505625248
87,1.55965382227e+18,0.2446675301,4.077309132,8.209035873
88,1.55965382233e+18,2.260712147,4.051116943,4.841200829
89,1.55965382239e+18,5.508979797,7.304059982,-1.236728668
90,1.55965382245e+18,15.30403042,14.83803558,-8.155250549
91,1.55965382251e+18,12.48458862,15.05598545,-2.806661129
92,1.55965382257e+18,-1.614007354,-5.725029469,20.68437958
93,1.55965382263e+18,-2.606182575,-57.17784119,16.64981079
94,1.55965382269e+18,-14.78708839,-6.436350822,-5.676885605
95,1.55965382275e+18,5.900481224,-3.174753189,-6.639780045
96,1.55965382281e+18,3.419032335,0.3711614609,-5.044247627
97,1.55965382287e+18,2.628282547,4.24057436,-4.549150467
98,1.55965382293e+18,1.964936137,2.040499687,-5.139914989
99,1.55965382299e+18,1.256345868,1.873788357,-4.930120468
100,1.55965382305e+18,0.9921880364,0.8216590881,-4.861364841
101,1.55965382311e+18,-0.3031680584,-2.360981941,-3.289983273
102,1.55965382317e+18,-1.398126125,-3.531069279,-4.154169559
103,1.55965382323e+18,-1.001196861,-5.045184612,-2.062685013
104,1.55965382329e+18,-0.8403849602,-4.392736435,0.2546730042
105,1.55965382335e+18,-0.309132576,-7.414311409,6.988312244
106,1.55965382341e+18,-5.423814297,-4.861608505,7.84577322
107,1.55965382347e+18,-0.8360080719,-0.9710469246,7.17916441
108,1.55965382353e+18,-0.01710271835,-0.2068200111,3.627105713
109,1.55965382359e+18,-0.4825768471,0.6727871895,2.988348484
110,1.55965382365e+18,0.07609701157,-0.6007122993,1.945688725
111,1.55965382371e+18,0.5835194588,-1.237676144,1.64240551
112,1.55965382377e+18,1.350346565,-1.219185233,0.5879893303
113,1.55965382383e+18,2.771257877,-0.3287997246,-0.2797684669
114,1.55965382389e+18,1.51262331,1.348474979,-0.4372386932
115,1.55965382395e+18,-1.308483601,3.323685169,1.166093349
116,1.55965382401e+18,-1.656167984,4.233722687,1.717014313
117,1.55965382407e+18,-1.871220589,2.909265041,-0.6214957237
118,1.55965382413e+18,-2.20064187,0.3287229538,-1.309188843
119,1.55965382419e+18,-1.756813049,-5.246932983,-3.243145943
120,1.55965382425e+18,-1.688476324,-11.20948219,-1.42724371
121,1.55965382431e+18,-23.19118118,-11.85183144,-32.53610992
122,1.55965382437e+18,15.9360075,-4.870295048,-5.984948158
123,1.55965382443e+18,8.54237175,-3.960252285,-3.535392761
124,1.55965382449e+18,5.676408291,-3.003706932,0.9741258621
125,1.55965382455e+18,-1.393813133,1.858424664,0.9459190369
126,1.55965382461e+18,-12.56022835,6.794211388,-1.389036655
127,1.55965382467e+18,-7.509079933,1.105418563,9.146379471
128,1.55965382473e+18,-0.8265370131,7.940532684,6.176291466
129,1.55965382479e+18,6.636793137,8.305178642,-1.286811829
130,1.55965382485e+18,17.25476265,19.35314369,-5.219491005
131,1.55965382491e+18,10.25313568,10.36142635,0.1680436134
132,1.55965382497e+18,-20.60190582,-5.230231285,-19.68077278
133,1.55965382503e+18,-10.36307621,-24.3415699,-6.313637733
134,1.55965382509e+18,-6.910923004,-9.619167328,-9.057730675
135,1.55965382515e+18,5.387560844,-4.883714676,-7.681994438
136,1.55965382521e+18,2.603677511,0.2021870613,-7.259960651
137,1.55965382527e+18,-0.1433191299,4.318484783,-7.152467251
138,1.55965382533e+18,-0.3243908882,2.765958309,-8.375315666
139,1.55965382539e+18,-0.08033812046,-0.4590888023,-4.800713062
140,1.55965382545e+18,0.2016732693,-3.010109901,-2.489825249
141,1.55965382551e+18,-3.793945312,-6.264050961,0.5997304916
142,1.55965382557e+18,-0.4322211146,-8.047959328,4.765574455
143,1.55965382563e+18,-2.223034143,-6.599514484,4.995353699
144,1.55965382569e+18,-3.301895618,-3.808096886,2.368852615
145,1.55965382575e+18,-5.249840736,-1.837116718,1.113218784
146,1.55965382581e+18,-3.055793524,-0.3025326729,1.216766834
147,1.55965382587e+18,-2.747139454,0.4358744621,0.5181326866
148,1.55965382593e+18,-2.170758724,-0.2743353844,0.3815364838
149,1.55965382599e+18,-2.040136337,-1.106991768,0.4966573715
150,1.55965382605e+18,-1.018272877,-1.385269165,0.3138246536
151,1.55965382611e+18,-2.264215946,-1.853565931,1.02061367
152,1.55965382617e+18,-0.7043876648,-1.656211853,0.8720822334
153,1.55965382623e+18,-1.175095558,-1.460229874,1.4556427
154,1.55965382629e+18,1.377564192,-1.650327921,3.242844582
155,1.55965382635e+18,4.299072742,-2.983215332,4.163935661
156,1.55965382641e+18,7.281679153,-2.390333414,2.215865135
157,1.55965382647e+18,5.659715176,0.004814147949,-0.5173692703
158,1.55965382653e+18,-4.644957542,-0.6737184525,-5.52773428
159,1.55965382659e+18,-12.06124783,-10.96948433,-5.776190281
160,1.55965382665e+18,-5.845048428,-12.19517612,1.227903843
161,1.55965382671e+18,3.063854694,-10.67582321,-6.025892735
162,1.55965382677e+18,29.00491714,0.8844752312,-12.33145332
163,1.55965382683e+18,4.15155983,1.970504761,-3.741719723
164,1.55965382689e+18,-2.307227612,-1.911044359,-7.359327316
165,1.55965382695e+18,-1.47345686,-0.2721738815,-3.118338585
166,1.55965382701e+18,-3.323372841,2.702795029,-3.637032032
167,1.55965382707e+18,-7.728532314,0.4318662882,-2.725935698
168,1.55965382713e+18,-13.23000431,-1.397054672,-0.03794527054
169,1.55965382719e+18,-10.42542267,-4.350139141,7.665858746
170,1.55965382725e+18,-9.335447311,-4.072322369,7.320317268
171,1.55965382731e+18,-7.504552364,-3.786397934,3.020092964
172,1.55965382737e+18,-2.707105637,-3.168913364,0.5686583519
173,1.55965382743e+18,0.5100617409,-2.817209959,-5.580917358
174,1.55965382749e+18,1.145091653,-2.053694248,-6.707241058
175,1.55965382755e+18,6.812206745,1.462722301,-7.13339901
176,1.55965382761e+18,14.0514307,24.251091,-6.903662682
177,1.55965382767e+18,16.50556374,3.404211521,10.57156277
178,1.55965382773e+18,9.932770729,-79.66669464,-30.98497391
179,1.55965382779e+18,-23.3656559,-13.76195145,-5.793011665
180,1.55965382785e+18,4.923221111,-10.4434185,-9.843683243
181,1.55965382791e+18,2.476133823,-0.4109258652,-7.743430614
182,1.55965382797e+18,1.429978967,3.476480484,-7.572127342
183,1.55965382803e+18,2.073240995,4.500048161,-7.203097343
184,1.55965382809e+18,2.68655467,4.678795338,-8.169735909
185,1.55965382815e+18,3.964575768,0.9247436523,-5.866344452
186,1.55965382821e+18,2.773837328,0.1076540947,-1.354756355
187,1.55965382827e+18,2.149768114,-3.310524702,0.4614267349
188,1.55965382833e+18,-0.2671429515,-5.411211491,-0.37495327
189,1.55965382839e+18,-0.8315165043,-5.591664791,-1.127235413
190,1.55965382845e+18,-1.611393213,-5.673851967,2.073412895
191,1.55965382851e+18,-2.521258593,-4.331550598,2.0133214
192,1.55965382857e+18,-4.238399982,-3.820054531,1.308251858
193,1.55965382863e+18,-2.40032959,-0.2618713379,-0.266289711
194,1.55965382869e+18,-0.9606089592,1.589718819,-0.009300708771
195,1.55965382875e+18,-2.904522896,0.2652397156,0.6660861969
196,1.55965382881e+18,-4.694765091,-1.784579754,0.3043036461
197,1.55965382887e+18,-2.417951584,-1.377428532,0.2211999893
198,1.55965382893e+18,-0.8970141411,-0.2300047874,-0.4217381477
199,1.55965382899e+18,-2.329377651,-0.2388544083,-0.2813167572
200,1.55965382905e+18,-1.086971283,-1.224558353,2.533270836
201,1.55965382911e+18,-1.147954941,-0.346927166,0.906443119
202,1.55965382917e+18,-2.208364964,0.5075500607,0.65072155
203,1.55965382923e+18,-0.5041222572,1.193536401,-1.567696571
204,1.55965382929e+18,-0.6559581757,1.789595962,-1.984567165
205,1.55965382935e+18,-2.479137897,1.777359486,-2.923342705
206,1.55965382941e+18,-3.8710742,1.562576771,-1.107626438
207,1.55965382947e+18,-3.088093758,5.355110168,-2.359396458
208,1.55965382953e+18,-2.096894741,5.518643379,-0.6348991394
209,1.55965382959e+18,-7.491165638,-0.09787607193,1.765729427
210,1.55965382965e+18,-4.645238876,-10.32726669,-5.315487862
211,1.55965382971e+18,-9.055985451,-56.67663574,11.84560013
212,1.55965382977e+18,13.07950211,-8.949529648,-8.982289314
213,1.55965382983e+18,7.190656662,-11.05320454,-3.249610424
214,1.55965382989e+18,2.331644535,-8.325626373,-4.257499695
215,1.55965382995e+18,1.329784513,-7.397650719,-5.151392937
216,1.55965383001e+18,-5.03850174,-6.427651882,-2.676588058
217,1.55965383007e+18,-9.58155632,-4.379131317,-1.564951897
218,1.55965383013e+18,-20.0565567,-10.0694828,5.247065067
219,1.55965383019e+18,-16.23975372,-1.497930527,4.261536121
220,1.55965383025e+18,-15.058321,0.440277338,2.153591633
221,1.55965383031e+18,-3.378165722,4.544632912,-2.834311962
222,1.55965383037e+18,1.045654058,3.515938044,-8.274908066
223,1.55965383043e+18,1.61343503,2.312660217,-8.572771072
224,1.55965383049e+18,13.99624252,17.43623543,-8.578653336
225,1.55965383055e+18,11.1099968,12.69895172,-4.102228165
226,1.55965383061e+18,-10.20154572,-11.62967968,25.88757706
227,1.55965383067e+18,-1.078062415,-39.87193298,13.00501442
228,1.55965383073e+18,-4.809366703,-11.41064167,-10.30661964
229,1.55965383079e+18,3.378125429,-2.498514175,-5.800842285
230,1.55965383085e+18,3.426691294,1.617680073,-7.011625767
231,1.55965383091e+18,-0.3484277725,2.895468235,-6.878520012
232,1.55965383097e+18,-0.9417948723,1.908241749,-3.922254086
233,1.55965383103e+18,-1.663353443,0.2396450043,-3.053610802
234,1.55965383109e+18,-4.729700089,-4.134568214,0.1866207123
235,1.55965383115e+18,-2.679807186,-4.75977993,2.147824287
236,1.55965383121e+18,-2.895379066,-5.167807579,2.410359383
237,1.55965383127e+18,-3.277132988,-3.700657368,2.353206635
238,1.55965383133e+18,-3.544456482,-2.08779645,2.36230278
239,1.55965383139e+18,-1.490713596,-0.5499105453,1.361425877
240,1.55965383145e+18,-0.6788802147,0.107984066,1.371668339
241,1.55965383151e+18,-2.143707275,0.3454756737,0.2472658157
242,1.55965383157e+18,-1.991865635,0.4148852825,-0.1670284271
243,1.55965383163e+18,-1.73066473,-0.4044752121,-0.2556042671
244,1.55965383169e+18,-0.916390419,-1.050847054,-0.2934422493
245,1.55965383175e+18,0.5388326645,-0.9576225281,-0.391561985
246,1.55965383181e+18,-0.1409983635,-0.3242888451,1.131458759
247,1.55965383187e+18,-0.981877327,-0.8181352615,3.776354313
248,1.55965383193e+18,-0.9129295349,-0.5722440481,4.290104389
249,1.55965383199e+18,0.5802164078,0.7101126313,2.741236687
250,1.55965383205e+18,0.7904083729,0.41644454,0.3822078705
251,1.55965383211e+18,0.6080505848,0.910296917,-0.613032341
252,1.55965383217e+18,0.687084794,1.769350767,-2.14411974
253,1.55965383223e+18,-0.7839193344,-1.240147352,-2.938073158
254,1.55965383229e+18,0.7457765937,-2.082778692,-6.856343269
255,1.55965383235e+18,-0.5671576858,-9.198239326,-3.772463322
256,1.55965383241e+18,-0.886721015,-13.12996483,-5.527504921
257,1.55965383247e+18,9.386011124,9.340693474,1.095359802
258,1.55965383253e+18,8.973881721,8.733273506,-6.290009499
259,1.55965383259e+18,8.618128777,-0.4730122685,1.167618752
260,1.55965383265e+18,-3.05969286,-8.413110733,-4.810031891
261,1.55965383271e+18,-13.22866821,-11.76589775,-0.9389748573
262,1.55965383277e+18,-7.496765137,-7.705248356,11.60905457
263,1.55965383283e+18,-11.80700779,-1.923265934,7.541246891
264,1.55965383289e+18,-7.616522789,-3.759083748,2.678426266
265,1.55965383295e+18,-2.653377533,-2.720814705,-3.043349743
266,1.55965383301e+18,3.233350754,-0.9612089396,-5.269875526
267,1.55965383307e+18,5.32430172,0.9223847389,-8.576683044
268,1.55965383313e+18,4.992621422,2.889154434,-8.428893089
269,1.55965383319e+18,2.357259274,2.298523903,-7.772815228
270,1.55965383325e+18,1.596119642,-4.463233471,2.407327652
271,1.55965383331e+18,1.272702336,-11.09557152,-27.14164352
272,1.55965383337e+18,-7.63245821,-8.765468597,-7.901693344
273,1.55965383343e+18,-0.6762455702,-4.38588953,-1.230207443
274,1.55965383349e+18,0.02648377419,-1.515043497,-1.109367371
275,1.55965383355e+18,-1.024947166,-0.9413814545,0.683134079
276,1.55965383361e+18,-1.923069715,-0.703338623,3.185004234
277,1.55965383367e+18,-1.347668648,-1.098014355,3.916338444
278,1.55965383373e+18,-1.677865982,0.05066919327,2.417819977
279,1.55965383379e+18,-1.226863861,0.7883272171,1.325026512
280,1.55965383385e+18,-1.011806011,0.8261294365,0.843275547
281,1.55965383391e+18,-2.844195366,-0.5180778503,0.222278595
282,1.55965383397e+18,-0.8847894669,-0.2603611946,-0.7575826645
283,1.55965383403e+18,-0.4570293427,-1.190963268,-0.5684256554
284,1.55965383409e+18,0.5745229721,-1.000520229,-1.045922756
285,1.55965383415e+18,0.3967852592,-1.410051346,-0.8691177368
286,1.55965383421e+18,1.123770237,-0.8895745277,-1.213885307
287,1.55965383427e+18,1.262318611,-1.009645462,-0.6876292229
288,1.55965383433e+18,1.32450819,-0.4577913284,-0.9854736328
289,1.55965383439e+18,0.4878387451,-0.588488102,-0.7276849747
290,1.55965383445e+18,0.1700100899,-0.1862664223,-0.8940882683
291,1.55965383451e+18,-0.4623856544,-0.4190597534,-0.5420703888
292,1.55965383457e+18,-0.1994934082,-0.1048202515,-0.4504432678
293,1.55965383463e+18,-0.4947624207,0.03673505783,-0.4828124046
294,1.55965383469e+18,-0.8465862274,0.4695277214,-0.5474300385
295,1.55965383475e+18,-1.83660841,0.5145788193,-0.4381151199
296,1.55965383481e+18,-0.5341572762,0.9835300446,0.1614599228
297,1.55965383487e+18,-0.9589724541,0.7292351723,0.2364115715
298,1.55965383493e+18,-1.202679634,0.1066050529,0.7295117378
299,1.55965383499e+18,-0.964029789,1.875089169,-0.8611803055
300,1.55965383505e+18,0.5304884911,3.056803703,4.765579224
301,1.55965383511e+18,1.588702679,-3.937677383,-1.215497494
302,1.55965383517e+18,3.043105125,-3.159637451,-5.318395615
303,1.55965383523e+18,3.49964571,-0.567530632,-2.547899485
304,1.55965383529e+18,1.273548603,1.676988125,-1.620703697
305,1.55965383535e+18,-2.501866817,1.077877045,2.187714815
306,1.55965383541e+18,-2.3901124,1.651279688,1.202940702
307,1.55965383547e+18,0.3196158409,0.8894305229,1.979979753
308,1.55965383553e+18,-6.376333714,-5.006116867,4.330309868
309,1.55965383559e+18,-1.965950966,-2.830951929,-0.642355442
310,1.55965383565e+18,-3.668086052,-7.309250355,-0.4829173088
311,1.55965383571e+18,-4.102074623,-4.166910648,-8.548027039
312,1.55965383577e+18,3.590953827,5.177686691,1.871130943
313,1.55965383583e+18,1.810386181,7.77251482,-3.535877705
314,1.55965383589e+18,5.795580864,3.742683649,0.03281545639
315,1.55965383595e+18,-3.85030365,-2.117739201,2.662450314
316,1.55965383601e+18,-17.01426506,-6.406807423,0.4264502525
317,1.55965383607e+18,-4.66344738,-4.722499371,6.384898663
318,1.55965383613e+18,-1.669054508,-1.780967236,-0.1110506058
319,1.55965383619e+18,1.765640259,-2.230189562,-5.897701263
320,1.55965383625e+18,9.305930138,0.2735443115,-7.84008646
321,1.55965383631e+18,16.24454117,19.93129349,-10.31216812
322,1.55965383637e+18,2.957580566,-1.196679115,10.2288723
323,1.55965383643e+18,25.51777458,-16.63572884,-30.15182114
324,1.55965383649e+18,-15.24813175,-10.68563461,-15.34259415
325,1.55965383655e+18,-2.186977863,-7.112700939,-8.806010246
326,1.55965383661e+18,7.137958527,-0.3408699036,-6.006652832
327,1.55965383667e+18,3.578459978,1.883472919,-5.248931885
328,1.55965383673e+18,1.411315441,-0.4398965836,-4.547135353
329,1.55965383679e+18,0.3780949116,-2.613440275,-4.675555229
330,1.55965383685e+18,1.022909641,-5.166159153,-3.165138721
331,1.55965383691e+18,1.000551581,-5.128777027,-0.833524704
332,1.55965383697e+18,-0.8446872234,-6.122849941,1.135293961
333,1.55965383703e+18,1.674949646,-5.796624184,2.545469284
334,1.55965383709e+18,-0.6733090878,-6.262402058,6.698946476
335,1.55965383715e+18,-0.6379646063,-2.717002869,3.790371895
336,1.55965383721e+18,-1.496428847,-0.4694356918,2.7851367
337,1.55965383727e+18,-2.494765759,-1.623950958,3.817618847
338,1.55965383733e+18,-1.880734205,-0.6520786285,2.629966974
339,1.55965383739e+18,-1.312785387,-0.8262929916,2.508718729
340,1.55965383745e+18,-0.5236526132,-0.7075405121,1.704802275
341,1.55965383751e+18,0.4556648731,-1.266618729,1.176272392
342,1.55965383757e+18,0.5800235271,-2.403095245,-0.2566227913
343,1.55965383763e+18,0.6207220554,-2.096607208,-1.503962517
344,1.55965383769e+18,0.4206728935,-2.371874809,-2.241023302
345,1.55965383775e+18,0.3607263565,-1.881845474,-2.752203465
346,1.55965383781e+18,-1.227009296,0.4456868172,3.033503532
347,1.55965383787e+18,-5.570168018,-2.231060982,2.402810097
348,1.55965383793e+18,-1.055337906,-0.7471344471,3.687004089
349,1.55965383799e+18,1.068400383,0.256845355,0.5216794014
350,1.55965383805e+18,3.98853898,1.401292205,-2.632683277
351,1.55965383811e+18,6.804728985,1.110665679,-3.953740597
352,1.55965383817e+18,5.19136858,-3.950300217,-4.529070377
353,1.55965383823e+18,2.986252308,-11.23621082,-4.650735855
354,1.55965383829e+18,1.990811825,-9.131702423,-7.480507851
355,1.55965383835e+18,17.4289093,3.513963461,-9.373140335
356,1.55965383841e+18,-1.385364056,2.262268543,2.245176792
357,1.55965383847e+18,-7.240703583,-0.8230657578,0.9882650375
358,1.55965383853e+18,-12.22865677,-7.455706596,4.690397739
359,1.55965383859e+18,-12.06309032,-1.341298103,8.785666466
360,1.55965383865e+18,-11.98399067,-1.059749603,8.129566193
361,1.55965383871e+18,-5.64727211,-2.540296555,6.306372643
362,1.55965383877e+18,-3.747955799,-1.805536747,1.534353018
363,1.55965383883e+18,0.03168439865,-0.9824028015,-3.711909056
364,1.55965383889e+18,3.581297398,-1.349822521,-5.874531746
365,1.55965383895e+18,4.390421867,-0.789839983,-7.572775841
366,1.55965383901e+18,12.62014103,8.986294746,-8.25996685
367,1.55965383907e+18,24.666399,22.10809135,-4.489040375
368,1.55965383913e+18,2.867201328,-3.903775215,29.29600525
369,1.55965383919e+18,-6.349382401,-79.00642395,18.12119675
370,1.55965383925e+18,-11.13914013,-9.898349762,-12.28648567
371,1.55965383931e+18,7.389783859,-0.3340470791,-8.29087925
372,1.55965383937e+18,1.571516633,1.233550549,-11.42091942
373,1.55965383943e+18,3.05640626,3.968538761,-8.745355606
374,1.55965383949e+18,1.972065091,3.230049133,-7.077129364
375,1.55965383955e+18,2.966890812,-1.042577267,-6.852385044
376,1.55965383961e+18,0.2614576817,-4.744646072,-2.03558588
377,1.55965383967e+18,-4.558347702,-8.528428078,9.328201294
378,1.55965383973e+18,-19.8266716,-6.850287914,16.31947708
379,1.55965383979e+18,-6.529252052,2.431923389,15.24676323
380,1.55965383985e+18,-5.649924278,-0.6541707516,5.159361362
381,1.55965383991e+18,-2.663888454,-3.820530891,-4.396004677
382,1.55965383997e+18,0.09579908848,-2.999814272,-7.346586227
383,1.55965384003e+18,2.662519455,3.267263889,-5.758235931
384,1.55965384009e+18,6.166163921,4.30525732,-3.109132767
385,1.55965384015e+18,0.8906655312,-1.39231205,-0.03151965141
386,1.55965384021e+18,5.607679367,-7.28015995,-1.666198254
387,1.55965384027e+18,-3.428321838,-8.530618668,-12.55280685
388,1.55965384033e+18,-5.553750992,-7.383775711,-7.123880386
389,1.55965384039e+18,-3.036386728,-6.908588886,-5.60928297
390,1.55965384045e+18,-2.325122833,-4.493196487,-3.764592886
391,1.55965384051e+18,-1.113090992,-1.354145527,-2.338689804
392,1.55965384057e+18,0.3749434948,1.975729942,-0.90858078
393,1.55965384063e+18,-1.764115095,3.019385338,3.645973206
394,1.55965384069e+18,-3.967863798,3.049609184,6.369516373
395,1.55965384075e+18,-2.78362751,6.923684597,7.624428749
396,1.55965384081e+18,-5.585022449,3.330054998,5.814005852
397,1.55965384087e+18,-3.598165512,0.8510315418,3.424797058
398,1.55965384093e+18,-2.796590328,-2.4340837,0.6108207703
399,1.55965384099e+18,-0.7384564877,-5.451708794,-7.326889038
400,1.55965384105e+18,6.545624256,-10.84540176,-14.51250839
401,1.55965384111e+18,4.815668583,18.4356041,-24.25361443
402,1.55965384117e+18,5.33202219,-4.434595585,5.941456795
403,1.55965384123e+18,-0.03609800339,10.99940968,2.739618778
404,1.55965384129e+18,0.7872681618,4.287672997,-0.5667562485
405,1.55965384135e+18,-5.060764313,2.96962595,-5.669135571
406,1.55965384141e+18,-4.81815052,-5.62849474,4.497599125
407,1.55965384147e+18,-13.19172668,-7.856987476,3.044311047
408,1.55965384153e+18,-7.767603874,-6.8770504,4.358520508
409,1.55965384159e+18,-3.045210838,-8.124067307,4.791390896
410,1.55965384165e+18,2.394974232,-2.653613329,-1.234861374
411,1.55965384171e+18,9.22014904,1.807193279,-3.381965637
412,1.55965384177e+18,19.55824661,21.22142792,-4.393540382
413,1.55965384183e+18,5.608945847,8.819186211,-5.070625782
414,1.55965384189e+18,-14.72232246,-30.81401443,-16.67529678
415,1.55965384195e+18,-16.34664345,-28.6744175,-12.20610428
416,1.55965384201e+18,-2.518307924,-9.624991417,-6.374319553
417,1.55965384207e+18,5.420795441,-4.682459354,-9.926657677
418,1.55965384213e+18,2.014921665,1.985427856,-7.068804741
419,1.55965384219e+18,2.881106377,6.140361786,-4.60919857
420,1.55965384225e+18,3.944738388,2.172998428,-5.578196526
421,1.55965384231e+18,1.995016217,0.220430851,-2.082165241
422,1.55965384237e+18,-4.160702229,-4.564485073,-1.133195877
423,1.55965384243e+18,-0.8454259038,-6.914866447,5.749358177
424,1.55965384249e+18,-0.9728075266,-7.942504883,7.581232071
425,1.55965384255e+18,-3.143305779,-2.03933239,1.306144714
426,1.55965384261e+18,-1.643180847,-0.3294987679,1.038673401
427,1.55965384267e+18,-0.3282330036,1.641703606,-0.05430412292
428,1.55965384273e+18,-1.371738434,0.9472222328,0.08370304108
429,1.55965384279e+18,-1.563647509,-0.4895119667,0.7664790154
430,1.55965384285e+18,-1.12400198,-1.136331081,0.5110840797
431,1.55965384291e+18,-0.6621198654,-1.490904331,0.1759152412
432,1.55965384297e+18,-0.3255491257,-1.731193066,-0.3076286316
433,1.55965384303e+18,-1.087013721,-2.206824303,-0.3088746071
434,1.55965384309e+18,-0.4274697304,-1.478997946,-0.2094593048
435,1.55965384315e+18,-0.1177411079,-0.6257767677,-0.6149125099
436,1.55965384321e+18,1.025944233,-0.3529150486,-0.1922907829
437,1.55965384327e+18,0.6743912697,-0.553632021,-0.2965116501
438,1.55965384333e+18,0.01101922989,0.1575621367,-0.7441782951
439,1.55965384339e+18,-0.1321425438,0.8305177093,0.2470283508
440,1.55965384345e+18,-2.198615551,1.210995197,2.37001133
441,1.55965384351e+18,-2.5972085,1.507289648,2.226007462
442,1.55965384357e+18,-0.1913428307,1.604596376,1.44790554
443,1.55965384363e+18,2.432522774,1.00110364,-2.482199192
444,1.55965384369e+18,1.567067266,-3.083731651,-3.616793156
445,1.55965384375e+18,1.534203053,-7.329306602,-4.04989624
446,1.55965384381e+18,0.02628111839,-11.29586792,-5.295942783
447,1.55965384387e+18,2.240219116,2.434696198,11.5108223
448,1.55965384393e+18,10.168293,8.360498428,-5.738886833
449,1.55965384399e+18,-0.3118786812,3.412687778,1.463824272
450,1.55965384405e+18,-5.383826256,-2.208651543,-2.716454029
451,1.55965384411e+18,-11.7054863,-8.234671593,1.054864407
452,1.55965384417e+18,-12.24468422,-5.325768471,6.244920731
453,1.55965384423e+18,-7.468932152,-3.361499071,3.439892769
454,1.55965384429e+18,-0.41477108,-2.815121174,2.823310852
455,1.55965384435e+18,1.595728397,1.216423631,-2.497513294
456,1.55965384441e+18,6.365765572,4.592494011,-5.422945976
457,1.55965384447e+18,10.52846527,17.04733276,-3.405168533
458,1.55965384453e+18,6.276815891,8.204404831,0.5209598541
459,1.55965384459e+18,-15.94574356,-5.478832722,-21.51861572
460,1.55965384465e+18,-23.72968864,-20.11134911,-15.47813988
461,1.55965384471e+18,0.5761373043,-12.39699364,-11.71629715
462,1.55965384477e+18,4.392632484,-1.192213058,-6.214941025
463,1.55965384483e+18,0.9198074341,2.109362602,-5.581039906
464,1.55965384489e+18,2.725877047,4.641316891,-3.099786997
465,1.55965384495e+18,2.222498178,1.676699638,-0.08065462112
466,1.55965384501e+18,-1.474061966,-0.8400931358,-0.1970911026
467,1.55965384507e+18,-1.983647943,-0.8143413067,-0.3833770752
468,1.55965384513e+18,-3.077500105,-2.36887455,0.343585968
469,1.55965384519e+18,-4.55060482,-1.951238155,-0.1401424408
470,1.55965384525e+18,-1.702188969,-0.4851179719,-0.5010643005
471,1.55965384531e+18,-0.7772092819,-0.4736195505,-0.5629501343
472,1.55965384537e+18,1.047295094,-0.1176953316,-2.302461147
473,1.55965384543e+18,-1.601082087,-1.344920635,-1.456363201
474,1.55965384549e+18,-1.049728632,-1.742068052,-0.1741552353
475,1.55965384555e+18,0.2772622108,-3.040733337,1.90564537
476,1.55965384561e+18,0.3905653358,-3.554265499,2.431865692
477,1.55965384567e+18,0.4343534708,-1.337572098,0.01156997681
478,1.55965384573e+18,0.02319645882,-0.6411495209,0.1409258842
479,1.55965384579e+18,-0.3972055912,0.0262055397,0.1527438164
480,1.55965384585e+18,-1.000771761,-0.4439754486,0.8041825294
481,1.55965384591e+18,-0.5766341686,-0.6979007721,0.6139550209
482,1.55965384597e+18,-1.804829121,-0.6899104118,1.796012878
483,1.55965384603e+18,-2.564219475,-0.2185630798,3.747194767
484,1.55965384609e+18,-3.229629993,-1.081634045,4.771392822
485,1.55965384615e+18,-0.8588819504,-2.435228825,6.10881424
486,1.55965384621e+18,2.281045675,-3.98961401,6.608215332
487,1.55965384627e+18,4.974756241,-4.754845142,3.752641678
488,1.55965384633e+18,13.19704819,-0.384871006,-2.159113407
489,1.55965384639e+18,6.039589882,-10.45518112,-5.542775631
490,1.55965384645e+18,2.940322399,-10.64649773,-8.571147919
491,1.55965384651e+18,-0.5846004486,-9.207294464,-4.002363682
492,1.55965384657e+18,3.973892212,-10.69391632,-1.571399212
493,1.55965384663e+18,42.33397675,-26.78266525,21.00948334
494,1.55965384669e+18,-19.39758682,-6.907649517,-27.82546234
495,1.55965384675e+18,1.111114502,2.261207819,-19.81228828
496,1.55965384681e+18,23.8194046,-7.438081741,38.18902969
497,1.55965384687e+18,-3.599570751,-0.3220825195,4.564644814
498,1.55965384693e+18,-11.01707458,3.845187426,-4.77263689
499,1.55965384699e+18,-9.803766251,-1.426508427,-0.1166740656
500,1.55965384705e+18,-9.687473297,0.8244194984,-0.4294328988
501,1.55965384711e+18,-5.620232105,1.486564636,3.20587039
502,1.55965384717e+18,-5.39880085,0.6988801956,4.333508492
503,1.55965384723e+18,-4.115433216,-2.141838074,3.163312674
504,1.55965384729e+18,-5.806199551,-1.359295845,0.7457567453
505,1.55965384735e+18,-6.70371294,-3.619278908,-2.845168591
506,1.55965384741e+18,-0.3738050461,-3.719312191,2.284995079
507,1.55965384747e+18,0.6405725479,-0.6790685654,-2.573809147
508,1.55965384753e+18,6.211428642,2.251008511,-3.709620714
509,1.55965384759e+18,8.273468018,4.731005192,-8.049577713
510,1.55965384765e+18,12.38400555,11.02940941,-10.64295959
511,1.55965384771e+18,6.120158195,5.527298927,-16.89334869
512,1.55965384777e+18,-11.54614258,-11.52175617,16.51087761
513,1.55965384783e+18,4.0542593,-43.40386581,47.51752472
514,1.55965384789e+18,-11.87413883,-2.490130901,-7.8878932
515,1.55965384795e+18,2.698040009,-1.71605444,-0.6254396439
516,1.55965384801e+18,1.82367456,5.019661903,0.370677948
517,1.55965384807e+18,-2.13418293,0.351998806,2.530367374
518,1.55965384813e+18,-5.667985916,1.131489754,4.072430611
519,1.55965384819e+18,-5.201924324,-0.08226060867,2.687820911
520,1.55965384825e+18,-2.735570669,1.60691309,1.822397232
521,1.55965384831e+18,-3.054670811,1.135573864,-0.38549757
522,1.55965384837e+18,-1.775574207,0.4003529549,-0.9562325478
523,1.55965384843e+18,-0.7795548439,-0.3574581146,-1.762329578
524,1.55965384849e+18,0.181912899,-0.8361959457,-1.471435547
525,1.55965384855e+18,0.5353555679,-0.7999606133,-2.17663765
526,1.55965384861e+18,0.507124424,-1.305027485,-1.71241188
527,1.55965384867e+18,1.173638105,-0.5640869141,-1.32851553
528,1.55965384873e+18,1.07027483,-0.3894996643,-1.218003273
529,1.55965384879e+18,0.870228529,0.07268285751,-1.044652462
530,1.55965384885e+18,-0.002581119537,-0.2543678284,-0.3931822777
531,1.55965384891e+18,0.4664258957,0.4176225662,-0.7987890244
532,1.55965384897e+18,0.5359725952,0.3795380592,-0.5854172707
533,1.55965384903e+18,0.2496545315,-0.3909931183,0.7441458702
534,1.55965384909e+18,-0.3497858047,-1.082924366,1.558951378
535,1.55965384915e+18,-0.117811799,-0.276055336,0.3163509369
536,1.55965384921e+18,-0.5178778172,0.180929184,0.3413319588
537,1.55965384927e+18,-1.205652714,0.4246115685,0.2848186493
538,1.55965384933e+18,-0.9048995972,0.4155263901,0.1495084763
539,1.55965384939e+18,-0.3067314625,0.02236223221,0.1833281517
540,1.55965384945e+18,-0.2732794285,-0.2024345398,0.1419901848
541,1.5596538495e+18,-0.3035516739,-0.4051775932,0.0383272171
542,1.55965384956e+18,-0.5348665714,-1.141172409,0.3073363304
543,1.55965384962e+18,-1.811396122,-1.564809799,2.50138855
544,1.55965384968e+18,-2.688047409,-0.7030081749,3.728214264
545,1.55965384974e+18,-3.119900703,-1.207226753,3.830744267
546,1.5596538498e+18,-1.282895088,0.6893036366,2.397305489
547,1.55965384986e+18,-2.525655746,2.803583384,-2.907989025
548,1.55965384992e+18,1.48925972,1.573530436,-5.119699478
549,1.55965384998e+18,0.6190605164,-4.283061028,-3.284118652
550,1.55965385004e+18,-0.1098794937,-6.413043022,-4.324621201
551,1.5596538501e+18,3.713899136,-5.366548538,-4.863947868
552,1.55965385016e+18,4.528098583,-4.591055393,-4.456716537
553,1.55965385022e+18,5.167068005,-0.7373495698,-4.456329346
554,1.55965385028e+18,5.774383068,3.716440201,-2.723567009
555,1.55965385034e+18,3.731619835,1.480233192,0.7639670372
556,1.5596538504e+18,-0.6815142632,-2.363162994,3.227798462
557,1.55965385046e+18,-7.377373219,-4.94430542,4.230453491
558,1.55965385052e+18,-6.778594017,-0.08248710632,4.862221718
559,1.55965385058e+18,-7.718898773,0.3594865799,3.610784292
560,1.55965385064e+18,-7.284371376,-1.174669266,2.91797924
561,1.5596538507e+18,-5.99534893,-4.590605736,-2.669075251
562,1.55965385076e+18,-8.178829193,-11.14285469,1.0668962
563,1.55965385082e+18,-0.3085012436,-7.485339642,7.701071739
564,1.55965385088e+18,6.979140282,0.09607672691,3.725622177
565,1.55965385094e+18,5.903867722,1.164475918,-6.081696987
566,1.559653851e+18,1.331652641,-0.7072389126,-2.284323931
567,1.55965385106e+18,-0.6416606903,0.9476714134,0.6508636475
568,1.55965385112e+18,6.120892525,1.315294266,-1.527316093
569,1.55965385118e+18,2.256845951,3.061001301,-2.423682213
570,1.55965385124e+18,8.297578812,4.80923748,-6.631673336
571,1.5596538513e+18,7.890917778,7.607760906,-9.040180206
572,1.55965385136e+18,7.670636654,8.359634399,-10.11186695
573,1.55965385142e+18,-5.366157055,-2.709108114,1.920344353
574,1.55965385148e+18,26.05980873,-50.34785843,-2.573168755
575,1.55965385154e+18,-17.33203888,-12.19626331,-6.533441067
576,1.5596538516e+18,3.463345051,-3.05633235,-3.670678616
577,1.55965385166e+18,0.8303830624,1.453866363,-2.034163475
578,1.55965385172e+18,-1.21178174,-0.1514482498,1.434091568
579,1.55965385178e+18,-4.293064117,0.9025022984,1.965376377
580,1.55965385184e+18,-3.269761562,-0.6392974854,2.084106445
581,1.5596538519e+18,-2.38298893,0.9944558144,0.1326041222
582,1.55965385196e+18,-1.817191124,0.2480340004,-0.1185722351
583,1.55965385202e+18,-0.8036899567,-0.1140475273,-1.212246895
584,1.55965385208e+18,-0.195892334,-0.6114344597,-1.530848026
585,1.55965385214e+18,0.06981468201,-1.083606243,-1.351874352
586,1.5596538522e+18,0.4096455574,-1.321918964,-1.102796078
587,1.55965385226e+18,1.834986687,-0.4283242226,-1.662646294
588,1.55965385232e+18,0.8972063065,-0.9833078384,-1.010755539
589,1.55965385238e+18,0.7798204422,-0.9629368782,-0.5884799957
590,1.55965385244e+18,0.5995974541,-0.5092225075,-0.7251534462
591,1.5596538525e+18,0.842448473,0.3041677475,-0.8815226555
592,1.55965385256e+18,0.2416491508,0.4752430916,-1.086800575
593,1.55965385262e+18,0.7074949741,0.9552512169,-1.508361816
594,1.55965385268e+18,-0.3023402691,-0.5821080208,0.08560180664
595,1.55965385274e+18,-0.2739268541,-0.972032547,0.8340063095
596,1.5596538528e+18,0.3932902813,-0.780122757,1.238460541
597,1.55965385286e+18,-0.2525678873,-0.5738444328,0.678838253
598,1.55965385292e+18,-0.8953086138,-0.2997140884,0.3918857574
599,1.55965385298e+18,-1.178463221,-0.02981424332,0.5988674164
600,1.55965385304e+18,-0.7684121132,0.2035593987,0.7094192505
601,1.5596538531e+18,-0.3139433861,-0.005902767181,0.5521202087
602,1.55965385316e+18,0.2077856064,-0.3949494362,0.5136561394
603,1.55965385322e+18,-0.2038640976,-0.9493961334,0.7854895592
604,1.55965385328e+18,-0.8482637405,-0.7240657806,0.8337388039
605,1.55965385334e+18,-1.081866264,-0.7631464005,0.6124534607
606,1.5596538534e+18,0.3476819992,0.1439123154,-0.3679003716
607,1.55965385346e+18,2.251593351,0.3691124916,-1.313914776
608,1.55965385352e+18,2.248806238,-2.260832787,-2.08271265
609,1.55965385358e+18,2.847419024,-0.7315440178,-5.04024744
610,1.55965385364e+18,1.8560462,0.7835149765,-4.135451317
611,1.5596538537e+18,-2.495215416,0.1633119583,-1.369715691
612,1.55965385376e+18,-2.3009305,0.9127211571,1.166092873
613,1.55965385382e+18,-5.46723938,-1.913273811,4.394664764
614,1.55965385388e+18,-4.623993397,-0.1191415787,6.931684971
615,1.55965385394e+18,4.352059364,1.43103838,6.952222824
616,1.559653854e+18,6.610572815,0.7772935629,0.3576145172
617,1.55965385406e+18,-3.792541027,-9.482476234,-3.991014719
618,1.55965385412e+18,-6.553221226,-5.311248779,-10.20328331
619,1.55965385418e+18,35.01759338,-2.249525309,0.1064386368
620,1.55965385424e+18,-5.61090374,11.99992657,-2.825899601
621,1.5596538543e+18,8.298549652,6.185852528,-5.198752403
622,1.55965385436e+18,0.6742534637,3.086591244,-4.609724998
623,1.55965385442e+18,-1.320783138,0.5277099609,0.5187892914
624,1.55965385448e+18,-14.49733829,-3.973984241,-1.673828959
625,1.55965385454e+18,-6.197249889,-4.559771061,9.630619049
626,1.5596538546e+18,-9.977720261,-0.3902525902,6.678446293
627,1.55965385466e+18,-5.87447834,-1.056052685,6.13608408
628,1.55965385472e+18,-1.116882324,-0.8033802509,1.283933401
629,1.55965385478e+18,3.961972475,0.1235260367,-4.729311943
630,1.55965385484e+18,7.754911423,2.498545885,-6.166321754
631,1.5596538549e+18,9.046512604,2.731330872,-8.44010067
632,1.55965385496e+18,10.58563614,5.056727886,-13.55919456
633,1.55965385502e+18,9.071737289,0.02427721024,-7.186655521
634,1.55965385508e+18,-31.34886169,-8.841133118,-30.58909988
635,1.55965385514e+18,1.378719091,-29.16634178,7.158560753
636,1.5596538552e+18,0.6027626991,-5.491249084,-2.860968113
637,1.55965385526e+18,1.873549223,0.907083869,-1.043884277
638,1.55965385532e+18,1.326536775,0.2013156414,3.421707153
639,1.55965385538e+18,-1.499411821,-0.9929289818,4.752425194
640,1.55965385544e+18,-1.835705757,-1.18324995,4.447937489
641,1.5596538555e+18,0.1042785645,0.4926834106,1.723096848
642,1.55965385556e+18,0.4007573128,1.02602911,0.7910895348
643,1.55965385562e+18,-1.810269356,-0.6219835281,-0.7908568382
644,1.55965385568e+18,-0.8247718811,-1.204968929,-1.064421654
645,1.55965385574e+18,0.09157204628,-1.640625477,-0.7024760246
646,1.5596538558e+18,0.4178786278,-1.323744774,-1.554624081
647,1.55965385586e+18,0.6749849319,-0.691054821,-2.073406219
648,1.55965385592e+18,0.1715333462,-1.061210632,-1.697459221
649,1.55965385598e+18,0.8998291492,-0.5721592903,-1.584002495
650,1.55965385604e+18,0.6168026924,-0.5217008591,-1.076616287
651,1.5596538561e+18,0.2676634789,-0.02481460571,-0.8971300125
652,1.55965385616e+18,0.05293369293,-0.350903511,-0.3913149834
653,1.55965385622e+18,-0.1646521091,0.1049261093,-0.416074276
654,1.55965385628e+18,-0.340875864,0.4097361565,-0.347073555
655,1.55965385634e+18,-0.7367019653,0.1125206947,0.3059225082
656,1.5596538564e+18,-0.7388305664,-0.01072740555,1.015509605
657,1.55965385646e+18,-0.5623085499,-0.2307658195,1.143666267
658,1.55965385652e+18,-0.5273060799,0.3727779388,0.4006667137
659,1.55965385658e+18,-0.8393297195,0.05086517334,0.2527093887
660,1.55965385664e+18,-0.46434021,0.1776213646,-0.277721405
661,1.5596538567e+18,-0.1998722553,-0.170609951,-0.1572179794
662,1.55965385676e+18,0.7273025513,-0.0968542099,-0.2161431313
663,1.55965385681e+18,0.4826734066,-0.4343533516,0.1439094543
664,1.55965385687e+18,-1.55940485,-0.7898311615,-0.04068660736
665,1.55965385693e+18,-3.116384506,-0.5234065056,2.738186836
666,1.55965385699e+18,-1.606461525,-1.784174442,4.744574547
667,1.55965385705e+18,-1.423707962,-1.438126087,4.737543106
668,1.55965385711e+18,0.04844045639,-0.9851692915,1.83011961
669,1.55965385717e+18,-0.9565186501,-0.5608080626,-2.021715641
670,1.55965385723e+18,2.67244482,1.045425892,-4.442668915
671,1.55965385729e+18,2.389761209,-0.1099410057,-4.904849052
672,1.55965385735e+18,3.494562864,-1.741496086,-5.987586021
673,1.55965385741e+18,4.245583057,-5.930368423,-6.76591301
674,1.55965385747e+18,1.908915997,-12.79748821,-7.597081184
675,1.55965385753e+18,30.52891159,-23.30399513,18.32505226
676,1.55965385759e+18,-7.143332958,6.688213348,-2.036854029
677,1.55965385765e+18,-2.106514931,-2.856434345,3.225422621
678,1.55965385771e+18,-14.7922287,-4.832613468,6.901539326
679,1.55965385777e+18,-12.28621483,1.190984726,8.239196777
680,1.55965385783e+18,-8.474983215,0.9210867882,8.35011673
681,1.55965385789e+18,-6.15158987,-0.6622347832,2.665975332
682,1.55965385795e+18,1.430108547,2.314054728,-0.6328487396
683,1.55965385801e+18,5.028563976,3.172470331,-4.625405312
684,1.55965385807e+18,6.39350462,3.077592611,-8.354870796
685,1.55965385813e+18,9.834722519,5.419857025,-12.86311626
686,1.55965385819e+18,10.63577652,5.403961182,-16.03432465
687,1.55965385825e+18,1.552752018,-6.115561962,5.059751511
688,1.55965385831e+18,-11.49457836,-11.19141388,-30.91088486
689,1.55965385837e+18,-5.080048084,-12.82044411,-1.720124722
690,1.55965385843e+18,-4.007908821,-0.5692334175,-2.060150146
691,1.55965385849e+18,-1.802984238,-0.1759209633,-1.14990139
692,1.55965385855e+18,0.7656247616,1.530249596,3.244666576
693,1.55965385861e+18,-2.103582382,0.385491848,4.044435024
694,1.55965385867e+18,-3.908583403,-1.078261852,3.124433517
695,1.55965385873e+18,-3.09356761,0.9160490036,2.321772575
696,1.55965385879e+18,-1.271142006,0.9331674576,1.566301823
697,1.55965385885e+18,-1.467225552,0.071808815,0.1439762115
698,1.55965385891e+18,-0.9075884819,0.1969642639,-1.211221695
699,1.55965385897e+18,-0.3751235008,-0.2748260498,-1.424556732
700,1.55965385903e+18,-0.1203551292,-0.6820497513,-1.547847271
701,1.55965385909e+18,0.1487674713,-0.6146783829,-2.04344368
702,1.55965385915e+18,0.4344439507,-0.5853004456,-1.581686974
703,1.55965385921e+18,0.828690052,-0.3150939941,-1.609026432
704,1.55965385927e+18,1.092730999,-0.2703528404,-0.9456205368
705,1.55965385933e+18,0.6821532249,-0.1711492538,-0.6341338158
706,1.55965385939e+18,0.4104475975,-0.1847805977,-0.1621441841
707,1.55965385945e+18,0.04048490524,-0.06847476959,0.07746553421
708,1.55965385951e+18,0.01257038116,0.1331830025,0.2317357063
709,1.55965385957e+18,-0.3655824661,0.0996260643,0.1625442505
710,1.55965385963e+18,-0.6141695976,0.1098866463,0.1194725037
711,1.55965385969e+18,-0.4955878258,0.2770338058,0.1075949669
712,1.55965385975e+18,-0.7028608322,0.330532074,-0.05997943878
713,1.55965385981e+18,-0.5811715126,0.3958296776,-0.2881250381
714,1.55965385987e+18,-0.1928987503,0.1103515625,-0.2325577736
715,1.55965385993e+18,0.02133560181,0.07221317291,-0.4202170372
716,1.55965385999e+18,-0.06602144241,-0.2164092064,-0.1763176918
717,1.55965386005e+18,0.006542682648,-0.4490017891,0.115032196
718,1.55965386011e+18,-0.4984488487,-0.6230483055,0.3714609146
719,1.55965386017e+18,-2.694674492,-1.177985668,0.9962654114
720,1.55965386023e+18,-4.025615215,-0.7416944504,5.745131493
721,1.55965386029e+18,-2.890301228,-0.7490334511,6.983565807
722,1.55965386035e+18,0.3964662552,0.9169707298,3.475785732
723,1.55965386041e+18,1.619098186,-0.4163842201,-0.5595340729
724,1.55965386047e+18,0.6423764229,-1.993174076,-1.934781075
725,1.55965386053e+18,-0.8313031197,-3.991204262,-3.429168224
726,1.55965386059e+18,-1.428305626,-7.063536644,-4.218289375
727,1.55965386065e+18,-0.3929853439,-8.877318382,-5.502233505
728,1.55965386071e+18,-22.63506699,-33.9915657,10.27565098
729,1.55965386077e+18,1.285980225,8.604077339,-4.314892769
730,1.55965386083e+18,6.795350075,6.565896034,-0.1280660629
731,1.55965386089e+18,2.617501259,3.355061054,2.418850899
732,1.55965386095e+18,-8.294243813,-1.711275816,7.691794395
733,1.55965386101e+18,-9.408878326,1.400060296,5.87550211
734,1.55965386107e+18,1.141053677,1.029381156,3.207501888
735,1.55965386113e+18,0.989066124,1.103691816,-3.815472126
736,1.55965386119e+18,2.665432453,1.06245327,-4.873150349
737,1.55965386125e+18,4.686469078,4.816656113,-2.979861736
738,1.55965386131e+18,18.15468216,18.67726898,-7.569002151
739,1.55965386137e+18,15.01373863,17.74003601,-5.501758099
740,1.55965386143e+18,-11.1390419,-16.36972427,26.10606384
741,1.55965386149e+18,-3.395130157,-29.90521622,0.7069597244
742,1.55965386155e+18,-4.328184128,-10.90712357,-8.882683754
743,1.55965386161e+18,8.906101227,-2.195391178,-7.094659805
744,1.55965386167e+18,2.620500565,1.874745369,-6.662801743
745,1.55965386173e+18,2.490045309,3.644204617,-7.018080235
746,1.55965386179e+18,2.831447601,0.8559703827,-6.66290617
747,1.55965386185e+18,2.395297527,-1.196946621,-3.569118977
748,1.55965386191e+18,2.65009284,-5.306032181,-3.712794304
749,1.55965386197e+18,-2.870885849,-11.0776329,-0.7390708923
750,1.55965386203e+18,-0.1155436039,-8.324706078,4.31952858
751,1.55965386209e+18,-0.4102173746,-6.895630836,3.415837765
752,1.55965386215e+18,-2.322478771,-3.936346054,3.362683058
753,1.55965386221e+18,-4.684782982,-2.117217064,3.521504402
754,1.55965386227e+18,-2.87416482,-0.844537735,3.577998161
755,1.55965386233e+18,-1.703895569,-0.6528301239,3.462509155
756,1.55965386239e+18,-2.290739775,-0.4105262756,1.771726966
757,1.55965386245e+18,-1.928288817,-0.8161230087,0.8988046646
758,1.55965386251e+18,-1.590115309,-2.058209419,0.4598751068
759,1.55965386257e+18,-0.7342106104,-3.29914856,-0.5054953098
760,1.55965386263e+18,0.5018573999,-3.333299637,-0.3926792145
761,1.55965386269e+18,0.8518812656,-2.447413445,-1.985153675
762,1.55965386275e+18,1.16560173,-1.960627079,-1.151591301
763,1.55965386281e+18,2.581104994,-0.7722892761,-1.906078339
764,1.55965386287e+18,1.827660799,-0.2743167877,-1.606684685
765,1.55965386293e+18,1.655913591,0.01768922806,-0.5480098724
766,1.55965386299e+18,0.6848373413,0.8983597755,0.2051568031
767,1.55965386305e+18,-1.345522881,1.206795692,0.6757125854
768,1.55965386311e+18,-1.070893764,1.56657207,1.726063251
769,1.55965386317e+18,-0.2807393074,1.786439538,1.643925667
770,1.55965386323e+18,0.06594371796,2.439297199,0.4197478294
771,1.55965386329e+18,1.458837509,3.31578207,-0.5098829269
772,1.55965386335e+18,2.315471411,2.786166668,-2.28292942
773,1.55965386341e+18,0.001072406769,0.6870846748,-3.021778584
774,1.55965386347e+18,3.291757822,-0.03901958466,-5.290333748
775,1.55965386353e+18,1.299147129,-3.404959202,-2.521722317
776,1.55965386359e+18,2.890155792,-3.979003191,-4.574930191
777,1.55965386365e+18,2.387966156,-5.764295101,-6.399657726
778,1.55965386371e+18,10.05743694,-2.272415638,-0.08041763306
779,1.55965386377e+18,0.5596280098,-3.571486473,4.703895092
780,1.55965386383e+18,-9.125190735,-2.72779417,3.076830626
781,1.55965386389e+18,-5.834774971,-1.122483253,4.301244259
782,1.55965386395e+18,-7.551142693,-1.462560654,5.680009842
783,1.55965386401e+18,-5.246723175,-1.016909122,5.448384285
784,1.55965386407e+18,-4.119367123,0.1010546684,3.008444309
785,1.55965386413e+18,3.818902969,0.2253985405,2.322313786
786,1.55965386419e+18,-1.334115505,0.2484402657,-1.977541447
787,1.55965386425e+18,2.775111675,2.034687996,-5.023026466
788,1.55965386431e+18,5.281681538,4.333999157,-4.739408493
789,1.55965386437e+18,10.56737232,10.37528896,-4.966061592
790,1.55965386443e+18,14.41001701,23.65321159,-10.15416336
791,1.55965386449e+18,9.862949371,4.280740738,10.1806612
792,1.55965386455e+18,1.476884604,-30.94303131,-25.64713287
793,1.55965386461e+18,-22.73697662,-7.786561012,-6.821895599
794,1.55965386467e+18,10.02653122,-6.661561012,-6.004361153
795,1.55965386473e+18,3.930932999,0.3941233158,-5.072698593
796,1.55965386479e+18,4.783934116,5.493082047,-5.017668724
797,1.55965386485e+18,3.776117802,4.982351303,-4.215187073
798,1.55965386491e+18,4.027320862,3.984705687,-3.43375349
799,1.55965386497e+18,2.507012129,1.071444392,-4.27008152
800,1.55965386503e+18,-1.99516058,-2.702021122,-2.501729488
801,1.55965386509e+18,-3.657099247,-3.947521448,-3.971886158
802,1.55965386515e+18,-0.5162973404,-5.926591873,1.453179359
803,1.55965386521e+18,-1.540009975,-4.156817436,1.240022182
804,1.55965386527e+18,-1.348521948,-3.697383881,1.131123543
805,1.55965386533e+18,-2.863840103,-3.146252632,0.9111349583
806,1.55965386539e+18,-3.631407738,-2.66317749,1.756307602
807,1.55965386545e+18,-1.657184839,-1.462164879,2.200785875
808,1.55965386551e+18,-0.7913870811,-0.5319757462,1.872020483
809,1.55965386556e+18,-0.7162429094,-0.2197208405,1.696591854
810,1.55965386562e+18,-0.6205966473,-0.1377277374,0.9108247757
811,1.55965386568e+18,-0.2192069292,-0.451002121,-0.02152252197
812,1.55965386574e+18,0.04919165373,-0.9590148926,-0.8000302315
813,1.5596538658e+18,-0.1149660349,-1.436655045,-0.8183944225
814,1.55965386586e+18,-0.4936034679,-2.05993557,-1.067416906
815,1.55965386592e+18,-0.8263089657,-2.494068146,-0.5814189911
816,1.55965386598e+18,-0.2451221943,-1.699346542,-0.2447915077
817,1.55965386604e+18,0.5174956322,-0.3322854042,-0.7569417953
818,1.5596538661e+18,0.5466833115,0.149081707,-0.4895586967
819,1.55965386616e+18,0.9413533211,0.6807575226,-0.5517220497
820,1.55965386622e+18,0.2834358215,0.4010486603,-0.2953219414
821,1.55965386628e+18,0.5966796875,-0.1096544266,0.8284044266
822,1.55965386634e+18,0.9985079765,-1.007938623,2.206782818
823,1.5596538664e+18,0.3130488396,0.5217130184,4.671569347
824,1.55965386646e+18,-0.5805630684,0.251838088,2.455123901
825,1.55965386652e+18,1.105390072,1.726491332,-0.8024997711
826,1.55965386658e+18,1.476164341,0.02684640884,-4.071917534
827,1.55965386664e+18,3.309348822,-2.183114767,-5.48153019
828,1.5596538667e+18,4.674619675,-4.888203621,-6.600744247
829,1.55965386676e+18,3.605113029,-7.490765095,-5.783978939
830,1.55965386682e+18,-3.329642296,-46.05691147,58.68735123
831,1.55965386688e+18,-19.04097748,12.95217991,-4.501094341
832,1.55965386694e+18,-2.963933945,-1.261807203,-1.601964235
833,1.559653867e+18,-6.444048405,0.4940199852,-3.945438147
834,1.55965386706e+18,-9.758625984,1.402205467,-2.902196646
835,1.55965386712e+18,-5.094842911,3.231425762,2.674918413
836,1.55965386718e+18,-8.565764427,2.317069054,1.76486659
837,1.55965386724e+18,-4.915550232,0.5416970253,4.900528908
838,1.5596538673e+18,-3.603203297,-0.7997293472,3.474857569
839,1.55965386736e+18,-3.480669022,-1.681162357,0.05818152428
840,1.55965386742e+18,1.24108839,-1.533811092,-0.2142829895
841,1.55965386748e+18,-0.8954515457,-1.16309154,-2.6884408
842,1.55965386754e+18,-0.2070612907,-1.304705858,-1.400476456
843,1.5596538676e+18,5.468643188,-2.576350927,-2.384172916
844,1.55965386766e+18,3.373905182,0.9306221008,-0.4724340439
845,1.55965386772e+18,7.744254112,2.847610712,-0.8516159058
846,1.55965386778e+18,10.76489925,7.008972168,-3.958216667
847,1.55965386784e+18,14.50407696,14.99205399,-5.459964752
848,1.5596538679e+18,2.917911291,2.192765951,7.402145386
849,1.55965386796e+18,-24.49931526,-5.24461174,-24.39505768
850,1.55965386802e+18,-9.197141647,-18.54774666,-11.59602261
851,1.55965386808e+18,-6.544448853,-4.817418575,-7.976417542
852,1.55965386814e+18,8.173368454,-0.7913944721,-6.90332222
853,1.5596538682e+18,6.383657455,3.400125027,-5.167710304
854,1.55965386826e+18,6.782126427,5.800400734,-2.782349586
855,1.55965386832e+18,3.36924839,2.587919235,-0.8304796219
856,1.55965386838e+18,-0.1254045963,0.3853502274,-0.4972963333
857,1.55965386844e+18,-2.667488575,-0.1072407067,-0.05810165405
858,1.5596538685e+18,-3.314041138,-0.4220494032,0.5096263885
859,1.55965386856e+18,-3.064753532,-0.03694319725,0.5604219437
860,1.55965386862e+18,-1.562048435,1.411382198,0.4891815186
861,1.55965386868e+18,-1.502484798,1.636626482,0.5739617348
862,1.55965386874e+18,-2.639931202,0.8188583851,1.856252193
863,1.5596538688e+18,-0.8395323753,0.3466815948,2.468326092
864,1.55965386886e+18,0.6676845551,0.4273967743,1.589220047
865,1.55965386892e+18,0.5863089561,-0.2423295975,1.280392647
866,1.55965386898e+18,0.2442598343,-0.4450283051,0.4637746811
867,1.55965386904e+18,0.4439377785,-0.1506433487,-0.27429533
868,1.5596538691e+18,0.519017458,-0.07976055145,-0.5180139542
869,1.55965386916e+18,-0.00657916069,-0.5191354752,-0.3803434372
870,1.55965386922e+18,0.06133532524,-0.3839001656,-0.6019582748
871,1.55965386928e+18,0.373560667,-0.1340193748,-0.5594034195
872,1.55965386934e+18,0.2263650894,-0.1062345505,-0.2691345215
873,1.5596538694e+18,0.02402591705,-0.2190275192,0.085709095
874,1.55965386946e+18,0.2699816227,-0.05469322205,0.1772551537
875,1.55965386952e+18,-0.2065215111,-0.2084126472,0.4069805145
876,1.55965386958e+18,-1.176855087,0.1688313484,-0.2367787361
877,1.55965386964e+18,-0.7420601845,1.462086678,-0.07138299942
878,1.5596538697e+18,0.1097521782,0.185172081,1.122672081
879,1.55965386976e+18,1.051898003,-0.1404254436,-1.022584438
880,1.55965386982e+18,0.6521959305,-0.9798181057,-2.355751991
881,1.55965386988e+18,0.8972125053,-0.3000049591,-2.016447544
882,1.55965386994e+18,-0.1404209137,1.429899216,-2.701887608
883,1.55965387e+18,11.03842831,2.197882652,6.285941124
884,1.55965387006e+18,-3.319847584,-8.287569046,6.766077995
885,1.55965387012e+18,-8.413360596,-4.292405605,7.001957417
886,1.55965387018e+18,-4.099881172,-1.821749449,1.118329525
887,1.55965387024e+18,-0.7564082146,-3.766176224,-4.428442955
888,1.5596538703e+18,-3.251366615,-5.667356014,-8.810009956
889,1.55965387036e+18,4.428173065,-0.7296222448,-11.90180016
890,1.55965387042e+18,11.44558525,-0.2595143318,-6.47946167
891,1.55965387048e+18,1.938585281,11.06350327,-3.542815208
892,1.55965387054e+18,6.087553024,-1.473495841,-1.992416143
893,1.5596538706e+18,-8.34034729,-0.7339792252,1.108345747
894,1.55965387066e+18,-1.891788483,4.899081707,-1.89405787
895,1.55965387072e+18,-5.318747997,1.748150349,0.4592812061
896,1.55965387078e+18,-8.106501579,0.3472700119,7.19305706
897,1.55965387084e+18,-7.554149628,-0.9503769875,8.141778946
898,1.5596538709e+18,-6.02810955,-2.224131823,6.520204067
899,1.55965387096e+18,1.746147633,-1.486773729,1.397858143
900,1.55965387102e+18,4.713675022,-1.73869276,-2.88766098
901,1.55965387108e+18,6.098492146,-1.423003912,-5.410079002
902,1.55965387114e+18,6.6888237,0.003171920776,-8.621217728
903,1.5596538712e+18,7.392127514,-0.2189230919,-12.51045513
904,1.55965387126e+18,6.051092148,-3.140167952,-12.49022484
905,1.55965387132e+18,0.6478500962,-8.730524063,10.64940357
906,1.55965387137e+18,-11.61497784,-7.838739395,-27.47041702
907,1.55965387143e+18,-7.887449265,-13.06623554,4.976608276
908,1.55965387149e+18,0.3765752912,-1.431373119,-1.157766342
909,1.55965387155e+18,2.285447359,1.344332218,-2.033635616
910,1.55965387161e+18,2.228854895,1.14556551,1.552834511
911,1.55965387167e+18,-0.8439087868,0.2411122322,3.711399078
912,1.55965387173e+18,-2.226025105,-2.029943466,4.273873806
913,1.55965387179e+18,-1.185835838,0.295050621,2.750499249
914,1.55965387185e+18,-0.3977694511,1.806954145,0.1499853134
915,1.55965387191e+18,-2.685797215,-0.2343783379,-0.1017956734
916,1.55965387197e+18,-1.195513725,-0.7694430351,-0.986366272
917,1.55965387203e+18,0.9675111771,-1.071584702,-1.320561886
918,1.55965387209e+18,0.9308328629,-2.143199921,-0.7362203598
919,1.55965387215e+18,0.9627232552,-1.830721378,-1.588498592
920,1.55965387221e+18,1.722416401,-1.578328133,-1.115371704
921,1.55965387227e+18,2.679522991,-0.6320486069,-1.042777061
922,1.55965387233e+18,1.760851383,-1.276258469,0.6484355927
923,1.55965387239e+18,2.109507322,-1.569005013,2.616996765
924,1.55965387245e+18,2.400268078,-1.179014683,-2.995274544
925,1.55965387251e+18,-1.939191341,-1.351836205,-3.074811935
926,1.55965387257e+18,1.624735832,-0.7495794296,-0.3213210106
927,1.55965387263e+18,-5.948973656,0.429224968,-6.500767708
928,1.55965387269e+18,-1.280405998,0.5735673904,-6.434388161
929,1.55965387275e+18,3.056775093,2.57217598,-6.378550529
930,1.55965387281e+18,4.486097336,2.208622932,-4.883468151
931,1.55965387287e+18,1.550538063,-0.6950144768,0.0117688179
932,1.55965387293e+18,-0.9026684761,-1.571405888,4.485116959
933,1.55965387299e+18,-1.729019165,0.3652415276,2.906210423
934,1.55965387305e+18,-2.833225727,0.949655056,2.495705366
935,1.55965387311e+18,-1.546751976,-0.2135548592,3.58218503
936,1.55965387317e+18,0.3894367218,-1.216124058,3.147713661
937,1.55965387323e+18,0.2457518578,-0.8060998917,3.912008762
938,1.55965387329e+18,-2.816911221,-0.1243083477,1.618765831
939,1.55965387335e+18,-0.5880861282,2.939577818,-0.9041256905
940,1.55965387341e+18,3.078477383,3.905720949,-2.368438244
941,1.55965387347e+18,3.144878864,2.262476206,-2.867812395
942,1.55965387353e+18,4.626151085,-1.296049595,-3.351264477
943,1.55965387359e+18,8.851099014,-1.609089017,-4.076751709
944,1.55965387365e+18,8.929190636,-4.471365452,-6.662650585
945,1.55965387371e+18,1.220643997,-11.75595093,-3.29367137
946,1.55965387377e+18,-5.283567905,-18.73012543,10.08127975
947,1.55965387383e+18,4.693135262,-9.33973217,4.383012295
948,1.55965387389e+18,0.2009415627,-6.227993011,2.314218044
949,1.55965387395e+18,-3.270572662,-8.326206207,2.27717948
950,1.55965387401e+18,-8.087648392,-5.76110363,5.063973904
951,1.55965387407e+18,-6.240860462,-2.917187691,6.274622917
952,1.55965387413e+18,-7.601528645,-1.052053452,6.304944515
953,1.55965387419e+18,-3.78284502,-2.135779381,2.694363356
954,1.55965387425e+18,-4.563536167,-4.647992611,2.39820075
955,1.55965387431e+18,-4.695976734,-5.209689617,0.7772705555
956,1.55965387437e+18,0.06917953491,-4.344690323,-1.557795048
957,1.55965387443e+18,2.259576321,-3.098547697,-2.997826338
958,1.55965387449e+18,1.833681583,-1.674977899,-7.892797947
959,1.55965387455e+18,7.178180695,-0.9672281742,-8.055181503
960,1.55965387461e+18,4.783703804,-1.72643733,-4.925552368
961,1.55965387467e+18,9.09528923,1.607387543,-7.870769024
962,1.55965387473e+18,9.962682724,3.437175751,-11.75030136
963,1.55965387479e+18,6.445946693,-1.773411512,-9.183987617
964,1.55965387485e+18,-3.603675604,-9.017273903,9.816282272
965,1.55965387491e+18,-7.915225029,-7.821343899,-28.64030457
966,1.55965387497e+18,-1.657371044,-12.79211044,-3.854932785
967,1.55965387503e+18,-5.056233406,-1.534027576,0.6258993149
968,1.55965387509e+18,0.2753574848,-0.1225318909,-0.9700965881
969,1.55965387515e+18,0.1763088703,-1.071753025,2.993892193
970,1.55965387521e+18,-2.129458427,-2.020329952,5.76576519
971,1.55965387527e+18,-3.96820116,-1.374088764,3.872648239
972,1.55965387533e+18,-3.410019159,0.9911170006,3.085528851
973,1.55965387539e+18,-1.880812168,2.006032944,1.767252445
974,1.55965387545e+18,-1.546322346,1.195872307,0.4473733902
975,1.55965387551e+18,-1.335670948,0.2952108383,-0.5700426102
976,1.55965387557e+18,-0.1119599342,0.1001944542,-0.6628575325
977,1.55965387563e+18,0.6400980949,-0.08259391785,-0.8696203232
978,1.55965387569e+18,0.6692137718,-0.6303653717,-1.380546093
979,1.55965387575e+18,0.3424806595,-1.238889217,-1.230876923
980,1.55965387581e+18,1.201313019,-0.8294625282,-1.184407711
981,1.55965387587e+18,2.230609894,-0.3224434853,-0.7413506508
982,1.55965387593e+18,1.787288904,-0.1803355217,-0.5315680504
983,1.55965387599e+18,0.7606086731,-0.3035879135,-0.5589251518
984,1.55965387605e+18,0.5272622108,-0.4748067856,-0.1182518005
985,1.55965387611e+18,0.253692627,-0.1729593277,0.5079073906
986,1.55965387617e+18,-0.3621482849,0.1031236649,0.7188925743
987,1.55965387623e+18,-0.9712016582,0.08789300919,0.3198523521
988,1.55965387629e+18,-0.6306381226,0.4887294769,-0.2741875648
989,1.55965387635e+18,-0.709944725,0.7432227135,0.05895519257
990,1.55965387641e+18,-1.464114904,0.9460673332,0.6337141991
991,1.55965387647e+18,-1.671414852,0.389523983,0.3085279465
992,1.55965387653e+18,-0.1891846657,-0.04787683487,-0.06713962555
993,1.55965387659e+18,-0.5126523972,-0.2677268982,0.6861147881
994,1.55965387665e+18,-0.5092482567,-0.4438257217,0.403447628
995,1.55965387671e+18,-0.3573560715,-1.006262302,-0.1217556
996,1.55965387677e+18,0.3794136047,-0.3908658028,-0.3103632927
997,1.55965387683e+18,0.7573513985,-0.5343718529,-0.772028923
998,1.55965387689e+18,1.269473076,-0.326315403,-1.279168844
999,1.55965387695e+18,-1.212176323,-0.5210695267,-1.277656555
1000,1.55965387701e+18,-4.847756386,0.2501521111,-0.1490807533
1001,1.55965387707e+18,-4.273834705,0.07052850723,3.139289379
1002,1.55965387713e+18,-1.902330875,0.6275782585,1.422487736
1003,1.55965387719e+18,1.8183918,1.61923933,0.1856322289
1004,1.55965387725e+18,6.488444805,3.731322765,-4.31809473
1005,1.55965387731e+18,5.032149315,0.693903327,-6.80602932
1006,1.55965387737e+18,-3.470281601,-7.746329784,-4.39561367
1007,1.55965387743e+18,0.04109668732,-17.48252678,8.293619156
1008,1.55965387749e+18,6.773850441,0.7956798077,3.521322966
1009,1.55965387755e+18,9.747346878,2.526011229,4.838380337
1010,1.55965387761e+18,2.792582035,0.6062053442,2.79731226
1011,1.55965387767e+18,1.191082478,-0.4414722919,-1.454715252
1012,1.55965387773e+18,-3.518120766,-1.149149418,-1.504414558
1013,1.55965387779e+18,-0.6838636398,-2.43382597,-1.608469486
1014,1.55965387785e+18,-4.938420296,-1.173489809,-1.231456995
1015,1.55965387791e+18,-3.443733215,1.018709064,-0.7618932724
1016,1.55965387797e+18,-1.34070015,1.127187729,-0.2071528435
1017,1.55965387803e+18,-0.4707641602,0.8195362091,-2.681805611
1018,1.55965387809e+18,1.176234722,0.09446501732,-2.606498241
1019,1.55965387815e+18,3.98825407,1.69807291,-1.316474438
1020,1.55965387821e+18,5.94715023,4.3942132,-1.674863815
1021,1.55965387827e+18,14.49838734,10.76680946,-3.690847874
1022,1.55965387833e+18,11.72977066,16.79183769,-7.377448082
1023,1.55965387839e+18,-2.086429834,-4.448358536,12.05618382
1024,1.55965387845e+18,-9.679978371,-14.86920738,-22.76100922
1025,1.55965387851e+18,-7.876317501,-12.13929081,-8.531086922
1026,1.55965387857e+18,-2.833482742,-5.224214077,-6.065101624
1027,1.55965387862e+18,4.364092827,-4.427721977,-8.260054588
1028,1.55965387868e+18,4.638876915,0.9574370384,-6.189135551
1029,1.55965387874e+18,5.35392952,4.317668438,-7.067907333
1030,1.5596538788e+18,4.572041512,2.487441063,-8.455540657
1031,1.55965387886e+18,3.352435827,-2.141473055,-5.787859917
1032,1.55965387892e+18,-3.231282711,-7.929747105,-2.032205582
1033,1.55965387898e+18,-0.510979712,-9.066381454,-1.860097408
1034,1.55965387904e+18,3.043533087,-10.82309723,2.987100124
1035,1.5596538791e+18,-1.126194477,-10.59685802,2.654840231
1036,1.55965387916e+18,-6.927220821,-5.652804375,2.162273407
1037,1.55965387922e+18,-3.018664598,-1.218307495,2.612759113
1038,1.55965387928e+18,2.533428907,-0.2222108841,8.38703537
1039,1.55965387934e+18,1.527186751,-0.4986543655,5.889310837
1040,1.5596538794e+18,-1.903712511,-1.46257782,-1.399171114
1041,1.55965387946e+18,-1.550794125,-2.017683029,-4.743549347
1042,1.55965387952e+18,0.02948951721,-1.604701519,0.3247237206
1043,1.55965387958e+18,1.684707642,0.7092957497,-3.326235771
1044,1.55965387964e+18,2.182354927,-1.155025482,-3.983253479
1045,1.5596538797e+18,4.677012444,-2.372086048,-2.531924009
1046,1.55965387976e+18,3.235633612,0.02121973038,-1.128396988
1047,1.55965387982e+18,0.6462788582,0.9710254669,-0.1399290562
1048,1.55965387988e+18,-1.175659657,1.768851757,0.263232708
1049,1.55965387994e+18,-2.469698429,1.53198576,1.497199059
1050,1.55965388e+18,-4.003407955,1.623875141,3.50569725
1051,1.55965388006e+18,-4.134371281,0.03087854385,3.117158175
1052,1.55965388012e+18,-2.419051647,-0.05665493011,4.502947807
1053,1.55965388018e+18,-6.299356461,-0.9949150085,2.899454117
1054,1.55965388024e+18,-4.023922443,0.3261938095,3.804216862
1055,1.5596538803e+18,-4.101751328,-0.6188249588,0.5249266624
1056,1.55965388036e+18,2.229277134,0.6286790967,-2.718779564
1057,1.55965388042e+18,3.395824909,-0.9849871397,-5.069875717
1058,1.55965388048e+18,9.635882378,-5.539153099,-3.342282772
1059,1.55965388054e+18,2.988040924,-13.87761307,-7.289291859
1060,1.5596538806e+18,0.3101444244,-9.10532093,-5.87301445
1061,1.55965388066e+18,7.96241045,16.37216759,-0.1712551117
1062,1.55965388072e+18,6.205454826,2.740868568,0.5316638947
1063,1.55965388078e+18,1.621573448,3.659145594,3.95078373
1064,1.55965388084e+18,-5.047641277,-1.44988203,5.632660389
1065,1.5596538809e+18,-11.54444695,-2.429552078,1.012418032
1066,1.55965388096e+18,-7.670194149,-3.47487402,5.703138351
1067,1.55965388102e+18,-9.445082664,-0.4919056892,3.742379189
1068,1.55965388108e+18,1.606927872,-1.646126747,7.088854313
1069,1.55965388114e+18,-4.45294857,-1.204357624,3.434104204
1070,1.5596538812e+18,-1.805077076,-1.050709009,0.9291372299
1071,1.55965388126e+18,0.9693551064,1.006761074,-3.7903018
1072,1.55965388132e+18,3.908861637,1.162109375,-5.938313484
1073,1.55965388138e+18,3.779864311,3.162597895,-7.539424419
1074,1.55965388144e+18,11.51916122,15.61953354,-8.320669174
1075,1.5596538815e+18,11.23458481,12.43070126,-4.838929176
1076,1.55965388156e+18,1.202623367,-10.02241802,18.56245422
1077,1.55965388162e+18,15.45092583,-58.9594574,-2.880733967
1078,1.55965388168e+18,-12.33775234,-6.540165901,-11.58150196
1079,1.55965388174e+18,2.250385284,-7.298654556,-6.54579258
1080,1.5596538818e+18,5.758011818,-2.201641083,-9.912073135
1081,1.55965388186e+18,3.678446054,5.033367157,-8.407884598
1082,1.55965388192e+18,3.378108025,2.610150576,-8.315738678
1083,1.55965388198e+18,3.271475315,-2.328960419,-5.347968102
1084,1.55965388204e+18,-0.7668600082,-5.084662437,0.03650474548
1085,1.5596538821e+18,-2.553812981,-13.89891434,2.364986897
1086,1.55965388216e+18,-1.415612459,-10.28001499,6.7157197
1087,1.55965388222e+18,-3.101533413,-7.957034111,6.521359444
1088,1.55965388228e+18,-4.800246239,-3.156093597,5.278604507
1089,1.55965388234e+18,-4.190628529,-0.8246126175,3.981292486
1090,1.5596538824e+18,-1.61902523,0.2915611267,3.032101631
1091,1.55965388246e+18,0.01696532965,0.4134569168,3.800907612
1092,1.55965388252e+18,-0.8625476956,0.4003648758,3.768096447
1093,1.55965388258e+18,-0.9299862981,-0.2174892426,1.053600311
1094,1.55965388264e+18,-0.8267222643,-1.524759293,-0.7126226425
1095,1.5596538827e+18,-0.2766762972,-1.005204201,-1.073163986
1096,1.55965388276e+18,0.4621444941,-0.8644189835,-0.2226777077
1097,1.55965388282e+18,0.7433291674,-0.9746370316,-0.6279051304
1098,1.55965388288e+18,0.09989500046,-1.058197021,-0.8827755451
1099,1.55965388294e+18,-0.2908406258,-1.024575233,0.009930610657
1100,1.559653883e+18,-0.4065155983,-0.4837737083,0.5349507332
1101,1.55965388306e+18,-1.16855526,0.3364782333,1.477844715
1102,1.55965388312e+18,-1.743648529,0.6270751953,1.431895256
1103,1.55965388318e+18,-1.222600937,1.131008148,4.049196243
1104,1.55965388324e+18,-0.3060793877,1.330672979,1.999846935
1105,1.5596538833e+18,-0.4375238419,0.9763400555,1.204638004
1106,1.55965388336e+18,-0.3412513733,-0.1694558859,-0.1719880104
1107,1.55965388342e+18,-1.039568901,-2.307215452,-2.343793392
1108,1.55965388348e+18,1.443261623,-2.715554714,-2.779021263
1109,1.55965388354e+18,2.0841856,-4.239561558,-6.62143898
1110,1.5596538836e+18,3.373894691,-6.020086765,-5.288489342
1111,1.55965388366e+18,15.49985695,-1.750788927,12.09713078
1112,1.55965388372e+18,8.514421463,4.288157463,-1.786240101
1113,1.55965388378e+18,5.120772362,7.826961517,4.494575977
1114,1.55965388384e+18,-4.67744875,2.448948383,9.1823349
1115,1.5596538839e+18,-9.928608894,0.282143116,9.099012375
1116,1.55965388396e+18,-4.776805401,0.5005831718,8.28275013
1117,1.55965388402e+18,-0.01438856125,2.430707216,2.232850552
1118,1.55965388408e+18,2.313140869,2.213017464,-2.492350578
1119,1.55965388414e+18,2.436446667,1.314620018,-6.234169006
1120,1.5596538842e+18,2.414494991,2.166383266,-7.427841187
1121,1.55965388426e+18,3.064854383,0.9775795937,-7.189025879
1122,1.55965388432e+18,4.959060669,1.382135868,-12.3714695
1123,1.55965388438e+18,4.348599911,-2.616853714,-13.45756531
1124,1.55965388444e+18,-1.849219203,-14.71189022,17.87815094
1125,1.5596538845e+18,-6.382908821,-3.28618288,-21.49328995
1126,1.55965388456e+18,-4.345404148,-3.851889133,4.68351078
1127,1.55965388462e+18,0.1285925955,0.2905302644,-4.683438778
1128,1.55965388468e+18,0.2062343359,0.7936172485,-4.379870892
1129,1.55965388474e+18,-0.3276604414,-0.4874880314,0.4685707092
1130,1.5596538848e+18,-2.159758568,-2.481498241,3.4445858
1131,1.55965388486e+18,-3.290569305,-1.745592117,2.601861477
1132,1.55965388492e+18,-2.100520134,-1.323299408,3.524069786
1133,1.55965388498e+18,-0.02261912823,-0.00838470459,3.343687057
1134,1.55965388504e+18,-0.4228556156,1.224814415,0.5355644226
1135,1.5596538851e+18,-1.668330193,-0.2340989113,0.1594061852
1136,1.55965388516e+18,-0.6224913597,-0.9535179138,-0.2409496307
1137,1.55965388522e+18,1.175329447,-1.606852531,-0.6248660088
1138,1.55965388528e+18,0.9015908241,-2.260776997,-1.381977081
1139,1.55965388534e+18,0.4732074142,-0.7820739746,-2.982129574
1140,1.5596538854e+18,-0.3156337738,-0.9371314049,-2.270326138
1141,1.55965388546e+18,-0.159683466,0.04898548126,-2.352919102
1142,1.55965388552e+18,-0.1209138632,-0.07689189911,-1.678460121
1143,1.55965388558e+18,0.05172592402,-0.4600067139,-1.12124157
1144,1.55965388564e+18,-0.7826715708,-0.4545412064,-0.4263029099
1145,1.5596538857e+18,-1.198474646,0.04379558563,-0.3980841637
1146,1.55965388576e+18,-0.8603052497,0.3834257126,0.1806759834
1147,1.55965388582e+18,-0.8363285065,0.2469444275,1.059730053
1148,1.55965388587e+18,-0.8303434253,-0.04983901978,1.485928535
1149,1.55965388593e+18,1.395226479,0.2695035934,2.175859451
1150,1.55965388599e+18,0.9210805893,0.2966566086,1.408155441
1151,1.55965388605e+18,-0.09639370441,0.2563810349,0.2980947495
1152,1.55965388611e+18,-0.1167978048,-0.1159353256,0.3490657806
1153,1.55965388617e+18,-0.1568274498,0.09209346771,0.01987123489
1154,1.55965388623e+18,-1.131484985,-0.1860141754,0.01842403412
1155,1.55965388629e+18,-0.9434435368,-0.5284318924,-0.2254729271
1156,1.55965388635e+18,-0.9675037861,-0.7269616127,-0.4013328552
1157,1.55965388641e+18,-0.9156742096,-0.7488379478,-0.6709008217
1158,1.55965388647e+18,-0.3255357742,-0.4552760124,-1.126257896
1159,1.55965388653e+18,0.627695322,-0.5570325851,-1.382507801
1160,1.55965388659e+18,1.121402025,-1.016005993,-1.340406418
1161,1.55965388665e+18,0.1541986465,-0.6965093613,-1.449169159
1162,1.55965388671e+18,-1.502772808,-0.9422507286,0.613697052
1163,1.55965388677e+18,-1.28360033,1.299536228,1.273173809
1164,1.55965388683e+18,-4.99042654,-0.9818015099,3.282812119
1165,1.55965388689e+18,-1.85316515,1.289927006,2.002530098
1166,1.55965388695e+18,1.879178524,1.89770031,-1.236992836
1167,1.55965388701e+18,4.073415756,0.2204382718,-3.161190987
1168,1.55965388707e+18,3.069419861,-2.277695656,-4.939589024
1169,1.55965388713e+18,0.5615887642,-7.344790459,-3.989905596
1170,1.55965388719e+18,6.480717182,-4.679151535,4.109742641
1171,1.55965388725e+18,-2.276401997,7.31678772,6.716462612
1172,1.55965388731e+18,-0.4128055573,4.086698532,8.981181145
1173,1.55965388737e+18,-0.1826653481,2.016819477,2.53448391
1174,1.55965388743e+18,1.893172264,2.035782337,-3.289596081
1175,1.55965388749e+18,3.378358841,1.494777441,-6.121655464
1176,1.55965388755e+18,3.663520813,1.059515953,-8.979696274
1177,1.55965388761e+18,5.453841209,1.943237782,-13.3340292
1178,1.55965388767e+18,7.134791851,1.484861374,-15.26788139
1179,1.55965388773e+18,1.704768062,-9.066867828,14.83672619
1180,1.55965388779e+18,14.54066944,-25.67228127,-36.2140007
1181,1.55965388785e+18,-12.48826981,-12.58162403,0.965259552
1182,1.55965388791e+18,-0.7727996111,-1.983454704,-4.612345695
1183,1.55965388797e+18,3.1842103,1.872946143,-1.375685692
1184,1.55965388803e+18,1.133883119,-0.4013695717,0.7587442398
1185,1.55965388809e+18,-2.342844963,-1.65521431,3.663577557
1186,1.55965388815e+18,-3.382858753,-2.263377666,3.850092411
1187,1.55965388821e+18,-1.754994869,0.4616985321,1.046409607
1188,1.55965388827e+18,-1.32577157,0.9256448746,-0.03829145432
1189,1.55965388833e+18,-1.493928909,0.08192253113,-0.8208312988
1190,1.55965388839e+18,-1.334314108,-0.752594471,-1.351637363
1191,1.55965388845e+18,-0.5772745609,-0.6973724365,-1.779264927
1192,1.55965388851e+18,-0.02058959007,-0.9678220749,-1.809585094
1193,1.55965388857e+18,0.2896726131,-0.8947544098,-1.749108315
1194,1.55965388863e+18,1.309698105,-0.6143083572,-1.360227585
1195,1.55965388869e+18,1.292904377,-0.6307859421,-1.291322708
1196,1.55965388875e+18,0.9950065613,-0.5432744026,-1.177278042
1197,1.55965388881e+18,0.900906086,-0.4330973625,-0.7517175674
1198,1.55965388887e+18,1.338034749,0.1387004852,-0.8955025673
1199,1.55965388893e+18,0.8465965986,-0.05780553818,-0.7939047813
1200,1.55965388899e+18,-0.5177893639,-0.3750424385,-0.5189704895
1201,1.55965388905e+18,-0.2540938854,-0.2432851791,-0.2625079155
1202,1.55965388911e+18,-0.7325536013,-0.6283531189,0.3692951202
1203,1.55965388917e+18,-0.880693078,-0.37266922,0.4414305687
1204,1.55965388923e+18,-0.613514781,0.1787786484,0.3230895996
1205,1.55965388929e+18,-1.088594198,0.01248264313,0.5108890533
1206,1.55965388935e+18,-0.9791064262,-0.04981613159,0.1685113907
1207,1.55965388941e+18,-0.352614522,-0.006285667419,0.1132144928
1208,1.55965388947e+18,-0.0001735687256,-0.1598930359,-0.1607198715
1209,1.55965388953e+18,0.008740544319,-0.5304117203,-0.2185907364
1210,1.55965388959e+18,0.1835463047,-0.6348495483,-0.331237793
1211,1.55965388965e+18,0.8469834328,-0.4826097488,-0.5362992287
1212,1.55965388971e+18,0.7590885162,-0.3835201263,-0.2790660858
1213,1.55965388977e+18,-0.5594406128,-0.9703722,0.05421733856
1214,1.55965388983e+18,-2.206258059,-0.849609375,0.01024246216
1215,1.55965388989e+18,-1.045320749,-1.05881834,2.099029541
1216,1.55965388995e+18,-1.083332539,-0.2240710258,2.581750393
1217,1.55965389001e+18,-3.267368317,-0.3068265915,3.666592121
1218,1.55965389007e+18,-4.470822811,-0.260392189,2.924908161
1219,1.55965389013e+18,-1.819220066,0.7228826284,1.754115582
1220,1.55965389019e+18,-2.045428276,0.2808659077,-1.575816154
1221,1.55965389025e+18,1.517306805,-0.8223279715,-4.573673725
1222,1.55965389031e+18,5.105358601,-4.490604877,-10.76510715
1223,1.55965389037e+18,3.199531078,-11.24995232,-9.226873398
1224,1.55965389043e+18,23.01846886,1.599550486,4.501656055
1225,1.55965389049e+18,3.68841815,1.699973702,-3.894793987
1226,1.55965389055e+18,7.931357384,1.362744927,9.492200851
1227,1.55965389061e+18,-6.497813702,-5.042198658,6.442093849
1228,1.55965389067e+18,-9.828619003,-3.114964485,3.468467474
1229,1.55965389073e+18,-7.274549961,-2.090750694,4.602653503
1230,1.55965389079e+18,-4.661214828,-0.3126854897,2.624890804
1231,1.55965389085e+18,-5.912482262,-4.357812881,1.648536682
1232,1.55965389091e+18,1.582443237,0.1257340908,-4.276082039
1233,1.55965389097e+18,4.657181263,3.52882266,-6.266017914
1234,1.55965389103e+18,4.256900787,4.966864586,-4.754032612
1235,1.55965389109e+18,8.398674965,8.031793594,-6.292882919
1236,1.55965389115e+18,9.345724106,15.82453346,-9.79613018
1237,1.55965389121e+18,4.945215225,5.658429146,4.003856659
1238,1.55965389127e+18,-12.69509315,-4.813615322,-26.2100029
1239,1.55965389133e+18,-8.928911209,-16.13571548,-7.900523663
1240,1.55965389139e+18,-8.663537025,-3.918219566,-7.042194366
1241,1.55965389145e+18,5.732042313,-2.623181343,-8.735697746
1242,1.55965389151e+18,3.337686777,1.098806381,-8.545986176
1243,1.55965389157e+18,2.744093895,4.374715805,-7.633445263
1244,1.55965389163e+18,2.528595924,0.8649474382,-7.916676998
1245,1.55965389169e+18,-0.5351011753,-4.572520256,-1.30465889
1246,1.55965389175e+18,-1.488323212,-4.572173595,-2.169295311
1247,1.55965389181e+18,3.084562778,-11.65564537,3.858590603
1248,1.55965389187e+18,1.103490233,-12.71542454,7.369380951
1249,1.55965389193e+18,-2.67898941,-5.655121803,8.290130615
1250,1.55965389199e+18,-3.359366179,-1.975072861,2.060122013
1251,1.55965389205e+18,-0.9557909966,0.7553911209,3.555617809
1252,1.55965389211e+18,-0.05012691021,0.8288526535,6.557611465
1253,1.55965389217e+18,-1.03954494,0.515124321,5.295700073
1254,1.55965389223e+18,-1.725527287,0.2436733246,2.116537571
1255,1.55965389229e+18,-2.321233511,-1.938339233,0.549902916
1256,1.55965389235e+18,-0.4523239732,-2.604216576,-0.5274473429
1257,1.55965389241e+18,0.7310081124,-1.34855175,-1.139500499
1258,1.55965389247e+18,1.162129879,-0.8776721954,-1.714836359
1259,1.55965389253e+18,1.270449519,-0.9816856384,-1.261760712
1260,1.55965389259e+18,1.955682039,-0.9087409973,-1.3136518
1261,1.55965389265e+18,1.229579926,-0.1471748352,-1.164262772
1262,1.55965389271e+18,1.16217804,0.8724865913,-0.6130130291
1263,1.55965389277e+18,0.2006063461,0.9681477547,0.4299983978
1264,1.55965389283e+18,-0.3025856018,1.102406979,0.6818757057
1265,1.55965389289e+18,-0.8308987617,0.7402801514,1.257891893
1266,1.55965389295e+18,-0.9972662926,0.5219807625,1.931774139
1267,1.55965389301e+18,-0.715836525,0.3415603638,2.355530262
1268,1.55965389307e+18,1.072857857,0.2400860786,4.525975227
1269,1.55965389312e+18,-0.368270874,0.5404262543,5.268960953
1270,1.55965389318e+18,1.867358208,1.328768969,3.407130241
1271,1.55965389324e+18,2.029194832,1.653359413,1.261451721
1272,1.5596538933e+18,3.723114967,-4.40789175,-4.988109112
1273,1.55965389336e+18,1.196160316,-11.41289902,-6.457866669
1274,1.55965389342e+18,4.550560474,-3.86582613,-6.277126312
1275,1.55965389348e+18,11.1458149,11.2396965,-21.67736816
1276,1.55965389354e+18,-3.459085941,-7.695631027,-2.543354988
1277,1.5596538936e+18,-11.22562408,0.9229631424,-4.243985176
1278,1.55965389366e+18,-3.632056236,1.288493633,-2.734886408
1279,1.55965389372e+18,-7.850844383,2.177293777,-2.943669796
1280,1.55965389378e+18,-8.342651367,2.617477417,0.6375076771
1281,1.55965389384e+18,-6.755196095,1.404820442,1.633098841
1282,1.5596538939e+18,-5.227845669,-0.1453580856,3.764553547
1283,1.55965389396e+18,-3.006328583,-1.09361124,4.044595242
1284,1.55965389402e+18,-1.744815826,-2.98778677,2.160730362
1285,1.55965389408e+18,-0.0302734375,-4.748332977,1.08664608
1286,1.55965389414e+18,-4.99119854,-6.431727409,-0.6262750626
1287,1.5596538942e+18,-0.9420089722,-4.693042278,-0.9628362656
1288,1.55965389426e+18,1.745419025,-2.250684261,-4.360533714
1289,1.55965389432e+18,5.382189751,-1.092073679,-4.461705685
1290,1.55965389438e+18,10.97055435,2.673938751,-5.73462677
1291,1.55965389444e+18,13.42846966,14.30866337,-9.965414047
1292,1.5596538945e+18,6.716853142,6.122182846,-5.374883652
1293,1.55965389456e+18,-9.662975311,-13.9274292,20.38022423
1294,1.55965389462e+18,-7.607262611,-37.85255432,12.61535454
1295,1.55965389468e+18,-9.089270592,-2.966645002,-6.879299641
1296,1.55965389474e+18,6.315166473,-4.849515438,-7.980690479
1297,1.5596538948e+18,2.698512793,0.6943824291,-8.887695312
1298,1.55965389486e+18,4.111009121,5.72722435,-7.348924637
1299,1.55965389492e+18,4.619721889,2.01528883,-4.763633251
1300,1.55965389498e+18,2.917939186,-3.025631666,0.3854188919
1301,1.55965389504e+18,1.52446568,-4.86398077,-0.4201498032
1302,1.5596538951e+18,-0.01047134399,-9.878284454,0.330163002
1303,1.55965389516e+18,-2.272633076,-9.37129879,1.161800861
1304,1.55965389522e+18,-5.713120461,-7.518012047,5.700966835
1305,1.55965389528e+18,-4.854306221,-1.842673302,2.710506678
1306,1.55965389534e+18,-1.506334186,-0.8464279175,3.494007349
1307,1.5596538954e+18,-0.4975534976,-0.6551656723,5.180143356
1308,1.55965389546e+18,-0.4269312024,0.7234249115,4.958059788
1309,1.55965389552e+18,-0.6157362461,0.659280777,2.656901598
1310,1.55965389558e+18,-1.74772656,-0.6456069946,2.158721924
1311,1.55965389564e+18,-1.593239903,-2.857872009,1.338921309
1312,1.5596538957e+18,-0.7437874079,-3.536914825,0.04210162163
1313,1.55965389576e+18,0.02194476128,-3.047165871,-1.007143259
1314,1.55965389582e+18,0.1832180023,-2.606432438,-1.838364601
1315,1.55965389588e+18,0.1592254639,-2.459216595,-1.929698467
1316,1.55965389594e+18,0.3532075882,-1.915195942,-0.7948045731
1317,1.559653896e+18,1.261209965,-0.8320708275,0.8816785812
1318,1.55965389606e+18,0.8483748436,1.085546255,0.4777812958
1319,1.55965389612e+18,2.119920254,2.4829247,0.99725914
1320,1.55965389618e+18,2.112689018,2.583207369,-0.8107171059
1321,1.55965389624e+18,2.805032253,2.448809624,-2.899858952
1322,1.5596538963e+18,2.933060646,-0.005206920207,-2.856490135
1323,1.55965389636e+18,4.673875332,-0.9299023151,-5.999793053
1324,1.55965389642e+18,3.480214596,-7.699498653,-7.295786858
1325,1.55965389648e+18,0.04715919495,-8.257772446,-8.75278759
1326,1.55965389654e+18,6.552081108,-0.68511343,-1.760312438
1327,1.5596538966e+18,-2.029747486,0.5186986923,-1.480976105
1328,1.55965389666e+18,-5.827003002,-1.060034752,0.3502619863
1329,1.55965389672e+18,-5.211452007,-2.509104729,2.439632177
1330,1.55965389678e+18,-6.408530235,-2.150888443,2.794565201
1331,1.55965389684e+18,-8.905706406,-0.5153541565,3.401195765
1332,1.5596538969e+18,-6.963546753,-1.235740662,3.967137098
1333,1.55965389696e+18,-8.5597229,-3.01054287,5.661711693
1334,1.55965389702e+18,-13.3868103,-6.054736137,7.945218086
1335,1.55965389708e+18,-13.34909248,-12.69473648,4.721927643
1336,1.55965389714e+18,-2.906413078,-14.38375473,-1.647265434
1337,1.5596538972e+18,7.603367329,-8.811105728,-7.631375313
1338,1.55965389726e+18,19.19197655,-7.710916042,-7.592925072
1339,1.55965389732e+18,12.92891216,-4.687866211,-7.149360657
1340,1.55965389738e+18,8.14244175,-1.167933226,-3.674473763
1341,1.55965389744e+18,6.812721252,1.793363333,-1.910630107
1342,1.5596538975e+18,4.461693287,1.946969509,-0.4313566685
1343,1.55965389756e+18,5.187309265,2.178154469,-0.09115457535
1344,1.55965389762e+18,3.765130997,0.6897552013,0.1863610744
1345,1.55965389768e+18,-0.3783659935,-1.516439915,1.979706049
1346,1.55965389774e+18,-0.9183773994,-1.446740627,1.915132046
1347,1.5596538978e+18,-1.066003323,-2.394786835,3.588329792
1348,1.55965389786e+18,-1.135486603,-6.899535179,10.54728031
1349,1.55965389792e+18,-0.3473592997,-2.826143265,9.880996704
1350,1.55965389798e+18,-1.076040387,-0.4113512039,8.324023247
1351,1.55965389804e+18,-3.629577637,0.4132318497,4.303238869
1352,1.5596538981e+18,-4.362376213,0.04647254944,2.301985741
1353,1.55965389816e+18,-3.055233955,-0.5602235794,1.597057343
1354,1.55965389822e+18,-1.681255579,-2.004226685,1.7477175
1355,1.55965389828e+18,-2.276378155,-3.914092064,0.9446706772
1356,1.55965389834e+18,-1.820415497,-3.753250122,1.471768379
1357,1.5596538984e+18,2.468700409,-0.9351773262,1.141841888
1358,1.55965389846e+18,4.251208782,1.147623539,0.3173546791
1359,1.55965389852e+18,4.214946747,0.878554821,-1.889401436
1360,1.55965389858e+18,3.854835033,-0.06804895401,-4.67166853
1361,1.55965389864e+18,2.829246759,0.002502918243,-3.255839348
1362,1.5596538987e+18,1.32364893,0.8209657669,0.1995396614
1363,1.55965389876e+18,-1.510707855,2.486206055,0.2599415779
1364,1.55965389882e+18,-1.90516901,2.30632925,0.3724620342
1365,1.55965389888e+18,-3.264710426,1.437124729,0.4974822998
1366,1.55965389894e+18,-6.372075081,0.04746961594,-0.4446713924
1367,1.559653899e+18,-3.606565475,2.316604853,3.623084307
1368,1.55965389906e+18,-4.871212959,4.633544922,2.359743595
1369,1.55965389912e+18,-6.079295158,3.261649847,1.238835096
1370,1.55965389918e+18,-4.662348747,3.414646626,0.4435949326
1371,1.55965389924e+18,-1.596261978,2.140848637,-3.077691793
1372,1.5596538993e+18,2.979511738,-1.214106321,-3.2401402
1373,1.55965389936e+18,6.507928848,-12.16955662,-7.284226418
1374,1.55965389942e+18,3.427036762,-13.61165905,-39.34051895
1375,1.55965389948e+18,16.22892189,-11.13305187,1.610805511
1376,1.55965389954e+18,6.157235622,-0.5286133289,5.223437786
1377,1.5596538996e+18,2.269580841,-5.1001544,12.5222683
1378,1.55965389966e+18,-18.20917511,-6.735605717,2.194485188
1379,1.55965389972e+18,-6.98730135,-6.578917503,10.58692646
1380,1.55965389978e+18,-11.7348547,-0.5820875168,3.17961669
1381,1.55965389984e+18,-8.508455276,1.715405941,0.7002167702
1382,1.5596538999e+18,-6.736908436,2.279903889,-4.099085808
1383,1.55965389996e+18,4.591308594,5.639051437,-5.668972969
1384,1.55965390002e+18,2.524698734,7.40116024,-3.902400494
1385,1.55965390008e+18,11.22120857,13.55817223,-7.253144264
1386,1.55965390014e+18,11.15563202,21.31479454,-14.72162914
1387,1.5596539002e+18,3.350605965,-5.043377876,16.85434341
1388,1.55965390026e+18,3.699151754,-30.55103874,-16.33092499
1389,1.55965390032e+18,-13.35248184,-6.804957867,-3.93772459
1390,1.55965390038e+18,-0.007251307368,-3.742417574,-8.718883514
1391,1.55965390044e+18,1.921678066,0.6242974997,-10.10990429
1392,1.5596539005e+18,1.723274708,4.663844109,-8.544960022
1393,1.55965390056e+18,2.178522587,7.223925591,-8.105601311
1394,1.55965390062e+18,1.21052146,2.065672398,-1.322703362
1395,1.55965390068e+18,-1.659817457,-4.068128109,3.362791061
1396,1.55965390074e+18,0.8898563981,-5.494952679,-0.3177928925
1397,1.5596539008e+18,3.511525631,-8.727169037,3.736976147
1398,1.55965390086e+18,-1.4255898,-8.161471367,6.806485176
1399,1.55965390092e+18,-5.598186493,-3.688263893,2.830540419
1400,1.55965390098e+18,-5.180382729,-0.9472637177,1.32315743
1401,1.55965390104e+18,-1.802070141,-0.2571334839,4.856936455
1402,1.5596539011e+18,-2.727849722,0.210773468,4.985003948
1403,1.55965390116e+18,-3.490463734,0.4013204575,2.737141132
1404,1.55965390122e+18,-4.169771194,-0.5971622467,1.661618352
1405,1.55965390128e+18,-3.356281281,-1.94711113,1.154390931
1406,1.55965390134e+18,-1.959298849,-2.893463135,1.454509974
1407,1.5596539014e+18,-0.9320495129,-2.396090508,1.072964668
1408,1.55965390146e+18,-1.386231899,-3.077570915,0.5081615448
1409,1.55965390152e+18,-0.03206110001,-3.779037952,2.678287983
1410,1.55965390158e+18,0.09459924698,-3.199574471,1.469688416
1411,1.55965390164e+18,5.209095478,1.485016823,0.05362653732
1412,1.5596539017e+18,15.80817986,6.587034702,0.3827939034
1413,1.55965390176e+18,14.34747505,-1.589020014,-3.585950613
1414,1.55965390182e+18,4.089533329,-3.705196381,-9.265001297
1415,1.55965390188e+18,-0.6994481087,-17.42781067,-5.245987892
1416,1.55965390194e+18,55.52745056,-5.382975101,11.88030815
1417,1.559653902e+18,-14.51796913,-0.3388843536,-7.175098419
1418,1.55965390206e+18,-5.437900066,7.469780922,-8.520425797
1419,1.55965390212e+18,-3.99024725,2.143671036,-5.764661789
1420,1.55965390218e+18,-14.77147961,-2.429217339,-5.906534672
1421,1.55965390224e+18,-8.406385422,-2.082800865,0.3574032784
1422,1.5596539023e+18,-9.973093033,0.5094347,-1.221994996
1423,1.55965390236e+18,-8.056733131,-1.535627365,1.507569432
1424,1.55965390242e+18,-0.7251019478,-2.507708073,0.1686954498
1425,1.55965390248e+18,-5.483254433,-5.172927856,0.08307003975
1426,1.55965390254e+18,-1.797372341,-4.68599081,-2.808606386
1427,1.5596539026e+18,-0.6407847404,-1.25477314,-4.307501793
1428,1.55965390266e+18,2.570462942,-1.88765645,-6.13005352
1429,1.55965390272e+18,4.05386591,-0.9998371601,-4.352957249
1430,1.55965390278e+18,8.26520443,1.448275089,-2.818174839
1431,1.55965390284e+18,16.18369675,14.37388325,-9.588088036
1432,1.5596539029e+18,11.98088932,16.88422203,-9.806032181
1433,1.55965390296e+18,-0.1257164478,-11.14794254,21.7387619
1434,1.55965390302e+18,-0.1212523803,-42.91961288,1.138246536
1435,1.55965390308e+18,-7.687370777,-4.065022469,-8.19517231
1436,1.55965390314e+18,2.623412371,-5.493523598,-9.798792839
1437,1.5596539032e+18,4.392886162,-0.9856498241,-10.84976864
1438,1.55965390326e+18,3.870304585,5.048611164,-9.577297211
1439,1.55965390332e+18,5.726614952,2.666017532,-8.549293518
1440,1.55965390338e+18,4.426067352,-6.559877396,2.261279106
1441,1.55965390344e+18,1.654232621,-9.980947495,-5.281747341
1442,1.5596539035e+18,-2.916671276,-17.54681778,9.149437904
1443,1.55965390356e+18,-10.7069931,-10.94390297,7.668477058
1444,1.55965390362e+18,-6.196746826,-3.50206089,5.014771461
1445,1.55965390368e+18,-5.507143974,-1.125511169,5.021914482
1446,1.55965390374e+18,-4.497352123,0.7663068771,6.305299759
1447,1.5596539038e+18,-4.64011097,1.747510433,5.2295928
1448,1.55965390386e+18,-5.277442455,0.5545396805,4.45186615
1449,1.55965390392e+18,-5.084284306,-1.44011879,3.170550585
1450,1.55965390398e+18,-2.983403206,-3.6954422,1.242528319
1451,1.55965390404e+18,0.1945775598,-4.256754875,-0.3351336718
1452,1.5596539041e+18,1.526325107,-3.209517479,-1.491467953
1453,1.55965390416e+18,1.780972362,-2.876121521,-1.525974751
1454,1.55965390422e+18,2.693994522,-2.377705574,-1.46006465
1455,1.55965390428e+18,2.11694026,-1.494956017,-1.16539979
1456,1.55965390434e+18,0.9334068298,0.278939724,0.04728031158
1457,1.5596539044e+18,-1.511599541,1.473590374,1.993989944
1458,1.55965390446e+18,-1.868464947,0.7653002739,1.724370956
1459,1.55965390452e+18,0.3426647186,2.000505924,1.180347443
1460,1.55965390458e+18,-2.706083775,0.7596635818,0.2520270348
1461,1.55965390464e+18,-2.406789303,3.084923506,0.6304297447
1462,1.5596539047e+18,-3.872446537,2.251767159,-2.084542274
1463,1.55965390476e+18,3.800540209,2.209837675,-5.199493885
1464,1.55965390482e+18,2.782677412,-4.439599991,-1.965165615
1465,1.55965390488e+18,-6.5605793,-9.940078735,-4.130768776
1466,1.55965390494e+18,6.47155571,6.019039631,0.3490476608
1467,1.559653905e+18,15.85363483,3.168566704,-13.39678764
1468,1.55965390506e+18,6.218050003,-1.083293438,-3.581899405
1469,1.55965390512e+18,7.520374298,-1.6879282,-0.6440677643
1470,1.55965390518e+18,0.2140125036,-2.59359026,2.116249084
1471,1.55965390524e+18,-6.671282291,-4.029127598,5.214766502
1472,1.5596539053e+18,-0.8288619518,2.933483362,-0.7717723846
1473,1.55965390536e+18,12.14059734,5.56743288,-3.609295368
1474,1.55965390542e+18,15.63881874,11.11924171,-4.338121891
1475,1.55965390548e+18,12.29085159,11.06428623,-7.425875664
1476,1.55965390554e+18,1.104646683,-7.274754047,18.86624146
1477,1.5596539056e+18,14.58994865,-29.67025375,-14.20211411
1478,1.55965390566e+18,-16.71496582,-3.481648922,-8.197295189
1479,1.55965390572e+18,3.003998041,-4.00958395,-8.770139694
1480,1.55965390578e+18,5.495835304,0.177128315,-7.061602592
1481,1.55965390584e+18,5.123718739,2.892314911,-7.196344376
1482,1.5596539059e+18,4.248260498,0.3720573485,-5.831898689
1483,1.55965390596e+18,-0.8065650463,-7.399688244,-1.004658699
1484,1.55965390602e+18,-0.6366317272,-10.36440372,6.24937439
1485,1.55965390608e+18,-3.082013845,-9.36139679,1.890083075
1486,1.55965390614e+18,-9.797227859,-8.284923553,0.4149434566
1487,1.5596539062e+18,-11.94343376,-1.905239105,-0.6230105162
1488,1.55965390626e+18,-6.599992275,-1.126060486,-0.3896918893
1489,1.55965390632e+18,-3.591757536,-0.1651229858,2.742447853
1490,1.55965390638e+18,-1.035334826,1.007921219,5.178111076
1491,1.55965390644e+18,-0.9047704935,1.276029587,3.237206221
1492,1.5596539065e+18,-1.919907689,-0.05696392059,1.535902143
1493,1.55965390656e+18,-2.437219143,-2.464072227,1.304786086
1494,1.55965390662e+18,-0.5536960363,-3.706954002,1.286879063
1495,1.55965390668e+18,0.1743059158,-4.672341347,1.465966702
1496,1.55965390674e+18,0.4717555046,-4.040545464,1.634110212
1497,1.5596539068e+18,-0.6355633736,-1.677082539,0.3314847946
1498,1.55965390686e+18,-0.4101462364,-1.366986752,-0.0269947052
1499,1.55965390692e+18,0.119386673,-0.7252511978,-1.127825737
1500,1.55965390698e+18,0.6787228584,0.04943060875,-1.102511883
1501,1.55965390704e+18,-0.4167671204,0.2613012791,-1.760656357
1502,1.5596539071e+18,1.836994648,1.107997298,-0.8710217476
1503,1.55965390716e+18,2.25768137,0.1354273558,-1.486532211
1504,1.55965390722e+18,2.679174662,-0.8812228441,-4.745407104
1505,1.55965390728e+18,4.120166302,-5.393414021,-5.046677589
1506,1.55965390734e+18,5.020037651,-10.46145058,-4.359230042
1507,1.5596539074e+18,4.853719711,-56.054142,19.60251617
1508,1.55965390746e+18,-3.007421494,10.53142929,-0.8178310394
1509,1.55965390752e+18,2.830091,8.913424492,1.006032944
1510,1.55965390758e+18,-1.913877487,-0.2147531509,2.781821728
1511,1.55965390764e+18,-7.16139698,-1.388968945,-0.5345845222
1512,1.55965390769e+18,-10.99879837,-6.418847561,-0.5986475945
1513,1.55965390775e+18,-5.618463516,-0.0459280014,1.131716967
1514,1.55965390781e+18,-4.247775078,3.351702213,1.312221169
1515,1.55965390787e+18,-1.667320728,1.122214794,1.78574419
1516,1.55965390793e+18,-6.719851971,-3.014641762,0.8184621334
1517,1.55965390799e+18,-1.291001797,-5.54073,2.16111517
1518,1.55965390805e+18,-3.346987724,-5.376552105,1.568616867
1519,1.55965390811e+18,0.9525537491,-4.76839447,-1.954358816
1520,1.55965390817e+18,1.69382,-2.970834017,-7.770229816
1521,1.55965390823e+18,4.777058601,-0.4630025625,-5.841454029
1522,1.55965390829e+18,5.124676704,2.25472641,0.5015335083
1523,1.55965390835e+18,12.30271912,7.400905132,0.2966299057
1524,1.55965390841e+18,13.12799454,14.68806648,-7.674036503
1525,1.55965390847e+18,6.43197155,5.734591484,-0.08710479736
1526,1.55965390853e+18,-21.38343048,-17.94648743,0.2157211304
1527,1.55965390859e+18,-11.70455074,-26.97349548,-6.681550026
1528,1.55965390865e+18,-7.42061758,-3.839823008,-7.018635273
1529,1.55965390871e+18,5.764969826,-2.901744843,-10.14161777
1530,1.55965390877e+18,4.730552673,0.9575924873,-7.581637859
1531,1.55965390883e+18,6.206495285,4.468481064,-4.750192165
1532,1.55965390889e+18,3.897934675,0.1805580258,-3.313432693
1533,1.55965390895e+18,-0.3742325306,-6.5858078,-1.561804295
1534,1.55965390901e+18,-0.2988868356,-8.805009842,2.698934555
1535,1.55965390907e+18,-0.0586488843,-6.425566673,1.621939659
1536,1.55965390913e+18,-2.308211565,-7.419095993,3.258000851
1537,1.55965390919e+18,-7.143565178,-5.136874199,3.50771904
1538,1.55965390925e+18,-5.625443459,-1.47824955,1.795345783
1539,1.55965390931e+18,-2.008232594,-0.5019922256,3.010201931
1540,1.55965390937e+18,-0.6201247573,0.488070488,4.442058086
1541,1.55965390943e+18,-0.6910632253,0.3974790573,3.863500118
1542,1.55965390949e+18,-0.3856010437,0.0002813339233,1.605507255
1543,1.55965390955e+18,-0.9216873646,-1.196352959,0.1743557453
1544,1.55965390961e+18,-0.827704072,-1.821289062,-0.40564394
1545,1.55965390967e+18,-0.01807665825,-1.970434189,-0.9250977039
1546,1.55965390973e+18,1.095954657,-2.71566391,-0.2303292751
1547,1.55965390979e+18,-0.2556653023,-2.529541016,-0.7909481525
1548,1.55965390985e+18,-0.975104332,-1.083064556,-0.7304632664
1549,1.55965390991e+18,-1.640469074,-0.2960596085,2.919676781
1550,1.55965390997e+18,-1.926781654,0.3948135376,4.00864172
1551,1.55965391003e+18,0.03443670273,1.970294476,3.529495716
1552,1.55965391009e+18,-0.4210681915,1.715461493,0.08173084259
1553,1.55965391015e+18,-0.2030339241,0.1826720089,-2.002058029
1554,1.55965391021e+18,1.489182949,-0.003232955933,-4.250749588
1555,1.55965391027e+18,4.486368656,-1.60267818,-4.135315895
1556,1.55965391033e+18,8.340171814,-1.594860077,-6.97503233
1557,1.55965391039e+18,10.02937794,-3.968959808,-4.542823315
1558,1.55965391045e+18,9.312696457,-9.289236069,-4.867288589
1559,1.55965391051e+18,-11.31278229,-8.363916397,-4.339298248
1560,1.55965391057e+18,-12.70145512,8.284744263,2.494089127
1561,1.55965391063e+18,4.526854992,-3.941824913,3.633140087
1562,1.55965391069e+18,-1.903311729,-2.583090782,0.203692168
1563,1.55965391075e+18,-6.600117683,-2.220687866,-1.978474855
1564,1.55965391081e+18,-5.421494484,-5.385402679,-0.106785655
1565,1.55965391087e+18,-6.731673717,-3.406173706,0.4915924072
1566,1.55965391093e+18,-7.539789677,-3.011099815,2.676789522
1567,1.55965391099e+18,-7.477321148,-2.20841217,4.228365421
1568,1.55965391105e+18,-5.071361065,-0.6811609268,0.9777737856
1569,1.55965391111e+18,-3.916289568,-2.42061615,2.447787285
1570,1.55965391117e+18,-4.055556774,-2.72291851,2.041065216
1571,1.55965391123e+18,-8.304792404,-6.668158531,-1.352499604
1572,1.55965391129e+18,0.4727497101,-3.393428326,0.06125807762
1573,1.55965391135e+18,-0.06652736664,-4.36041832,-0.8663980961
1574,1.55965391141e+18,0.2517085075,-4.632409573,-3.951393843
1575,1.55965391147e+18,2.405142069,-2.891329288,-5.358612061
1576,1.55965391153e+18,0.8132314682,-1.561390519,-7.748547077
1577,1.55965391159e+18,2.570431232,-0.7473096848,-6.045084953
1578,1.55965391165e+18,4.16867733,2.077558994,-4.014031887
1579,1.55965391171e+18,10.33362579,8.343164444,-5.26534462
1580,1.55965391177e+18,12.07477951,20.13197327,-12.46868515
1581,1.55965391183e+18,9.014913559,5.33997345,2.426280975
1582,1.55965391189e+18,-11.4272604,0.1963541508,-23.03989792
1583,1.55965391195e+18,-2.350807428,-19.4060688,-9.322879791
1584,1.55965391201e+18,-9.941753387,-1.485774517,-3.617899895
1585,1.55965391207e+18,4.556252956,-3.202106953,-10.7883625
1586,1.55965391213e+18,4.975648403,1.602527022,-10.66257477
1587,1.55965391219e+18,4.763515472,5.283560753,-9.201147079
1588,1.55965391225e+18,3.099621296,-1.581787586,-2.441590309
1589,1.55965391231e+18,-0.7528704405,-6.304523945,4.40646553
1590,1.55965391237e+18,0.01875439286,-10.87621975,-1.388965368
1591,1.55965391243e+18,2.551208019,-17.40926361,8.640832901
1592,1.55965391249e+18,-6.352963448,-8.772174835,11.84255028
1593,1.55965391255e+18,-4.210568428,-3.519462585,6.176195145
1594,1.55965391261e+18,-3.033599377,-0.3739366531,6.948421478
1595,1.55965391267e+18,-2.550580502,1.021249294,9.474699974
1596,1.55965391273e+18,-2.546394825,1.036084175,7.784758568
1597,1.55965391279e+18,-3.390295982,-0.4844913483,5.345833302
1598,1.55965391285e+18,-3.759244442,-2.859952927,3.300924063
1599,1.55965391291e+18,-1.282602429,-3.943369865,0.8464232683
1600,1.55965391297e+18,1.395764947,-3.547912598,-0.4683048725
1601,1.55965391303e+18,1.754054189,-2.30719471,-1.469834566
1602,1.55965391309e+18,1.732075691,-1.418974876,-2.650327682
1603,1.55965391315e+18,2.134913921,-0.2860593796,-2.917328358
1604,1.55965391321e+18,2.481017351,0.2179555893,-2.204216719
1605,1.55965391327e+18,1.288732052,-0.07610845566,-0.5583488941
1606,1.55965391333e+18,1.865801096,1.174660683,0.3120093346
1607,1.55965391339e+18,-1.178868294,1.081485748,1.49069047
1608,1.55965391345e+18,-1.214908123,2.319658279,1.243507385
1609,1.55965391351e+18,-1.56258297,1.944837093,1.693029404
1610,1.55965391357e+18,-1.872555733,1.986541271,1.652227163
1611,1.55965391363e+18,-3.448015213,1.437013626,1.528042316
1612,1.55965391369e+18,-1.770398617,1.178602219,2.055249214
1613,1.55965391375e+18,-3.233751774,0.9258034229,2.585416794
1614,1.55965391381e+18,-1.13931942,1.995045662,1.846094131
1615,1.55965391387e+18,1.770651817,4.334244728,-0.04742479324
1616,1.55965391393e+18,4.110193253,3.510018349,-1.561731815
1617,1.55965391399e+18,5.388372898,1.003530979,-1.990411282
1618,1.55965391405e+18,8.543663025,-0.8978447318,-2.595553875
1619,1.55965391411e+18,12.15408802,-4.131072521,-3.126324415
1620,1.55965391417e+18,6.299212933,-8.590613365,-7.559065819
1621,1.55965391423e+18,-10.70463085,-11.62759781,-24.55781555
1622,1.55965391429e+18,-4.780502796,-6.233992577,4.895662785
1623,1.55965391435e+18,-0.1421349049,-2.634385109,-1.083182216
1624,1.55965391441e+18,-3.715637922,-5.470837593,4.707862377
1625,1.55965391447e+18,-6.612877369,-5.36615181,-0.02291977406
1626,1.55965391453e+18,-5.786714554,-4.371872902,1.554383039
1627,1.55965391459e+18,-1.044295549,-4.047237396,4.48543644
1628,1.55965391465e+18,-5.33763504,-3.475243568,5.927609444
1629,1.55965391471e+18,-8.08870697,-0.6727838516,5.15970993
1630,1.55965391477e+18,-1.456888914,0.3312902451,4.798893929
1631,1.55965391483e+18,-1.405459642,0.9400014877,1.568183064
1632,1.55965391489e+18,-0.4404332638,0.4540262222,-0.5667030215
1633,1.55965391495e+18,2.330838203,0.146071434,-0.5424021482
1634,1.55965391501e+18,1.538287878,0.03051567078,-1.530708075
1635,1.55965391507e+18,0.8225221634,0.3056764603,-1.254821062
1636,1.55965391513e+18,0.7010159492,1.108897686,-1.220075607
1637,1.55965391519e+18,0.6333580017,1.174184322,-0.4109179974
1638,1.55965391525e+18,-0.1759471893,0.9883370399,-0.4068368673
1639,1.55965391531e+18,-1.021265507,1.001155376,0.895141542
1640,1.55965391537e+18,-0.5823588371,1.398190498,0.7789369226
1641,1.55965391543e+18,-1.345021725,1.259848118,0.5151315331
1642,1.55965391549e+18,-0.04636573792,0.7262682915,0.8056014776
1643,1.55965391555e+18,-0.009736061096,-0.1676998138,1.340068102
1644,1.55965391561e+18,-0.1138300896,-0.2257862091,0.5346201658
1645,1.55965391567e+18,-0.3895659447,-0.2530231476,0.3861855268
1646,1.55965391573e+18,-0.2219991684,-0.5118322372,1.010045528
1647,1.55965391579e+18,-2.479522705,-0.1090354919,0.7947870493
1648,1.55965391585e+18,-1.592038631,-0.06605768204,3.384338379
1649,1.55965391591e+18,-4.176355839,-2.061069965,3.83923769
1650,1.55965391597e+18,-4.947826385,-0.8731641769,1.726168633
1651,1.55965391603e+18,-4.781224728,-4.449326038,0.9880414009
1652,1.55965391609e+18,-1.817779064,-5.257318497,-3.698833704
1653,1.55965391615e+18,0.4567098618,-4.860655785,-3.357526302
1654,1.55965391621e+18,4.166074753,-2.855336189,-4.647068977
1655,1.55965391627e+18,4.823094368,-1.152255416,-5.293889046
1656,1.55965391633e+18,5.376479626,2.096046448,-5.549394608
1657,1.55965391639e+18,15.09067249,11.76185226,-5.446304321
1658,1.55965391645e+18,12.06735229,19.30091667,-11.40760994
1659,1.55965391651e+18,5.471214771,0.5962929726,4.727591515
1660,1.55965391657e+18,5.679003716,-14.29475212,-18.24302673
1661,1.55965391663e+18,-8.247490883,-11.67073917,-16.03664017
1662,1.55965391669e+18,-3.184157372,1.190699816,-4.052783489
1663,1.55965391675e+18,5.026406765,-2.130980492,-9.054735184
1664,1.55965391681e+18,5.83836937,3.242163658,-7.666398048
1665,1.55965391687e+18,5.664391041,6.44159174,-6.022212029
1666,1.55965391693e+18,4.728820801,0.3908071518,-1.944777489
1667,1.55965391699e+18,-1.987430096,-5.203455925,-0.9638900757
1668,1.55965391705e+18,0.5712271929,-7.069689751,2.22198534
1669,1.55965391711e+18,1.723932862,-6.869407654,3.370027065
1670,1.55965391717e+18,-1.702073336,-7.894078255,2.830218792
1671,1.55965391723e+18,-5.943618298,-5.521529198,4.938156128
1672,1.55965391729e+18,-5.683725357,-2.445653915,3.952352524
1673,1.55965391735e+18,-1.755904913,-1.686247826,5.254174232
1674,1.55965391741e+18,0.8434414864,-0.1636209488,6.909645557
1675,1.55965391747e+18,0.3547014594,0.9259576797,5.650792122
1676,1.55965391753e+18,-0.6698403955,0.6624298096,3.365151167
1677,1.55965391759e+18,-1.119732738,-0.7702455521,2.317918301
1678,1.55965391765e+18,-0.1182400733,-2.637201309,1.124446511
1679,1.55965391771e+18,1.22733295,-2.483269691,-0.05625629425
1680,1.55965391777e+18,1.70600307,-1.563676834,-2.024298191
1681,1.55965391783e+18,0.5174490809,-1.09036541,-3.270336151
1682,1.55965391789e+18,-0.1366810799,-0.4955530167,-3.393670082
1683,1.55965391795e+18,0.6661705971,0.1089038849,-2.961866856
1684,1.55965391801e+18,0.5728166103,0.6308197975,-2.159081697
1685,1.55965391807e+18,-0.00915813446,0.2969303131,-0.4981408119
1686,1.55965391813e+18,0.05394434929,0.88387537,0.3061978817
1687,1.55965391819e+18,-0.9747080803,1.322597027,0.5288999081
1688,1.55965391825e+18,-2.011183739,1.082253456,1.320912838
1689,1.55965391831e+18,-1.405511379,0.7505130768,2.146604061
1690,1.55965391837e+18,-2.189029217,0.3952960968,2.883087635
1691,1.55965391843e+18,-4.888560295,-1.351476192,3.937270403
1692,1.55965391849e+18,-3.1904459,1.484495163,6.683526993
1693,1.55965391855e+18,-2.693001747,4.867064953,3.196326733
1694,1.55965391861e+18,0.9252829552,2.783590078,0.5846571922
1695,1.55965391867e+18,3.806882858,0.1617652178,-4.573059559
1696,1.55965391873e+18,2.655548096,-10.06646061,-11.68499184
1697,1.55965391879e+18,0.05931472778,-10.98936272,-8.998957634
1698,1.55965391885e+18,5.922455788,15.04880714,-4.737387657
1699,1.55965391891e+18,9.384361267,0.7337481976,3.92680335
1700,1.55965391897e+18,-0.7070188522,1.062390327,7.545762062
1701,1.55965391903e+18,-3.986819267,-0.07750892639,4.372281075
1702,1.55965391909e+18,-7.104227066,0.2105355263,-0.9888937473
1703,1.55965391915e+18,-7.819696903,-3.543558121,5.81312561
1704,1.55965391921e+18,-6.152729988,-2.123175621,0.9635396004
1705,1.55965391927e+18,4.227427483,-0.2286236286,0.1195850372
1706,1.55965391933e+18,-0.8438000679,-0.1383472681,-3.308834553
1707,1.55965391939e+18,2.720127344,1.406005383,-5.07652998
1708,1.55965391945e+18,6.260191441,8.508270264,-4.419427395
1709,1.55965391951e+18,16.01447105,23.90156555,-6.355807304
1710,1.55965391957e+18,4.378699303,5.449423313,5.723391533
1711,1.55965391963e+18,-22.62935066,-15.85163403,-37.15602112
1712,1.55965391969e+18,-27.60912132,-14.6063118,-6.106756687
1713,1.55965391975e+18,2.526453495,-11.05080032,-11.52198315
1714,1.55965391981e+18,3.349575281,-2.806703568,-7.052893162
1715,1.55965391987e+18,2.94154644,1.541834354,-10.00491428
1716,1.55965391993e+18,2.520970821,4.315334797,-8.299704552
1717,1.55965391999e+18,2.160796642,-0.5529801846,-7.222409248
1718,1.55965392005e+18,2.483654976,-5.374257088,-0.876329422
1719,1.55965392011e+18,-1.524774313,-8.980731964,-2.673003674
1720,1.55965392017e+18,-0.5462331176,-10.2007103,5.7232337
1721,1.55965392023e+18,-1.982550979,-10.49175358,3.831189871
1722,1.55965392029e+18,-5.423314571,-6.499762535,6.562880516
1723,1.55965392035e+18,-4.73869133,-1.864569664,1.962239146
1724,1.55965392041e+18,-1.920940161,0.212515831,1.770149231
1725,1.55965392047e+18,-0.1774325967,1.385516167,3.795416832
1726,1.55965392053e+18,-0.2203244269,0.6051092148,5.154723167
1727,1.55965392059e+18,-1.253121138,0.03464889526,2.500256062
1728,1.55965392065e+18,-1.703926802,-1.891864777,0.5632946491
1729,1.55965392071e+18,-0.5236663222,-2.809846878,-1.422942042
1730,1.55965392077e+18,1.050439596,-1.982749939,-2.363562346
1731,1.55965392083e+18,1.33359611,-1.13613224,-2.49627018
1732,1.55965392089e+18,1.342726707,-0.2075595856,-2.422750473
1733,1.55965392095e+18,1.442864418,0.05386638641,-1.645689249
1734,1.55965392101e+18,0.6768112183,-0.6060180664,-1.173642635
1735,1.55965392107e+18,-0.03266382217,-0.1445970535,-0.8128602505
1736,1.55965392113e+18,-1.341416836,0.3054513931,0.1738038063
1737,1.55965392119e+18,-1.917320728,0.9246749878,1.385090828
1738,1.55965392125e+18,-1.510801792,1.338326931,2.057758331
1739,1.55965392131e+18,-1.567070007,0.9028458595,1.866868973
1740,1.55965392137e+18,-1.016505718,1.080173492,1.622766018
1741,1.55965392143e+18,-1.302746296,0.7264099121,1.74616909
1742,1.55965392149e+18,-0.6842756271,2.46579361,0.7082233429
1743,1.55965392155e+18,-1.245955467,4.309899807,0.9598317146
1744,1.55965392161e+18,1.531736374,5.610915184,-1.586819172
1745,1.55965392167e+18,5.052867889,3.990585327,-2.550232887
1746,1.55965392173e+18,7.005819321,-1.167590737,-3.469532967
1747,1.55965392179e+18,8.274539948,-3.785238266,-6.109480858
1748,1.55965392185e+18,10.69666004,-6.242135048,-3.513432503
1749,1.55965392191e+18,6.967677116,-2.996899605,-6.506296158
1750,1.55965392197e+18,9.719841957,-8.651814461,-5.455617428
1751,1.55965392203e+18,0.6846966743,-3.090713501,8.284297943
1752,1.55965392209e+18,1.62943697,-10.8960371,-1.645138264
1753,1.55965392215e+18,-2.938776016,-18.54716301,1.245657086
1754,1.55965392221e+18,5.871789932,-6.471731186,17.27870369
1755,1.55965392227e+18,-22.16300964,-0.2356376648,2.183535337
1756,1.55965392233e+18,0.3484681845,16.68913841,1.338710427
1757,1.55965392239e+18,16.56508255,1.520249367,1.1155442
1758,1.55965392245e+18,-29.01083565,0.2022705078,-16.84727859
1759,1.55965392251e+18,-9.990272522,4.984093189,-9.329251289
1760,1.55965392257e+18,23.23551369,-19.89802551,27.2193737
1761,1.55965392263e+18,0.2328209877,-2.65100193,-3.666658878
1762,1.55965392269e+18,1.092467785,1.081719398,-2.362216949
1763,1.55965392275e+18,-0.7140603065,-0.1174564362,0.6552879214
1764,1.55965392281e+18,-6.193169594,-4.408091545,0.917403698
1765,1.55965392287e+18,-5.960979939,-4.677080154,4.944268227
1766,1.55965392293e+18,-6.545862675,-2.522017479,3.901629925
1767,1.55965392299e+18,-6.889043331,-3.323629856,1.488665104
1768,1.55965392305e+18,-2.494258881,-4.332555294,-1.430949688
1769,1.55965392311e+18,1.697485447,-0.3332262039,-2.93173027
1770,1.55965392317e+18,6.835888863,4.931885242,-4.111220837
1771,1.55965392323e+18,15.44783878,16.46505356,-9.377470016
1772,1.55965392329e+18,4.783028603,7.916292191,2.722500801
1773,1.55965392335e+18,-18.06183434,-15.96300697,-22.2918644
1774,1.55965392341e+18,-26.19166183,-17.19743156,-12.58226681
1775,1.55965392347e+18,4.102949619,-11.03486443,-13.97023296
1776,1.55965392353e+18,4.620241165,0.6339039803,-10.04631329
1777,1.55965392359e+18,3.234150648,1.240027905,-9.81582737
1778,1.55965392365e+18,3.884579659,4.51123333,-6.340373039
1779,1.55965392371e+18,3.717823505,-0.7798809409,-1.917906761
1780,1.55965392377e+18,-0.8258527517,-4.176789284,-0.1643600464
1781,1.55965392383e+18,0.8274989128,-4.853232384,2.712786674
1782,1.55965392389e+18,0.06327259541,-5.702572346,3.444656372
1783,1.55965392395e+18,-1.405991912,-4.631073952,4.038496971
1784,1.55965392401e+18,-1.093643665,-2.034366608,4.253192425
1785,1.55965392407e+18,-2.045621395,-2.385545731,5.839519024
1786,1.55965392413e+18,-4.183386803,-2.031603813,5.265363693
1787,1.55965392419e+18,-2.900199413,-1.521702766,4.14081192
1788,1.55965392425e+18,-1.774014711,-0.632142067,2.951099873
1789,1.55965392431e+18,-0.8625949621,0.2631473541,2.436907053
1790,1.55965392437e+18,-0.5819135308,-0.4817905426,1.538951755
1791,1.55965392443e+18,0.3669036627,-2.35635376,0.5692727566
1792,1.55965392449e+18,0.8551689386,-0.5304498672,-1.496967793
1793,1.55965392455e+18,0.8065915704,-0.3183698654,-2.066282511
1794,1.55965392461e+18,0.9532971382,-0.4116134644,-2.416698933
1795,1.55965392467e+18,1.878162622,0.4251556396,-2.304036617
1796,1.55965392473e+18,2.280479193,0.9869647026,-1.622007847
1797,1.55965392479e+18,1.436439037,0.02522659302,0.3934059143
1798,1.55965392485e+18,-1.435189486,-0.02466201782,-0.5157389641
1799,1.55965392491e+18,-2.064514875,-0.08445549011,-0.02060461044
1800,1.55965392497e+18,-2.370074511,-0.6820487976,1.668808222
1801,1.55965392503e+18,-1.699003458,-0.9369287491,2.895464659
1802,1.55965392509e+18,-2.291590691,0.1420326233,4.428486824
1803,1.55965392515e+18,-1.626660347,0.8977074623,3.068653107
1804,1.55965392521e+18,-0.994325161,0.9796147346,2.801726818
1805,1.55965392527e+18,-3.874968052,-0.8132891655,1.826033592
1806,1.55965392533e+18,-1.662513256,1.03290844,1.452288151
1807,1.55965392539e+18,0.6669054031,1.72708416,-1.304794788
1808,1.55965392545e+18,2.254629612,1.080526829,-2.689752579
1809,1.55965392551e+18,1.226176262,-3.035692692,-3.169467211
1810,1.55965392557e+18,5.923557281,-5.872122288,-6.341939926
1811,1.55965392563e+18,6.414743423,-8.790287018,-6.543883324
1812,1.55965392569e+18,14.95298004,14.06649017,1.331851244
1813,1.55965392575e+18,4.888422966,2.130296707,4.200681686
1814,1.55965392581e+18,-3.759568214,1.399971962,5.487397194
1815,1.55965392587e+18,-5.202440262,1.433218002,0.9077177048
1816,1.55965392593e+18,-11.79777431,1.348577499,-3.338838339
1817,1.55965392599e+18,-1.577534676,-2.306580067,6.481087685
1818,1.55965392605e+18,-9.501519203,-1.131743908,4.13837862
1819,1.55965392611e+18,-4.509380341,-0.1452798843,3.088050842
1820,1.55965392617e+18,-5.133736134,-0.8741831779,-0.1036198139
1821,1.55965392623e+18,-0.2011065483,-1.450346947,-0.9571964741
1822,1.55965392629e+18,0.1707921028,-0.5977497101,-3.016208649
1823,1.55965392635e+18,1.548570156,0.05952131748,-2.061179161
1824,1.55965392641e+18,2.910274506,2.098406792,-4.321847439
1825,1.55965392647e+18,6.157284737,3.922673225,-4.442555904
1826,1.55965392653e+18,15.43551731,12.99297047,-6.392375469
1827,1.55965392659e+18,8.766120911,19.57135582,-7.692746639
1828,1.55965392665e+18,3.416451454,-5.311480045,18.86795044
1829,1.55965392671e+18,25.82765579,-46.00611496,-27.29223633
1830,1.55965392677e+18,-15.95335674,-4.652501106,-10.12162971
1831,1.55965392683e+18,6.040058136,-5.620071411,-10.47851562
1832,1.55965392689e+18,2.956974506,0.2032887936,-7.730895996
1833,1.55965392695e+18,4.245164871,5.576712132,-8.091306686
1834,1.55965392701e+18,3.606060028,4.124091625,-7.13390398
1835,1.55965392707e+18,1.412932754,-2.968212843,-0.9368448257
1836,1.55965392713e+18,-1.75417614,-6.93789053,0.2290935516
1837,1.55965392719e+18,0.273647666,-10.2016468,2.235907555
1838,1.55965392725e+18,-4.108752251,-11.67424965,3.40928483
1839,1.55965392731e+18,-8.613771439,-7.691785812,3.280032635
1840,1.55965392737e+18,-9.472509384,-2.143145561,1.160903692
1841,1.55965392743e+18,-5.152288437,-0.6427288055,2.896499157
1842,1.55965392749e+18,-2.261989355,0.2259912491,5.297057152
1843,1.55965392755e+18,-1.550309896,1.093775749,5.120536804
1844,1.55965392761e+18,-1.68603766,-0.1170978546,2.556696177
1845,1.55965392767e+18,-1.083570004,-1.873209953,0.8557767868
1846,1.55965392773e+18,0.1691002995,-2.640666008,-0.5262272358
1847,1.55965392779e+18,0.3440562487,-1.535791397,-1.622865796
1848,1.55965392785e+18,0.6209861636,-0.7802724838,-2.410140753
1849,1.55965392791e+18,0.8728672266,-0.8294067383,-1.668306112
1850,1.55965392797e+18,-1.604283571,-2.256745338,-0.9528777599
1851,1.55965392803e+18,-1.576802969,-1.162647247,-2.56623888
1852,1.55965392809e+18,-1.790416718,0.4162192345,0.118719101
1853,1.55965392815e+18,-2.485502243,0.5646524429,1.334010124
1854,1.55965392821e+18,-1.333258629,2.091287136,3.639944077
1855,1.55965392827e+18,-1.595192432,2.455458879,3.802811623
1856,1.55965392833e+18,-2.253034592,1.855398655,2.144158363
1857,1.55965392839e+18,-1.378446579,1.354306221,0.4300880432
1858,1.55965392845e+18,0.377114296,0.9940510988,-2.295056343
1859,1.55965392851e+18,-0.1784358025,-1.351139426,-4.312654495
1860,1.55965392857e+18,1.094120979,-4.297849178,-5.054663658
1861,1.55965392863e+18,0.2517514229,-9.23836422,-7.192162037
1862,1.55965392869e+18,5.610542297,-7.12121439,-27.52389717
1863,1.55965392875e+18,10.28277969,3.977545261,3.024789333
1864,1.55965392881e+18,13.43619633,5.260175228,3.310861588
1865,1.55965392887e+18,9.47902298,3.794779062,5.738567352
1866,1.55965392893e+18,2.561950207,-0.2839922011,3.404920578
1867,1.55965392899e+18,-2.424102306,-1.450824261,0.5298728943
1868,1.55965392905e+18,-1.638926268,-1.092803478,3.516421318
1869,1.55965392911e+18,1.11094749,0.3652100563,2.888160706
1870,1.55965392917e+18,2.012507915,2.050216198,1.937454224
1871,1.55965392923e+18,0.5403757691,1.668946266,4.766576767
1872,1.55965392929e+18,1.18261528,1.784355044,1.649520874
1873,1.55965392935e+18,-0.5134794712,0.6404573917,-2.340873241
1874,1.55965392941e+18,-0.516269207,0.1334704757,-2.839152336
1875,1.55965392947e+18,-1.406108379,0.5468221307,-2.368609905
1876,1.55965392953e+18,-0.9119682312,1.558944106,-2.106212139
1877,1.55965392959e+18,0.178689003,2.046297073,-1.974787235
1878,1.55965392965e+18,1.179085732,2.124779224,-0.831972599
1879,1.55965392971e+18,2.199608803,0.4742493629,-1.0173316
1880,1.55965392977e+18,0.8479104042,0.2046897411,0.06207513809
1881,1.55965392983e+18,0.7239608765,-0.0309073329,-0.4279465675
1882,1.55965392989e+18,0.5828757286,-0.1366606355,-0.5242619514
1883,1.55965392995e+18,0.3866610527,0.2736268044,-1.380339146
1884,1.55965393001e+18,0.4245567322,0.3584907055,-1.203920364
1885,1.55965393007e+18,0.8521556854,0.684427917,-1.343226433
1886,1.55965393013e+18,3.307180405,1.747651219,-2.548142672
1887,1.55965393019e+18,4.740533829,4.10753727,-2.394997358
1888,1.55965393025e+18,4.097995758,2.610794544,-1.059647083
1889,1.55965393031e+18,5.464771271,-0.1094772816,3.654411793
1890,1.55965393037e+18,-1.560515404,-6.827789783,0.414899826
1891,1.55965393043e+18,-10.22561264,4.20015049,-11.46569157
1892,1.55965393049e+18,-0.5474225283,-11.9802227,-8.19936657
1893,1.55965393055e+18,1.758841038,-3.723692417,-1.902017117
1894,1.55965393061e+18,-4.960078239,1.526579142,0.806137085
1895,1.55965393067e+18,-1.5203197,-1.014701009,-1.009143829
1896,1.55965393073e+18,-0.6579704285,1.035535693,-1.012517929
1897,1.55965393079e+18,-0.5272016525,1.669407487,-3.995082855
1898,1.55965393085e+18,-0.09257698059,2.063922167,-3.274650574
1899,1.55965393091e+18,-2.209268093,1.717071533,-2.353044987
1900,1.55965393097e+18,-4.103426456,0.3352184296,3.701453686
1901,1.55965393103e+18,-7.61636734,-3.072965384,7.690121174
1902,1.55965393109e+18,-2.100538731,-2.064354181,6.145909309
1903,1.55965393115e+18,2.235339165,-0.8805775046,3.976977348
1904,1.55965393121e+18,3.186500549,1.962157726,-3.130195618
1905,1.55965393127e+18,8.527275085,6.249495506,-5.328318119
1906,1.55965393133e+18,17.57965088,21.36501312,-6.330640793
1907,1.55965393139e+18,10.59298992,6.520145893,3.460464954
1908,1.55965393145e+18,-23.70200729,-18.47367096,-32.17709732
1909,1.55965393151e+18,-15.90320587,-22.59243393,-10.52325344
1910,1.55965393157e+18,-6.047302246,-8.483228683,-8.31564045
1911,1.55965393163e+18,4.404221535,-3.514630079,-8.148831367
1912,1.55965393169e+18,3.894915819,-1.135567427,-7.952217579
1913,1.55965393175e+18,2.706626177,3.233396769,-7.705833912
1914,1.55965393181e+18,2.486620665,-0.1884283423,-7.233533382
1915,1.55965393187e+18,3.290326357,-4.351376534,-2.93050909
1916,1.55965393193e+18,-3.588116646,-12.13715553,1.377076626
1917,1.55965393199e+18,2.528679132,-12.29060555,7.553875923
1918,1.55965393205e+18,-6.40493536,-14.85941601,13.50854588
1919,1.55965393211e+18,-7.211874008,-2.022663116,0.7580108643
1920,1.55965393217e+18,-2.590393782,-1.085058212,2.983027458
1921,1.55965393223e+18,0.6261658669,2.188869953,4.001467228
1922,1.55965393229e+18,-0.189040184,0.8797273636,7.073580742
1923,1.55965393235e+18,-3.44153285,-0.5044050217,4.161599159
1924,1.55965393241e+18,-3.174503803,-2.187491417,0.6420880556
1925,1.55965393247e+18,-1.274480224,-2.70585537,-2.018928289
1926,1.55965393253e+18,-0.1083025932,-1.478096008,-2.242440701
1927,1.55965393259e+18,0.8714134693,-1.408673286,-2.317813635
1928,1.55965393265e+18,2.712727785,-0.8812685013,-1.729025841
1929,1.55965393271e+18,4.151808262,0.3490142822,-1.827777267
1930,1.55965393277e+18,4.30230999,2.065013409,-2.066042662
1931,1.55965393283e+18,3.681168795,2.017558098,-0.7708570957
1932,1.55965393289e+18,2.273576021,0.3967523575,1.692300558
1933,1.55965393295e+18,-3.108700275,-3.167430878,3.566272974
1934,1.55965393301e+18,-4.090059757,-2.393596649,0.9263818264
1935,1.55965393307e+18,-3.134119511,-0.6791954041,1.765949249
1936,1.55965393313e+18,-3.511267424,0.74659729,3.433567047
1937,1.55965393319e+18,-3.029448748,2.458091736,1.191528082
1938,1.55965393325e+18,-1.962587357,2.145372391,1.172376871
1939,1.55965393331e+18,-1.751842499,-0.03635311127,0.8665995598
1940,1.55965393337e+18,-1.816926479,-1.119044304,1.949356556
1941,1.55965393343e+18,-0.9624967575,-0.5719208717,1.260689735
1942,1.55965393349e+18,-1.263266087,-1.6231215,1.92086935
1943,1.55965393355e+18,-1.59632349,-0.4908936024,1.835114956
1944,1.55965393361e+18,-2.009320736,0.618960619,-0.1644659042
1945,1.55965393367e+18,-1.959816933,-1.526300311,-2.182081699
1946,1.55965393373e+18,1.608062506,-1.456865549,-4.814380646
1947,1.55965393379e+18,0.6485304832,-4.254661083,-6.944350719
1948,1.55965393385e+18,2.562648296,-8.847267151,-6.211327553
1949,1.55965393391e+18,11.83427525,-13.71365166,-25.08377075
1950,1.55965393397e+18,11.89695358,4.783308506,-5.475283623
1951,1.55965393403e+18,9.781194687,3.667732239,2.238959312
1952,1.55965393409e+18,-1.008683681,-0.06762851775,7.934883118
1953,1.55965393415e+18,-7.640449047,-1.547122002,5.518345833
1954,1.55965393421e+18,-2.310373545,1.593343019,3.753468513
1955,1.55965393427e+18,2.014578581,3.969237804,0.5597066879
1956,1.55965393433e+18,8.268854141,5.231282234,-3.361944199
1957,1.55965393439e+18,17.67841148,17.55960464,-10.7635107
1958,1.55965393445e+18,10.66518784,8.840784073,-4.514038563
1959,1.55965393451e+18,-5.918854237,-12.60018826,3.479477882
1960,1.55965393457e+18,-17.44265366,-32.56225967,-6.383292675
1961,1.55965393463e+18,-17.13967323,-10.53556156,-8.614904404
1962,1.55965393469e+18,6.684586525,-3.220548153,-7.629161358
1963,1.55965393475e+18,4.103861332,0.8272857666,-6.362863064
1964,1.55965393481e+18,4.061020851,5.974141121,-5.954910755
1965,1.55965393487e+18,2.312752008,1.875895858,-3.289939404
1966,1.55965393493e+18,-1.545119286,-2.825672626,-1.872410774
1967,1.55965393499e+18,-4.782661438,-3.864166737,-0.2702722549
1968,1.55965393505e+18,1.112581491,-5.241462231,2.082899094
1969,1.55965393511e+18,-1.807859659,-5.008011818,1.962298393
1970,1.55965393517e+18,-2.650168896,-3.321783066,0.3625349998
1971,1.55965393523e+18,-2.952317476,-4.110287666,1.725852013
1972,1.55965393529e+18,-3.366078854,-2.823508263,2.505602121
1973,1.55965393535e+18,-1.272724271,-1.11894989,1.762858868
1974,1.55965393541e+18,-0.3991881013,-0.3101577759,1.962393761
