,Time (s),Linear Acceleration x (m/s^2),Linear Acceleration y (m/s^2),Linear Acceleration z (m/s^2)
0,1.55965351606e+18,0.2379331589,0.3328695297,2.11861372
1,1.55965351612e+18,-0.3699653149,0.2965478897,4.448312759
2,1.55965351618e+18,-1.111067772,0.5573854446,4.580152035
3,1.55965351624e+18,-1.384191751,0.9134702682,3.303356647
4,1.5596535163e+18,-1.589496613,1.012124062,1.113816261
5,1.55965351636e+18,-1.748317957,0.5612640381,-1.106908798
6,1.55965351642e+18,0.7412861586,7.018213749,0.5115466118
7,1.55965351648e+18,0.3272051811,5.304853439,-5.34985733
8,1.55965351654e+18,-2.199410439,-0.4431519508,3.771490097
9,1.5596535166e+18,1.500308275,5.105946541,-13.52572632
10,1.55965351666e+18,3.06366396,8.016021729,-13.6308012
11,1.55965351672e+18,-0.8997504115,3.685241222,2.166832447
12,1.55965351678e+18,-3.93393898,-9.699097633,18.49176216
13,1.55965351684e+18,-2.002461195,-11.71792793,6.927010059
14,1.5596535169e+18,-6.109517574,-2.485472679,11.8317194
15,1.55965351696e+18,-0.3015232086,-0.1111564636,13.80948639
16,1.55965351702e+18,-4.058338165,1.47852993,9.235157013
17,1.55965351708e+18,-3.622060537,3.705354691,5.989173889
18,1.55965351714e+18,-2.301637411,4.865533829,-0.6310286522
19,1.5596535172e+18,-1.20070529,1.413358688,-4.075258255
20,1.55965351726e+18,-0.4552685022,4.721273899,1.911343098
21,1.55965351732e+18,3.134309292,11.1162529,-11.10113811
22,1.55965351738e+18,6.561209679,13.63482666,-13.50339127
23,1.55965351744e+18,0.0005750656128,8.857382774,-3.149140596
24,1.5596535175e+18,-6.983029842,-10.81357861,18.24582672
25,1.55965351756e+18,-6.6013484,-15.26092243,5.931123257
26,1.55965351762e+18,-6.313313484,-8.382045746,1.716963887
27,1.55965351768e+18,-6.143175602,-3.15256691,5.754373074
28,1.55965351774e+18,-5.729701996,-0.1498575211,6.423158169
29,1.5596535178e+18,-4.028110027,4.215993881,1.540722847
30,1.55965351786e+18,-2.494471788,5.336689949,0.6536407471
31,1.55965351792e+18,-2.77508378,1.008136749,-1.414352894
32,1.55965351798e+18,-3.221331835,4.688320637,-4.719892502
33,1.55965351804e+18,-0.9448964,7.254887581,-10.83060455
34,1.5596535181e+18,2.114092112,9.248626709,-13.17016506
35,1.55965351816e+18,0.9298380017,9.788764954,-10.66561508
36,1.55965351822e+18,-2.181787014,-1.167980194,2.516151905
37,1.55965351828e+18,-3.432889462,-13.89062214,11.35250854
38,1.55965351834e+18,-5.003479958,-12.59656906,-1.739482284
39,1.5596535184e+18,-5.746771812,-6.261314392,2.828510523
40,1.55965351846e+18,-4.139569283,-2.86693573,3.627542734
41,1.55965351852e+18,-3.085982323,0.7063684464,1.821891785
42,1.55965351858e+18,-3.356710672,2.976256371,1.085851669
43,1.55965351864e+18,-0.7449814081,4.927856922,-1.374269009
44,1.5596535187e+18,-0.3851472437,4.062766075,-3.679246902
45,1.55965351876e+18,-0.6717182994,4.154104233,-2.537668228
46,1.55965351882e+18,0.289991498,4.558558464,-6.078854561
47,1.55965351888e+18,-0.5135455132,4.596031189,-8.603061676
48,1.55965351894e+18,-0.3746043444,6.343658447,-10.47430229
49,1.559653519e+18,-4.466003418,-2.342983246,0.4245934486
50,1.55965351906e+18,-3.618355036,-12.5123682,8.647438049
51,1.55965351912e+18,-4.257505894,-15.6265974,-1.429993868
52,1.55965351918e+18,-4.352967262,-4.978783607,2.315681934
53,1.55965351924e+18,-3.160192013,-3.67577076,5.396856308
54,1.5596535193e+18,-1.870331526,-0.2041277885,1.89714098
55,1.55965351936e+18,-3.067342281,1.463520527,0.06114196777
56,1.55965351942e+18,-1.676263094,1.997159243,-3.258644581
57,1.55965351948e+18,-4.526850224,2.615351915,-8.964022636
58,1.55965351954e+18,-0.2982542515,4.969250202,-10.04295731
59,1.5596535196e+18,8.696674347,12.91086578,-13.25477982
60,1.55965351966e+18,1.837279797,4.839313507,-4.172037601
61,1.55965351972e+18,-5.652947903,-16.55790901,11.73081875
62,1.55965351978e+18,-3.820063114,-11.05981636,-2.592068195
63,1.55965351984e+18,-1.452880502,-9.391232491,-2.423620939
64,1.5596535199e+18,-4.815960407,-4.828587532,0.8728199005
65,1.55965351996e+18,-3.261231422,-1.531160831,2.39963913
66,1.55965352002e+18,-0.1608240604,2.212821007,1.997018337
67,1.55965352008e+18,2.402874947,4.433420181,0.2414665222
68,1.55965352014e+18,3.26111269,3.220365286,-1.600397587
69,1.5596535202e+18,2.025197506,0.898665905,-7.461537361
70,1.55965352026e+18,-2.098381519,-2.973460913,-6.385286331
71,1.55965352032e+18,1.969240427,0.6612651944,-19.67323303
72,1.55965352038e+18,2.858457565,-2.5172925,-10.06133366
73,1.55965352044e+18,-7.779903889,-16.41987038,8.902290344
74,1.5596535205e+18,0.4592094421,-18.04181862,2.950735569
75,1.55965352056e+18,-6.689121246,-4.617052078,0.8702526093
76,1.55965352062e+18,-2.512223721,-4.210001945,7.560717583
77,1.55965352068e+18,-0.7616378069,-0.2350997925,3.31498003
78,1.55965352074e+18,-1.831098557,1.814226151,0.6726408005
79,1.5596535208e+18,2.45754528,2.401854753,-0.06293916702
80,1.55965352086e+18,-2.197676182,1.68329215,-3.784819603
81,1.55965352092e+18,2.332432032,1.990901351,-4.301567078
82,1.55965352098e+18,2.572712898,4.634972572,-14.34822273
83,1.55965352104e+18,1.981840372,2.870685816,-18.78979301
84,1.5596535211e+18,2.249332905,-1.069296598,-9.076581955
85,1.55965352116e+18,-1.577418089,-3.227630615,4.245743752
86,1.55965352122e+18,0.7836430073,-11.80659866,-7.668855667
87,1.55965352128e+18,-8.153787613,-11.88043118,6.132140636
88,1.55965352134e+18,-1.163676977,-2.871360779,8.453291893
89,1.5596535214e+18,-2.190637589,-0.7613854408,5.482020855
90,1.55965352146e+18,0.5817563534,1.024751663,1.902880192
91,1.55965352152e+18,-0.1498272419,-0.09037733078,-1.604424953
92,1.55965352158e+18,-0.1106112003,0.5520834923,-5.574615479
93,1.55965352164e+18,-0.02137613297,2.682806969,0.498509407
94,1.5596535217e+18,5.424753189,3.01368022,-7.603182793
95,1.55965352176e+18,4.637481689,3.310003996,-12.24801636
96,1.55965352182e+18,4.707049847,1.49043417,-12.45166016
97,1.55965352188e+18,3.015530586,0.1556088924,-8.576031685
98,1.55965352194e+18,0.1606345177,-3.1272192,-0.2688674927
99,1.559653522e+18,-1.050262928,-12.50972748,15.60136414
100,1.55965352206e+18,-11.8028841,-20.67117691,-2.511529684
101,1.55965352212e+18,-5.10347271,-3.874753952,2.121086836
102,1.55965352218e+18,-0.8928229809,-3.447377205,7.121949196
103,1.55965352224e+18,-1.638737202,-0.5249023438,3.510914326
104,1.5596535223e+18,-0.1460280418,0.1117706299,4.115982533
105,1.55965352236e+18,2.555075407,2.060297728,2.00361824
106,1.55965352242e+18,3.524751186,2.57872963,0.2011499405
107,1.55965352248e+18,3.232201576,3.001280069,-2.993017673
108,1.55965352254e+18,2.467638493,0.4792505503,-2.892791271
109,1.5596535226e+18,6.310290337,4.09892416,-2.998338223
110,1.55965352266e+18,5.48167038,1.977226734,-3.78427887
111,1.55965352272e+18,-1.836837888,-0.5179550648,-6.79454565
112,1.55965352278e+18,-5.816812515,-12.6650877,-18.06578064
113,1.55965352284e+18,-5.540410042,-14.41629028,-14.50276566
114,1.5596535229e+18,-3.380130768,-13.22924519,-2.44448185
115,1.55965352296e+18,-1.172798038,-8.423136711,7.886051178
116,1.55965352302e+18,-6.335410118,-6.862588882,12.89956379
117,1.55965352308e+18,-4.828848839,-2.004402637,11.12481308
118,1.55965352314e+18,-3.299140453,1.154837132,10.25055504
119,1.5596535232e+18,0.3493615389,1.677536011,4.329801559
120,1.55965352326e+18,2.257904768,-2.161607742,-0.9763708115
121,1.55965352332e+18,1.442427397,-1.859028339,-6.708730698
122,1.55965352338e+18,-4.510050774,1.586226583,-11.81993866
123,1.55965352344e+18,-1.336529374,7.181903839,-5.728708267
124,1.5596535235e+18,0.6519037485,6.054210186,-12.26021385
125,1.55965352356e+18,-0.0114979744,3.213304043,-8.307743073
126,1.55965352362e+18,-3.433516026,0.1979775429,5.562633514
127,1.55965352368e+18,-1.331939697,2.1334095,-7.586550236
128,1.55965352374e+18,-3.729701996,-12.87434196,6.942154884
129,1.5596535238e+18,-10.02787399,-5.882593155,1.897324085
130,1.55965352386e+18,-0.1412131786,-1.52780056,6.529390335
131,1.55965352392e+18,-1.920990705,1.069809437,3.004635334
132,1.55965352398e+18,-1.396973848,-0.2090606689,2.62221241
133,1.55965352404e+18,-0.6581125259,-0.2519807816,-0.4458060265
134,1.5596535241e+18,1.723607779,3.507127047,-1.879858017
135,1.55965352416e+18,2.708367586,2.356310844,-8.553013802
136,1.55965352422e+18,3.656222343,3.591926575,-17.87661743
137,1.55965352428e+18,3.914605141,2.581658125,-13.34083176
138,1.55965352434e+18,-0.04427045584,-0.4514284134,-0.7509489059
139,1.5596535244e+18,-6.901296139,-10.44868183,11.05575943
140,1.55965352446e+18,-0.9144186974,-11.68929672,0.3067612648
141,1.55965352452e+18,-4.943695545,-4.118281364,2.587963104
142,1.55965352458e+18,-6.242441177,-2.370648384,2.611011505
143,1.55965352464e+18,-1.705561399,-0.7095375061,3.697503567
144,1.5596535247e+18,1.828332663,1.230649471,0.5039229393
145,1.55965352476e+18,1.291006923,0.6327676773,0.5740160942
146,1.55965352482e+18,-0.656714797,3.616023064,-4.864906788
147,1.55965352488e+18,-1.472813129,6.72777462,-1.410748005
148,1.55965352494e+18,6.938224316,10.32868385,-13.9134388
149,1.559653525e+18,5.131104469,9.422538757,-10.78329849
150,1.55965352506e+18,0.4255364537,4.373239994,-2.757107258
151,1.55965352512e+18,-6.987506866,-16.8713932,15.97776604
152,1.55965352518e+18,6.763173103,-12.60821056,-6.18915081
153,1.55965352524e+18,-4.173986435,-3.942072868,-0.1352860928
154,1.5596535253e+18,-4.855460644,-1.455932617,3.127779245
155,1.55965352536e+18,-2.926416636,1.619220734,4.453238964
156,1.55965352542e+18,-1.175141096,2.839034081,2.939735413
157,1.55965352548e+18,0.7780845165,2.874501705,-0.01786422729
158,1.55965352554e+18,2.237049341,0.1569268703,-3.503555298
159,1.5596535256e+18,-1.674922943,-0.7443730831,-2.671861172
160,1.55965352566e+18,0.8080855608,1.565087557,-12.22290421
161,1.55965352572e+18,3.205481529,2.991428375,-17.95997238
162,1.55965352578e+18,2.5386796,1.728256226,-6.914778233
163,1.55965352584e+18,-9.572162628,-15.12638092,11.60441208
164,1.5596535259e+18,2.727703333,-10.46131516,-1.702327251
165,1.55965352596e+18,-4.180680275,-3.998634338,3.128702879
166,1.55965352602e+18,-4.428279877,-1.321961403,4.621904373
167,1.55965352608e+18,-3.718904018,-0.3190059662,3.547996521
168,1.55965352614e+18,-1.373116255,0.8154039383,4.109313011
169,1.5596535262e+18,-1.794038057,0.6387519836,0.8078536987
170,1.55965352626e+18,-0.001790046692,1.078176498,-2.15136528
171,1.55965352632e+18,1.247658849,1.344520569,-1.777748585
172,1.55965352638e+18,0.02196860313,3.653368473,-7.134791374
173,1.55965352644e+18,5.67486763,6.595338821,-13.28013611
174,1.5596535265e+18,3.704977989,3.010874748,-9.913722038
175,1.55965352656e+18,1.55600667,-0.7145624161,-0.1067070961
176,1.55965352662e+18,-5.972572327,-11.07819462,11.05721474
177,1.55965352668e+18,4.601697922,-12.12217331,-1.000561476
178,1.55965352674e+18,-4.880702019,-4.931290627,1.842311859
179,1.5596535268e+18,-5.41447258,-0.9702663422,2.851995468
180,1.55965352686e+18,-2.590876102,-0.0134344101,4.506764412
181,1.55965352692e+18,1.62417078,2.006825924,2.879570961
182,1.55965352698e+18,0.3667676449,1.716266155,-0.393222332
183,1.55965352704e+18,-0.4342796803,-1.14756012,0.4764666557
184,1.5596535271e+18,8.730573654,1.035117626,1.260962486
185,1.55965352716e+18,2.675418615,3.220227718,-14.90725613
186,1.55965352722e+18,2.825905561,5.755549431,-17.67454338
187,1.55965352728e+18,6.041218758,5.592123032,-8.616518974
188,1.55965352734e+18,-8.270569801,-15.92100716,14.45661354
189,1.5596535274e+18,3.893357992,-9.459908485,-2.576873541
190,1.55965352746e+18,-3.703700542,-6.441088676,3.229669333
191,1.55965352752e+18,-2.235564232,-0.5784902573,2.026239395
192,1.55965352758e+18,-0.1513876915,0.5954880714,3.646928787
193,1.55965352764e+18,-1.95526433,1.598913193,0.4416265488
194,1.5596535277e+18,-1.282215595,2.097360611,1.704499245
195,1.55965352776e+18,0.3617634773,3.569585323,0.9164562225
196,1.55965352782e+18,0.1063127518,4.133461952,0.2581672668
197,1.55965352788e+18,1.355407476,3.549118996,1.892448902
198,1.55965352794e+18,1.185122728,3.2220819,-2.550908089
199,1.559653528e+18,3.651581287,6.833889961,-10.99096489
200,1.55965352806e+18,5.210790634,4.41351223,-7.564342022
201,1.55965352812e+18,-4.130718231,-2.276352406,6.581398487
202,1.55965352818e+18,4.635324478,-11.58810902,-6.782468796
203,1.55965352824e+18,-4.222299576,-11.89185143,0.9720211029
204,1.5596535283e+18,-4.673953056,-3.448518753,1.421420574
205,1.55965352836e+18,-2.273483515,-1.893184185,3.824808121
206,1.55965352842e+18,-0.9049901962,0.6367759705,3.911969662
207,1.55965352848e+18,-0.701375246,0.2321233749,0.5492248535
208,1.55965352854e+18,-0.245652914,0.01904344559,-1.393416882
209,1.5596535286e+18,-3.358804464,1.178088665,-0.8168120384
210,1.55965352866e+18,2.844673872,1.65734911,-6.299242973
211,1.55965352872e+18,4.825829983,2.79858017,-11.68373966
212,1.55965352878e+18,6.056612015,1.372954845,-12.57596493
213,1.55965352884e+18,2.672718048,-1.312304258,-6.655216217
214,1.5596535289e+18,0.2923414707,-2.944261551,3.308056355
215,1.55965352896e+18,1.157223821,-5.498483181,8.271848679
216,1.55965352902e+18,-6.359294891,-12.15376282,0.495695591
217,1.55965352908e+18,-4.50932312,-2.720668793,1.935338974
218,1.55965352914e+18,-3.332855463,-0.04285335541,2.66211915
219,1.5596535292e+18,1.435186863,0.9922447205,2.51234293
220,1.55965352926e+18,1.724877954,-0.0374288559,2.632953167
221,1.55965352932e+18,2.677468538,0.003135204315,1.307734489
222,1.55965352938e+18,-1.533673048,0.8836650848,-0.556825161
223,1.55965352944e+18,2.944755316,1.324006081,-0.180390358
224,1.5596535295e+18,1.795360804,4.745155334,-8.267318726
225,1.55965352956e+18,5.007287979,5.983922005,-12.51762962
226,1.55965352962e+18,2.405350208,2.939860821,-5.344560623
227,1.55965352968e+18,-5.063268661,-1.09180975,4.836571693
228,1.55965352974e+18,5.117337704,-9.142389297,-0.04041481018
229,1.5596535298e+18,-6.567685127,-9.889966011,0.9673242569
230,1.55965352986e+18,-3.229004383,-1.178623199,1.146070957
231,1.55965352992e+18,-3.632302284,-0.7729320526,3.569272041
232,1.55965352998e+18,-0.3585443497,0.8492984772,2.138077736
233,1.55965353004e+18,0.6650278568,1.13269186,0.1579146385
234,1.5596535301e+18,1.295686722,1.803164721,-0.1044330597
235,1.55965353016e+18,-3.170505524,3.601780891,-4.657184601
236,1.55965353022e+18,5.290980816,3.678521156,-4.525333405
237,1.55965353028e+18,8.413734436,8.14988327,-11.45564651
238,1.55965353034e+18,5.251276493,5.468647957,-7.353048325
239,1.5596535304e+18,-3.464813232,-5.85245657,6.118431568
240,1.55965353046e+18,2.589683294,-11.24339104,3.583465099
241,1.55965353052e+18,-5.620753288,-13.04791355,-2.509212494
242,1.55965353058e+18,-1.777263403,-2.490189552,2.334950447
243,1.55965353064e+18,-1.682245255,-1.442433834,5.991625309
244,1.5596535307e+18,-0.9985842705,0.7594428062,1.480605125
245,1.55965353076e+18,0.6916680336,1.007565975,0.6672592163
246,1.55965353082e+18,1.427828312,1.027204752,-0.05518817902
247,1.55965353088e+18,0.1912698746,1.174695253,-3.526894569
248,1.55965353094e+18,1.438013077,0.1235687733,-5.604645729
249,1.559653531e+18,0.4471940994,1.380196571,-6.603964806
250,1.55965353106e+18,5.596666813,3.414059162,-12.48003483
251,1.55965353112e+18,4.969828606,2.566436768,-12.16544151
252,1.55965353118e+18,-0.2711765766,-5.317588329,3.112870216
253,1.55965353124e+18,-2.708618879,-12.45630074,11.99900246
254,1.5596535313e+18,1.551255822,-10.69318485,-1.006264687
255,1.55965353136e+18,-0.7570323944,-2.944440842,1.256130695
256,1.55965353142e+18,0.0394077301,-2.500717163,6.264322758
257,1.55965353148e+18,-0.8947374821,-1.100427151,6.322697639
258,1.55965353154e+18,3.059958696,1.504584312,2.471188068
259,1.5596535316e+18,2.007757187,-1.013329983,-0.5214753151
260,1.55965353166e+18,-0.3528513908,-0.4532196522,-4.23622036
261,1.55965353172e+18,3.07817626,1.809286714,-5.358025551
262,1.55965353178e+18,3.956590652,5.01167202,-13.32260036
263,1.55965353184e+18,4.585704803,5.135493279,-13.14377785
264,1.5596535319e+18,5.535598755,5.749534607,-14.06441116
265,1.55965353196e+18,-3.085235596,-7.55756712,3.320206642
266,1.55965353202e+18,-4.364163399,-11.83519173,8.246702194
267,1.55965353208e+18,-2.536918879,-12.43007183,0.5246560574
268,1.55965353214e+18,-2.573885918,-4.267046928,1.612295866
269,1.5596535322e+18,-0.6309430599,-4.043441772,5.532522202
270,1.55965353226e+18,1.154649854,0.1849093437,3.475557327
271,1.55965353232e+18,0.6413779259,1.749621391,0.01870727539
272,1.55965353238e+18,0.6893045902,3.532133102,-3.934398651
273,1.55965353244e+18,-0.4593858719,2.104404449,-3.948794365
274,1.5596535325e+18,-0.6097307205,2.812541008,-1.749660969
275,1.55965353256e+18,0.9195539951,4.374135971,-4.817576408
276,1.55965353262e+18,3.160404444,3.547044754,-7.006183624
277,1.55965353268e+18,4.563411713,2.791400433,-8.503790855
278,1.55965353274e+18,-0.8184185028,-5.423316002,2.233574867
279,1.5596535328e+18,0.7641699314,1.68631959,-1.081367493
280,1.55965353286e+18,2.081993103,-15.10993767,-1.884164333
281,1.55965353292e+18,-8.292192459,-9.493975639,10.24142647
282,1.55965353298e+18,-1.23324728,-0.4891781807,7.665682316
283,1.55965353304e+18,0.4984703064,0.6315355301,4.543833256
284,1.5596535331e+18,1.065811634,-0.002660751343,3.793973923
285,1.55965353316e+18,2.044032097,-0.7695841789,1.781142235
286,1.55965353322e+18,0.1280596256,-0.4769438505,-1.889512062
287,1.55965353328e+18,0.5963499546,-1.737573624,-5.020761013
288,1.55965353334e+18,0.4768099785,2.569422245,-3.434798241
289,1.5596535334e+18,2.596008301,1.411892056,-8.834559441
290,1.55965353346e+18,4.205330849,-3.696597576,-12.8835659
291,1.55965353352e+18,1.851499796,-6.269253731,-15.20622826
292,1.55965353358e+18,-0.7249011993,-10.85978317,-3.712786198
293,1.55965353364e+18,-3.242439747,-10.80552483,1.785793781
294,1.5596535337e+18,1.206365943,-9.249580383,8.063732147
295,1.55965353376e+18,-1.915757537,-3.75170517,11.806427
296,1.55965353382e+18,-2.498989344,-1.700575829,10.71837807
297,1.55965353388e+18,-2.878774881,0.3817510605,9.561950684
298,1.55965353394e+18,0.4551227093,1.69471693,5.781878471
299,1.559653534e+18,1.834542751,0.16142416,1.603184223
300,1.55965353406e+18,1.600756288,-0.71342659,-4.099048138
301,1.55965353412e+18,-0.5925750732,1.996173024,-4.944523811
302,1.55965353418e+18,2.692565203,5.969484329,-10.6327076
303,1.55965353424e+18,8.303754807,9.213152885,-14.63652229
304,1.5596535343e+18,4.782114506,6.175540924,-9.725076675
305,1.55965353436e+18,1.201579571,1.933406353,0.7343797684
306,1.55965353442e+18,-5.641919136,-12.15237904,11.64432526
307,1.55965353448e+18,4.471061707,-17.9399662,1.705449939
308,1.55965353454e+18,-5.138301373,-5.605242729,-0.9613214731
309,1.5596535346e+18,-4.031643867,-2.633112907,6.499509335
310,1.55965353466e+18,2.777428389,0.3143606186,7.449511528
311,1.55965353472e+18,0.9462869167,2.769183636,1.314443111
312,1.55965353478e+18,1.333269119,0.6202321053,-0.5009503365
313,1.55965353484e+18,-0.5575752258,0.9555597305,-5.734658241
314,1.5596535349e+18,3.837981701,4.638805389,-2.218398094
315,1.55965353496e+18,5.12280798,8.462215424,-14.25017643
316,1.55965353502e+18,6.689059258,7.598950386,-10.79248714
317,1.55965353508e+18,4.474416256,5.577227116,-5.69814539
318,1.55965353514e+18,-5.437709808,-9.87987709,12.71099186
319,1.5596535352e+18,2.157003641,-11.43560791,-0.2310009003
320,1.55965353526e+18,-4.821681499,-8.586464882,2.503687143
321,1.55965353532e+18,-5.105638504,-2.139569283,2.80899334
322,1.55965353538e+18,-2.415069818,-1.561174393,3.377609491
323,1.55965353544e+18,-0.2752015591,0.8411922455,2.385531902
324,1.5596535355e+18,-1.253184557,2.748470306,1.791323185
325,1.55965353556e+18,0.7137093544,3.314168215,0.395128727
326,1.55965353562e+18,2.643567562,4.77390337,-0.6544795036
327,1.55965353568e+18,2.68692565,5.188351631,0.9689331055
328,1.55965353574e+18,5.395929813,4.214090824,0.9148759842
329,1.5596535358e+18,2.007219315,4.691096306,-5.698208809
330,1.55965353586e+18,4.663167,5.008091927,-11.74375725
331,1.55965353592e+18,-1.616483569,-1.057265997,-9.07888031
332,1.55965353598e+18,-3.085923195,-6.02847147,3.753009796
333,1.55965353604e+18,2.243558645,-7.071097374,-11.10397911
334,1.5596535361e+18,-5.983790398,-9.410655022,2.74890089
335,1.55965353616e+18,4.09244442,-2.106377602,6.717268944
336,1.55965353622e+18,-5.134786606,-0.8773832321,6.869864464
337,1.55965353628e+18,-2.092378139,1.404774666,5.861885071
338,1.55965353634e+18,-0.9391407967,0.7619919777,3.229681015
339,1.5596535364e+18,-3.8215065,1.147219181,4.47402668
340,1.55965353646e+18,0.1068785191,2.445225716,-4.597261906
341,1.55965353652e+18,1.158480883,4.26594305,-8.529522896
342,1.55965353658e+18,1.56812644,3.314733028,-9.645318031
343,1.55965353664e+18,1.056015491,0.808049798,-8.86152935
344,1.5596535367e+18,1.907004833,0.6498011351,-9.482313156
345,1.55965353676e+18,1.897765398,-1.648819208,-5.718011856
346,1.55965353682e+18,-2.164741278,-4.392726421,2.962537766
347,1.55965353688e+18,-0.3580608368,-7.851210117,-4.46583271
348,1.55965353694e+18,-4.529770851,-12.83817387,6.861467838
349,1.559653537e+18,-0.2372801304,-2.60686779,6.090285301
350,1.55965353706e+18,-0.73178792,-1.978384972,8.41629982
351,1.55965353712e+18,1.90158987,-0.4931287766,5.01447916
352,1.55965353718e+18,1.871326685,-1.868861198,3.075205326
353,1.55965353724e+18,2.859742641,-2.158945084,2.349000454
354,1.5596535373e+18,-1.069928169,2.350286961,-4.217488289
355,1.55965353736e+18,4.148599625,3.618581057,-7.440493107
356,1.55965353742e+18,3.32837677,3.347467422,-10.64737892
357,1.55965353748e+18,4.447129726,2.231135368,-11.62282467
358,1.55965353754e+18,4.889801979,1.256835699,-7.880174637
359,1.5596535376e+18,1.217917442,-2.45290184,1.672230244
360,1.55965353766e+18,-2.716132164,-10.8423214,8.507642746
361,1.55965353772e+18,1.457202911,-12.19591331,1.927235365
362,1.55965353778e+18,-5.533987045,-5.442558289,0.4863539934
363,1.55965353784e+18,0.007617235184,-3.39791584,6.437712669
364,1.5596535379e+18,1.159766912,-1.083996773,5.428027153
365,1.55965353796e+18,-0.462574482,0.816839695,3.440440655
366,1.55965353802e+18,1.693234921,2.862412214,1.631705284
367,1.55965353808e+18,1.430248499,3.071263313,-2.196605682
368,1.55965353814e+18,2.194767475,0.3858423233,-2.67856741
369,1.5596535382e+18,3.153924227,0.1955762506,-6.500898361
370,1.55965353826e+18,5.679615974,1.424848676,-14.98045158
371,1.55965353832e+18,5.201933384,1.475583076,-12.08903313
372,1.55965353838e+18,2.134302139,-0.3391461372,-3.92616415
373,1.55965353844e+18,-6.042506218,-6.168307781,7.775934696
374,1.5596535385e+18,8.574033737,-10.79755211,-3.256249905
375,1.55965353856e+18,-9.229265213,-6.539525032,2.697459221
376,1.55965353862e+18,-1.602562189,-1.901916504,5.510855675
377,1.55965353868e+18,0.6860573292,0.5162367821,4.407227993
378,1.55965353874e+18,-0.4514160156,0.4991030693,3.659101963
379,1.5596535388e+18,-0.3670992851,1.20512104,0.2770795822
380,1.55965353886e+18,1.081888914,1.939069033,-3.433655262
381,1.55965353892e+18,1.689273834,5.907832146,-3.904684067
382,1.55965353898e+18,6.772654533,9.996203423,-14.50676823
383,1.55965353904e+18,5.044188023,6.784337997,-9.47655201
384,1.5596535391e+18,-1.552853823,1.451243877,0.5110988617
385,1.55965353916e+18,-4.38521719,-10.80541801,5.925592899
386,1.55965353922e+18,-3.39192462,-14.65781689,3.469221115
387,1.55965353928e+18,-4.76355648,-1.330949783,3.102277756
388,1.55965353934e+18,0.03256440163,-1.124008179,7.174451828
389,1.5596535394e+18,-0.3304886818,0.1026511192,2.842762947
390,1.55965353946e+18,0.9220058918,0.753159523,0.6624541283
391,1.55965353952e+18,1.548788071,1.742889166,-1.303712368
392,1.55965353958e+18,2.109041929,3.510597706,-3.04691267
393,1.55965353964e+18,0.7013735771,1.097639799,-4.571115017
394,1.5596535397e+18,4.049645901,1.486934662,-6.364404678
395,1.55965353976e+18,3.198056221,3.328987598,-11.65532589
396,1.55965353982e+18,-1.521772623,-1.704520226,3.019635677
397,1.55965353988e+18,1.105853319,-1.012420177,0.5793466568
398,1.55965353994e+18,-10.44618893,-15.67372608,4.817926884
399,1.55965354e+18,-3.58166337,-2.507492542,6.260172844
400,1.55965354006e+18,-0.1382296085,-0.850484848,4.929296017
401,1.55965354012e+18,-0.9437739849,-0.6011047363,0.7583036423
402,1.55965354018e+18,0.8256733418,0.6313924789,-0.4326806068
403,1.55965354024e+18,0.3736898899,3.777145386,0.3980288506
404,1.5596535403e+18,-0.05646920204,4.013015747,1.389312744
405,1.55965354036e+18,-0.254794836,2.956564188,-2.697163105
406,1.55965354042e+18,1.413936019,0.1819995046,-4.846644402
407,1.55965354048e+18,0.9577963352,0.7598742247,-2.430569649
408,1.55965354054e+18,-0.001804113388,4.910908699,-2.812892437
409,1.5596535406e+18,1.528327227,0.8618730307,-6.070216179
410,1.55965354066e+18,5.657971382,-4.605789185,-15.9538641
411,1.55965354072e+18,2.781396389,-8.28126049,-11.24467945
412,1.55965354078e+18,-2.098035336,-10.73922253,8.203054428
413,1.55965354084e+18,-6.353377819,-10.52406216,8.245868683
414,1.5596535409e+18,-2.181676149,-3.529151917,8.260187149
415,1.55965354096e+18,1.523781896,-0.3589301109,4.460379124
416,1.55965354102e+18,-0.7747187614,1.114861488,3.584608078
417,1.55965354108e+18,-1.14253521,1.574866295,1.593336582
418,1.55965354114e+18,-0.1587052345,1.783134699,1.402183056
419,1.5596535412e+18,-9.313724518,-10.69916153,12.98228073
420,1.55965354126e+18,2.524836063,-0.5193018913,-11.96940613
421,1.55965354132e+18,1.804712653,11.95600319,-20.78303146
422,1.55965354137e+18,12.27996635,16.89393806,-13.56350136
423,1.55965354143e+18,1.159515977,-5.625216961,3.045899391
424,1.55965354149e+18,1.449174404,-20.72359657,3.396206856
425,1.55965354155e+18,-8.528803825,-17.21827698,2.677072048
426,1.55965354161e+18,2.646738529,-3.545545101,2.605552673
427,1.55965354167e+18,1.041893005,-0.5546579361,1.391146183
428,1.55965354173e+18,-1.027115345,0.7597670555,2.730311871
429,1.55965354179e+18,0.123749733,1.509987593,0.2514390945
430,1.55965354185e+18,-0.2609066963,2.481763363,-0.08251857758
431,1.55965354191e+18,0.6769878864,2.321144581,-5.654151917
432,1.55965354197e+18,2.764890909,-1.732894301,-0.1298370361
433,1.55965354203e+18,4.288293362,-0.2285077572,-13.60190582
434,1.55965354209e+18,3.85000205,-2.788383484,-14.17470551
435,1.55965354215e+18,-2.546151638,-5.278847218,-0.3683195114
436,1.55965354221e+18,-0.2321395874,-4.298249245,3.821468353
437,1.55965354227e+18,-4.868041992,-11.96334076,6.110240459
438,1.55965354233e+18,-5.639750957,-1.140135765,2.461256027
439,1.55965354239e+18,4.204494953,-1.42099905,7.208765984
440,1.55965354245e+18,0.04094028473,-1.063114643,2.230068684
441,1.55965354251e+18,1.461681604,-1.21249342,2.23733902
442,1.55965354257e+18,0.7934553623,1.745954156,-0.4110579491
443,1.55965354263e+18,0.6637609005,1.217506409,-1.148139954
444,1.55965354269e+18,0.4026019573,-0.5836718082,1.060486794
445,1.55965354275e+18,2.957135201,1.254490614,-12.38584709
446,1.55965354281e+18,2.042279243,-0.2125790119,-14.90842247
447,1.55965354287e+18,1.074608445,-2.923299789,-2.935752869
448,1.55965354293e+18,-2.077643871,-2.249877453,1.262859344
449,1.55965354299e+18,2.707301617,-13.33151531,0.4963598251
450,1.55965354305e+18,-6.675376892,-5.021951675,7.820293903
451,1.55965354311e+18,1.257580757,0.04142379761,6.925914288
452,1.55965354317e+18,-2.464473724,0.3050398827,4.225655079
453,1.55965354323e+18,0.6536064148,0.3685865402,2.372788906
454,1.55965354329e+18,-1.466434479,0.8746814728,-1.041100025
455,1.55965354335e+18,-2.511345387,3.04426384,-0.1403622627
456,1.55965354341e+18,-0.7306089401,3.071285725,-2.14048624
457,1.55965354347e+18,-0.1529145241,-0.5446495414,-2.2745924
458,1.55965354353e+18,1.614213705,-5.699419022,-5.358942986
459,1.55965354359e+18,5.879897118,-3.096116543,-11.77086067
460,1.55965354365e+18,2.991209507,-2.618499994,-12.91635609
461,1.55965354371e+18,2.530466557,-3.610584497,-3.027816772
462,1.55965354377e+18,1.13605547,-5.509165287,5.806999683
463,1.55965354383e+18,3.876045227,-12.80025864,4.94035387
464,1.55965354389e+18,-8.579126358,-7.26899147,4.186430931
465,1.55965354395e+18,0.3261666298,-2.047228336,9.442409515
466,1.55965354401e+18,0.8792893887,1.169973373,4.235573292
467,1.55965354407e+18,0.7393264771,2.077291012,1.582850933
468,1.55965354413e+18,1.293352127,1.023142815,-1.31936121
469,1.55965354419e+18,1.927636147,0.3601531982,-4.208667278
470,1.55965354425e+18,0.8345291615,0.8673164845,-6.550174713
471,1.55965354431e+18,2.772388935,1.665803075,-0.8461580276
472,1.55965354437e+18,7.449244499,6.79467535,-14.70521355
473,1.55965354443e+18,4.827513695,3.381865263,-8.13143158
474,1.55965354449e+18,0.8882160187,-3.194894314,3.855966568
475,1.55965354455e+18,-2.952712774,-14.23873806,10.60684299
476,1.55965354461e+18,-4.221247673,-14.66510773,1.544745684
477,1.55965354467e+18,-1.202741146,-1.958187103,2.294676542
478,1.55965354473e+18,-0.2587313652,-1.644384384,7.018379211
479,1.55965354479e+18,0.9652593136,1.273729324,1.961426258
480,1.55965354485e+18,0.004904270172,2.072759628,0.01079654694
481,1.55965354491e+18,1.248919487,2.058751106,0.4901847839
482,1.55965354497e+18,-1.90521431,2.018287897,-3.204258442
483,1.55965354503e+18,-0.2078061104,2.345619678,-3.424412251
484,1.55965354509e+18,3.599357128,4.677721977,-9.690643311
485,1.55965354515e+18,6.810388088,5.804198265,-11.4902916
486,1.55965354521e+18,2.33316946,0.5269775391,-0.6987190247
487,1.55965354527e+18,-0.3985683918,0.02420949936,4.004276276
488,1.55965354533e+18,-5.622537613,-17.37199974,3.563329697
489,1.55965354539e+18,-4.912425995,-4.787257195,3.764829159
490,1.55965354545e+18,2.469129562,-0.01587152481,4.215263844
491,1.55965354551e+18,-0.9650707245,0.8506350517,2.695959568
492,1.55965354557e+18,-0.2578654289,1.554302216,1.69999218
493,1.55965354563e+18,0.1170182228,1.538222551,1.891541004
494,1.55965354569e+18,1.580241203,1.119146585,-3.368900776
495,1.55965354575e+18,0.7408537865,1.547684073,-3.661531448
496,1.55965354581e+18,3.004625797,2.227468729,-8.417889595
497,1.55965354587e+18,4.559146881,4.383560658,-12.49560833
498,1.55965354593e+18,3.151304722,-0.04306507111,-3.372719288
499,1.55965354599e+18,-2.911610603,-0.3923945427,3.442090034
500,1.55965354605e+18,7.361894608,-8.456851959,-1.30523634
501,1.55965354611e+18,-8.611976624,-6.447294712,1.033040047
502,1.55965354617e+18,-0.4514408112,0.5933289528,7.405478954
503,1.55965354623e+18,0.8685696125,0.2822093964,6.235327721
504,1.55965354629e+18,-0.5725307465,0.6318492889,2.706579208
505,1.55965354635e+18,-0.1759495735,1.244468689,0.5767173767
506,1.55965354641e+18,-0.001500606537,1.650812387,-0.6947274208
507,1.55965354647e+18,-2.282296181,0.3830127716,-4.358067513
508,1.55965354653e+18,3.479957819,2.079235554,-1.856650829
509,1.55965354659e+18,5.772445679,4.459261894,-16.70475006
510,1.55965354665e+18,3.736911535,0.6968384981,-10.51986885
511,1.55965354671e+18,1.793631792,-0.5129437447,-2.296490669
512,1.55965354677e+18,-5.406376839,-8.123600006,8.454692841
513,1.55965354683e+18,1.231070638,-11.04706192,2.415341854
514,1.55965354689e+18,-5.892953396,-4.704547882,2.944028139
515,1.55965354695e+18,0.04546141624,-1.160987377,4.773427963
516,1.55965354701e+18,0.4776010513,0.5415630341,2.989956856
517,1.55965354707e+18,0.1199407578,0.9704174995,1.041733265
518,1.55965354713e+18,1.049885035,1.740010977,-0.4595813751
519,1.55965354719e+18,0.8247885704,1.538619518,-1.904536724
520,1.55965354725e+18,0.0652384758,0.3064930439,-4.120252609
521,1.55965354731e+18,7.328875542,5.33381176,-4.478174686
522,1.55965354737e+18,3.138638735,5.046233177,-11.19765854
523,1.55965354743e+18,-1.927030325,-0.1725902557,0.09549331665
524,1.55965354749e+18,1.057178617,-0.8625588417,4.034611225
525,1.55965354755e+18,-0.2918131351,-13.63210869,-1.054879665
526,1.55965354761e+18,-12.33691788,-2.531185627,2.035425186
527,1.55965354767e+18,3.043570518,-0.0172791481,6.01432085
528,1.55965354773e+18,-1.571652412,0.4947452545,2.5579319
529,1.55965354779e+18,-1.80500555,0.45297575,0.3759799004
530,1.55965354785e+18,-0.2546892166,0.07538604736,-0.9733114243
531,1.55965354791e+18,0.5892047882,0.9095678329,-3.600772858
532,1.55965354797e+18,0.3726627827,1.546901703,-4.881762028
533,1.55965354803e+18,4.974057198,3.036740065,-2.779773235
534,1.55965354809e+18,2.961975098,5.340675831,-8.120540619
535,1.55965354815e+18,-0.1148843765,0.3444080353,-1.627378464
536,1.55965354821e+18,-3.41037631,-1.66404438,7.157370567
537,1.55965354827e+18,8.564632416,-3.552803993,-6.913993835
538,1.55965354833e+18,-3.997818947,-6.635710716,5.229606152
539,1.55965354839e+18,-2.206478596,2.441851616,3.384585857
540,1.55965354845e+18,-2.779211521,1.080126762,4.442806721
541,1.55965354851e+18,-0.2305102348,0.3168210983,2.42579174
542,1.55965354857e+18,0.3992037773,0.3608322144,1.826113701
543,1.55965354863e+18,0.6005666256,0.3411433697,-1.778038979
544,1.55965354869e+18,-0.4398822784,-0.5210266113,-3.309486389
545,1.55965354875e+18,-0.002902746201,-0.8020350933,-5.814762115
546,1.55965354881e+18,1.871468186,-0.06002545357,-6.190267563
547,1.55965354887e+18,5.461069584,3.734695911,-13.76776886
548,1.55965354893e+18,3.036324978,-0.6230783463,-3.99953413
549,1.55965354899e+18,-1.898646593,-4.746439934,12.42375088
550,1.55965354905e+18,5.601737022,-7.663902283,1.482781887
551,1.55965354911e+18,-1.849047184,-3.98156786,2.083091259
552,1.55965354917e+18,-3.059807777,0.8373556137,2.575165272
553,1.55965354923e+18,-2.250246048,0.3625230789,3.239048958
554,1.55965354929e+18,1.95243907,1.903400421,1.309216499
555,1.55965354935e+18,2.278467417,1.759529114,0.5707559586
556,1.55965354941e+18,1.896904945,1.773460627,0.3650956154
557,1.55965354947e+18,4.426606178,-0.5158946514,-0.7205591202
558,1.55965354953e+18,0.2638931274,2.472814083,-1.437947273
559,1.55965354959e+18,6.39009428,5.042116165,-11.71536636
560,1.55965354965e+18,2.709988594,1.881932139,-7.488787651
561,1.55965354971e+18,2.163574219,1.554184437,1.365823269
562,1.55965354977e+18,6.769747257,-8.523910522,-0.7555999756
563,1.55965354983e+18,-10.19508743,-11.09535885,3.268094063
564,1.55965354989e+18,-1.726379395,-0.8218836784,3.42592001
565,1.55965354995e+18,0.03466534615,0.02285289764,4.252999783
566,1.55965355001e+18,-1.135262012,1.365841389,2.140570164
567,1.55965355007e+18,0.05667996407,1.765826225,0.4575748444
568,1.55965355013e+18,0.6640353203,1.976680875,-1.19796133
569,1.55965355019e+18,0.7443306446,0.834210515,-2.596439362
570,1.55965355025e+18,1.073321819,-0.7865320444,-4.181179047
571,1.55965355031e+18,2.292051554,0.228438139,-2.789033413
572,1.55965355037e+18,3.835909605,1.782712936,-10.84315014
573,1.55965355043e+18,0.4854900837,-1.554022789,-7.633593559
574,1.55965355049e+18,-1.353011608,-2.694898129,3.764354706
575,1.55965355055e+18,4.052087307,-5.001707554,1.148071289
576,1.55965355061e+18,-8.423610687,-11.67084026,2.591640949
577,1.55965355067e+18,-1.070662975,0.7057733536,2.875833988
578,1.55965355073e+18,-1.231173277,0.142282486,5.907500267
579,1.55965355079e+18,-2.578666687,1.563862801,2.338138103
580,1.55965355085e+18,0.7545335293,0.6105184555,1.332902431
581,1.55965355091e+18,-0.500518322,0.3515269756,-1.607176781
582,1.55965355097e+18,-1.605237961,0.1848890781,-4.372587681
583,1.55965355103e+18,-1.301116943,0.4893473387,-4.799661636
584,1.55965355109e+18,3.357526779,-1.148278117,0.2006797791
585,1.55965355115e+18,6.111627579,4.738163948,-12.53090668
586,1.55965355121e+18,5.620983124,1.978972673,-11.43053055
587,1.55965355127e+18,0.96271348,-2.093918324,2.715799332
588,1.55965355133e+18,-0.7895498276,-9.701913834,10.14450645
589,1.55965355139e+18,1.971379995,-13.50210571,0.462521553
590,1.55965355145e+18,-5.912545204,-2.9678545,1.667489052
591,1.55965355151e+18,2.272011757,-0.4919471741,5.764661789
592,1.55965355157e+18,0.5001688004,0.356464386,4.16959095
593,1.55965355163e+18,-0.6436748505,0.8054785728,2.35120821
594,1.55965355169e+18,1.129450798,1.937155724,1.199418068
595,1.55965355175e+18,1.418878078,2.756194353,-1.716877937
596,1.55965355181e+18,0.05584263802,2.974292994,-0.001569747925
597,1.55965355187e+18,4.480437279,2.893727779,-5.452468395
598,1.55965355193e+18,1.590440869,2.310925007,-11.45916939
599,1.55965355199e+18,1.20415926,-1.449676991,-9.106694221
600,1.55965355205e+18,-3.637303352,-6.539651394,-0.9562439919
601,1.55965355211e+18,2.016925335,-8.485290527,-1.992344379
602,1.55965355217e+18,1.180006862,-8.272139549,4.103451729
603,1.55965355223e+18,-0.4413950443,-1.754735947,7.693865776
604,1.55965355229e+18,-1.316334724,-0.6045246124,6.105816364
605,1.55965355235e+18,-0.8983368874,2.162607193,4.061315536
606,1.55965355241e+18,1.10794878,3.675211906,2.160416126
607,1.55965355247e+18,1.09505105,3.484608889,0.1012182236
608,1.55965355253e+18,-0.4588170052,1.816682577,-1.735845566
609,1.55965355259e+18,0.302791357,0.5727112889,-3.518388271
610,1.55965355265e+18,-0.04245328903,-1.524183273,-5.487279892
611,1.55965355271e+18,2.746632814,-1.541579723,-7.900411606
612,1.55965355277e+18,4.538868904,0.1931195259,-12.28442383
613,1.55965355283e+18,1.5350703,-4.058916569,-3.894915581
614,1.55965355289e+18,-1.620617867,-7.359860897,7.226565361
615,1.55965355295e+18,0.7166442871,-14.20182419,1.713681698
616,1.55965355301e+18,-4.494128227,-3.049757004,4.403868675
617,1.55965355307e+18,3.698354721,-0.5989665985,7.064323902
618,1.55965355313e+18,-0.8698415756,0.6339287758,2.262748241
619,1.55965355319e+18,-0.4773893356,1.410038948,1.682449818
620,1.55965355325e+18,0.6329059601,0.8279247284,-0.5076260567
621,1.55965355331e+18,1.28723526,-0.08393716812,-3.271694183
622,1.55965355337e+18,-0.6834380627,1.113991737,-7.414078712
623,1.55965355343e+18,4.08586216,7.996024132,-4.219145298
624,1.55965355349e+18,5.139634132,8.724973679,-10.19006348
625,1.55965355355e+18,2.407723188,1.655968189,-2.288363934
626,1.55965355361e+18,0.9144803286,-10.38805199,6.146305561
627,1.55965355367e+18,-5.512060165,-14.37116528,-3.136782169
628,1.55965355373e+18,-0.4024027586,-5.026679993,4.610133171
629,1.55965355379e+18,-1.331213236,-2.527550697,4.678556919
630,1.55965355385e+18,-0.4175896645,1.059086323,-0.2276611328
631,1.55965355391e+18,0.8806841373,3.081101418,1.432866096
632,1.55965355397e+18,1.598728418,3.845365047,2.417732239
633,1.55965355403e+18,1.847985148,4.350557327,0.8991622925
634,1.55965355409e+18,1.101689339,3.104057312,-1.89932394
635,1.55965355415e+18,1.906333208,0.6180096865,-5.01758194
636,1.55965355421e+18,3.207063437,1.700260878,-7.581301689
637,1.55965355427e+18,2.628156662,3.096240997,-9.120820999
638,1.55965355433e+18,-1.904200315,-1.044613361,0.4772634506
639,1.55965355439e+18,-0.7492318153,-10.25869942,7.126609802
640,1.55965355445e+18,-6.704267979,-16.13084984,-3.072365284
641,1.55965355451e+18,-0.7517576218,-3.941319942,0.5960903168
642,1.55965355457e+18,-0.09527444839,-0.8302764893,3.564408302
643,1.55965355463e+18,0.8753395081,0.6428880692,4.59525013
644,1.55965355469e+18,-0.748758316,2.073654652,2.569343567
645,1.55965355475e+18,-1.671532154,3.212120056,-0.4979338646
646,1.55965355481e+18,-0.7611446381,2.82068944,-3.21457386
647,1.55965355487e+18,0.1024646759,0.5747311115,-5.527626038
648,1.55965355493e+18,1.426196694,-1.723920822,-5.06970644
649,1.55965355499e+18,2.272806168,1.729737997,-8.442791939
650,1.55965355505e+18,5.137806892,2.470525265,-10.61336231
651,1.55965355511e+18,1.020451307,-1.296272278,-1.069049835
652,1.55965355517e+18,-4.497976303,-8.438529968,6.280188084
653,1.55965355523e+18,3.722998142,-12.62811279,-2.536491632
654,1.55965355529e+18,-4.451053619,-4.89106226,0.6004748344
655,1.55965355535e+18,1.135105848,-1.868607521,4.47496748
656,1.55965355541e+18,0.6168718338,0.03551769257,2.613929749
657,1.55965355547e+18,-0.70855093,0.3568782806,2.03289032
658,1.55965355553e+18,1.871428251,0.3664889336,-0.7728843689
659,1.55965355559e+18,3.962447643,0.2506651878,-2.268840313
660,1.55965355565e+18,4.501886368,2.439746141,-3.973004341
661,1.55965355571e+18,3.597573519,2.30255127,-3.798130989
662,1.55965355577e+18,2.446253777,0.1059098244,2.96204567
663,1.55965355583e+18,2.26453495,1.639201403,0.2770442963
664,1.55965355589e+18,0.8588902354,0.2854727805,-14.1078167
665,1.55965355595e+18,-1.761105537,-4.39922142,-11.26725674
666,1.55965355601e+18,-9.181465149,-9.706195831,1.920636177
667,1.55965355607e+18,-0.5368975401,-13.62492561,-0.6803340912
668,1.55965355613e+18,0.1546757221,-1.215453625,6.630104065
669,1.55965355619e+18,1.194388032,-1.726462841,9.507471085
670,1.55965355625e+18,-4.162368774,-1.801172256,3.453213692
671,1.55965355631e+18,0.2317781448,-0.537797451,4.593326569
672,1.55965355637e+18,0.802056551,1.093898535,0.4529571533
673,1.55965355643e+18,0.151039362,0.8716144562,-1.910450935
674,1.55965355649e+18,-0.5775945187,0.05681455135,-2.557769775
675,1.55965355655e+18,0.02892923355,0.4039843976,-6.285089493
676,1.55965355661e+18,-2.060745239,0.3933470547,-5.968774796
677,1.55965355667e+18,3.290426254,0.01590907574,-9.932646751
678,1.55965355673e+18,4.940151691,0.09661376476,-6.648947716
679,1.55965355679e+18,-1.221759081,-0.6253232956,0.5677995682
680,1.55965355685e+18,-0.4092805386,-0.4308815002,1.275195122
681,1.55965355691e+18,-6.753013611,-11.57363796,6.805195808
682,1.55965355697e+18,-3.545282125,0.3394970894,4.718058109
683,1.55965355703e+18,3.029671192,1.756880283,7.389914036
684,1.55965355709e+18,-0.1202254295,1.510217667,3.406302929
685,1.55965355715e+18,1.519031525,0.7162983418,1.797464371
686,1.55965355721e+18,0.6583485603,-0.7578411102,0.4864969254
687,1.55965355727e+18,1.214477539,-2.78167057,-0.4540109634
688,1.55965355733e+18,-0.531555891,-1.217431426,-6.304602623
689,1.55965355739e+18,1.366111994,0.2793110013,-8.231152534
690,1.55965355745e+18,7.252144814,2.245332718,-13.55292892
691,1.55965355751e+18,4.808235645,1.429166794,-9.995916367
692,1.55965355757e+18,1.481396437,-1.841818333,3.637634277
693,1.55965355763e+18,0.1797728539,-10.80514908,10.3788662
694,1.55965355769e+18,-9.723899841,-12.05002594,-1.246468067
695,1.55965355775e+18,-2.751373291,-1.011372566,3.755101681
696,1.55965355781e+18,-0.4255285263,1.042823792,5.998449326
697,1.55965355787e+18,-1.63843298,1.593707085,0.8945426941
698,1.55965355793e+18,0.2935504913,1.849862099,3.200283527
699,1.55965355799e+18,0.14975214,1.036496162,0.753619194
700,1.55965355805e+18,-1.095170021,3.500236988,-1.45025444
701,1.55965355811e+18,0.3358817101,3.292416334,-0.6501817703
702,1.55965355817e+18,0.7918930054,0.6996533275,-3.904902935
703,1.55965355823e+18,4.405091286,0.3935929537,-7.248762131
704,1.55965355829e+18,4.443293571,1.709841013,-11.3652916
705,1.55965355835e+18,1.174276114,-1.353034735,-4.328813076
706,1.55965355841e+18,-1.303072691,-6.813328743,4.30826664
707,1.55965355847e+18,1.496985197,-7.858668327,-0.1996717453
708,1.55965355853e+18,-7.762559414,-4.524002075,-1.499917746
709,1.55965355859e+18,-2.900325298,0.1696872711,5.001075268
710,1.55965355865e+18,-0.7044625282,0.4094004631,6.594181061
711,1.55965355871e+18,-2.835819721,1.279690266,2.392650604
712,1.55965355877e+18,0.1009349823,1.538915157,1.22204113
713,1.55965355883e+18,2.207183599,2.001811504,-0.5307297707
714,1.55965355889e+18,2.721078873,2.286533594,-1.911561966
715,1.55965355895e+18,1.994248629,0.5955575109,-3.787020683
716,1.55965355901e+18,-1.461083412,-6.696586132,-1.006187439
717,1.55965355907e+18,3.24942708,2.324544668,-14.17841148
718,1.55965355913e+18,2.705265284,0.2735879421,-7.819746017
719,1.55965355919e+18,-2.143611431,-5.564786911,4.766768456
720,1.55965355925e+18,1.174570203,-9.561189651,1.927818298
721,1.55965355931e+18,-4.216054916,-8.587311745,0.8839445114
722,1.55965355937e+18,-2.690077066,-1.63404274,4.763134003
723,1.55965355943e+18,-0.2197828293,-0.4220142365,4.780469418
724,1.55965355949e+18,-0.9408752918,1.673096657,3.078103542
725,1.55965355955e+18,1.008632898,0.8213472366,2.573594093
726,1.55965355961e+18,0.7151956558,1.305259705,-1.580371857
727,1.55965355967e+18,1.282885909,1.58030653,-2.20629549
728,1.55965355973e+18,-2.33221221,4.381490707,-3.916406155
729,1.55965355979e+18,0.6595236063,3.188303709,-5.486782074
730,1.55965355985e+18,-0.4075727463,4.711501598,-8.477218628
731,1.55965355991e+18,-0.009315490723,2.504687071,-3.070264339
732,1.55965355997e+18,-0.6870448589,-4.672872066,3.938976765
733,1.55965356003e+18,-3.927481413,-0.9090361595,-0.02705860138
734,1.55965356009e+18,6.308732986,-10.05227566,-1.541401386
735,1.55965356015e+18,-2.964303017,-7.141731262,6.208837509
736,1.55965356021e+18,-3.669168234,-1.18998909,3.950974941
737,1.55965356027e+18,0.1613464355,-2.493523121,4.352403164
738,1.55965356033e+18,0.619893074,-3.035933018,1.995836258
739,1.55965356039e+18,0.5956878662,-2.723096371,-0.7239422798
740,1.55965356045e+18,1.619847775,-1.029206991,-3.112059116
741,1.55965356051e+18,3.940051794,2.62338233,-3.350337505
742,1.55965356057e+18,4.094461918,2.835921764,-6.798243999
743,1.55965356063e+18,5.243641376,1.726242781,-10.82040119
744,1.55965356069e+18,7.633608818,1.980141521,-14.41041374
745,1.55965356075e+18,-2.420067549,0.0003933906555,-2.526188374
746,1.55965356081e+18,-5.244105339,-15.70271969,9.52432251
747,1.55965356087e+18,9.200752258,-9.561109543,-3.515278578
748,1.55965356093e+18,-4.273121834,-3.454702377,-0.2190003395
749,1.55965356099e+18,-3.077109098,-3.215550423,4.758214951
750,1.55965356105e+18,-2.233207226,-0.5704431534,5.820619583
751,1.55965356111e+18,-3.247081757,0.6449961662,6.774398327
752,1.55965356117e+18,-2.223259449,1.772089958,0.3052024841
753,1.55965356123e+18,-0.06446886063,3.02236557,-4.063911438
754,1.55965356129e+18,2.431361675,2.484183073,-5.303829193
755,1.55965356135e+18,1.789990425,2.000434637,-6.159771919
756,1.55965356141e+18,4.314061642,2.279974461,-10.26810074
757,1.55965356147e+18,4.386393547,2.198969603,-14.90488529
758,1.55965356153e+18,0.5224862099,-3.128685474,-3.404221058
759,1.55965356159e+18,-5.295783997,-3.831865788,5.070819378
760,1.55965356165e+18,4.73236227,-10.04375744,-0.6823620796
761,1.55965356171e+18,-3.466462612,-7.667062759,1.158394337
762,1.55965356177e+18,-2.655267477,-0.4833993912,3.278918982
763,1.55965356183e+18,-3.716872215,-0.1837158203,6.576467514
764,1.55965356189e+18,-1.10782361,1.051484585,6.338547707
765,1.55965356195e+18,-2.007625103,1.938804626,4.430231094
766,1.55965356201e+18,1.404077053,3.482640982,2.230895996
767,1.55965356207e+18,1.302034616,2.338018894,-0.3695993423
768,1.55965356213e+18,2.20815134,0.6787052155,-1.428498745
769,1.55965356219e+18,2.141832352,0.7240211964,-6.460855007
770,1.55965356225e+18,2.174315453,1.257212877,-10.31522369
771,1.55965356231e+18,1.282878876,-2.679454327,-11.07613182
772,1.55965356237e+18,-2.822182894,-7.863197327,-3.619164467
773,1.55965356243e+18,-3.61107564,-11.05132294,-1.775156021
774,1.55965356249e+18,0.01195013523,-8.621839523,1.020731926
775,1.55965356255e+18,-2.988917351,-3.282710075,4.068945885
776,1.55965356261e+18,-3.474583387,-1.625065804,10.81092072
777,1.55965356267e+18,-2.385751247,2.100012779,7.286777496
778,1.55965356273e+18,-1.077519417,2.696328163,7.050347328
779,1.55965356279e+18,1.288426876,3.436434746,3.618472099
780,1.55965356285e+18,1.467407465,3.391196251,0.4332447052
781,1.55965356291e+18,1.101804972,3.252139568,-1.921875477
782,1.55965356297e+18,0.9801529646,1.125336289,-4.09305048
783,1.55965356303e+18,0.7932550907,-2.134046555,-10.02109241
784,1.55965356309e+18,-0.7141909599,-6.980529785,-6.045689106
785,1.55965356314e+18,2.140574455,-2.562500715,-15.05650806
786,1.5596535632e+18,0.5512913465,-7.243209839,-6.938489914
787,1.55965356326e+18,-3.227461815,-9.886847496,1.100947857
788,1.55965356332e+18,1.010586977,-10.31614494,3.62223053
789,1.55965356338e+18,-0.9371336699,-7.708393097,8.403419495
790,1.55965356344e+18,-3.609642506,-3.022639275,9.106582642
791,1.5596535635e+18,-1.19025898,-0.4156246185,12.65996552
792,1.55965356356e+18,4.261842251,2.2440238,8.220926285
793,1.55965356362e+18,4.264446735,4.032668114,3.172417641
794,1.55965356368e+18,2.473633528,0.6757876873,-1.705889702
795,1.55965356374e+18,-0.6226801872,-3.17975378,-6.895999432
796,1.5596535638e+18,0.9924819469,-0.6664898396,-6.645066261
797,1.55965356386e+18,0.0001082420349,7.34762001,-9.680631638
798,1.55965356392e+18,7.906740189,6.927959442,-17.58778763
799,1.55965356398e+18,7.925019264,4.399196625,-11.72236633
800,1.55965356404e+18,1.887153625,-3.533455849,0.01203250885
801,1.5596535641e+18,-9.08176899,-14.70025539,14.31233025
802,1.55965356416e+18,1.32232964,-10.48407173,1.182235479
803,1.55965356422e+18,-1.9734869,-1.134072304,3.945365191
804,1.55965356428e+18,-2.630131245,-0.06160068512,9.867994308
805,1.55965356434e+18,-1.634090424,1.294939995,7.204052925
806,1.5596535644e+18,-1.181866646,1.620369434,3.355755806
807,1.55965356446e+18,1.179437399,-1.158004284,-0.4758682251
808,1.55965356452e+18,2.1199193,-0.9994707108,-3.502861023
809,1.55965356458e+18,0.8039562702,1.416743994,-3.885491371
810,1.55965356464e+18,3.842327118,3.803124905,-8.096187592
811,1.5596535647e+18,7.446444511,6.985417843,-15.0730114
812,1.55965356476e+18,6.617713451,5.584057331,-8.792023659
813,1.55965356482e+18,-1.24200964,-2.551184177,4.996563911
814,1.55965356488e+18,-5.916902065,-10.43510723,7.61299181
815,1.55965356494e+18,-2.669941425,-10.08452129,2.683282852
816,1.559653565e+18,-1.347571373,-0.9153900146,2.947527647
817,1.55965356506e+18,-0.9056236744,0.4558906555,8.83469677
818,1.55965356512e+18,-0.6209456921,2.03120327,6.205497742
819,1.55965356518e+18,-0.6875460148,2.386527061,4.26095295
820,1.55965356524e+18,0.4308183193,2.654679298,1.354138851
821,1.5596535653e+18,1.974757552,1.309129477,0.2948675156
822,1.55965356536e+18,-0.04511523247,1.851578116,-0.3782911301
823,1.55965356542e+18,0.5915315151,1.811411142,-7.439133644
824,1.55965356548e+18,2.468920231,1.03477478,-12.82855225
825,1.55965356554e+18,0.9212169647,-0.9349799156,-11.07692909
826,1.5596535656e+18,-1.979364872,-5.400681973,-0.304148674
827,1.55965356566e+18,-4.437711716,-5.510623932,1.826552868
828,1.55965356572e+18,4.40923357,-8.755262375,0.8131189346
829,1.55965356578e+18,-2.068352461,-2.996294975,4.465062618
830,1.55965356584e+18,-0.337937355,-0.7849645615,11.55831814
831,1.5596535659e+18,0.7128996849,1.322431087,9.579725266
832,1.55965356596e+18,1.290401936,2.017552853,4.219184875
833,1.55965356602e+18,1.3280797,1.293525219,1.53412962
834,1.55965356608e+18,0.550586462,0.9972381592,-1.488752365
835,1.55965356614e+18,-0.3728172779,1.289590478,-2.599342823
836,1.5596535662e+18,-0.5691869259,1.299361706,-2.122342587
837,1.55965356626e+18,3.750869751,1.8797822,-10.08175945
838,1.55965356632e+18,3.214599133,0.7547907829,-12.69397163
839,1.55965356638e+18,1.517171741,-0.6071875095,-7.760570526
840,1.55965356644e+18,-1.251019478,-3.123122692,1.632410049
841,1.5596535665e+18,-0.2524733543,-7.332275867,3.107822895
842,1.55965356656e+18,-6.28903532,-10.85375595,4.216105938
843,1.55965356662e+18,1.875061035,-1.277070999,8.307462692
844,1.55965356668e+18,-0.1618914604,-0.9402318001,9.139522552
845,1.55965356674e+18,-0.4162549973,1.405548096,6.885456085
846,1.5596535668e+18,2.077287197,2.910028219,2.053438187
847,1.55965356686e+18,1.216310978,2.183945179,0.1207542419
848,1.55965356692e+18,0.9060473442,0.7603909969,-2.630655289
849,1.55965356698e+18,1.408215523,-1.711433649,-1.850390434
850,1.55965356704e+18,-2.390993834,-0.369736135,-3.069065094
851,1.5596535671e+18,2.933125257,1.804811478,-12.05586433
852,1.55965356716e+18,5.486442566,2.169043064,-15.74237823
853,1.55965356722e+18,1.920325994,-0.9785439968,-7.274764061
854,1.55965356728e+18,-0.5488243103,-5.918205261,7.411889553
855,1.55965356734e+18,-4.577447891,-10.54406261,9.169342041
856,1.5596535674e+18,-7.161193848,-11.04344082,-0.07782268524
857,1.55965356746e+18,-1.649512768,-0.1395549774,6.224268913
858,1.55965356752e+18,0.3659181595,0.3886146545,6.962226391
859,1.55965356758e+18,-2.2980299,1.45791769,3.174334526
860,1.55965356764e+18,1.064246178,1.47052145,2.689665318
861,1.5596535677e+18,1.437837362,3.137763023,-1.208850861
862,1.55965356776e+18,-0.7246012688,2.509308815,0.03985595703
863,1.55965356782e+18,0.2295000553,1.991190791,-1.691371918
864,1.55965356788e+18,-0.1486051083,-0.2168715,-3.732325077
865,1.55965356794e+18,0.6176757812,0.09725756943,-9.639363289
866,1.559653568e+18,5.978235245,2.708983183,-13.27814865
867,1.55965356806e+18,2.458473682,0.7652271986,-6.188696861
868,1.55965356812e+18,1.0214324,-0.9852023125,1.013563156
869,1.55965356818e+18,-3.797437668,-9.382781982,11.02419281
870,1.55965356824e+18,-2.700745106,-13.43749428,3.455301285
871,1.5596535683e+18,-2.92332077,-1.363015175,3.552861691
872,1.55965356836e+18,1.183158278,-0.08793544769,7.961340904
873,1.55965356842e+18,-0.4114966393,0.9913978577,4.005547523
874,1.55965356848e+18,0.1820061207,1.391845703,1.337407112
875,1.55965356854e+18,1.049307108,1.963804007,0.556063652
876,1.5596535686e+18,1.070832729,2.079735041,-2.031839371
877,1.55965356866e+18,2.385792732,2.37616992,-1.216563702
878,1.55965356872e+18,2.87438035,2.678195477,-1.831410408
879,1.55965356878e+18,3.251639366,3.01401186,-5.048638344
880,1.55965356884e+18,1.704780817,1.755221009,-8.327653885
881,1.5596535689e+18,0.8299901485,-3.898636818,-6.49562645
882,1.55965356896e+18,-3.894624949,-5.647647858,-2.374495029
883,1.55965356902e+18,-0.7062371969,-1.82498312,-8.760993958
884,1.55965356908e+18,-8.120065689,-11.65121841,-0.1043496132
885,1.55965356914e+18,0.6384171247,-5.232213974,9.41215229
886,1.5596535692e+18,2.51652503,-0.5916700363,12.33326054
887,1.55965356926e+18,-2.978487492,0.2857990265,10.70238686
888,1.55965356932e+18,-3.200954437,1.194849491,5.567592144
889,1.55965356938e+18,0.3965177536,2.242277861,3.858855724
890,1.55965356944e+18,1.401011944,1.983516693,0.2010793686
891,1.5596535695e+18,0.5232682228,2.795755148,-0.3358268738
892,1.55965356956e+18,1.990181088,3.910781384,-6.483453274
893,1.55965356962e+18,-0.4796125889,-3.411420822,-8.087544441
894,1.55965356968e+18,2.736344099,-4.686184406,-10.73689747
895,1.55965356974e+18,-0.2606986761,-7.18351078,-10.95515823
896,1.5596535698e+18,-0.6622116566,-5.10290432,-8.985731125
897,1.55965356986e+18,-0.2342787981,-5.252821922,-2.449492931
898,1.55965356992e+18,-2.382789373,-11.7397356,3.505557299
899,1.55965356998e+18,-2.888217211,-6.387326241,13.65034103
900,1.55965357004e+18,2.823335648,-3.151943207,18.83805084
901,1.5596535701e+18,-3.992176533,0.8149595261,12.68296814
902,1.55965357016e+18,-4.13172245,3.336229324,10.67941093
903,1.55965357022e+18,0.5199360847,4.904763222,6.50378418
904,1.55965357028e+18,2.765828133,4.975512505,3.311665058
905,1.55965357034e+18,-0.03893518448,2.88701582,-1.64999485
906,1.5596535704e+18,0.008041143417,1.658344626,-3.85455513
907,1.55965357046e+18,0.3366265297,-1.65161109,-7.222423077
908,1.55965357052e+18,1.374944687,-6.438689232,-10.83347893
909,1.55965357058e+18,0.7837421894,-1.382004499,-10.51034069
910,1.55965357064e+18,2.860409975,1.068735838,-9.679774284
911,1.5596535707e+18,-1.139016867,-4.141940117,4.132916927
912,1.55965357076e+18,-0.2299797535,-2.387836456,4.651597023
913,1.55965357082e+18,-5.209251881,-13.40670109,6.030838966
914,1.55965357088e+18,-4.775805473,-7.356520653,13.09399128
915,1.55965357093e+18,-0.6200318336,-0.5426454544,13.01364613
916,1.55965357099e+18,-2.368299723,-0.2710065842,11.39469051
917,1.55965357105e+18,-1.560327053,1.124399662,8.549999237
918,1.55965357111e+18,-0.02163505554,2.035335064,6.63203001
919,1.55965357117e+18,1.261066198,0.4796421528,-0.8039932251
920,1.55965357123e+18,1.348816156,-1.622957826,-4.633083344
921,1.55965357129e+18,-0.401134491,0.3678501844,-14.99492836
922,1.55965357135e+18,2.350363255,-0.2170268297,-16.79364014
923,1.55965357141e+18,8.023382187,3.56522727,-12.31394958
924,1.55965357147e+18,3.28818202,2.084791422,-5.435642242
925,1.55965357153e+18,3.526039839,-2.184903145,7.873364449
926,1.55965357159e+18,1.905155301,-10.53103161,15.55523014
927,1.55965357165e+18,-4.697998047,-12.61109734,6.918890476
928,1.55965357171e+18,-3.415360451,-2.372232437,7.257845879
929,1.55965357177e+18,0.1599452496,-0.2748813629,11.0292654
930,1.55965357183e+18,0.02521753311,1.862294674,9.129419327
931,1.55965357189e+18,1.769993782,2.971623421,5.037290573
932,1.55965357195e+18,2.165829897,3.512527704,0.8126788139
933,1.55965357201e+18,-0.5217614174,2.156916618,-1.400027275
934,1.55965357207e+18,2.103168964,2.093504906,2.821145058
935,1.55965357213e+18,3.070304632,4.016213894,-9.111935616
936,1.55965357219e+18,5.619465351,3.895840168,-13.87262344
937,1.55965357225e+18,3.377539873,1.357380867,-6.653903008
938,1.55965357231e+18,-0.5805392265,-1.120651245,2.465445995
939,1.55965357237e+18,-0.4029147625,-5.278879166,5.556388855
940,1.55965357243e+18,-0.7575309277,-10.85772991,3.699470997
941,1.55965357249e+18,-4.692210197,-2.801898003,4.445730686
942,1.55965357255e+18,-0.2488291264,-0.4237823486,10.49440765
943,1.55965357261e+18,-1.005689144,0.669878006,6.518317223
944,1.55965357267e+18,-0.7278318405,1.130572319,5.200257301
945,1.55965357273e+18,1.327632666,1.800111771,2.324660778
946,1.55965357279e+18,1.462523222,2.461626768,-1.016253471
947,1.55965357285e+18,1.975711584,0.7281508446,-0.7544746399
948,1.55965357291e+18,0.9010875225,3.040399313,-1.669559002
949,1.55965357297e+18,4.501674175,4.378352165,-8.959897041
950,1.55965357303e+18,5.607557774,3.814338684,-11.78997898
951,1.55965357309e+18,4.056146622,0.9968929291,-3.341684341
952,1.55965357315e+18,-4.226912498,-6.435805798,7.037088394
953,1.55965357321e+18,-4.060633659,-15.5265913,1.251741886
954,1.55965357327e+18,-2.288156509,-2.07390213,4.002210617
955,1.55965357333e+18,0.0409090519,0.6724591255,5.902832985
956,1.55965357339e+18,-1.387894154,1.47083807,4.623943329
957,1.55965357345e+18,-0.2769474983,1.46003294,4.315598011
958,1.55965357351e+18,-0.08437252045,1.663503647,2.428330898
959,1.55965357357e+18,0.8942327499,-0.1517019272,2.807762146
960,1.55965357363e+18,2.832477093,0.4705832005,2.19383812
961,1.55965357369e+18,2.348166466,4.420135498,-9.337276459
962,1.55965357375e+18,2.969737053,5.552203655,-14.78871727
963,1.55965357381e+18,2.970518589,2.080231667,-6.942574024
964,1.55965357387e+18,-2.620059252,-4.342964172,5.694344044
965,1.55965357393e+18,-3.516753912,-11.82947731,0.6556792259
966,1.55965357399e+18,-0.00619661808,-9.034684181,0.1826987267
967,1.55965357405e+18,0.07521271706,-0.3142213821,1.87967062
968,1.55965357411e+18,-1.525315762,-0.8506746292,5.858265877
969,1.55965357417e+18,1.132620811,0.8291845322,5.074505329
970,1.55965357423e+18,-0.5799293518,1.358188152,3.082529545
971,1.55965357429e+18,-0.6762011051,1.546197414,0.4724063873
972,1.55965357435e+18,-0.6961658001,2.423701286,-5.954677582
973,1.55965357441e+18,-1.254956722,2.070892811,-3.122605324
974,1.55965357447e+18,1.825839877,3.049358845,-6.036118507
975,1.55965357453e+18,3.703081608,4.118233681,-7.345992088
976,1.55965357459e+18,0.6554267406,-1.254971981,-0.9907917976
977,1.55965357465e+18,2.159930706,3.507642269,-6.43741703
978,1.55965357471e+18,0.2158617973,-8.265270233,-2.354184628
979,1.55965357477e+18,-7.360289574,-9.516576767,7.59510231
980,1.55965357483e+18,-0.9758460522,1.40282774,9.352624893
981,1.55965357489e+18,1.089849949,1.757247925,8.460648537
982,1.55965357495e+18,-1.131363392,2.293478966,3.70199728
983,1.55965357501e+18,0.8247749805,2.034893036,2.291274548
984,1.55965357507e+18,0.0658416748,0.9093267918,-1.572911263
985,1.55965357513e+18,-0.4774689674,-3.567825317,-4.256335735
986,1.55965357519e+18,-0.8899383545,-9.156098366,-10.31744862
987,1.55965357525e+18,2.19706583,-4.668199062,-11.10502815
988,1.55965357531e+18,4.052848339,-0.3879609108,-4.416697502
989,1.55965357537e+18,2.138187885,-0.8396549225,-5.641535759
990,1.55965357543e+18,-3.132954836,-6.683107376,4.565748692
991,1.55965357549e+18,3.690508604,-7.829017639,7.291213036
992,1.55965357555e+18,-5.156246185,-11.11857986,7.199661732
993,1.55965357561e+18,-4.780531406,-1.191869736,7.890725613
994,1.55965357567e+18,-0.9407124519,0.5445547104,13.97560501
995,1.55965357573e+18,1.261078358,4.204189301,9.508376122
996,1.55965357579e+18,1.497953892,4.727154732,3.967064381
997,1.55965357585e+18,1.519028664,3.693876505,1.5741539
998,1.55965357591e+18,-1.092009068,2.290337086,-2.886028767
999,1.55965357597e+18,-0.1597633362,1.076241255,-5.414890289
1000,1.55965357603e+18,-1.688621998,1.371208787,-10.31052589
1001,1.55965357609e+18,10.2912178,8.152712822,-14.14075089
1002,1.55965357615e+18,4.299642563,1.436920643,-1.915737152
1003,1.55965357621e+18,-5.52780962,-5.206179619,9.914574623
1004,1.55965357627e+18,6.844484329,-10.67630768,2.469419718
1005,1.55965357633e+18,-4.166133881,-7.071777344,4.367856979
1006,1.55965357639e+18,-0.2711131573,-0.06517219543,7.504861355
1007,1.55965357645e+18,0.4322507381,0.5799436569,7.899305344
1008,1.55965357651e+18,-1.560258389,1.387610912,6.569963455
1009,1.55965357657e+18,1.736497879,1.572942257,3.396853924
1010,1.55965357663e+18,1.728142262,1.812904358,-1.888285637
1011,1.55965357669e+18,-1.349232674,-0.3273601532,0.2895002365
1012,1.55965357675e+18,0.9063541889,0.9463768601,-4.841433525
1013,1.55965357681e+18,4.451537132,1.433691502,-13.75966263
1014,1.55965357687e+18,5.706783772,-0.6877212524,-12.69731998
1015,1.55965357693e+18,2.328453064,-0.2444081306,-6.563581944
1016,1.55965357699e+18,-3.227234125,-5.346935272,7.336074829
1017,1.55965357705e+18,1.486426353,-8.051311493,-1.000090837
1018,1.55965357711e+18,-5.062963009,-6.091506958,6.733455658
1019,1.55965357717e+18,-2.143649578,0.4136238098,6.248701096
1020,1.55965357723e+18,-0.5262203217,0.351981163,7.367111206
1021,1.55965357729e+18,-2.487554073,1.416135788,4.32501173
1022,1.55965357735e+18,-0.9415788651,1.284649849,3.48133707
1023,1.55965357741e+18,0.3127908707,0.691013813,0.3355264664
1024,1.55965357747e+18,1.858682394,1.147570848,-3.381711006
1025,1.55965357753e+18,4.764126301,2.779639006,-2.240391731
1026,1.55965357759e+18,6.031032562,5.967376709,-14.01852798
1027,1.55965357765e+18,2.371953249,1.581527948,-7.69297266
1028,1.55965357771e+18,0.3806276321,-1.302869797,0.1135034561
1029,1.55965357777e+18,-1.767050028,-5.369486332,4.080658436
1030,1.55965357783e+18,5.123301029,-10.92096138,2.216378689
1031,1.55965357789e+18,-4.332241058,-6.135647774,2.724126816
1032,1.55965357795e+18,-1.474818468,-0.1518030167,5.053944111
1033,1.55965357801e+18,-3.426305294,-0.02160739899,5.641910553
1034,1.55965357807e+18,-0.07466888428,1.134729862,3.711069584
1035,1.55965357813e+18,-0.7195935249,1.734227657,2.66070652
1036,1.55965357819e+18,1.223243713,1.971622705,0.9777994156
1037,1.55965357825e+18,2.405449629,2.510555506,-0.8163189888
1038,1.55965357831e+18,2.198932409,0.1231766939,-2.76561451
1039,1.55965357837e+18,3.524849892,-0.8340420723,-7.922162056
1040,1.55965357843e+18,4.912475109,0.1856532097,-10.7158947
1041,1.55965357849e+18,7.039719582,1.822256207,-9.446279526
1042,1.55965357855e+18,0.7128903866,-1.964441299,-1.550062656
1043,1.55965357861e+18,-2.624896049,-10.37437439,7.899006367
1044,1.55965357867e+18,-0.1742286682,-12.70012283,-0.4724707603
1045,1.55965357873e+18,-2.603310585,-3.986855507,1.745774746
1046,1.55965357879e+18,-2.283786774,-2.603248596,4.59139061
1047,1.55965357885e+18,1.224195004,-0.5744562149,3.247334957
1048,1.55965357891e+18,-0.3445491791,1.214688301,1.253614426
1049,1.55965357897e+18,1.029587746,2.4363904,-0.6104178429
1050,1.55965357903e+18,0.7386264801,3.014099121,-1.924838066
1051,1.55965357909e+18,1.538530827,2.817756176,-3.876850128
1052,1.55965357915e+18,-0.5372188091,2.106147766,-1.637869358
1053,1.55965357921e+18,4.938700199,5.055160046,-8.26628685
1054,1.55965357927e+18,4.027693272,2.303091049,-7.881869316
1055,1.55965357933e+18,0.4070205688,1.492129564,0.4180088043
1056,1.55965357939e+18,-3.459171057,-0.8908009529,-3.69972086
1057,1.55965357945e+18,-4.081101894,-12.6077919,7.005559444
1058,1.55965357951e+18,2.008652925,-4.104715347,5.182991982
1059,1.55965357957e+18,-0.4637784958,-0.7337493896,1.29355526
1060,1.55965357963e+18,0.6579670906,0.2148675919,1.896184921
1061,1.55965357969e+18,0.3998506069,0.3529567719,1.304906845
1062,1.55965357975e+18,0.08233594894,0.9128937721,-0.9904317856
1063,1.55965357981e+18,-0.9570422173,1.173392057,1.221763611
1064,1.55965357987e+18,2.540575504,2.048355103,-2.400839329
1065,1.55965357993e+18,1.598294258,3.883172035,-4.562182903
1066,1.55965357999e+18,3.358145237,4.393607616,-9.397782326
1067,1.55965358005e+18,1.783225894,-0.2905106544,-9.608146667
1068,1.55965358011e+18,-3.4264853,-6.892636299,0.4698734283
1069,1.55965358017e+18,-0.1678984165,-3.553899765,-1.763553143
1070,1.55965358023e+18,-3.733817577,-11.83131886,3.796065331
1071,1.55965358029e+18,-1.416067123,-2.113110065,5.957035065
1072,1.55965358035e+18,0.3909835815,1.166212559,6.322862148
1073,1.55965358041e+18,-0.888209343,1.150618553,4.557960033
1074,1.55965358047e+18,-0.7192664146,0.5168447495,4.453083038
1075,1.55965358053e+18,-0.1186499596,0.5260634422,2.168859959
1076,1.55965358059e+18,1.227651834,0.6721758842,-0.9370241165
1077,1.55965358065e+18,2.323794603,-0.9262840748,-4.62401247
1078,1.55965358071e+18,0.8983471394,0.1600153446,-3.838065624
1079,1.55965358077e+18,3.146162271,0.1576089859,-11.86462402
1080,1.55965358083e+18,2.813191891,-1.011282682,-12.07529545
1081,1.55965358089e+18,-0.237639904,-4.787761211,-3.631999493
1082,1.55965358095e+18,-3.191808462,-5.970841408,1.965894222
1083,1.55965358101e+18,2.606077433,-9.065273285,-0.727647543
1084,1.55965358107e+18,-2.827664137,-5.162876129,5.276644707
1085,1.55965358113e+18,-0.5677394867,-1.046451569,10.43599796
1086,1.55965358119e+18,-1.912245989,-0.06675720215,7.19583416
1087,1.55965358125e+18,-0.36160326,0.1691865921,6.793806553
1088,1.55965358131e+18,-0.3952479362,-0.02126073837,4.789718628
1089,1.55965358137e+18,2.267361403,-0.7337155342,1.277571201
1090,1.55965358143e+18,0.6424310207,0.4503433704,-3.44297123
1091,1.55965358149e+18,1.583249569,1.494694591,-5.836688042
1092,1.55965358155e+18,1.258654118,-0.6631792784,-6.993552685
1093,1.55965358161e+18,1.687781096,1.624090672,-11.1095047
1094,1.55965358167e+18,3.211301088,1.098275661,-9.463125229
1095,1.55965358173e+18,-1.575880766,-2.822215557,0.3330311775
1096,1.55965358179e+18,-4.88367939,-3.637183666,4.931122303
1097,1.55965358185e+18,1.41430223,-12.04008484,0.4858603477
1098,1.55965358191e+18,1.415679455,-1.787455559,5.686538219
1099,1.55965358197e+18,0.1996152401,0.795088768,8.504439354
1100,1.55965358203e+18,-1.889079809,0.7234272957,5.718138218
1101,1.55965358209e+18,-1.804847717,1.170279503,4.512252331
1102,1.55965358215e+18,-0.6038217545,0.6427946091,2.782521248
1103,1.55965358221e+18,1.884060383,-0.2199292183,-0.9698801041
1104,1.55965358227e+18,1.423108578,-0.9494943619,-4.505829811
1105,1.55965358233e+18,-0.7079670429,-1.044365883,-5.015068531
1106,1.55965358239e+18,2.810868263,1.321374178,-6.709422112
1107,1.55965358245e+18,4.780188084,3.067912817,-11.26797867
1108,1.55965358251e+18,1.434492111,-0.3782801628,-2.329318047
1109,1.55965358257e+18,-3.02762413,-0.3968396187,5.046329498
1110,1.55965358263e+18,8.395269394,-7.741392612,-2.466047287
1111,1.55965358269e+18,-4.743954182,-4.975312233,5.916357994
1112,1.55965358275e+18,-1.08211565,1.188816071,7.934552193
1113,1.55965358281e+18,-0.3434405327,2.380048275,4.203038692
1114,1.55965358287e+18,-1.974053383,1.077987194,3.135257721
1115,1.55965358293e+18,-0.8443627357,0.5508079529,2.301829338
1116,1.55965358299e+18,0.04763460159,-0.6018190384,0.615650177
1117,1.55965358305e+18,0.9035820961,-0.8713662624,-2.816754341
1118,1.55965358311e+18,0.05195999146,-1.900531769,-2.730586529
1119,1.55965358317e+18,2.860076427,2.613425255,-8.512932777
1120,1.55965358323e+18,7.546714783,5.283207893,-13.33820534
1121,1.55965358329e+18,4.037900925,1.27454257,-6.426699638
1122,1.55965358335e+18,-2.702984095,-3.67242527,5.05627346
1123,1.55965358341e+18,-3.757022381,-7.069993973,6.958864212
1124,1.55965358347e+18,-2.049179077,-11.71822548,1.67834115
1125,1.55965358353e+18,-4.693455696,-0.1584606171,2.802922249
1126,1.55965358359e+18,-0.008796691895,0.2828979492,6.801533699
1127,1.55965358365e+18,-1.081136942,1.237332344,3.435634136
1128,1.55965358371e+18,-1.214612007,0.9232430458,2.9020257
1129,1.55965358377e+18,-0.4881906509,0.2981734276,1.229310036
1130,1.55965358383e+18,0.8411729336,1.103917122,-1.456274033
1131,1.55965358389e+18,6.476675987,1.719177485,-2.240151405
1132,1.55965358395e+18,4.988009453,2.327313423,-7.165126801
1133,1.55965358401e+18,4.593070507,1.652078986,-14.73872375
1134,1.55965358407e+18,0.8046045303,1.112300158,-9.380059242
1135,1.55965358413e+18,0.7900925875,-3.737265587,0.134665966
1136,1.55965358419e+18,-8.909065247,-13.31178379,2.097763538
1137,1.55965358425e+18,0.2101975679,-7.677012444,6.932866573
1138,1.55965358431e+18,-1.311056376,-0.3893938065,7.599807262
1139,1.55965358437e+18,-1.432817936,1.736402988,3.339399815
1140,1.55965358443e+18,-1.752490759,2.147183895,3.058489799
1141,1.55965358449e+18,-0.6977994442,1.867286205,2.082887173
1142,1.55965358455e+18,-0.09739255905,1.990782499,0.2489910126
1143,1.55965358461e+18,0.08249092102,1.635284424,-1.831888199
1144,1.55965358467e+18,1.320530891,1.210576773,-3.841209888
1145,1.55965358473e+18,3.733197212,1.948115587,-6.497591019
1146,1.55965358479e+18,0.5574333668,-0.5680046082,-2.289355755
1147,1.55965358485e+18,-1.489177227,0.3431339264,0.6754274368
1148,1.55965358491e+18,-1.410670519,1.82918644,-3.576819658
1149,1.55965358496e+18,-0.5338680744,-8.003313065,-1.944983959
1150,1.55965358502e+18,-3.103736162,-3.521785736,4.860445976
1151,1.55965358508e+18,-0.03915691376,0.7223672867,6.193479538
1152,1.55965358514e+18,-3.450321913,1.051096916,3.937592506
1153,1.5596535852e+18,-1.563055992,0.9386806488,2.519724846
1154,1.55965358526e+18,-0.8334810734,0.6346635818,0.2505226135
1155,1.55965358532e+18,0.5270018578,-0.458509922,-0.7933526039
1156,1.55965358538e+18,0.009625434875,-0.05405592918,-4.332509518
1157,1.55965358544e+18,0.5867369175,-0.3898389339,-4.733675957
1158,1.5596535855e+18,4.222695827,2.227314711,-7.668364048
1159,1.55965358556e+18,3.053484678,1.169905901,-7.871371746
1160,1.55965358562e+18,0.4105293751,-1.859301567,-1.196554661
1161,1.55965358568e+18,-3.498966455,-3.464437008,6.398851871
1162,1.55965358574e+18,11.41451931,-6.549977779,-1.396323204
1163,1.5596535858e+18,-6.274182796,-4.486614227,1.624980927
1164,1.55965358586e+18,-1.533637524,-0.02840518951,5.752429485
1165,1.55965358592e+18,-0.5547909737,-0.09219360352,5.032326221
1166,1.55965358598e+18,-1.299382687,1.437246323,1.163883209
1167,1.55965358604e+18,0.9525156021,0.7843952179,-0.09030485153
1168,1.5596535861e+18,2.782456636,-0.1865592003,-1.718091965
1169,1.55965358616e+18,1.649921894,1.24053216,-4.426800728
1170,1.55965358622e+18,2.572184086,1.721234083,-3.680839539
1171,1.55965358628e+18,4.289884567,5.00367403,-8.827436447
1172,1.55965358634e+18,0.911703825,3.083171844,-5.929920673
1173,1.5596535864e+18,-3.676538229,-4.091567516,6.047244549
1174,1.55965358646e+18,-3.528656244,-1.839766979,1.308460236
1175,1.55965358652e+18,1.092692494,-10.34887981,2.66282177
1176,1.55965358658e+18,-5.280843258,-0.7702913284,0.6573138237
1177,1.55965358664e+18,0.250679493,0.07888698578,6.916098118
1178,1.5596535867e+18,-1.624260902,0.8050231934,1.81405592
1179,1.55965358676e+18,1.082762003,0.6523022652,1.872307777
1180,1.55965358682e+18,0.7254154682,0.0008616447449,-1.316884995
1181,1.55965358688e+18,0.061627388,-0.2866201401,-3.243004322
1182,1.55965358694e+18,-1.892106771,-0.6304316521,0.6716399193
1183,1.559653587e+18,0.8395581245,2.734133005,-3.420658588
1184,1.55965358706e+18,2.2389853,4.933605671,-8.736786842
1185,1.55965358712e+18,1.67577219,2.809056997,-4.621982574
1186,1.55965358718e+18,-1.864870071,0.5046205521,5.83344841
1187,1.55965358724e+18,4.649059296,-1.246675014,-1.841454506
1188,1.5596535873e+18,-3.8403368,-11.20342922,1.581448078
1189,1.55965358736e+18,-4.487565994,-0.3586301804,-0.2446241379
1190,1.55965358742e+18,1.804267883,0.6667337418,5.660650253
1191,1.55965358748e+18,-1.013195038,0.7236289978,1.944761276
1192,1.55965358754e+18,-0.8000793457,0.5668182373,2.272598267
1193,1.5596535876e+18,0.1519002914,0.5903334618,2.001157284
1194,1.55965358766e+18,0.4574460983,0.5502750874,-0.08762168884
1195,1.55965358772e+18,0.5393686295,-0.2263820171,-1.455244064
1196,1.55965358778e+18,1.592854738,0.242662549,-3.854215145
1197,1.55965358784e+18,4.649129868,1.579844832,-10.41770554
1198,1.5596535879e+18,3.330354214,-0.09599804878,-10.93593693
1199,1.55965358796e+18,0.8331010342,-3.779470444,0.2860832214
1200,1.55965358802e+18,-1.794150829,-0.6031417847,1.639060497
1201,1.55965358808e+18,1.027462482,-12.58963871,1.835152626
1202,1.55965358814e+18,-5.365044594,-3.621714592,1.657697678
1203,1.5596535882e+18,1.0379951,1.232057095,7.786334991
1204,1.55965358826e+18,0.2635345459,1.461585522,4.015464783
1205,1.55965358832e+18,-0.5233478546,0.7524986267,3.224562645
1206,1.55965358838e+18,0.1075596809,0.3428020477,-0.5807609558
1207,1.55965358844e+18,0.8489019871,-0.0490231514,-1.566089153
1208,1.5596535885e+18,0.7046878338,0.3991119862,-4.396941662
1209,1.55965358856e+18,1.354962349,1.92057395,-2.392257214
1210,1.55965358862e+18,4.995407104,3.857018948,-6.654666901
1211,1.55965358868e+18,5.406217575,2.543249846,-9.224582672
1212,1.55965358874e+18,-0.5227463245,-1.916702509,-3.373614788
1213,1.5596535888e+18,-2.266184092,-1.724962711,1.367593288
1214,1.55965358886e+18,3.809921265,-3.949022293,-8.402471542
1215,1.55965358892e+18,-6.492604256,-8.450003624,6.303305626
1216,1.55965358898e+18,1.959043741,0.4626255035,8.591155052
1217,1.55965358904e+18,-2.050073862,-0.4134922028,6.991553783
1218,1.5596535891e+18,-2.203010321,0.8368759155,4.807641029
1219,1.55965358916e+18,1.108361959,0.4956521988,0.5098805428
1220,1.55965358922e+18,0.02527451515,-0.841711998,-5.306978226
1221,1.55965358928e+18,0.6658473015,-1.736733437,-7.022088528
1222,1.55965358934e+18,-1.105814457,-1.093389034,-1.009352684
1223,1.5596535894e+18,2.301074505,5.249011993,-10.45891285
1224,1.55965358946e+18,6.906542778,6.821300983,-7.776554585
1225,1.55965358952e+18,-1.037256002,-1.925442219,5.59503603
1226,1.55965358958e+18,-4.983521938,-5.214382172,9.697973251
1227,1.55965358964e+18,0.03730463982,-7.226681709,0.4294176102
1228,1.5596535897e+18,-2.103194714,-0.9709711075,1.584240198
1229,1.55965358976e+18,-1.880735636,0.5469484329,5.138478756
1230,1.55965358982e+18,-1.891190767,1.002948761,4.704144001
1231,1.55965358988e+18,-3.035504818,-0.3831682205,6.942942142
1232,1.55965358994e+18,-0.1420264244,0.8677635193,1.860631466
1233,1.55965359e+18,1.875226259,2.193593025,-2.097227573
1234,1.55965359006e+18,1.638245106,2.252661943,-5.24274683
1235,1.55965359012e+18,1.831904173,1.092139721,-3.513848305
1236,1.55965359018e+18,2.622133493,1.475751281,-4.569428444
1237,1.55965359024e+18,4.873012543,1.082346439,-8.806073189
1238,1.5596535903e+18,1.456433296,-1.306279182,-4.837470055
1239,1.55965359036e+18,2.159923315,0.2624402046,-0.5741438866
1240,1.55965359042e+18,5.457112312,-3.719487667,-2.087943316
1241,1.55965359048e+18,-16.36369133,-10.48291779,3.277415276
1242,1.55965359054e+18,1.990800858,1.178857803,9.420273781
1243,1.5596535906e+18,-0.8778944016,1.590504169,4.739866257
1244,1.55965359066e+18,-2.148387432,1.902019501,1.816757679
1245,1.55965359072e+18,-0.4221167564,1.079455853,1.973119259
1246,1.55965359078e+18,0.6346073151,0.1486144066,0.4215922356
1247,1.55965359084e+18,1.526192427,-0.1867871284,-1.261284828
1248,1.5596535909e+18,1.313719988,-0.9545326233,-2.281155586
1249,1.55965359096e+18,-0.08002758026,1.528908849,-5.095221996
1250,1.55965359102e+18,4.693610668,4.194489002,-8.919118881
1251,1.55965359108e+18,5.54218483,2.345841408,-7.515652657
1252,1.55965359114e+18,-1.507552862,-1.359490395,-0.7382979393
1253,1.5596535912e+18,-2.359952688,-4.328287125,1.156765938
1254,1.55965359126e+18,-0.8004723787,-14.53655624,-0.1195054054
1255,1.55965359132e+18,0.2313827276,-5.278710365,3.977644205
1256,1.55965359138e+18,-0.2502436638,-0.1240358353,6.090149879
1257,1.55965359144e+18,-3.582973719,0.7149839401,4.735977173
1258,1.5596535915e+18,1.180197477,0.3555817604,6.223297119
1259,1.55965359156e+18,0.2407178879,1.673146725,1.853316784
1260,1.55965359162e+18,1.536327839,0.7529380322,-2.736278057
1261,1.55965359168e+18,1.360865951,-0.1571276188,-6.229797363
1262,1.55965359174e+18,0.020581007,-1.049517155,-0.6975164413
1263,1.5596535918e+18,2.825746059,5.583338261,-14.12783909
1264,1.55965359186e+18,3.213663816,3.496548653,-9.591353416
1265,1.55965359192e+18,0.07480096817,-0.9093194008,1.481236458
1266,1.55965359198e+18,-4.480968475,-6.408437729,8.802890778
1267,1.55965359204e+18,1.790353417,-11.96707821,1.272633076
1268,1.5596535921e+18,-4.406450272,-3.130524635,2.267789364
1269,1.55965359216e+18,0.2777392864,-0.7593698502,7.207863808
1270,1.55965359222e+18,0.03615283966,0.618827343,2.256860733
1271,1.55965359227e+18,0.1923816204,1.50274992,4.003481388
1272,1.55965359233e+18,0.5716173649,2.02779603,2.018939018
1273,1.55965359239e+18,0.6155290604,2.980385303,-1.12389183
1274,1.55965359245e+18,1.37409234,3.079396725,-1.873921871
1275,1.55965359251e+18,0.6727441549,2.376921892,-3.515776634
1276,1.55965359257e+18,0.8224486113,0.8403331041,-4.603769302
1277,1.55965359263e+18,2.705765247,2.532683372,-7.575737
1278,1.55965359269e+18,1.919942379,0.3237090111,-7.164371014
1279,1.55965359275e+18,0.02020323277,-4.709161758,-2.403270721
1280,1.55965359281e+18,0.5494635105,-3.008391857,-3.396541595
1281,1.55965359287e+18,-0.4054391384,-14.71051502,-1.127597332
1282,1.55965359293e+18,-4.513184547,-9.626424789,5.356283188
1283,1.55965359299e+18,-0.9207298756,-2.100954056,8.404577255
1284,1.55965359305e+18,-3.872331381,0.6604771614,9.854143143
1285,1.55965359311e+18,-0.9607536793,3.303411484,6.179794312
1286,1.55965359317e+18,0.3581690788,3.03992486,2.255354404
1287,1.55965359323e+18,1.173116922,1.243080616,0.1279292107
1288,1.55965359329e+18,1.422175646,1.472501636,-2.766168594
1289,1.55965359335e+18,1.041218758,0.5835381746,-5.427837372
1290,1.55965359341e+18,0.4845328331,-4.157056808,-5.551245689
1291,1.55965359347e+18,2.590591669,-1.256288052,-12.51574707
1292,1.55965359353e+18,2.949094534,-0.2988818884,-13.70020866
1293,1.55965359359e+18,0.4528245926,-4.098668575,-1.995753288
1294,1.55965359365e+18,-7.193031311,-8.697360992,8.85546875
1295,1.55965359371e+18,2.6236763,-8.389025688,1.295318127
1296,1.55965359377e+18,-2.379159689,-3.130708694,3.236838102
1297,1.55965359383e+18,-0.2149779797,0.4734106064,10.34770679
1298,1.55965359389e+18,0.6441335678,1.082932949,6.143021584
1299,1.55965359395e+18,-2.848590374,1.531787872,3.214977026
1300,1.55965359401e+18,0.5759105682,0.4155130386,1.815681934
1301,1.55965359407e+18,0.3516454697,-0.08856296539,-1.1647048
1302,1.55965359413e+18,-2.091879368,-5.857016563,-0.6785488129
1303,1.55965359419e+18,0.6284902096,3.853404999,-7.267654419
1304,1.55965359425e+18,9.62823391,9.593219757,-12.78126907
1305,1.55965359431e+18,3.665245295,8.258366585,-9.743318558
1306,1.55965359437e+18,-0.8066966534,-3.426251888,3.197192192
1307,1.55965359443e+18,-3.911904573,-7.323311806,6.265157223
1308,1.55965359449e+18,-0.3750158548,-17.84361076,4.611192703
1309,1.55965359455e+18,-2.750214338,-3.721321106,2.743951559
1310,1.55965359461e+18,1.317755699,-0.4125843048,2.582741499
1311,1.55965359467e+18,-1.040406227,0.7010135651,2.252203941
1312,1.55965359473e+18,-0.984577179,2.29993248,2.25470829
1313,1.55965359479e+18,1.025120974,1.87377882,-0.07966804504
1314,1.55965359485e+18,0.7397708893,-0.06542253494,-2.94426775
1315,1.55965359491e+18,-0.4253110886,-5.95336628,1.25107336
1316,1.55965359497e+18,1.392611265,4.493517399,-6.795406818
1317,1.55965359503e+18,7.40523243,9.071956635,-13.56494522
1318,1.55965359509e+18,2.14356184,5.336577892,-4.260674953
1319,1.55965359515e+18,-3.259231806,-3.08639431,8.584247589
1320,1.55965359521e+18,1.514148712,-8.937300682,4.605303288
1321,1.55965359527e+18,-2.638613701,-11.38147449,0.4439189434
1322,1.55965359533e+18,-0.6222443581,-0.6633319855,2.950922966
1323,1.55965359539e+18,0.7828524113,-0.3162727356,6.043003559
1324,1.55965359545e+18,-1.726670504,1.128300667,2.460484505
1325,1.55965359551e+18,-0.3390097618,1.559596539,2.258012772
1326,1.55965359557e+18,0.3233697414,2.925503254,1.50882864
1327,1.55965359563e+18,1.612435341,3.572793961,-0.5507245064
1328,1.55965359569e+18,1.840544343,2.393974304,-2.580862045
1329,1.55965359575e+18,1.310038567,1.094844341,-4.347074986
1330,1.55965359581e+18,4.280730247,1.537381411,-9.086075783
1331,1.55965359587e+18,0.4473129511,-2.357398748,-8.994373322
1332,1.55965359593e+18,-2.226702929,-8.014446259,-3.098023415
1333,1.55965359599e+18,-3.777047396,-7.747405529,-3.392877102
1334,1.55965359605e+18,2.022330523,-8.162144661,-0.6575284004
1335,1.55965359611e+18,0.2023094893,-3.891645432,3.140257359
1336,1.55965359617e+18,-0.5687963963,-2.15258503,8.02430439
1337,1.55965359623e+18,-1.66714406,-0.5982151031,8.019276619
1338,1.55965359629e+18,-0.9596076012,0.638543129,7.799907684
1339,1.55965359635e+18,-0.6711044312,1.787352562,8.578976631
1340,1.55965359641e+18,1.282076359,2.255480766,5.985582829
1341,1.55965359647e+18,1.527829885,1.158030272,-1.547641277
1342,1.55965359653e+18,0.305366993,-1.95964694,-7.288640976
1343,1.55965359659e+18,0.5077438354,0.8227288723,-7.204135418
1344,1.55965359665e+18,2.319067478,2.707900524,-16.00950241
1345,1.55965359671e+18,4.17639637,2.688535452,-12.89988899
1346,1.55965359677e+18,-1.120005608,-3.045890808,-2.380488873
1347,1.55965359683e+18,-5.523270607,-8.030536652,5.150802135
1348,1.55965359689e+18,3.086149693,-11.14608669,1.896532536
1349,1.55965359695e+18,2.7432971,-6.117377281,3.258126259
1350,1.55965359701e+18,0.6127866507,-1.765334129,3.562315941
1351,1.55965359707e+18,-2.009961843,-1.741706848,9.691785812
1352,1.55965359713e+18,1.515556097,-0.7203874588,10.10754299
1353,1.55965359719e+18,0.4486339092,0.6015348434,10.08714867
1354,1.55965359725e+18,1.477953434,2.558175564,2.619693279
1355,1.55965359731e+18,-0.924418211,1.315043211,-11.89046478
1356,1.55965359737e+18,2.637868881,-0.2183952332,-4.423807144
1357,1.55965359743e+18,2.895043135,5.331871986,-18.7165451
1358,1.55965359749e+18,3.539936781,2.26084137,-12.52412987
1359,1.55965359755e+18,-0.85709095,-0.4096436501,-4.194896221
1360,1.55965359761e+18,-3.674759865,-6.182208061,6.397617817
1361,1.55965359767e+18,3.726809502,-8.92340374,3.102095366
1362,1.55965359773e+18,-0.7757058144,-6.277812958,3.954984665
1363,1.55965359779e+18,0.6051230431,-1.061166763,8.069454193
1364,1.55965359785e+18,0.4283738136,-0.5467920303,7.883405685
1365,1.55965359791e+18,-1.192175865,1.208352566,6.776780128
1366,1.55965359797e+18,-0.4481875896,2.413965702,4.031779289
1367,1.55965359803e+18,0.9804472923,1.934585571,1.129462242
1368,1.55965359809e+18,-0.01800990105,0.9533569813,-5.125907898
1369,1.55965359815e+18,-1.247302771,1.365938425,-6.22313118
1370,1.55965359821e+18,1.65580225,2.256433487,-4.416845322
1371,1.55965359827e+18,5.898811817,5.369976044,-10.22691536
1372,1.55965359833e+18,6.650711536,4.34348917,-7.695516109
1373,1.55965359839e+18,3.087709188,1.560043812,-1.555331707
1374,1.55965359845e+18,-1.87222147,-5.068181992,7.886484623
1375,1.55965359851e+18,5.510204315,-15.24454498,0.5255880356
1376,1.55965359857e+18,-2.535692215,-5.657721519,0.8804130554
1377,1.55965359863e+18,2.482203245,-0.9857854843,8.411165237
1378,1.55965359869e+18,1.291857004,1.246208668,3.026895523
1379,1.55965359875e+18,0.7515666485,1.987269402,2.699627876
1380,1.55965359881e+18,1.074593782,1.748853683,1.389856339
1381,1.55965359887e+18,0.5654871464,1.809916973,-0.8254098892
1382,1.55965359893e+18,2.247240543,0.9633040428,-2.158158779
1383,1.55965359899e+18,0.931684494,2.956942797,-1.888288021
1384,1.55965359905e+18,4.120956421,4.736045837,-6.839216709
1385,1.55965359911e+18,6.28016901,4.694374084,-12.05429077
1386,1.55965359917e+18,2.073774338,0.1266584396,-3.714660645
1387,1.55965359923e+18,-1.150547266,-2.785587311,1.744979382
1388,1.55965359929e+18,2.900999069,-12.22846031,-2.143570185
1389,1.55965359935e+18,-4.148515701,-8.132616043,0.4506421089
1390,1.55965359941e+18,0.9428235292,-0.4226770401,5.13047266
1391,1.55965359947e+18,-0.2675788403,0.0934381485,5.174165726
1392,1.55965359953e+18,-2.548178434,0.307574749,3.062329292
1393,1.55965359959e+18,-1.156054974,1.368630409,1.786521435
1394,1.55965359965e+18,-0.07766246796,1.823608398,0.2766132355
1395,1.55965359971e+18,4.280806541,0.4751267433,-3.232462883
1396,1.55965359977e+18,0.2084479332,2.811515331,-3.292597771
1397,1.55965359983e+18,0.811144352,3.295265198,-5.370416164
1398,1.55965359989e+18,1.215433598,3.672773361,-5.907466412
1399,1.55965359995e+18,5.785997868,3.496694088,-8.417240143
1400,1.55965360001e+18,2.706001282,-1.734302044,-3.915741682
1401,1.55965360007e+18,-0.03332138062,-2.540649891,-0.4489598274
1402,1.55965360013e+18,1.597228765,-8.481894493,1.189442158
1403,1.55965360019e+18,-7.777644634,-10.49151516,0.1678547859
1404,1.55965360025e+18,-1.7129004,-0.3575305939,3.187198162
1405,1.55965360031e+18,-1.691121817,-0.8428897858,8.68057251
1406,1.55965360037e+18,-2.161641121,1.235746384,4.030408859
1407,1.55965360043e+18,0.8663434982,2.246116877,2.147736549
1408,1.55965360049e+18,1.185413361,1.592709303,-0.4103984833
1409,1.55965360055e+18,2.550086498,0.966318965,-3.6923666
1410,1.55965360061e+18,5.115380764,-1.199295759,-5.194256783
1411,1.55965360067e+18,3.780972004,0.4714113474,-7.934410095
1412,1.55965360073e+18,6.890479088,2.748130322,-16.14379501
1413,1.55965360079e+18,0.3554224968,-0.8061976433,-7.891997337
1414,1.55965360085e+18,-3.010927677,-7.589251518,6.934362411
1415,1.55965360091e+18,3.687432289,-7.645845413,-6.006597042
1416,1.55965360097e+18,-5.486217499,-4.280398369,2.703230619
1417,1.55965360103e+18,-0.2931194305,-0.880320549,9.367668152
1418,1.55965360109e+18,-0.6607751846,1.090570927,4.713332176
1419,1.55965360115e+18,-1.336836576,1.041217804,4.062091827
1420,1.55965360121e+18,-0.09538817406,1.120301247,2.042366505
1421,1.55965360127e+18,-1.188376188,1.338093281,0.1855902672
1422,1.55965360133e+18,-1.079353809,1.008927822,-0.4824314117
1423,1.55965360139e+18,-0.4138953686,1.305191875,-4.08192873
1424,1.55965360145e+18,0.7399950027,1.250428677,-8.798313141
1425,1.55965360151e+18,5.461508751,5.770340443,-13.35773182
1426,1.55965360157e+18,3.374621868,1.131618261,-7.931656361
1427,1.55965360163e+18,-3.213135719,-6.162806511,7.883489132
1428,1.55965360169e+18,1.185840368,-4.704967499,1.269070625
1429,1.55965360175e+18,-2.545934439,-9.759208679,2.260729313
1430,1.55965360181e+18,-2.16223526,-0.9922580719,2.059492111
1431,1.55965360187e+18,-2.376131296,-0.258459568,7.513765335
1432,1.55965360193e+18,-0.424685955,0.6245031357,5.428260326
1433,1.55965360199e+18,-0.815113306,1.018221378,2.816640377
1434,1.55965360205e+18,0.6260139942,0.6007122993,0.6180496216
1435,1.55965360211e+18,-0.1729791164,0.9447815418,-2.692827702
1436,1.55965360217e+18,-0.1595666409,0.5555579662,-1.58663559
1437,1.55965360223e+18,1.907207251,1.59352088,-3.5560956
1438,1.55965360229e+18,4.069760323,2.797070026,-10.71104527
1439,1.55965360235e+18,3.41417551,-1.006023645,-11.58156204
1440,1.55965360241e+18,1.317627788,-2.895807505,-5.725645542
1441,1.55965360247e+18,-5.406170845,-9.030184746,6.291998386
1442,1.55965360253e+18,5.165265083,-7.246737003,-3.839965105
1443,1.55965360259e+18,-3.544716835,-3.47236824,1.461510181
1444,1.55965360265e+18,-1.709015846,-1.290989876,9.824899673
1445,1.55965360271e+18,0.6692678928,1.450325966,4.769062519
1446,1.55965360277e+18,-1.66257,0.539768219,4.011749268
1447,1.55965360283e+18,-0.0975279808,0.221912384,2.01620245
1448,1.55965360289e+18,-0.0642914772,0.758813858,0.6367015839
1449,1.55965360295e+18,0.3891279697,1.580079794,-1.306148052
1450,1.55965360301e+18,0.9819681644,0.258739233,-0.09941959381
1451,1.55965360307e+18,2.675106764,0.6249860525,-1.47552681
1452,1.55965360313e+18,5.412853718,2.657038212,-10.74183464
1453,1.55965360319e+18,4.31040287,2.065279245,-12.16756916
1454,1.55965360325e+18,1.484128118,-1.21231389,-3.489403248
1455,1.55965360331e+18,-5.552215099,-5.597500801,1.487177849
1456,1.55965360337e+18,-0.1121144295,-14.32106972,-1.361602783
1457,1.55965360343e+18,-4.062890053,-5.044044495,3.488468647
1458,1.55965360349e+18,-1.951782703,-0.4992675781,4.913558483
1459,1.55965360355e+18,-0.6109783649,0.8703360558,3.864908218
1460,1.55965360361e+18,-1.007832527,1.848009109,3.38471365
1461,1.55965360367e+18,0.2966115475,1.787070274,1.758717537
1462,1.55965360373e+18,1.124656916,1.641742945,-0.3077125549
1463,1.55965360379e+18,-0.3741545677,0.8759815693,-6.476840496
1464,1.55965360385e+18,1.460864902,0.5661371946,-1.42997551
1465,1.55965360391e+18,3.046585798,3.070405006,-10.18596172
1466,1.55965360397e+18,1.322358131,1.833365917,-12.03994846
1467,1.55965360403e+18,-0.617777586,-3.534662724,-1.514153481
1468,1.55965360409e+18,-4.014001846,-4.642191887,-0.1474909782
1469,1.55965360415e+18,2.610312939,-12.04404163,-2.280020714
1470,1.55965360421e+18,0.5889919996,-7.549407005,5.763957977
1471,1.55965360427e+18,1.578718662,-1.094511032,4.605851173
1472,1.55965360433e+18,-3.638552189,-1.627195358,7.891681671
1473,1.55965360439e+18,0.1978590488,0.3588581085,4.349692822
1474,1.55965360445e+18,0.2494897842,1.238469124,4.191634655
1475,1.55965360451e+18,0.03562140465,1.258554459,1.762187958
1476,1.55965360457e+18,0.05686759949,2.526974201,-3.761814594
1477,1.55965360463e+18,0.7469646931,2.305579424,-5.615052223
1478,1.55965360469e+18,1.259772778,1.128831625,-8.011349678
1479,1.55965360475e+18,3.028190136,-0.945228219,-8.753580093
1480,1.55965360481e+18,2.716040611,-2.119028091,-8.122189522
1481,1.55965360487e+18,1.270364642,-4.461739063,-1.051709175
1482,1.55965360493e+18,-0.312046051,-4.662224293,3.36942625
1483,1.55965360499e+18,6.270538807,-12.31970882,-0.4391584396
1484,1.55965360505e+18,-0.6139832735,-7.175362587,3.912707329
1485,1.55965360511e+18,-0.1072977781,-1.830289841,5.103636742
1486,1.55965360517e+18,-4.974094391,-0.8972215652,6.503523827
1487,1.55965360523e+18,-0.05921721458,-0.3074092865,7.569767952
1488,1.55965360529e+18,-0.3985054493,0.4414319992,2.802676201
1489,1.55965360535e+18,0.9548406601,-0.3868188858,-2.017300606
1490,1.55965360541e+18,2.692668438,0.2137537003,-5.889914036
1491,1.55965360547e+18,4.411304951,2.442756653,-5.249386787
1492,1.55965360553e+18,3.478995562,3.020373821,-13.64923286
1493,1.55965360559e+18,4.972579002,4.71711874,-12.13288498
1494,1.55965360565e+18,1.664940238,-1.315591335,-2.498902321
1495,1.55965360571e+18,-2.033248186,-3.714118004,4.441204071
1496,1.55965360577e+18,2.933873177,-9.869709015,1.806807041
1497,1.55965360583e+18,-1.372587681,-8.634302139,2.245236874
1498,1.55965360589e+18,-2.225276947,-1.784731865,3.800377846
1499,1.55965360595e+18,-5.446939468,-1.659576416,7.106027603
1500,1.55965360601e+18,-1.130968571,0.7353744507,7.314185143
1501,1.55965360607e+18,-1.361478806,2.678992271,3.636524677
1502,1.55965360613e+18,-0.4519195557,2.938135624,0.647090435
1503,1.55965360619e+18,1.846781969,2.874788046,-2.313110352
1504,1.55965360625e+18,1.888399363,1.792089462,-5.046743393
1505,1.55965360631e+18,2.134919167,-1.007303238,-8.024998665
1506,1.55965360637e+18,4.778295517,-0.8569645286,-8.449570656
1507,1.55965360643e+18,3.724844933,0.7486596107,-11.66481018
1508,1.55965360649e+18,-2.472849607,-6.742094517,4.840028286
1509,1.55965360655e+18,-0.6151427031,-8.05298233,5.025381565
1510,1.55965360661e+18,0.1049796343,-10.66522884,0.3229408264
1511,1.55965360667e+18,-1.147787094,-1.864390373,2.395294189
1512,1.55965360673e+18,-2.116054773,-0.7244253159,8.378125191
1513,1.55965360678e+18,-5.05403614,1.205089092,5.333116531
1514,1.55965360684e+18,-1.959985256,1.377850056,7.288847923
1515,1.5596536069e+18,-2.152860641,2.081642151,5.19005537
1516,1.55965360696e+18,0.5600142479,2.938135624,1.439511299
1517,1.55965360702e+18,1.454679489,0.9795153141,-0.6025595665
1518,1.55965360708e+18,0.3550601006,-0.9409912825,-5.904519081
1519,1.55965360714e+18,1.807739854,-2.104276419,-3.692693233
1520,1.5596536072e+18,4.348760605,-0.05935788155,-12.14693069
1521,1.55965360726e+18,1.780101299,-3.120706558,-11.78900433
1522,1.55965360732e+18,-0.7421290874,-5.940782547,-4.531742096
1523,1.55965360738e+18,-0.9395329952,-5.69478035,-1.377382278
1524,1.55965360744e+18,3.36894083,-9.762509346,-0.6751995087
1525,1.5596536075e+18,-3.881818056,-5.808836937,8.486539841
1526,1.55965360756e+18,1.221454382,-1.209623337,13.21131325
1527,1.55965360762e+18,-5.464232445,-0.536491394,8.350855827
1528,1.55965360768e+18,-2.502713203,0.8580560684,6.644410133
1529,1.55965360774e+18,0.4179930687,2.296671867,4.275653839
1530,1.5596536078e+18,1.81352067,2.028977633,0.1985578537
1531,1.55965360786e+18,0.8791284561,2.389245272,-2.754565239
1532,1.55965360792e+18,-1.843077183,0.0388777256,-5.171732426
1533,1.55965360798e+18,1.610135078,0.6964159608,-6.384974003
1534,1.55965360804e+18,5.381353855,2.578567982,-11.12151527
1535,1.5596536081e+18,6.446524143,3.521791458,-10.66653156
1536,1.55965360816e+18,2.911781311,-0.5330607891,-4.033312321
1537,1.55965360822e+18,-1.831121922,-6.528119564,11.01078987
1538,1.55965360828e+18,1.639787674,-8.016450882,2.060961246
1539,1.55965360834e+18,-2.191379547,-5.860258102,4.193757057
1540,1.5596536084e+18,0.3215994835,1.684749603,4.892223358
1541,1.55965360846e+18,-0.8798646927,2.022028446,6.505276203
1542,1.55965360852e+18,-0.6339492798,1.646635532,5.512225628
1543,1.55965360858e+18,-0.6871190071,1.389891148,3.371825695
1544,1.55965360864e+18,0.2350883484,0.6627423763,0.003091812134
1545,1.5596536087e+18,1.854693651,1.10471344,-2.253210068
1546,1.55965360876e+18,-4.259088039,-2.520738602,-0.02464199066
1547,1.55965360882e+18,5.201050282,3.908324718,-11.50836372
1548,1.55965360888e+18,7.398432732,4.59968853,-12.52569485
1549,1.55965360894e+18,0.8661353588,-1.865891457,-1.189734936
1550,1.559653609e+18,-4.21086216,-4.863473415,4.970522881
1551,1.55965360906e+18,4.95720005,-9.164896011,0.1659984589
1552,1.55965360912e+18,-5.725505829,-4.337986946,0.4458572865
1553,1.55965360918e+18,-0.8330554962,-0.2290611267,5.992124081
1554,1.55965360924e+18,1.996325016,0.1038079262,5.130440712
1555,1.5596536093e+18,-2.378671169,-0.1956920624,2.087575436
1556,1.55965360936e+18,-0.0149512291,0.8937950134,3.382164478
1557,1.55965360942e+18,1.364888906,0.5944190025,1.510656834
1558,1.55965360948e+18,0.6769742966,0.9620153904,-2.774929523
1559,1.55965360954e+18,2.47781229,0.4943058491,-4.790001869
1560,1.5596536096e+18,4.206674099,2.015103817,-5.035668373
1561,1.55965360966e+18,6.359262466,4.470591068,-12.8380928
1562,1.55965360972e+18,1.936105013,-2.006376266,-3.902395248
1563,1.55965360978e+18,-3.620767355,-6.425038338,7.515692711
1564,1.55965360984e+18,3.488087416,-8.771009445,-1.000422001
1565,1.5596536099e+18,-4.060463905,-5.942498207,0.03577041626
1566,1.55965360996e+18,-1.662812948,-1.179806232,6.354329109
1567,1.55965361002e+18,0.8602039814,1.716772556,3.668872356
1568,1.55965361008e+18,-1.084756851,2.008674622,1.862214088
1569,1.55965361014e+18,-1.129598141,1.610678196,1.754282951
1570,1.5596536102e+18,1.211924314,1.857836246,0.7040982246
1571,1.55965361026e+18,-0.9380927086,-0.5038802624,-2.659683704
1572,1.55965361032e+18,2.3708148,0.7240142822,-1.827622414
1573,1.55965361038e+18,7.254089355,5.20485878,-9.89569664
1574,1.55965361044e+18,3.98211813,2.773425102,-9.994038582
1575,1.5596536105e+18,-1.799579382,-5.078979015,5.123231411
1576,1.55965361056e+18,0.2185161114,-2.050942421,-2.283864498
1577,1.55965361062e+18,-3.856461287,-12.15675831,-0.6538496017
1578,1.55965361068e+18,-1.37812376,-3.309857368,1.142826557
1579,1.55965361074e+18,0.8894724846,0.1356105804,7.687442303
1580,1.5596536108e+18,-3.703240633,1.454669476,4.817415237
1581,1.55965361086e+18,-2.060001373,0.6413750648,6.232488632
1582,1.55965361092e+18,-0.6370244026,0.4762191772,5.918542862
1583,1.55965361098e+18,2.085163593,1.720642328,0.6030693054
1584,1.55965361104e+18,-0.5359835625,-0.4469180107,-5.997115612
1585,1.5596536111e+18,3.342772484,-2.004006863,-1.167956352
1586,1.55965361116e+18,1.963219881,-0.3458675742,-15.13514137
1587,1.55965361122e+18,0.9593558311,-3.224450111,-12.82427788
1588,1.55965361128e+18,2.890095234,-5.011714458,-2.094442368
1589,1.55965361134e+18,-3.793723345,-8.726032257,7.031237125
1590,1.5596536114e+18,-4.885359764,-9.819840431,-2.329789162
1591,1.55965361146e+18,-1.281032324,-2.631459236,6.591681004
1592,1.55965361152e+18,-2.482157707,-0.8568353653,8.83016777
1593,1.55965361158e+18,-4.090699196,2.220891953,3.816937923
1594,1.55965361164e+18,-0.683829546,2.218902588,5.7331357
1595,1.5596536117e+18,-0.2181897163,2.078744888,2.141368866
1596,1.55965361176e+18,-0.04127144814,0.6243972778,-1.020689011
1597,1.55965361182e+18,0.5254890919,-0.6004879475,-5.632907867
1598,1.55965361188e+18,-0.9463162422,-7.867226601,-5.154501915
1599,1.55965361194e+18,3.8234725,4.176594734,-13.59362507
1600,1.559653612e+18,6.448488235,4.856703281,-9.269589424
1601,1.55965361206e+18,-1.106755495,-3.581790447,2.65593195
1602,1.55965361212e+18,-1.421489358,-4.035284519,5.069126606
1603,1.55965361218e+18,7.32533884,-9.687653542,-0.982673645
1604,1.55965361224e+18,-3.36016345,-4.689249992,1.417259932
1605,1.5596536123e+18,-2.265635729,-0.5601263046,5.291950226
1606,1.55965361236e+18,-2.460124731,-0.2235860825,4.897241116
1607,1.55965361242e+18,-2.620470524,-0.620411396,7.506995201
1608,1.55965361248e+18,0.6546938419,-0.1488580704,0.5898165703
1609,1.55965361254e+18,1.22715497,0.6020998955,-6.307646751
1610,1.5596536126e+18,2.966972828,2.612369061,-8.302228928
1611,1.55965361266e+18,-6.543748379,-2.580017567,-12.95610619
1612,1.55965361272e+18,8.568187714,9.372917175,-10.28286362
1613,1.55965361278e+18,0.9539744854,2.599936962,-2.678247929
1614,1.55965361284e+18,-3.008960009,-6.777092934,10.97313786
1615,1.5596536129e+18,2.669345856,-6.707634926,3.824053764
1616,1.55965361296e+18,-4.248185158,-9.018190384,-0.2295546532
1617,1.55965361302e+18,-1.3849895,0.1204147339,1.200538397
1618,1.55965361308e+18,-3.249092817,-0.3509473801,5.637645721
1619,1.55965361314e+18,-1.374824524,1.277543545,2.996328831
1620,1.5596536132e+18,0.07996058464,1.689313889,2.207583904
1621,1.55965361326e+18,0.5554196835,2.037903309,-0.4547743797
1622,1.55965361332e+18,0.8124892712,1.718456745,-3.937619209
1623,1.55965361338e+18,-0.4331216812,-0.1859190464,-7.79139328
1624,1.55965361344e+18,4.366853714,2.335161209,-5.424771309
1625,1.5596536135e+18,3.62249732,7.296801567,-11.83304596
1626,1.55965361356e+18,0.3339664936,0.2550253868,-0.8382120132
1627,1.55965361362e+18,-2.643538713,-6.775749683,11.74700356
1628,1.55965361368e+18,1.493071079,-4.635261536,-1.494827271
1629,1.55965361374e+18,-1.648794413,-7.346508026,1.65657711
1630,1.5596536138e+18,0.3986501694,0.2250537872,1.671046495
1631,1.55965361386e+18,-4.987811089,-1.467793465,7.315722466
1632,1.55965361392e+18,-1.248070955,0.03518629074,3.591114998
1633,1.55965361398e+18,0.7717256546,1.250709057,3.155668259
1634,1.55965361404e+18,0.526362896,1.277920246,-0.5527000427
1635,1.5596536141e+18,1.276338339,2.191700459,-4.817386627
1636,1.55965361416e+18,1.941105127,3.175086975,-6.863861084
1637,1.55965361422e+18,2.628020525,0.9788088799,-6.082110882
1638,1.55965361428e+18,5.156621456,6.024040222,-10.10581589
1639,1.55965361434e+18,1.887377143,0.2832217216,-0.03777551651
1640,1.5596536144e+18,-4.4818573,-5.946997643,7.476548195
1641,1.55965361446e+18,6.628712654,-7.140134811,-3.131589413
1642,1.55965361452e+18,-3.90149951,-5.212146759,-1.114339352
1643,1.55965361458e+18,1.167626381,-0.09881210327,3.96080637
1644,1.55965361464e+18,-1.706722736,-0.2871217728,4.548746109
1645,1.5596536147e+18,-2.435655594,0.9947810173,2.244160175
1646,1.55965361476e+18,-0.9441375732,0.5662388802,2.692896366
1647,1.55965361482e+18,0.180891037,0.8365440369,0.2396850586
1648,1.55965361488e+18,1.520343065,1.387746811,-3.95761013
1649,1.55965361494e+18,2.407071829,1.782917261,-5.205931664
1650,1.559653615e+18,4.213401318,2.690502644,-8.388152122
1651,1.55965361506e+18,4.033308506,1.707659364,-9.216667175
1652,1.55965361512e+18,0.9406461716,-1.104989052,-2.755810261
1653,1.55965361518e+18,-1.846446276,-5.500455379,5.141915798
1654,1.55965361524e+18,-1.908077002,0.8655805588,-5.412695408
1655,1.5596536153e+18,-2.934328318,-11.26525402,0.542675972
1656,1.55965361536e+18,-0.8346261978,-4.751111984,4.735952377
1657,1.55965361542e+18,-1.76491785,-0.619052887,6.554718971
1658,1.55965361548e+18,-5.115872383,-0.08900356293,6.164959908
1659,1.55965361554e+18,-3.013583183,1.408538342,3.304606199
1660,1.5596536156e+18,-0.5721912384,2.056138992,1.686031818
1661,1.55965361566e+18,4.136091232,1.388055801,1.022481441
1662,1.55965361572e+18,3.35663271,-0.393548727,-4.859712601
1663,1.55965361578e+18,0.467001915,-1.625538349,-5.838970184
1664,1.55965361584e+18,2.602944851,1.664605141,-9.346224785
1665,1.5596536159e+18,4.370136738,2.530520916,-11.17885685
1666,1.55965361596e+18,1.979704976,-1.402806282,-5.664024353
1667,1.55965361602e+18,-3.873799801,-6.062644005,2.976734638
1668,1.55965361608e+18,-4.496472359,-9.026648521,0.609703064
1669,1.55965361614e+18,-0.8199481964,-10.28814602,3.104449272
1670,1.5596536162e+18,-4.18435955,-1.985835075,6.279520035
1671,1.55965361626e+18,-9.136842728,-0.6942911148,7.670624733
1672,1.55965361632e+18,0.615878582,1.183794975,5.746347427
1673,1.55965361638e+18,1.043297529,3.133060217,1.009965897
1674,1.55965361644e+18,0.5394361019,2.455311775,-4.528520107
1675,1.5596536165e+18,1.168498039,0.8031651974,-4.644603252
1676,1.55965361656e+18,1.162341595,0.2091009617,-4.859134674
1677,1.55965361662e+18,0.948530674,1.681747437,-4.363458633
1678,1.55965361668e+18,6.113327503,5.086852551,-9.838575363
1679,1.55965361674e+18,3.322295427,2.965059519,-8.605611801
1680,1.5596536168e+18,0.6809263229,-0.8778672218,3.400309563
1681,1.55965361686e+18,-3.12361598,-6.527042389,8.999025345
1682,1.55965361692e+18,0.6783411503,-14.78341293,-0.5262088776
1683,1.55965361698e+18,-5.032648087,-3.193285942,2.593586445
1684,1.55965361704e+18,-5.565805435,-0.3371286392,7.050435543
1685,1.5596536171e+18,0.1942572594,2.966625214,2.135124683
1686,1.55965361716e+18,1.713063478,3.272688866,1.967821121
1687,1.55965361722e+18,2.406363249,2.294710398,0.2367162704
1688,1.55965361728e+18,1.028806925,0.5432126522,-1.161713123
1689,1.55965361734e+18,1.186467648,-1.178400755,-1.696330547
1690,1.5596536174e+18,3.753046513,1.756792426,-8.595244408
1691,1.55965361746e+18,3.349311829,3.204359055,-13.19791317
1692,1.55965361752e+18,2.444981813,1.6773386,-7.799377441
1693,1.55965361758e+18,-2.353016853,-4.310203552,2.866269588
1694,1.55965361764e+18,-1.724394441,-12.70576859,7.154001236
1695,1.5596536177e+18,-4.173870087,-9.833031654,-2.661717892
1696,1.55965361776e+18,0.137512207,-0.1131076813,2.255396843
1697,1.55965361782e+18,-1.727555513,-0.3689117432,7.91094017
1698,1.55965361788e+18,-2.464553356,0.8779969215,3.842123032
1699,1.55965361794e+18,0.00386595726,1.436598778,3.840500832
1700,1.559653618e+18,0.4980180264,1.703584671,1.330211163
1701,1.55965361806e+18,-0.6883349419,1.842743635,-2.283390522
1702,1.55965361812e+18,1.398974657,1.692207336,-3.841343403
1703,1.55965361818e+18,0.1749510765,0.6676168442,-5.192185402
1704,1.55965361824e+18,4.811348915,3.268523693,-8.586266518
1705,1.5596536183e+18,2.167470217,1.442786694,-5.657490253
1706,1.55965361836e+18,-0.05768060684,-1.830922604,5.060977936
1707,1.55965361842e+18,0.2404279709,-4.202643394,-2.146146774
1708,1.55965361848e+18,-7.837931633,-11.88562107,-0.5214204788
1709,1.55965361854e+18,1.58007884,-0.9339799881,2.188910007
1710,1.5596536186e+18,-0.1208913326,-0.374253273,6.21390152
1711,1.55965361866e+18,-5.583629608,0.2465062141,2.399068832
1712,1.55965361872e+18,-0.7976398468,0.06758260727,2.493754387
1713,1.55965361878e+18,0.6378262043,-0.399477005,1.326555252
1714,1.55965361884e+18,0.1715877056,0.4522590637,-4.284187317
1715,1.5596536189e+18,0.664375782,-1.681033134,-3.093755245
1716,1.55965361896e+18,2.020772219,5.683354378,-6.962269306
1717,1.55965361902e+18,4.539520741,7.061594486,-10.90470505
1718,1.55965361908e+18,1.020767331,1.356906891,-1.705533504
1719,1.55965361914e+18,-0.0855884552,-5.589982986,10.42842484
1720,1.5596536192e+18,-1.679669857,-9.05078125,-5.724451542
1721,1.55965361926e+18,-3.305544138,-4.750812531,3.024515152
1722,1.55965361932e+18,1.097523451,-0.05557441711,3.893996239
1723,1.55965361938e+18,0.1701388359,1.473763943,0.7013745308
1724,1.55965361944e+18,-2.508189201,-0.1208720207,0.364282608
1725,1.5596536195e+18,-3.913644791,-1.732711315,1.284543514
1726,1.55965361956e+18,-1.630944014,-2.129794121,2.010756493
1727,1.55965361962e+18,0.1426522732,1.26059866,0.1952652931
1728,1.55965361968e+18,-0.8485760689,-2.318618298,-0.124505043
1729,1.55965361974e+18,4.090251446,2.439532518,-12.76807022
1730,1.5596536198e+18,6.499347687,7.204322815,-3.701879025
1731,1.55965361986e+18,1.912257075,4.331423759,-1.586633682
1732,1.55965361992e+18,7.105656624,-16.9101944,2.987821579
1733,1.55965361998e+18,-16.05616188,-15.98404121,-1.980917215
1734,1.55965362004e+18,2.13851881,-4.250715256,4.187821388
1735,1.5596536201e+18,-1.228017092,-1.061525345,0.31990695
1736,1.55965362016e+18,-1.24325633,0.2730484009,0.304746151
1737,1.55965362022e+18,-0.2281591892,2.599549294,-0.2867364883
1738,1.55965362028e+18,-0.3846588135,3.759996176,-1.623705864
1739,1.55965362034e+18,0.8005049229,4.138885498,-0.8476490974
1740,1.5596536204e+18,0.8185036182,5.872101307,-0.6972336769
1741,1.55965362046e+18,1.87630856,4.328116417,0.4567170143
1742,1.55965362052e+18,6.04308033,3.757232428,-3.375887632
1743,1.55965362058e+18,1.902364016,2.96652174,-1.580642223
1744,1.55965362064e+18,-1.047497988,-4.834460258,6.682601452
1745,1.5596536207e+18,6.119761467,-9.163249969,-2.428069592
1746,1.55965362076e+18,-3.503853798,-4.443814278,-2.932543755
1747,1.55965362082e+18,-3.026886463,-2.850698948,1.4494946
1748,1.55965362088e+18,0.03594493866,-2.425731659,2.860989094
1749,1.55965362094e+18,-1.34834671,-2.087836742,1.589014053
1750,1.559653621e+18,0.2382059097,-1.051998615,-1.101346493
1751,1.55965362106e+18,1.293032169,1.190609455,-3.888612747
1752,1.55965362112e+18,1.814161539,1.080538511,-5.928341389
1753,1.55965362118e+18,2.517650127,1.03640759,-6.921937943
1754,1.55965362124e+18,6.321715832,4.373720169,-12.67868042
1755,1.5596536213e+18,7.344008446,3.858790874,-5.758817673
1756,1.55965362136e+18,0.7808841467,-10.88668442,9.382574081
1757,1.55965362142e+18,2.276425362,-5.889130592,2.009060383
1758,1.55965362148e+18,-8.107765198,-11.08055115,-4.441598892
1759,1.55965362154e+18,1.937225699,-2.778972626,2.161495686
1760,1.5596536216e+18,0.6280772686,-3.573750496,5.082060337
1761,1.55965362166e+18,-5.660415173,-2.268323898,7.907128334
1762,1.55965362172e+18,0.1381864548,1.157085896,6.973577499
1763,1.55965362178e+18,1.655395985,3.552664995,-0.4303131104
1764,1.55965362184e+18,1.517772675,3.747898102,-6.557664871
1765,1.5596536219e+18,1.755571604,0.8455135226,-2.939221859
1766,1.55965362196e+18,2.089173079,-0.3483147323,-6.122182846
1767,1.55965362202e+18,2.788785934,0.3974037468,-11.13850212
1768,1.55965362208e+18,2.354294777,-1.636941791,-9.544574738
1769,1.55965362214e+18,1.050642014,-4.11095953,-1.83629179
1770,1.5596536222e+18,-3.899804831,-5.423406601,-3.100867271
1771,1.55965362226e+18,-0.09880638123,-14.25544453,-4.256153107
1772,1.55965362232e+18,4.584440708,-9.38351059,6.682545662
1773,1.55965362238e+18,2.171660185,-4.02185154,6.063174725
1774,1.55965362244e+18,-5.324438095,-2.579375267,10.42009354
1775,1.5596536225e+18,3.790192366,-0.02409648895,11.49549866
1776,1.55965362256e+18,3.531385422,2.0078578,6.576261997
1777,1.55965362262e+18,3.821561813,1.601691961,0.6836810112
1778,1.55965362268e+18,2.142249584,0.9130437374,-4.947303295
1779,1.55965362274e+18,1.357091188,-0.3884942532,-5.06188345
1780,1.5596536228e+18,0.8882527351,-1.928045511,-8.361674309
1781,1.55965362286e+18,4.661515713,1.346278191,-12.10231876
1782,1.55965362292e+18,3.653064728,0.8966007233,-11.87979126
1783,1.55965362298e+18,0.1902184486,-3.198943138,-1.92098999
1784,1.55965362304e+18,-1.670178175,-11.70771503,5.275326729
1785,1.5596536231e+18,-2.277816772,-9.080422401,-3.737378597
1786,1.55965362316e+18,1.945450664,-7.506872177,4.905180454
1787,1.55965362322e+18,1.172602534,-0.7548236847,3.211114407
1788,1.55965362328e+18,-4.60759449,-1.991716385,9.860162735
1789,1.55965362334e+18,0.2942767143,0.9536762238,6.797854424
1790,1.5596536234e+18,1.294067621,2.190235615,3.083980083
1791,1.55965362346e+18,2.669700146,1.674183846,-1.117186069
1792,1.55965362352e+18,2.489468098,2.799274445,-5.502978325
1793,1.55965362358e+18,1.479123831,1.744280577,-4.906676769
1794,1.55965362364e+18,2.150788784,4.134199619,-7.705729008
1795,1.5596536237e+18,5.185839653,5.359443665,-9.905790329
1796,1.55965362376e+18,3.093321323,3.876169205,-7.061137676
1797,1.55965362382e+18,-4.655438423,-6.534435272,-0.2555561066
1798,1.55965362388e+18,-1.810438752,-18.50456238,2.230885506
1799,1.55965362394e+18,1.704859972,-5.036623955,-2.222331047
1800,1.559653624e+18,2.285826683,-3.02328968,0.3776238263
1801,1.55965362406e+18,1.383278131,-1.473282814,3.184945822
1802,1.55965362412e+18,-4.432868004,-2.309452057,10.1130209
1803,1.55965362418e+18,-1.284727573,-3.725011826,9.287265778
1804,1.55965362424e+18,-2.717416763,1.619285107,4.912550449
1805,1.5596536243e+18,2.331717014,4.096580505,-1.404454231
1806,1.55965362436e+18,0.9912261963,3.209731579,-6.464879036
1807,1.55965362442e+18,1.167744637,0.6146319509,-6.62229538
1808,1.55965362448e+18,0.7550406456,-0.944257617,-11.80761814
1809,1.55965362454e+18,2.681595564,-1.926830292,-13.19494057
1810,1.5596536246e+18,4.486618042,-0.4651565552,-12.08254433
1811,1.55965362466e+18,-3.300997496,-8.522184372,-3.492294788
1812,1.55965362472e+18,-0.8447604775,-10.97752762,4.6595397
1813,1.55965362478e+18,-0.4740521908,-7.896161079,-2.068646669
1814,1.55965362484e+18,-1.179478407,-4.655575752,6.51064682
1815,1.5596536249e+18,-1.653738737,-2.244113922,11.16925716
1816,1.55965362496e+18,-3.936309099,0.04336071014,7.885475159
1817,1.55965362502e+18,-1.430374622,2.357572556,6.088003635
1818,1.55965362508e+18,-0.8084673882,3.360000134,4.065128326
1819,1.55965362514e+18,0.7106430531,4.472370625,0.03557491302
1820,1.5596536252e+18,0.9330348969,3.55189538,-2.948439121
1821,1.55965362526e+18,1.137785196,1.795146823,-4.980985641
1822,1.55965362532e+18,3.371967554,1.939158916,-9.67421627
1823,1.55965362538e+18,5.285363197,-0.7153887749,-7.789372444
1824,1.55965362544e+18,-0.9233722687,-0.7426109314,-3.743467808
1825,1.5596536255e+18,-6.509399414,-9.333070755,10.87825775
1826,1.55965362556e+18,2.076584339,-4.769691467,-4.36716938
1827,1.55965362562e+18,0.5312318802,-4.761301517,-0.4478478432
1828,1.55965362568e+18,1.269059181,-0.9817857742,3.248703003
1829,1.55965362574e+18,-6.539254665,-2.135603905,6.388292313
1830,1.5596536258e+18,-3.843179226,-1.933833599,9.862064362
1831,1.55965362586e+18,0.1737723351,1.561316013,5.425559044
1832,1.55965362592e+18,1.339474916,0.514210701,-2.838395596
1833,1.55965362598e+18,2.933696032,-1.118900537,-7.008825302
1834,1.55965362604e+18,1.783191204,0.1180562973,-8.253081322
1835,1.5596536261e+18,2.926851273,1.838296294,-6.304686546
1836,1.55965362616e+18,5.54726696,5.703305244,-7.910247803
1837,1.55965362622e+18,1.796829104,1.598879576,-2.213810921
1838,1.55965362628e+18,1.180324674,-1.132314682,3.206544399
1839,1.55965362634e+18,-3.848806858,-5.378600121,3.708402157
1840,1.5596536264e+18,-3.950383902,-12.18003368,-1.655595303
1841,1.55965362646e+18,-4.012969971,-5.032626152,3.873736858
1842,1.55965362652e+18,-1.731511354,0.1405296326,6.483897209
1843,1.55965362658e+18,-6.066701889,-0.08602809906,5.134273529
1844,1.55965362664e+18,-1.42893815,-0.2564735413,3.604039192
1845,1.5596536267e+18,-0.8757433891,1.081040382,1.179441452
1846,1.55965362676e+18,-0.06476259232,2.150936127,-3.248498917
1847,1.55965362682e+18,1.174750566,2.534451962,-4.161519051
1848,1.55965362688e+18,1.816838503,0.1529929638,-5.454461098
1849,1.55965362694e+18,4.612350941,0.470413208,-8.196590424
1850,1.559653627e+18,4.197222233,0.8813596964,-9.773089409
1851,1.55965362706e+18,1.345098495,-1.382942677,-3.683609009
1852,1.55965362712e+18,-1.590694904,-3.710151672,5.600908756
1853,1.55965362718e+18,1.583101034,-4.204211235,1.250661373
1854,1.55965362724e+18,-3.880690575,-10.57790375,3.187365532
1855,1.5596536273e+18,-2.889579773,-0.3979568481,2.765181541
1856,1.55965362736e+18,-1.022148132,-0.1169233322,7.97447443
1857,1.55965362742e+18,-0.6395487785,1.089818478,4.585289478
1858,1.55965362748e+18,0.1239311695,0.6688432693,0.7723340988
1859,1.55965362754e+18,1.13663888,-0.436612606,-2.148660183
1860,1.5596536276e+18,1.754187346,0.1565737724,-8.243227959
1861,1.55965362766e+18,2.672279358,3.043306351,-2.627517223
1862,1.55965362772e+18,3.737270355,6.815846443,-10.47401237
1863,1.55965362778e+18,4.205245972,7.667470932,-8.604290962
1864,1.55965362784e+18,1.5493505,1.163627625,-0.2285656929
1865,1.5596536279e+18,-6.169330597,-7.403255939,10.97631454
1866,1.55965362796e+18,3.177560806,-5.583241463,-1.872891665
1867,1.55965362802e+18,-1.655071735,-7.836112976,1.784937382
1868,1.55965362808e+18,-0.02230262756,0.3091239929,0.3417811394
1869,1.55965362814e+18,-3.533872604,0.6856479645,6.235701561
1870,1.5596536282e+18,-1.399871826,1.200628757,5.112377167
1871,1.55965362826e+18,0.4379422665,1.74166584,1.31130743
1872,1.55965362832e+18,-0.3739247322,2.055435419,-1.208074093
1873,1.55965362838e+18,0.07662010193,2.527973175,-2.952605247
1874,1.55965362844e+18,-0.8199324608,1.124907017,-0.6663928032
1875,1.5596536285e+18,2.159269571,2.799627542,-5.671816826
1876,1.55965362856e+18,4.316792488,2.591375113,-10.6999979
1877,1.55965362862e+18,3.167679787,0.1411724091,-7.601645947
1878,1.55965362868e+18,-2.174716949,-3.469008446,2.772330761
1879,1.55965362874e+18,2.463442326,-10.55961418,4.339488029
1880,1.5596536288e+18,-5.611712456,-10.82827377,0.5647211075
1881,1.55965362886e+18,-0.3658452034,-1.583803177,4.822589874
1882,1.55965362892e+18,1.667355657,-0.4232082367,3.729828119
1883,1.55965362898e+18,-2.945846796,-0.1511540413,1.534325123
1884,1.55965362904e+18,0.4312634468,0.333114624,0.1995005608
1885,1.5596536291e+18,2.881440639,1.289604664,-0.1702103615
1886,1.55965362916e+18,2.442635775,3.041306734,-3.119558096
1887,1.55965362922e+18,-4.002220631,-8.484196663,7.468904495
1888,1.55965362928e+18,4.391665459,12.19681168,-5.723368168
1889,1.55965362934e+18,1.298983574,8.311786652,-4.699017525
1890,1.5596536294e+18,-1.546325684,-6.213967323,4.838906765
1891,1.55965362946e+18,0.9389154911,-8.654845238,1.881548166
1892,1.55965362952e+18,-0.03451132774,-10.99658966,-4.721290588
1893,1.55965362958e+18,0.2002468109,-2.731199265,-1.333762169
1894,1.55965362964e+18,-0.3178985119,-1.384916306,3.048043966
1895,1.5596536297e+18,-3.352982759,-0.9491128922,1.229139805
1896,1.55965362976e+18,0.4038133621,-0.9147958755,1.390331745
1897,1.55965362982e+18,-0.3652443886,0.45611763,-2.792304516
1898,1.55965362988e+18,1.656658173,3.744357109,-4.538474083
1899,1.55965362994e+18,1.66812253,-0.473388195,1.094046116
1900,1.55965363e+18,3.316733837,10.05927467,-7.306834221
1901,1.55965363006e+18,-0.8949261904,5.579631805,-2.502619267
1902,1.55965363012e+18,-3.266533852,-5.561608791,11.77198219
1903,1.55965363018e+18,0.7731236815,-3.291436195,-3.413143158
1904,1.55965363024e+18,2.925679922,-11.00728703,-0.6756534576
1905,1.5596536303e+18,-0.6230452061,-0.1171274185,-3.287612438
1906,1.55965363036e+18,-4.590543747,-0.5424671173,3.440738201
1907,1.55965363042e+18,2.20105648,1.306947708,2.948276997
1908,1.55965363048e+18,-2.493758202,0.8048191071,1.654523849
1909,1.55965363054e+18,-1.951005936,1.22889328,-0.279009819
1910,1.5596536306e+18,0.679148674,1.189083576,-2.1191535
1911,1.55965363066e+18,-0.2156195641,3.170534611,-5.553498268
1912,1.55965363072e+18,6.679467201,5.060679436,-3.088737965
1913,1.55965363078e+18,4.347866535,5.354567051,-7.726181507
1914,1.55965363084e+18,-0.6943173409,-2.281053066,2.842115879
1915,1.5596536309e+18,-1.990951538,-9.911305428,8.950193405
1916,1.55965363096e+18,0.9842746258,-13.28573799,-2.837853909
1917,1.55965363102e+18,0.6802101135,-0.8192763329,-1.735201597
1918,1.55965363108e+18,-2.173852205,0.4390740395,5.316451073
1919,1.55965363114e+18,-1.355641365,0.9406838417,3.29445219
1920,1.5596536312e+18,-0.9411363602,1.171923161,2.361815929
1921,1.55965363126e+18,-1.52231884,1.745200872,1.257135868
1922,1.55965363132e+18,1.026873112,2.251307964,2.037028313
1923,1.55965363138e+18,0.9053854942,2.456858873,-1.300554752
1924,1.55965363144e+18,1.723671198,1.689571381,-3.291157722
1925,1.5596536315e+18,4.401446342,0.06256371737,-8.619188309
1926,1.55965363156e+18,5.721615791,-2.397926569,-13.08034134
1927,1.55965363162e+18,4.134781837,-3.015588522,-4.74967289
1928,1.55965363168e+18,-4.099790573,-3.998432159,4.086686134
1929,1.55965363174e+18,5.906917095,-7.042180061,-3.379787207
1930,1.5596536318e+18,-4.004682064,-5.728133202,-0.1760144234
1931,1.55965363186e+18,-2.116936684,-0.3038845062,4.386781693
1932,1.55965363192e+18,-2.994423866,0.03216218948,5.492167473
1933,1.55965363198e+18,-2.143656969,0.03638792038,6.375184059
1934,1.55965363204e+18,-0.3610882759,0.5140714645,3.463499069
1935,1.5596536321e+18,1.276888132,1.389101028,-0.2971572876
1936,1.55965363216e+18,1.361654282,0.9209420681,-3.214471817
1937,1.55965363222e+18,1.827330112,-2.741416454,-4.552481651
1938,1.55965363228e+18,1.902085543,0.4386278987,-7.214211464
1939,1.55965363234e+18,6.337512016,1.970832825,-14.18494606
1940,1.5596536324e+18,1.368632793,-1.268116951,-6.339686394
1941,1.55965363246e+18,-0.2805497646,-5.303225994,4.877122402
1942,1.55965363252e+18,-1.302123547,-6.272379398,-3.719074249
1943,1.55965363258e+18,-4.14071703,-4.930106163,3.303205967
1944,1.55965363264e+18,0.3294892311,0.8888068199,5.555983067
1945,1.5596536327e+18,-2.527996778,0.7226557732,4.627624512
1946,1.55965363276e+18,-2.162886143,-0.3724193573,3.374220371
1947,1.55965363282e+18,-0.5920362473,0.8266897202,1.546886921
1948,1.55965363288e+18,0.7955503464,0.355650425,0.2638120651
1949,1.55965363294e+18,0.7758827209,1.669757128,-1.530259132
1950,1.559653633e+18,0.331111908,2.04248786,-0.961584568
1951,1.55965363306e+18,-0.2982625961,0.451654911,0.4748501778
1952,1.55965363312e+18,2.440230131,2.220396042,-1.964416981
1953,1.55965363318e+18,2.657022238,3.69032979,-5.135885239
1954,1.55965363324e+18,5.176476955,4.104097843,-6.673793793
1955,1.5596536333e+18,-1.475304127,-2.926047802,-1.059624672
1956,1.55965363336e+18,-0.3689823151,-5.250912189,3.186051846
1957,1.55965363342e+18,-8.430515289,-15.20231628,-2.931533337
1958,1.55965363348e+18,-0.3009390831,-1.989221573,3.538794994
1959,1.55965363354e+18,-0.3963279724,-0.6709389687,4.718874931
1960,1.5596536336e+18,-2.737159252,0.9900202751,1.795445442
1961,1.55965363366e+18,-0.7012939453,1.061118126,0.6231198311
1962,1.55965363372e+18,0.5059146881,1.627161503,1.101343632
1963,1.55965363378e+18,1.841624737,2.177420378,-0.9508838654
1964,1.55965363384e+18,2.711304188,-0.1908533573,1.648985863
1965,1.5596536339e+18,1.511783123,2.492052317,-5.307594299
1966,1.55965363396e+18,4.784153938,4.39029789,-12.80673981
1967,1.55965363402e+18,0.8219456673,1.399247169,-6.325865746
1968,1.55965363408e+18,3.958800554,-6.972684383,9.068025589
1969,1.55965363414e+18,-6.721170425,-8.128053665,-9.08075428
1970,1.5596536342e+18,-0.4038252831,-6.230218887,4.302542686
1971,1.55965363426e+18,3.272663593,-0.4827122688,4.512943745
1972,1.55965363432e+18,-1.870334864,0.8755393028,-0.4023237228
1973,1.55965363438e+18,-1.954804659,0.4102544785,0.8597402573
1974,1.55965363444e+18,-3.061295748,-1.028941631,0.04574394226
1975,1.5596536345e+18,-2.312754631,-1.712506294,2.799975872
1976,1.55965363456e+18,2.184044123,-1.125011921,3.521067142
1977,1.55965363462e+18,0.7890087366,4.294449329,-5.561727524
1978,1.55965363468e+18,2.419795275,4.882138729,-4.983804703
1979,1.55965363474e+18,3.085324049,6.972024918,-9.426700592
1980,1.5596536348e+18,3.325510263,1.402945042,-4.930864334
1981,1.55965363486e+18,-2.352034807,-3.096910954,4.279726028
1982,1.55965363492e+18,3.354718685,-7.708920002,-4.990432262
1983,1.55965363498e+18,-1.951374054,-5.114830017,0.3581585884
1984,1.55965363504e+18,0.5736572742,-1.004808903,5.045065403
1985,1.5596536351e+18,-0.9098939896,0.03180503845,4.119165897
1986,1.55965363516e+18,-1.89592433,0.9526486397,3.441169262
1987,1.55965363522e+18,-0.2538199425,1.39740324,2.846689224
1988,1.55965363528e+18,0.2216823101,0.7685248852,0.01187562943
1989,1.55965363534e+18,0.256051302,1.431532621,-2.858252048
1990,1.5596536354e+18,1.889457703,1.563910723,-3.674160957
1991,1.55965363546e+18,1.935019255,1.769039869,-7.135115147
