,Time (s),Linear Acceleration x (m/s^2),Linear Acceleration y (m/s^2),Linear Acceleration z (m/s^2)
0,1.55965411806e+18,0.2181358337,-5.834811211,-6.942834854
1,1.55965411812e+18,-0.5580396652,-5.895380974,-7.214285851
2,1.55965411818e+18,-1.321692944,-6.018367767,-7.416647911
3,1.55965411824e+18,-3.35138011,-6.462256908,-7.645320892
4,1.5596541183e+18,-5.527444363,-6.96285677,-7.394626617
5,1.55965411836e+18,-6.605973244,-7.235602379,-7.068257332
6,1.55965411842e+18,0.3962740898,-0.2134352922,-2.969615936
7,1.55965411848e+18,-0.7642892599,-1.715736628,-5.432674885
8,1.55965411854e+18,-0.7250550985,-1.502048731,-6.276809692
9,1.5596541186e+18,-1.947447777,-0.7084140778,-2.629414082
10,1.55965411866e+18,-3.950944901,2.530931473,-0.3900132179
11,1.55965411872e+18,-4.135601521,0.825463295,3.131913662
12,1.55965411878e+18,2.098880768,1.010454655,4.882789135
13,1.55965411884e+18,-4.357237816,0.04820203781,0.1471087933
14,1.5596541189e+18,-8.478727341,-0.9641900063,2.371581554
15,1.55965411896e+18,-11.99732208,-3.526529312,3.623865604
16,1.55965411902e+18,-10.95850277,-4.294232845,3.801524639
17,1.55965411908e+18,-6.910474777,-7.606546879,-2.322470903
18,1.55965411914e+18,1.035845757,-9.164441109,-5.081858158
19,1.5596541192e+18,5.526587963,-5.95031929,-9.519384384
20,1.55965411926e+18,5.711218357,-6.340910912,-6.866149426
21,1.55965411932e+18,1.985870361,-4.706260204,-4.193152428
22,1.55965411938e+18,-2.808458805,-2.283294916,-0.7718815804
23,1.55965411944e+18,3.441544533,-0.574464798,0.4669594765
24,1.5596541195e+18,3.651419878,1.553089619,-3.715395927
25,1.55965411956e+18,2.130387783,3.255683422,-2.797980785
26,1.55965411962e+18,0.7064471245,2.375585079,-0.2863416672
27,1.55965411968e+18,2.346684933,1.746991634,1.040928841
28,1.55965411974e+18,0.3493884802,-0.1161284447,-0.5948495865
29,1.5596541198e+18,0.4998649359,-0.7718286514,-1.413330078
30,1.55965411986e+18,1.06131959,-0.2120094299,-1.357321739
31,1.55965411992e+18,0.6925774813,-0.2500982285,0.5889344215
32,1.55965411998e+18,-0.9888220429,0.1741786003,0.2640104294
33,1.55965412004e+18,-0.05940330029,-0.399014473,-0.0166220665
34,1.5596541201e+18,1.478467226,-0.9392681122,-0.9644713402
35,1.55965412016e+18,0.9136791229,0.9557309151,-0.859360218
36,1.55965412022e+18,7.731901169,7.634233475,1.245778084
37,1.55965412028e+18,16.14215088,28.65927887,-3.389792919
38,1.55965412034e+18,14.78076935,5.348993301,-0.3289995193
39,1.5596541204e+18,-15.32170677,-35.06448364,-19.00073242
40,1.55965412046e+18,-13.65313244,-25.99523354,-2.182217121
41,1.55965412052e+18,2.98742485,-1.535200119,-15.29377079
42,1.55965412058e+18,-0.1710999608,17.33924103,-10.87103081
43,1.55965412064e+18,-5.595846653,1.382499218,-3.852921724
44,1.5596541207e+18,-4.524009705,-4.072556973,-0.814332962
45,1.55965412076e+18,0.3521211147,-6.323828697,0.8364253044
46,1.55965412082e+18,4.095301628,-3.154865026,-1.310654163
47,1.55965412088e+18,1.714069486,-3.721322298,-2.021090508
48,1.55965412094e+18,1.552042603,-1.948780417,-0.1056756973
49,1.559654121e+18,2.42939043,-2.588618279,1.769351959
50,1.55965412106e+18,3.166351795,-4.336414337,1.004396439
51,1.55965412112e+18,2.844621658,-2.833063126,-0.1094484329
52,1.55965412118e+18,1.100195885,-2.077134371,-2.195188999
53,1.55965412124e+18,-0.6540400982,-1.470786333,-3.799137592
54,1.5596541213e+18,-1.649652481,2.149890423,-5.397132874
55,1.55965412136e+18,-2.757533312,6.209394932,-4.147028446
56,1.55965412142e+18,-4.389277458,3.155676603,-0.9296264648
57,1.55965412147e+18,-2.374943733,3.827732086,-0.5193624496
58,1.55965412153e+18,0.206600666,0.6308538318,4.189705849
59,1.55965412159e+18,-2.871225834,-2.181870937,6.050837994
60,1.55965412165e+18,-2.153887272,-2.865046024,3.670130253
61,1.55965412171e+18,-0.6184868813,-1.392126083,1.465061665
62,1.55965412177e+18,0.04071807861,-0.1908535957,-1.275789261
63,1.55965412183e+18,-0.5267281532,-0.8297922611,-1.659220695
64,1.55965412189e+18,1.665631771,-0.08229064941,-2.887854338
65,1.55965412195e+18,1.282904625,-0.7993593216,-2.26060009
66,1.55965412201e+18,1.546433926,-0.775847435,-1.171895027
67,1.55965412207e+18,0.6901803017,-3.223964691,0.04701709747
68,1.55965412213e+18,-0.6281576157,-3.537261009,-0.4275569916
69,1.55965412219e+18,0.6370491982,-2.063153267,-0.9846010208
70,1.55965412225e+18,-0.428217411,-1.65118885,-0.7734107971
71,1.55965412231e+18,0.03495788574,-0.3518209457,-0.9175469875
72,1.55965412237e+18,-0.1164946556,0.2961235046,-0.4580981731
73,1.55965412243e+18,-0.4109613895,-0.02687931061,-0.588801384
74,1.55965412249e+18,-0.9474953413,-0.6237277985,-0.2029061317
75,1.55965412255e+18,-1.004677415,-0.5296859741,0.3251438141
76,1.55965412261e+18,-0.3839194775,-0.2686271667,0.5252012014
77,1.55965412267e+18,0.671358645,-0.304649353,0.6557457447
78,1.55965412273e+18,0.9952066541,-0.1536989212,0.2806918621
79,1.55965412279e+18,0.7379560471,0.09917354584,-0.5846149921
80,1.55965412285e+18,0.4128228426,-0.0840549469,-0.4098923206
81,1.55965412291e+18,0.05103266239,-0.03656864166,-0.4931981564
82,1.55965412297e+18,0.09818994999,-0.387799263,-0.341409564
83,1.55965412303e+18,0.5064041615,-0.7289953232,-0.3414299488
84,1.55965412309e+18,0.5871648788,-0.7717876434,-0.3324599266
85,1.55965412315e+18,0.5699175596,-0.1051340103,-0.7667092085
86,1.55965412321e+18,0.7368311882,0.08422470093,-0.3102315664
87,1.55965412327e+18,0.4153703451,0.2785463333,-0.3122230768
88,1.55965412333e+18,0.6155424714,0.271733284,-0.3190375566
89,1.55965412339e+18,0.2663258314,-0.3405399323,-0.266752243
90,1.55965412345e+18,0.2180359364,-0.3553495407,-0.04574453831
91,1.55965412351e+18,0.02947509289,0.01463699341,-0.2410953045
92,1.55965412357e+18,0.1580703259,-0.0260848999,0.04042685032
93,1.55965412363e+18,0.06279242039,0.01902866364,-0.03161799908
94,1.55965412369e+18,-0.08848571777,0.07622623444,0.09286475182
95,1.55965412375e+18,-0.09617817402,-0.006736755371,-0.05800676346
96,1.55965412381e+18,-0.04854571819,-0.01726436615,-0.04921519756
97,1.55965412387e+18,-0.01110851765,-0.02282714844,-0.1975346804
98,1.55965412393e+18,-0.0006799697876,-0.0810956955,-0.2663580179
99,1.55965412399e+18,-0.004004240036,-0.37682724,-0.1382089853
100,1.55965412405e+18,0.153883636,-0.1778144836,0.101900816
101,1.55965412411e+18,0.4112187624,0.02310180664,0.1965897083
102,1.55965412417e+18,0.5253584981,0.02050590515,0.1533050537
103,1.55965412423e+18,0.566539526,-0.1396217346,0.03827047348
104,1.55965412429e+18,0.4070221782,-0.2800397873,0.08667337894
105,1.55965412435e+18,0.7808456421,-0.05962276459,-0.2328135967
106,1.55965412441e+18,0.3565252423,0.4387817383,-0.5170419216
107,1.55965412447e+18,-0.1993795633,-0.7394475937,0.1475547552
108,1.55965412453e+18,0.2910293341,0.2858324051,-1.055172205
109,1.55965412459e+18,1.123052001,-0.1380729675,-0.3299826384
110,1.55965412465e+18,0.01628530025,0.1234455109,-0.3283401728
111,1.55965412471e+18,-0.2198767662,0.9006719589,-0.9214686155
112,1.55965412477e+18,0.2520499229,-0.3476839066,0.422634244
113,1.55965412483e+18,-0.2140836716,-0.2666978836,-0.2056076527
114,1.55965412489e+18,-0.1332361102,-0.2441740036,0.2425471544
115,1.55965412495e+18,-0.6224796176,-0.081407547,0.3135335445
116,1.55965412501e+18,-0.7380018234,0.2078752518,0.3900151253
117,1.55965412507e+18,-0.1223335266,0.08605957031,0.383205533
118,1.55965412513e+18,-0.5541099906,0.01165008545,0.2939587831
119,1.55965412519e+18,-0.8669162393,0.05793094635,0.08075404167
120,1.55965412525e+18,-0.330524087,0.01716518402,0.117726326
121,1.55965412531e+18,-0.04474514723,0.02380180359,0.07087695599
122,1.55965412537e+18,0.08641993999,0.09454727173,-0.05927884579
123,1.55965412543e+18,0.5597451925,-0.01494789124,0.215744853
124,1.55965412549e+18,0.6383616924,-0.3655929565,0.8839470148
125,1.55965412555e+18,-0.05392205715,-0.4318208694,1.756112814
126,1.55965412561e+18,-0.8889586926,-0.3983917236,1.64817524
127,1.55965412567e+18,-1.335689306,-0.05294418335,1.903621674
128,1.55965412573e+18,-1.057984829,0.2053203583,1.150906086
129,1.55965412579e+18,-1.205293655,0.3107128143,0.8406085968
130,1.55965412585e+18,-0.2340254784,0.2894883156,0.2237784863
131,1.55965412591e+18,-0.431614399,0.1060538292,-0.499048233
132,1.55965412597e+18,-0.6717758179,-0.5234599113,-1.000468493
133,1.55965412603e+18,0.2598319054,-0.2197518349,-1.415048122
134,1.55965412609e+18,0.8893933296,0.001049041748,-0.9122264385
135,1.55965412615e+18,1.094743252,0.1208286285,-0.9077832699
136,1.55965412621e+18,0.3965377808,0.1958770752,-0.6860020161
137,1.55965412627e+18,-0.1059045792,0.44825387,-0.8713312149
138,1.55965412633e+18,-0.4162607193,0.4881455898,-0.8230867386
139,1.55965412639e+18,0.1207675934,0.01595568657,-1.186097026
140,1.55965412645e+18,-1.02566433,-0.5405480862,-0.6454157829
141,1.55965412651e+18,-0.6239118576,0.2572813034,-0.1641578674
142,1.55965412657e+18,-0.9495716095,0.2633516788,-0.6107480526
143,1.55965412663e+18,-1.140258789,-0.02481365204,-0.9122023582
144,1.55965412669e+18,-0.04300403595,-1.010448217,-0.7093660831
145,1.55965412675e+18,1.576722145,-1.450940251,-0.7350996733
146,1.55965412681e+18,1.8975811,-2.980644226,-1.137757063
147,1.55965412687e+18,3.163567543,-6.339279175,-4.450161457
148,1.55965412693e+18,-1.863856316,5.433806419,-0.07505452633
149,1.55965412699e+18,1.987901211,1.895209551,-1.348217487
150,1.55965412705e+18,2.473235607,2.034790516,-1.049250126
151,1.55965412711e+18,3.339654922,2.719836712,-0.04826581478
152,1.55965412717e+18,3.564194679,2.146412134,0.1818304062
153,1.55965412723e+18,-0.582277298,0.6641294956,3.161392927
154,1.55965412729e+18,-10.85301208,-7.240197659,6.552679062
155,1.55965412735e+18,-12.94739628,-8.416769981,13.95394039
156,1.55965412741e+18,-12.42508411,-6.290097713,6.690395355
157,1.55965412747e+18,-8.2523489,-10.59000015,0.3102824688
158,1.55965412753e+18,0.9845046997,-11.69699097,-4.76843214
159,1.55965412759e+18,-0.6227421761,-10.05706024,-6.185479164
160,1.55965412765e+18,1.817833662,-10.07617474,-7.857738495
161,1.55965412771e+18,6.082814217,-8.962470055,-6.535296917
162,1.55965412777e+18,3.636885643,-4.731900692,-6.722094059
163,1.55965412783e+18,6.946395874,1.714426041,-3.151582956
164,1.55965412789e+18,15.50932026,18.81160736,-0.9698133469
165,1.55965412795e+18,24.77325058,29.61548615,-1.291753292
166,1.55965412801e+18,11.12974262,3.009003639,9.368788719
167,1.55965412807e+18,-7.624820709,-51.64225769,8.192038536
168,1.55965412813e+18,23.38374138,-14.49677658,-5.703175545
169,1.55965412819e+18,15.29032326,6.228951931,-12.68703842
170,1.55965412825e+18,-5.051757336,4.640141487,-10.58673859
171,1.55965412831e+18,1.117121935,2.093111038,-4.007173061
172,1.55965412837e+18,3.569385529,1.177373886,0.6864383221
173,1.55965412843e+18,4.619223595,-2.389579296,3.045830965
174,1.55965412849e+18,1.848663807,-3.915166378,1.485365391
175,1.55965412855e+18,-0.5743694901,-5.139448166,0.2036180496
176,1.55965412861e+18,0.5070574284,-4.921171188,0.6915512085
177,1.55965412867e+18,-1.005270243,-2.53524065,-1.637202263
178,1.55965412873e+18,-0.41474998,-1.683894157,-1.258830547
179,1.55965412879e+18,-3.170637608,0.8825941086,-0.0220580101
180,1.55965412885e+18,0.135008812,2.769817352,0.1410489082
181,1.55965412891e+18,-0.1901397705,1.848026276,0.7139182091
182,1.55965412897e+18,-0.6883330345,1.856536865,-0.7783083916
183,1.55965412903e+18,-0.3749184608,1.65247941,-0.6296744347
184,1.55965412909e+18,-3.543680668,1.12783289,-0.08541297913
185,1.55965412915e+18,-0.2714996338,0.4799697399,1.392342567
186,1.55965412921e+18,-1.99478817,-0.7025022507,-0.2157332897
187,1.55965412927e+18,-0.3106737137,-0.6557276249,0.4585373402
188,1.55965412933e+18,-0.7572956085,-0.8858010173,-1.289714813
189,1.55965412939e+18,-1.24962616,-1.947287798,-0.3066534996
190,1.55965412945e+18,-1.559519768,-1.219815254,-0.9514878988
191,1.55965412951e+18,-0.4225759506,-0.8981837034,0.1395679712
192,1.55965412957e+18,-0.4994907379,-0.6252764463,-0.4757871628
193,1.55965412963e+18,0.625875473,-1.165708184,1.893418789
194,1.55965412969e+18,1.534686089,-0.7841981649,0.7409102917
195,1.55965412975e+18,1.783619881,-0.01354336739,-1.727937341
196,1.55965412981e+18,3.074812889,-0.3996214867,-2.57274437
197,1.55965412987e+18,3.64906168,-0.6260652542,-2.204821348
198,1.55965412993e+18,0.5865240097,-3.05543375,0.2084970474
199,1.55965412999e+18,-1.743012905,-3.227993011,-0.4075803757
200,1.55965413005e+18,-2.412064075,-1.91680336,0.3481893539
201,1.55965413011e+18,-1.158834934,-0.6201910973,-0.09832906723
202,1.55965413017e+18,-1.40917635,-0.4419569969,0.5987119675
203,1.55965413023e+18,-0.4983530045,0.167737484,0.2953724861
204,1.55965413029e+18,-0.1141767502,0.3638811111,0.3654959202
205,1.55965413035e+18,0.3346176147,0.1977000237,0.07935810089
206,1.55965413041e+18,1.495805502,-0.1358995438,0.1317327023
207,1.55965413047e+18,1.656071901,-0.2138319016,-0.177996397
208,1.55965413053e+18,0.9842979908,0.04281806946,-0.4201171398
209,1.55965413059e+18,0.9209372997,0.3158836365,-0.9721963406
210,1.55965413065e+18,0.6693279743,0.02016735077,-0.8559372425
211,1.55965413071e+18,0.6265407801,-0.3369894028,-0.9494540691
212,1.55965413077e+18,0.3127372265,-0.9196310043,-0.6983706951
213,1.55965413083e+18,-0.4669606686,-1.356723785,-0.3680655956
214,1.55965413089e+18,-0.8469249606,-0.7653331757,-0.4704890251
215,1.55965413095e+18,-0.7155017853,-0.6307077408,-0.3855575323
216,1.55965413101e+18,-0.601303637,-0.5601444244,-0.3936504126
217,1.55965413107e+18,-0.6249756217,0.01085662842,-0.2588762045
218,1.55965413113e+18,0.3530754745,0.2970943451,-0.002516269684
219,1.55965413119e+18,0.1952579618,0.1357965469,0.11439538
220,1.55965413125e+18,-0.1396930218,-0.07786941528,0.100184679
221,1.55965413131e+18,0.1617021561,0.1168403625,0.7750213146
222,1.55965413137e+18,0.8037635684,0.2241916656,1.24539113
223,1.55965413143e+18,0.069835186,-0.5190010071,1.90421176
224,1.55965413149e+18,-1.871469975,-0.9102468491,1.658071756
225,1.55965413155e+18,-2.242119789,-0.02549743652,1.952695131
226,1.55965413161e+18,-1.77244854,-0.1147003174,1.083837748
227,1.55965413167e+18,-1.519438744,0.1705775261,0.6539573669
228,1.55965413173e+18,-0.8568763733,0.2688736916,0.08127355576
229,1.55965413179e+18,-0.143345356,-1.569778442,-0.2298905849
230,1.55965413185e+18,-0.4373745918,-1.791145325,-1.124785423
231,1.55965413191e+18,0.8649735451,-1.496008396,-1.863339663
232,1.55965413197e+18,1.754673004,-0.1836705208,-1.338394046
233,1.55965413203e+18,1.677983284,0.2465126514,-1.509423494
234,1.55965413209e+18,1.760088444,0.5261116028,-1.148991942
235,1.55965413215e+18,0.8702435493,0.05468273163,-1.089599967
236,1.55965413221e+18,0.1950473785,-0.7557153702,0.8371350765
237,1.55965413227e+18,0.1148395538,0.3070054054,-0.4332327843
238,1.55965413233e+18,1.679682255,-0.7624497414,0.4111406803
239,1.55965413239e+18,0.8988294601,-1.128244638,-1.807254314
240,1.55965413245e+18,0.0862493515,-5.558562279,-2.978055954
241,1.55965413251e+18,-3.371276855,-3.825925589,-8.865448952
242,1.55965413257e+18,-1.686717987,2.438739538,-0.1377503872
243,1.55965413263e+18,2.073307037,5.56414175,1.490595222
244,1.55965413269e+18,1.792019844,2.085042953,-1.102217555
245,1.55965413275e+18,0.8557920456,3.558654785,-0.7817525864
246,1.55965413281e+18,1.244760513,1.97191608,1.147170663
247,1.55965413287e+18,-2.747101784,1.362709522,3.734639168
248,1.55965413293e+18,-9.60044384,-4.126373291,9.009243965
249,1.55965413299e+18,-10.97227859,-2.245266676,12.23326778
250,1.55965413305e+18,-12.44799519,-3.818507433,4.67027235
251,1.55965413311e+18,-0.04602146149,-9.226350784,1.664623976
252,1.55965413317e+18,-4.674875259,-8.242401123,-6.959658146
253,1.55965413323e+18,3.863604069,-10.33388901,-6.326013565
254,1.55965413329e+18,6.351305962,-7.919633865,-6.793467999
255,1.55965413335e+18,4.695100784,-6.968764305,-6.911348343
256,1.55965413341e+18,2.489648819,-4.7461586,-6.371725082
257,1.55965413347e+18,7.210886955,0.9428110123,-3.934426308
258,1.55965413353e+18,10.02345276,8.312882423,-2.90857935
259,1.55965413359e+18,18.18462944,33.93878937,0.8959927559
260,1.55965413365e+18,14.93410397,11.20056152,1.126581192
261,1.55965413371e+18,10.65731907,-38.42245102,-31.43696404
262,1.55965413377e+18,-14.64698887,-20.9884758,-3.63992548
263,1.55965413383e+18,8.407696724,2.909942627,-7.988731861
264,1.55965413389e+18,2.301239014,-0.6550154686,-4.781298161
265,1.55965413395e+18,1.479677916,-3.415078878,-0.7339158058
266,1.55965413401e+18,4.126559258,-2.108561039,0.2696223259
267,1.55965413407e+18,3.960413218,-0.1628456116,-2.501947403
268,1.55965413413e+18,3.892419338,1.248291016,-1.448281765
269,1.55965413419e+18,2.074821949,1.921537399,-3.202917576
270,1.55965413425e+18,1.466879129,1.884202957,-2.318562746
271,1.55965413431e+18,0.5180251598,0.996673584,-2.43248415
272,1.55965413437e+18,0.1845339537,0.195271492,-0.716449976
273,1.55965413443e+18,0.04459768534,0.8450098038,-0.9753959179
274,1.55965413449e+18,-0.3656543195,-0.226272583,0.905151844
275,1.55965413455e+18,-0.1820196211,0.01601409912,-0.7503099442
276,1.55965413461e+18,-0.7589968443,-0.5899615288,-0.9893050194
277,1.55965413467e+18,-0.7077153921,-1.763431072,-3.660058498
278,1.55965413473e+18,-0.0125528574,-3.449913025,-4.950812817
279,1.55965413479e+18,1.344722629,-1.954554081,-4.958209515
280,1.55965413485e+18,0.7771978378,-1.274676323,-2.118370533
281,1.55965413491e+18,-4.421028614,-2.604863167,0.9545083046
282,1.55965413497e+18,-5.324591637,-1.466527581,1.724547386
283,1.55965413503e+18,-0.9113283157,-1.501366973,3.490783215
284,1.55965413509e+18,1.572031975,-1.709534883,0.7224259377
285,1.55965413515e+18,1.826889515,-4.767351151,2.763767242
286,1.55965413521e+18,2.227288723,-3.543630362,0.07141780853
287,1.55965413527e+18,1.179549217,-2.86347723,-0.8436183929
288,1.55965413533e+18,1.23306036,-2.461057186,-0.6443686485
289,1.55965413539e+18,1.502064705,-2.048831463,-0.1510710716
290,1.55965413545e+18,0.9777607918,-0.9706625938,-0.803047657
291,1.55965413551e+18,0.874402523,-0.6443128586,-0.7158720493
292,1.55965413557e+18,-0.8950600624,-1.794587135,-0.04215741158
293,1.55965413563e+18,-2.313501358,-2.51734066,-0.2660120726
294,1.55965413569e+18,-1.695768476,-2.189821243,0.2159091234
295,1.55965413575e+18,-0.8587516546,-0.3494501114,0.5371316671
296,1.55965413581e+18,-0.3848633766,-0.1675319672,-0.4918669462
297,1.55965413587e+18,-0.467310667,-0.4789552689,-0.2636283636
298,1.55965413593e+18,-0.05409598351,0.247961998,-0.5850516558
299,1.55965413599e+18,0.6214723587,0.2747631073,-0.7176114321
300,1.55965413605e+18,0.7559791803,0.2656497955,-0.6156414747
301,1.55965413611e+18,1.110661387,-0.6229505539,-0.9731986523
302,1.55965413617e+18,1.46894896,-0.7163228989,-0.6190814972
303,1.55965413623e+18,1.402077436,-0.1731815338,-0.4520840645
304,1.55965413629e+18,1.484018803,0.2821111679,-0.5255305767
305,1.55965413635e+18,1.295735717,0.03328227997,-0.2032372952
306,1.55965413641e+18,0.7881828547,-0.04563808441,-0.1654051542
307,1.55965413647e+18,0.3427116871,-0.3258943558,-0.4298827648
308,1.55965413653e+18,0.1435214281,-0.4731121063,-0.1698226929
309,1.55965413659e+18,-0.1430772543,-0.2039575577,-0.1412229538
310,1.55965413665e+18,-0.5319238305,0.07578468323,-0.08467149734
311,1.55965413671e+18,-0.4954798818,-0.05462551117,0.0952860117
312,1.55965413677e+18,-0.3056833148,-0.5278367996,0.04387021065
313,1.55965413683e+18,-0.2413725853,-0.5006284714,0.325797677
314,1.55965413689e+18,-0.2290693521,0.002923965454,0.05756866932
315,1.55965413695e+18,-0.0379075408,0.1813592911,0.02189314365
316,1.55965413701e+18,0.2710072994,0.07978439331,-0.06818246841
317,1.55965413707e+18,0.4765688777,-0.1130819321,-0.2532808781
318,1.55965413713e+18,0.5580420494,0.03898334503,-0.3591045141
319,1.55965413719e+18,0.5561683774,0.2157335281,-0.5677217245
320,1.55965413725e+18,0.3604431152,0.3165330887,-0.6045351028
321,1.55965413731e+18,0.1695326567,0.1210069656,-0.1756082773
322,1.55965413737e+18,-0.3811063766,-0.6517400742,-0.1469599009
323,1.55965413743e+18,-0.8072323799,-0.02362060547,-0.1600403786
324,1.55965413749e+18,-0.759074688,0.3163700104,0.1170749664
325,1.55965413755e+18,-0.9576556683,-0.02373504639,0.2177910805
326,1.55965413761e+18,-1.020978689,-0.3219947815,0.1755006313
327,1.55965413767e+18,-0.210133791,-0.08103847504,0.2037148476
328,1.55965413773e+18,0.006685018539,-0.1298971176,0.3709405661
329,1.55965413779e+18,-0.0544321537,-0.4347295761,0.2926018238
330,1.55965413785e+18,-0.7818057537,-0.2908029556,0.4332168102
331,1.55965413791e+18,-1.317583799,-0.3379325867,0.6689498425
332,1.55965413797e+18,-0.9827003479,-0.2049713135,0.7293741703
333,1.55965413803e+18,-0.4941692352,-0.1464204788,0.5560822487
334,1.55965413809e+18,-0.4969406128,-0.06515216827,-0.09692502022
335,1.55965413815e+18,-0.02953052521,0.04947471619,-0.5441460609
336,1.55965413821e+18,0.152551651,-0.073554039,-0.8151004314
337,1.55965413827e+18,0.6355314255,-0.320476532,-0.8756341934
338,1.55965413833e+18,0.6958422661,-0.7880854607,-0.7050430775
339,1.55965413839e+18,1.067461967,-0.4508528709,-0.4119970798
340,1.55965413845e+18,0.4727478027,0.3232479095,-0.02558898926
341,1.55965413851e+18,-0.3251280785,0.5406956673,0.0076212883
342,1.55965413857e+18,-0.6796984673,0.3085474968,0.8554499149
343,1.55965413863e+18,-0.7531805038,0.4870724678,0.7155997753
344,1.55965413869e+18,-0.2469291687,0.5442652702,0.5550732613
345,1.55965413875e+18,0.2268514633,0.8874938488,0.5271720886
346,1.55965413881e+18,0.6189427376,1.097716331,0.2015104294
347,1.55965413887e+18,0.9094333649,1.229431152,0.03685379028
348,1.55965413893e+18,0.6211652756,0.3358390331,-0.2239899635
349,1.55965413899e+18,0.4330425262,0.7159976959,-0.5323963165
350,1.55965413905e+18,0.3908877373,1.16403842,-0.2828731537
351,1.55965413911e+18,0.09602403641,0.9838459492,-0.3537721634
352,1.55965413917e+18,0.29885149,1.604298472,-0.5588526726
353,1.55965413923e+18,-0.3878278732,-0.3969340324,-0.9186658859
354,1.55965413929e+18,1.797351837,-2.154408693,-0.5760550499
355,1.55965413935e+18,2.942672491,-3.288492441,-0.7842078209
356,1.55965413941e+18,2.523342609,-3.180566311,-2.103450537
357,1.55965413947e+18,0.4459900856,-5.47503376,-2.427871704
358,1.55965413953e+18,-2.453576088,-7.088747025,2.248547316
359,1.55965413959e+18,1.27531147,-4.534190178,2.275898457
360,1.55965413965e+18,2.218985081,-1.785738707,-0.4665768147
361,1.55965413971e+18,1.867913246,2.669715405,-2.411365032
362,1.55965413977e+18,-0.5969824791,4.556487083,-1.6859231
363,1.55965413983e+18,-7.530168056,3.697282076,2.13567853
364,1.55965413989e+18,-16.07638741,2.35140276,3.910298109
365,1.55965413995e+18,-14.06466389,0.6335921288,5.893596172
366,1.55965414001e+18,-10.98256969,-2.325758219,-0.2019743919
367,1.55965414007e+18,-5.412074566,-4.248710632,-4.739435196
368,1.55965414013e+18,0.122148037,-4.06870079,-8.898730278
369,1.55965414019e+18,4.842258453,-4.187576771,-9.253553391
370,1.55965414025e+18,-1.286539435,-4.541920662,-8.994235039
371,1.55965414031e+18,1.032711029,-4.01924324,-7.233322144
372,1.55965414037e+18,1.051684141,-1.947841644,-7.733469963
373,1.55965414043e+18,2.012741089,2.953221321,-3.067275763
374,1.55965414049e+18,5.653242111,9.599067688,-1.295822144
375,1.55965414055e+18,15.57814026,32.89710236,0.1568641663
376,1.55965414061e+18,13.82761478,17.35145569,1.722223759
377,1.55965414067e+18,-5.529820919,-15.68449211,-34.36509323
378,1.55965414073e+18,-26.03437805,-29.26334,-12.88623619
379,1.55965414079e+18,7.548322678,-3.572579384,-10.55709839
380,1.55965414085e+18,3.918247223,-0.3620991707,-4.890796661
381,1.55965414091e+18,3.039289474,1.519290924,-6.018678665
382,1.55965414097e+18,3.01057291,1.592394352,-0.8420233727
383,1.55965414103e+18,-1.046806335,-0.02388000488,-1.282660007
384,1.55965414109e+18,-0.6069366932,0.6135902405,-1.315155029
385,1.55965414115e+18,0.3854523301,1.635686398,-1.457351208
386,1.55965414121e+18,-1.136858106,0.6703906059,-1.737133741
387,1.55965414127e+18,0.9356383085,-1.310048103,0.2781386375
388,1.55965414133e+18,0.4917155504,-1.574434757,0.2676763535
389,1.55965414139e+18,0.5516856909,-0.8972830772,-0.0693192482
390,1.55965414145e+18,0.6223522425,-0.2429299355,-0.7469654083
391,1.55965414151e+18,-0.1564207077,-0.7287111282,0.04237413406
392,1.55965414157e+18,-0.1036750078,-1.135533333,-1.613984108
393,1.55965414163e+18,-0.1949583292,-2.043004036,-1.734246731
394,1.55965414169e+18,-0.8502919674,-4.05075264,-5.034473419
395,1.55965414175e+18,-3.186159372,-1.810678005,-6.664156914
396,1.55965414181e+18,-0.3377473354,-1.517266989,-6.85622406
397,1.55965414187e+18,1.829669952,-2.00169611,-2.404180527
398,1.55965414193e+18,0.6129574776,-2.061267853,3.560776234
399,1.55965414199e+18,-3.029167652,-2.173569679,4.15899992
400,1.55965414205e+18,1.730851173,-3.171823978,4.699295044
401,1.55965414211e+18,4.135893345,-3.672907352,5.01806736
402,1.55965414217e+18,2.515930653,-4.137080193,5.125627995
403,1.55965414223e+18,-0.800303936,-1.799294949,-0.938025713
404,1.55965414229e+18,-2.105214596,-2.499105453,-0.1829316616
405,1.55965414235e+18,1.00865221,-1.339381218,0.8115861416
406,1.55965414241e+18,0.6603553295,-0.8615856171,0.2727684975
407,1.55965414247e+18,-0.9558373094,-1.045143127,-0.3288221359
408,1.55965414253e+18,-2.706625938,-0.6511135101,-1.193357944
409,1.55965414259e+18,-2.167812586,-0.5379772186,-0.7568255663
410,1.55965414265e+18,-0.546020627,-0.9303541183,-0.04286634922
411,1.55965414271e+18,0.8775674105,-0.6600627899,0.06378960609
412,1.55965414277e+18,1.594325066,-0.4409179688,-0.1029448509
413,1.55965414283e+18,1.939926386,-0.5437574387,-0.157651186
414,1.55965414289e+18,2.485556364,-0.287651062,-0.3549411297
415,1.55965414295e+18,2.558540106,-0.01875591278,-0.4608831406
416,1.55965414301e+18,1.944979906,0.2801399231,-0.5685892105
417,1.55965414307e+18,1.068656325,0.2193746567,-0.5615490675
418,1.55965414313e+18,0.1787697077,-0.1733579636,-0.6248091459
419,1.55965414319e+18,-0.4648550749,-0.3926334381,-0.5200994015
420,1.55965414325e+18,-0.8589622974,-0.3955183029,-0.4621398449
421,1.55965414331e+18,-1.071745396,-0.1466016769,-0.1467336416
422,1.55965414337e+18,-1.001486421,-0.04862117767,0.0125067234
423,1.55965414343e+18,-0.8957601786,0.07812786102,0.07878220081
424,1.55965414349e+18,-0.7097508907,0.01324558258,0.1034007072
425,1.55965414355e+18,-0.3277254105,-0.2006731033,0.1352866888
426,1.55965414361e+18,0.1383934021,-0.2942256927,0.1800522804
427,1.55965414367e+18,0.4655754566,-0.469534874,0.04749155045
428,1.55965414373e+18,0.9153068066,-0.1700744629,-0.0726903677
429,1.55965414379e+18,1.316576958,0.086602211,-0.1745942831
430,1.55965414385e+18,1.383911133,0.1353607178,-0.2694240808
431,1.55965414391e+18,1.132477999,0.06108283997,-0.4530487061
432,1.55965414397e+18,0.6612583995,0.1069936752,-0.5347868204
433,1.55965414403e+18,0.2999734282,-0.04406452179,-0.5464823246
434,1.55965414409e+18,0.166911602,-0.1909856796,-0.2647323608
435,1.55965414415e+18,0.08373683691,-0.1248426437,-0.09353971481
436,1.55965414421e+18,-0.02001410723,-0.09114551544,0.175797224
437,1.55965414427e+18,-0.07684361935,-0.2099943161,0.185911417
438,1.55965414433e+18,-0.09674012661,-0.1252202988,0.2420185804
439,1.55965414439e+18,0.2215743661,-0.152381897,0.4167560339
440,1.55965414445e+18,0.2014312148,-0.02569580078,0.3761291504
441,1.55965414451e+18,-0.0241509676,0.1806631088,0.502515316
442,1.55965414457e+18,-0.08679366112,-0.07302951813,0.9580833912
443,1.55965414463e+18,-0.3111019135,-0.261343956,0.9890863895
444,1.55965414469e+18,-0.9115355015,-0.1523227692,1.156872272
445,1.55965414475e+18,-0.9904003143,0.1830663681,1.294305086
446,1.55965414481e+18,-1.438692331,-0.1215744019,0.7657868862
447,1.55965414487e+18,-0.8987197876,-0.5405416489,-0.3159966469
448,1.55965414493e+18,-0.6944284439,-0.8202033043,-0.2032034397
449,1.55965414499e+18,0.2638483047,-0.5586595535,-0.7230014801
450,1.55965414505e+18,0.3950462341,-0.008232593536,-0.7119519711
451,1.55965414511e+18,1.203148365,0.3105478287,-0.8368711472
452,1.55965414517e+18,0.5968623161,0.4470825195,-1.220986605
453,1.55965414523e+18,1.186159611,0.8310365677,-0.2861709595
454,1.55965414529e+18,0.4113340378,0.6355600357,-0.5855710506
455,1.55965414535e+18,-0.5376853943,0.3051805496,-0.2443296909
456,1.55965414541e+18,-0.679125309,0.6684775352,0.2838728428
457,1.55965414547e+18,-1.150693893,0.9799664021,-0.01957130432
458,1.55965414553e+18,-0.8886013031,0.9801104069,-0.3425972462
459,1.55965414559e+18,-0.4914159775,0.3530962467,0.3836922646
460,1.55965414565e+18,-1.28189373,0.2709150314,-0.2245483398
461,1.55965414571e+18,0.1009178162,0.1879880428,-0.5707104206
462,1.55965414577e+18,1.335515022,0.3238582611,-0.4716284275
463,1.55965414583e+18,1.502326965,-0.3462975025,-1.558970928
464,1.55965414589e+18,1.836680889,-0.7511384487,-1.176703691
465,1.55965414595e+18,2.524805546,-1.487094402,-2.062157869
466,1.55965414601e+18,0.9506340027,-3.464264393,-2.022014141
467,1.55965414607e+18,3.305212021,-10.13103008,8.405724525
468,1.55965414613e+18,-2.941768646,5.740428448,-4.368854523
469,1.55965414619e+18,3.468655586,2.946673393,0.9686341286
470,1.55965414625e+18,1.499502659,3.325626373,-1.696838617
471,1.55965414631e+18,0.2980899811,3.212949514,1.189573884
472,1.55965414637e+18,-3.567158699,0.7118012905,2.835510492
473,1.55965414643e+18,-8.742178917,-2.913992405,5.726616383
474,1.55965414649e+18,-8.452136993,-3.40093708,10.14159393
475,1.55965414655e+18,-8.563303947,-2.680335999,5.561583996
476,1.55965414661e+18,-6.714367867,-8.809316635,3.000983238
477,1.55965414667e+18,-3.946095467,-11.49565887,-1.92972827
478,1.55965414673e+18,-0.8745160103,-12.2338953,-4.323068142
479,1.55965414679e+18,2.835576534,-8.864844322,-5.958564758
480,1.55965414685e+18,6.146933079,-7.479274273,-6.199675083
481,1.55965414691e+18,3.526696205,-5.507725716,-5.871145248
482,1.55965414697e+18,3.873957634,-0.9969434738,-4.384915829
483,1.55965414703e+18,9.518461227,9.587695122,-4.256893158
484,1.55965414709e+18,20.57631493,33.11868286,-6.178734779
485,1.55965414715e+18,6.136587143,3.152517796,8.417827606
486,1.55965414721e+18,35.80935287,-56.9657135,-16.86347961
487,1.55965414727e+18,-14.62440681,-11.46971321,-6.072777271
488,1.55965414733e+18,7.955334663,1.593472004,-8.336781502
489,1.55965414739e+18,3.693883657,1.032216072,-3.014818907
490,1.55965414745e+18,1.820705652,-0.6169686317,-2.301519394
491,1.55965414751e+18,1.998046637,-1.999178886,-0.8933169842
492,1.55965414757e+18,3.644521952,-0.9344921112,2.301152229
493,1.55965414763e+18,1.249173641,2.599500656,-2.477632046
494,1.55965414769e+18,1.54310441,1.986730576,-1.265568256
495,1.55965414775e+18,0.970557034,1.744997025,-1.91523087
496,1.55965414781e+18,0.8148731589,0.6609773636,-1.167935848
497,1.55965414787e+18,0.6133465171,0.06722068787,-1.008904696
498,1.55965414793e+18,-0.1757237315,0.02134990692,-1.124888182
499,1.55965414799e+18,0.2148356736,-0.07486438751,0.03854513168
500,1.55965414805e+18,0.6010686159,-0.249171257,0.01208996773
501,1.55965414811e+18,-0.3813211918,-0.2052507401,-0.0005764961243
502,1.55965414817e+18,0.5295655727,0.1364412308,-0.6748547554
503,1.55965414823e+18,-0.4705604315,-0.5088157654,-0.6781728268
504,1.55965414829e+18,-0.4456160069,-0.3282928467,-0.9759654999
505,1.55965414835e+18,-0.3557425737,-1.563558578,-0.9792006016
506,1.55965414841e+18,-0.4056740403,-3.636126995,-2.326661587
507,1.55965414847e+18,-0.3949560225,-4.560301304,-2.832513809
508,1.55965414853e+18,-0.3599354029,-4.675603867,-3.825546265
509,1.55965414859e+18,0.4623041153,-3.355918646,-3.644919872
510,1.55965414865e+18,-0.4397509098,-1.330029488,-4.517083168
511,1.55965414871e+18,-0.06930911541,-1.370552063,-0.8003063202
512,1.55965414877e+18,-4.000581264,-2.557503939,1.756056786
513,1.55965414883e+18,-0.9204511642,-3.535036087,2.580006599
514,1.55965414889e+18,4.512589931,-5.302995682,4.989654541
515,1.55965414895e+18,3.689571381,-4.872264385,2.580058098
516,1.55965414901e+18,-0.2969760895,-4.988360405,1.379745007
517,1.55965414907e+18,-2.321375608,-3.123040199,-0.8353056908
518,1.55965414913e+18,0.1876289845,-1.692477226,0.04529523849
519,1.55965414919e+18,0.2459445,-2.079551697,0.6977303028
520,1.55965414925e+18,-1.32156229,-2.436435699,0.5747039318
521,1.55965414931e+18,-2.000967741,-1.378974915,-0.4164509773
522,1.55965414937e+18,-1.856521845,-0.5633993149,-0.2977843285
523,1.55965414943e+18,-1.260149837,-0.08068847656,-0.3327207565
524,1.55965414949e+18,-0.4746062756,-0.07158374786,-0.5744322538
525,1.55965414955e+18,0.1641168594,-0.4739313126,-0.6251330376
526,1.55965414961e+18,0.694449544,-0.5783748627,-0.833054781
527,1.55965414967e+18,1.121664524,-0.5569438934,-1.14531219
528,1.55965414973e+18,1.517888069,-0.4933567047,-1.043087721
529,1.55965414979e+18,1.84167552,-0.3801593781,-1.067819595
530,1.55965414985e+18,1.824944973,-0.191534996,-1.019210815
531,1.55965414991e+18,1.681322336,0.04785633087,-0.8756937981
532,1.55965414997e+18,1.198469162,0.08165836334,-0.7279307842
533,1.55965415003e+18,0.6292141676,0.1008014679,-0.6616061926
534,1.55965415009e+18,0.01274645329,0.03099918365,-0.3383903503
535,1.55965415015e+18,-0.6002924442,-0.2148160934,-0.07819652557
536,1.55965415021e+18,-1.091959,-0.5381937027,0.3823724985
537,1.55965415027e+18,-1.296425343,-0.4720697403,0.3592255116
538,1.55965415033e+18,-1.801240921,-0.1907863617,0.6233822107
539,1.55965415039e+18,-1.879613161,-0.2618274689,0.3123699427
540,1.55965415045e+18,-1.975544572,0.1131410599,0.6441060305
541,1.55965415051e+18,-1.333714724,0.3081207275,0.3972970247
542,1.55965415057e+18,-0.5275864601,-0.2819509506,0.396163702
543,1.55965415063e+18,-0.1331300735,-0.4573097229,-0.1614482403
544,1.55965415068e+18,0.0433113575,-0.9322299957,-0.3781781197
545,1.55965415074e+18,0.4461226463,-0.9740781784,-0.4881434441
546,1.5596541508e+18,0.4333546162,-1.638827324,-0.2791383266
547,1.55965415086e+18,-0.02258729935,-0.6698460579,0.2644436359
548,1.55965415092e+18,-0.8826112747,0.1387691498,0.710256815
549,1.55965415098e+18,-1.292023659,0.8983960152,0.1717038155
550,1.55965415104e+18,-1.043970108,1.020837784,0.4696221352
551,1.5596541511e+18,-1.179066181,0.9243202209,-0.4181814194
552,1.55965415116e+18,-0.294980526,1.243745565,0.0940155983
553,1.55965415122e+18,-0.6553573608,1.823334932,-1.146361351
554,1.55965415128e+18,0.7296071053,1.315017223,-0.9516224861
555,1.55965415134e+18,1.142947197,0.5187120438,-1.150008202
556,1.5596541514e+18,1.067031384,-0.1284601688,-0.4546499252
557,1.55965415146e+18,0.3762450218,-1.746243477,-0.3909921646
558,1.55965415152e+18,0.8584165573,-2.366432905,0.008563518524
559,1.55965415158e+18,0.9893631935,-3.431378841,-0.5435957909
560,1.55965415164e+18,2.979912758,-3.526812077,-1.297373295
561,1.5596541517e+18,3.614672661,-4.902548313,-1.989695668
562,1.55965415176e+18,3.872913361,-6.81076622,0.7770721912
563,1.55965415182e+18,-0.135840416,1.04498601,0.5321958065
564,1.55965415188e+18,-0.4056015015,8.226869583,3.268012762
565,1.55965415194e+18,-1.792826653,7.558516026,3.450900555
566,1.559654152e+18,-2.822832108,2.64153862,-0.6828651428
567,1.55965415206e+18,-4.283813477,-8.493780136,-5.743849277
568,1.55965415212e+18,7.853835583,-4.574151039,-0.8766152859
569,1.55965415218e+18,2.601082802,-0.2457623482,-2.659885883
570,1.55965415224e+18,-0.1586270332,3.597505569,-0.6139583588
571,1.5596541523e+18,-3.839159489,2.204827309,-0.0901453495
572,1.55965415236e+18,-5.917857647,0.4089331627,1.996935844
573,1.55965415242e+18,-3.539782524,2.909648895,0.5906729698
574,1.55965415248e+18,-3.192082405,2.583516121,1.502577066
575,1.55965415254e+18,-3.265347481,1.540171623,-1.030264378
576,1.5596541526e+18,1.215609074,1.560637832,4.221370697
577,1.55965415266e+18,-5.597360611,1.229143143,1.067002773
578,1.55965415272e+18,-3.226663589,-0.6335355043,2.325315952
579,1.55965415278e+18,-1.992632389,-2.836834908,0.723338604
580,1.55965415284e+18,-0.6090579033,-5.304505348,-2.707453012
581,1.5596541529e+18,3.131328583,-4.355083466,-5.07237196
582,1.55965415296e+18,3.986648083,-5.81572628,-5.293545246
583,1.55965415302e+18,2.623327494,-3.878787518,-7.80223608
584,1.55965415308e+18,2.359988213,-1.524062634,-4.771862984
585,1.55965415314e+18,5.65563345,4.857972145,-3.45325613
586,1.5596541532e+18,17.17799187,28.19410133,-4.880057335
587,1.55965415326e+18,13.48443699,13.33511066,0.6235489845
588,1.55965415332e+18,-4.565580368,-20.97638321,-31.75537872
589,1.55965415338e+18,-26.33982849,-23.52985764,-9.290813446
590,1.55965415344e+18,14.05633354,3.919679165,-9.925915718
591,1.5596541535e+18,-3.385433197,1.58543539,-6.913519382
592,1.55965415356e+18,-0.99304986,-3.806030273,-1.450373173
593,1.55965415362e+18,1.602299452,1.995363235,0.6973104477
594,1.55965415368e+18,1.794165969,-2.127725124,0.7632536888
595,1.55965415374e+18,1.613545179,-0.8469209671,-1.396377087
596,1.5596541538e+18,1.553153515,-1.713937283,-0.396402359
597,1.55965415386e+18,-0.6461812258,-0.4523420334,-1.951235056
598,1.55965415392e+18,-0.6848269701,0.2479038239,-1.234683514
599,1.55965415398e+18,-0.1641354561,1.538667679,-1.610025644
600,1.55965415404e+18,0.1638827324,1.739949226,-1.34043026
601,1.5596541541e+18,0.980900526,1.592009544,-1.891228199
602,1.55965415416e+18,0.9201819897,0.5906610489,-1.348463535
603,1.55965415422e+18,-0.6611111164,-1.743615627,-2.388978004
604,1.55965415428e+18,-1.460084677,-3.051342964,-2.099626303
605,1.55965415434e+18,-0.3140029907,-3.800778866,-2.747537613
606,1.5596541544e+18,-1.074204683,-2.818292141,-4.53731966
607,1.55965415446e+18,-1.754409313,-2.997368336,-3.401555061
608,1.55965415452e+18,-4.021519661,-3.040025711,-0.7134194374
609,1.55965415458e+18,-5.774520397,-2.996156454,4.006375313
610,1.55965415464e+18,-4.089413643,-2.092165947,4.258725166
611,1.5596541547e+18,-2.343641758,-1.842405677,3.536012173
612,1.55965415476e+18,-1.973254681,-2.438874245,3.86847353
613,1.55965415482e+18,0.6718597412,-0.9617314339,2.457905293
614,1.55965415488e+18,0.297121048,0.2013399601,-0.02770042419
615,1.55965415494e+18,-1.105481148,-0.5475971699,-0.3565835953
616,1.559654155e+18,-0.5816140175,-0.7473154068,-1.033426285
617,1.55965415506e+18,-0.2570428848,-1.117413998,-0.51126194
618,1.55965415512e+18,0.7521595955,0.1954469681,-1.464625359
619,1.55965415518e+18,-0.2749624252,-1.110819817,-0.8731384277
620,1.55965415524e+18,-0.6598954201,-1.355638027,-0.6560621262
621,1.5596541553e+18,-0.1640963554,-1.60645318,-0.438765049
622,1.55965415536e+18,1.464075089,-0.6698205471,-0.8717284203
623,1.55965415542e+18,0.6521730423,-0.4964072704,0.137401104
624,1.55965415548e+18,-0.4994449615,0.3253116608,-0.01048755646
625,1.55965415554e+18,-1.835217953,0.6570732594,0.5944113731
626,1.5596541556e+18,-1.1122756,1.970248938,-0.1380472183
627,1.55965415566e+18,-1.723347664,1.909827471,0.7804102898
628,1.55965415572e+18,-0.8567171097,1.137115717,0.9849677086
629,1.55965415578e+18,-0.5268483162,1.255765438,0.4379925728
630,1.55965415584e+18,-1.178407192,-0.1509079933,-0.5671753883
631,1.5596541559e+18,-0.2339277267,0.02684688568,-1.423142433
632,1.55965415596e+18,1.132815361,0.0206772089,-2.200546265
633,1.55965415602e+18,-0.5597186089,-1.22061193,-2.231980562
634,1.55965415608e+18,0.9539380074,-2.420318842,-2.229066133
635,1.55965415614e+18,1.492028713,-3.077477932,-2.426029921
636,1.5596541562e+18,2.07749176,-3.842610836,-2.665766954
637,1.55965415626e+18,1.102956295,-7.299699783,-1.839524508
638,1.55965415632e+18,10.93244934,-8.970439911,7.844299316
639,1.55965415638e+18,0.664648056,-1.488540173,4.874567509
640,1.55965415644e+18,-3.091173172,6.549879551,5.36999464
641,1.5596541565e+18,-8.803937912,4.319859028,5.962180614
642,1.55965415656e+18,-8.397796631,-0.3384720385,0.899564743
643,1.55965415662e+18,-3.227720737,-3.738612652,-2.428393841
644,1.55965415668e+18,2.965150118,-4.096745491,-6.299021721
645,1.55965415674e+18,0.8467115164,-2.792536974,-9.288256645
646,1.5596541568e+18,-0.7357931137,-1.295089245,-11.03436852
647,1.55965415686e+18,0.6591229439,1.16137743,-6.817653656
648,1.55965415692e+18,7.507367134,8.660336494,-2.064985275
649,1.55965415698e+18,14.18896198,33.68453979,-3.132843733
650,1.55965415704e+18,6.589924812,14.20066071,3.98837328
651,1.5596541571e+18,-1.086745501,-50.98350525,-24.11808777
652,1.55965415716e+18,-7.354109764,-22.76072121,-7.482118607
653,1.55965415722e+18,0.4377106428,-7.22143507,-7.939644814
654,1.55965415728e+18,0.8102948666,1.330278873,-10.49738407
655,1.55965415734e+18,-0.3549938202,3.35705471,-3.555995703
656,1.5596541574e+18,-1.227921009,4.42993927,-4.877715588
657,1.55965415746e+18,-0.0612988472,1.812961102,-2.513876438
658,1.55965415752e+18,-0.2351579666,1.710473537,-3.757165194
659,1.55965415758e+18,0.8393092155,1.903030872,-2.487366915
660,1.55965415764e+18,3.629338264,1.622303009,-4.41810894
661,1.5596541577e+18,-0.6759138107,1.825696945,-0.5831924677
662,1.55965415776e+18,0.8014779091,0.2836251259,0.3756446242
663,1.55965415782e+18,-2.078357697,0.6799869537,-0.4584575891
664,1.55965415788e+18,-0.1858553886,0.20804739,1.409557939
665,1.55965415794e+18,-0.4994153976,0.5363645554,-0.392701447
666,1.559654158e+18,0.2050147057,0.09060430527,0.1854188889
667,1.55965415806e+18,-0.2173676491,-0.3643231392,0.3956611156
668,1.55965415812e+18,0.01776790619,-1.152754307,-1.172225118
669,1.55965415818e+18,-0.4390192032,-1.502615929,0.004224210978
670,1.55965415824e+18,-1.066404819,-1.554202557,-2.387908936
671,1.5596541583e+18,-2.245429039,-2.117393017,-2.636855125
672,1.55965415836e+18,-5.347063065,-0.9936976433,-4.037336826
673,1.55965415842e+18,-4.832435608,-0.9560699463,-4.097385406
674,1.55965415848e+18,-2.834427357,-0.07470703125,-2.823635101
675,1.55965415854e+18,-3.87322998,-2.137159109,1.151935577
676,1.5596541586e+18,-2.744385242,-4.065139771,-0.6526932716
677,1.55965415866e+18,8.9211483,-3.757996559,0.6528530121
678,1.55965415872e+18,4.268129349,-4.454312325,-0.864033699
679,1.55965415878e+18,-1.19989717,-4.866724968,0.1872873306
680,1.55965415884e+18,1.110750198,-2.951312065,-1.935771942
681,1.5596541589e+18,-0.5076109171,-4.904078484,1.065681934
682,1.55965415896e+18,-1.24849081,-3.167973995,-0.7322692871
683,1.55965415902e+18,-1.21478343,-3.568008423,1.15148592
684,1.55965415908e+18,-1.310282946,-2.253472328,0.7023863792
685,1.55965415914e+18,-2.186323166,-1.425880432,0.5787746906
686,1.5596541592e+18,-0.9211661816,-0.8621912003,0.3371152878
687,1.55965415926e+18,-0.5537005663,-0.2297048569,-0.03349351883
688,1.55965415932e+18,0.216196239,0.2120628357,-0.2687220573
689,1.55965415938e+18,0.6771057844,0.1262817383,-0.2204310894
690,1.55965415944e+18,0.6212642789,-0.470413208,-0.6399464607
691,1.5596541595e+18,0.4108989239,-0.5438251495,-0.6216003895
692,1.55965415956e+18,0.9742928147,-0.4438199997,-0.5919954777
693,1.55965415962e+18,1.31272614,-0.2730054855,-0.6154334545
694,1.55965415968e+18,1.00510478,-0.1191730499,-0.8211295605
695,1.55965415974e+18,0.7793645859,-0.05889892578,-1.085811257
696,1.5596541598e+18,0.5172054172,-0.1596136093,-0.9291499853
697,1.55965415986e+18,0.2050457001,-0.1865463257,-0.7099196911
698,1.55965415992e+18,-0.04168999195,-0.1728754044,-0.5228493214
699,1.55965415998e+18,-0.07482558489,-0.0124502182,-0.3169100285
700,1.55965416004e+18,-0.08224070072,0.1094179153,-0.2012393475
701,1.5596541601e+18,-0.2217752337,-0.1437311172,-0.2063701153
702,1.55965416016e+18,-0.2160201669,-0.2390508652,-0.289124012
703,1.55965416022e+18,-0.1073114276,-0.01274013519,-0.363492012
704,1.55965416028e+18,0.09898024797,0.04146671295,-0.4406080246
705,1.55965416034e+18,0.4322173595,-0.1607055664,-0.3080923557
706,1.5596541604e+18,0.7153835297,-0.08525180817,-0.3363907337
707,1.55965416046e+18,0.8426986933,0.0333738327,-0.377304554
708,1.55965416052e+18,0.8992801309,-0.08868217468,-0.4049377441
709,1.55965416058e+18,0.8462883234,0.1857662201,-0.2808682919
710,1.55965416064e+18,0.1773822308,-1.543361664,2.48273778
711,1.5596541607e+18,-2.156410217,-2.505519867,1.95125699
712,1.55965416076e+18,-0.5886071324,-2.673970222,-0.5429723263
713,1.55965416082e+18,1.77517581,-1.922233582,0.9933986664
714,1.55965416088e+18,0.3652344942,0.9610242844,-2.110085964
715,1.55965416094e+18,0.0264980495,2.368123531,-3.56106782
716,1.559654161e+18,1.495549321,2.087744236,-2.723948479
717,1.55965416106e+18,-1.285349965,0.5151033401,-0.636633873
718,1.55965416112e+18,0.15665932,-2.304329872,4.736988068
719,1.55965416118e+18,-0.6725786924,-1.590874195,4.348689079
720,1.55965416124e+18,-0.1090877205,0.4575338364,0.4716882706
721,1.5596541613e+18,1.12430048,2.002387762,-3.48813343
722,1.55965416136e+18,0.766874969,1.733720779,-2.676172733
723,1.55965416142e+18,0.4559575319,1.400421739,-2.93346405
724,1.55965416148e+18,-0.1605532169,1.452073932,-1.780392647
725,1.55965416154e+18,-0.2047343254,0.7505093813,-1.065651894
726,1.5596541616e+18,-0.008867740631,0.5833969116,-0.1461343765
727,1.55965416166e+18,0.3651388884,0.6552448273,0.1671705246
728,1.55965416172e+18,0.1910123825,0.6306242943,-0.8476438522
729,1.55965416178e+18,0.1158357859,1.054178238,-3.290734768
730,1.55965416184e+18,-0.8049215078,-0.8117156029,-1.872251511
731,1.5596541619e+18,-0.2832221389,-0.8981432915,0.4028701782
732,1.55965416196e+18,0.3090258837,-1.037765503,3.413321495
733,1.55965416202e+18,-0.7146146297,-1.250864983,4.644703865
734,1.55965416208e+18,-1.21493578,1.025234699,3.350463867
735,1.55965416214e+18,-0.9487946033,2.959104538,2.840583801
736,1.5596541622e+18,-1.405977964,2.203026533,0.8910627365
737,1.55965416226e+18,-1.646325111,0.3308365345,0.5312166214
738,1.55965416232e+18,-2.259545326,-0.7845845222,-1.04961586
739,1.55965416238e+18,-0.3505887985,-0.0001463890076,-2.023370743
740,1.55965416244e+18,1.793631077,-0.7964023352,-2.467869759
741,1.5596541625e+18,1.459486485,-2.960419416,-3.267498493
742,1.55965416256e+18,0.0215921402,-6.388197899,-2.059169531
743,1.55965416262e+18,0.2680797577,-6.144018173,-4.755191803
744,1.55965416268e+18,0.4436283112,-4.89077425,-0.5074193478
745,1.55965416274e+18,0.4150476456,5.271192074,-0.4016599655
746,1.5596541628e+18,0.5569181442,3.983574152,0.06386232376
747,1.55965416286e+18,-0.8803882599,4.300494194,-1.092871428
748,1.55965416292e+18,3.839713573,2.907337189,-1.659555435
749,1.55965416298e+18,9.211961746,0.6256828904,-0.9427366257
750,1.55965416304e+18,1.114031315,2.731731415,3.775721073
751,1.5596541631e+18,-7.942783356,-4.962767124,7.165678978
752,1.55965416316e+18,-10.36825466,-5.639379025,13.23492622
753,1.55965416322e+18,-10.37187004,-4.987841606,4.12151432
754,1.55965416328e+18,4.619869232,-9.77486515,-3.603224516
755,1.55965416334e+18,-2.220736027,-6.938380718,-6.705324173
756,1.5596541634e+18,4.676011562,-5.598705292,-8.685764313
757,1.55965416346e+18,9.689798355,3.703746796,-6.994049072
758,1.55965416352e+18,18.68500519,36.5919075,-7.411607742
759,1.55965416358e+18,9.827008247,1.808126926,17.39429092
760,1.55965416364e+18,24.43864059,-71.72951508,10.43391895
761,1.5596541637e+18,9.925335884,-17.00369835,-10.5205946
762,1.55965416376e+18,7.902060032,2.809855461,-12.47631454
763,1.55965416382e+18,-2.836993694,-0.1732034683,-5.30629158
764,1.55965416388e+18,-0.6748895645,-0.191113472,-0.3252357841
765,1.55965416394e+18,0.5948319435,1.687231064,-0.2600064576
766,1.559654164e+18,0.1242833138,1.693615913,-2.214788914
767,1.55965416406e+18,3.857468128,2.309271336,-2.61247015
768,1.55965416412e+18,6.747432232,1.846727848,-6.221238613
769,1.55965416418e+18,2.634381294,0.9981942177,-1.969288945
770,1.55965416424e+18,0.9199604988,-0.6064109802,-0.9289706945
771,1.5596541643e+18,-3.705340624,-0.3264036179,0.9962140322
772,1.55965416436e+18,-0.3329510689,-0.8247056007,1.874320745
773,1.55965416442e+18,-0.5407452583,-0.01163434982,1.120936394
774,1.55965416448e+18,1.095609188,-0.317797184,0.8772602081
775,1.55965416454e+18,1.282920837,-0.2875490189,0.2542526722
776,1.5596541646e+18,0.8253016472,-0.5979199409,0.295630455
777,1.55965416466e+18,0.4128241539,-1.476450443,-0.3652338982
778,1.55965416472e+18,-0.5152621269,-1.130359173,-0.03087425232
779,1.55965416478e+18,-1.12865448,-1.390575409,-1.396806717
780,1.55965416484e+18,-1.307189465,-2.155284882,-1.977518082
781,1.5596541649e+18,-2.756236076,-1.634656906,-3.083695412
782,1.55965416496e+18,-3.577689886,-0.7528057098,-1.725000858
783,1.55965416502e+18,-1.22339201,-0.6291475296,-2.498756886
784,1.55965416508e+18,-0.6373839378,-2.556837082,-0.4928631783
785,1.55965416514e+18,1.919220686,-2.227617264,-4.904521942
786,1.55965416519e+18,-0.2285265923,-5.573087692,-1.816575527
787,1.55965416525e+18,0.6354682446,-5.516104698,-2.501758099
788,1.55965416531e+18,-1.377701283,-8.208047867,0.2693972588
789,1.55965416537e+18,-1.452515841,-7.989918709,-0.1081185341
790,1.55965416543e+18,-1.358151674,-6.918073654,2.405290127
791,1.55965416549e+18,-1.125049353,-4.854747772,4.982275009
792,1.55965416555e+18,-2.607549191,-1.597658157,4.368858337
793,1.55965416561e+18,-3.703757048,-0.3372602463,3.168845177
794,1.55965416567e+18,-4.530357361,-0.9769802094,1.417634964
795,1.55965416573e+18,-2.813301563,-1.375349522,0.9809231758
796,1.55965416579e+18,-0.8705797195,-0.9549164772,-0.4507236481
797,1.55965416585e+18,0.5550274849,-2.182704449,-1.213897705
798,1.55965416591e+18,2.296919346,-1.650186062,-2.182736874
799,1.55965416597e+18,2.796471119,-1.683152914,-1.832157612
800,1.55965416603e+18,1.734900951,-0.5299108028,-2.785136461
801,1.55965416609e+18,2.185150146,-0.5421931744,-1.004572868
802,1.55965416615e+18,1.140420914,0.08682084084,-1.319081783
803,1.55965416621e+18,1.18758297,0.3740477562,-0.8756885529
804,1.55965416627e+18,-0.4232792854,0.08537149429,-0.782145977
805,1.55965416633e+18,0.4180469513,-0.2558071613,-0.1714806557
806,1.55965416639e+18,0.5661621094,-0.8615067005,-1.092956543
807,1.55965416645e+18,-0.9512071609,-2.145800829,-1.568587065
808,1.5596541665e+18,-0.5354528427,-2.718211651,-2.032060146
809,1.55965416656e+18,-5.704978943,-5.089470863,-4.554801941
810,1.55965416662e+18,-5.82656765,0.7400529385,2.055517673
811,1.55965416668e+18,-7.921521187,3.688120365,5.914561749
812,1.55965416674e+18,-2.966778755,2.748252392,7.429450989
813,1.5596541668e+18,-0.8134264946,-1.318189025,0.5970273018
814,1.55965416686e+18,4.946713448,-3.553454876,-4.145088196
815,1.55965416692e+18,1.111916542,-4.992301464,-6.781490803
816,1.55965416698e+18,3.716641665,-3.000645161,-6.496580124
817,1.55965416704e+18,7.035608292,2.140638828,-6.122767925
818,1.5596541671e+18,17.00292206,22.54310989,-2.434526205
819,1.55965416716e+18,18.16153336,20.39281464,-1.178798199
820,1.55965416722e+18,-5.634242058,-7.142317772,-8.271225929
821,1.55965416728e+18,-28.43455505,-25.99123573,-9.647385597
822,1.55965416734e+18,11.39120293,-6.570587158,-8.156012535
823,1.5596541674e+18,5.295546532,7.070689678,-9.221578598
824,1.55965416746e+18,-0.5585281849,1.637662888,-7.239042282
825,1.55965416752e+18,3.013607979,3.35302639,-2.748321533
826,1.55965416758e+18,-0.8138012886,-1.353518486,-1.949762702
827,1.55965416764e+18,2.369035006,-2.894011497,1.067869663
828,1.5596541677e+18,1.410513282,-2.357252121,0.1141161919
829,1.55965416776e+18,1.662660122,-1.416347027,1.217988491
830,1.55965416782e+18,1.285992622,-1.891015053,-0.01385688782
831,1.55965416788e+18,0.3568094075,-4.500958443,1.060446739
832,1.55965416794e+18,-0.3245812356,-3.412709713,-0.974114418
833,1.559654168e+18,-0.6108722687,-4.33646822,-1.534974575
834,1.55965416806e+18,-1.742392778,-2.475875139,-2.15539217
835,1.55965416812e+18,-1.945721149,0.0207233429,-1.761926174
836,1.55965416818e+18,-1.635156393,1.811085701,-0.2789115906
837,1.55965416824e+18,-2.113835335,3.735181332,-0.5011901855
838,1.5596541683e+18,-2.619275093,2.498024225,0.4850387573
839,1.55965416836e+18,-4.028101444,2.004200935,1.561885834
840,1.55965416842e+18,-3.225609779,1.13480258,2.011651993
841,1.55965416848e+18,-0.7246985435,0.808707118,1.72125864
842,1.55965416854e+18,-0.8764753342,-0.3000980616,2.688878059
843,1.5596541686e+18,-1.058134079,-0.2108966708,1.316017628
844,1.55965416866e+18,0.006299972534,-0.355861485,-0.1464147568
845,1.55965416872e+18,0.5159397125,-0.1099265814,-0.9271681309
846,1.55965416878e+18,2.335718155,1.160789847,-1.144476175
847,1.55965416884e+18,-0.8696813583,0.5638180375,0.5862579346
848,1.5596541689e+18,-1.982974052,0.4737689495,-0.3322958946
849,1.55965416896e+18,-0.386490345,-0.2092036009,1.425619602
850,1.55965416902e+18,-2.221904278,-1.876974702,0.4147133827
851,1.55965416908e+18,-0.4871912003,-1.065670133,1.081727505
852,1.55965416914e+18,-0.7484884262,-1.685579419,0.1091690063
853,1.5596541692e+18,0.3024520874,-0.8000899553,-0.1005702019
854,1.55965416926e+18,1.468265533,-0.6576943398,-0.6688098907
855,1.55965416932e+18,0.2651362419,-1.115266204,-0.6995296478
856,1.55965416938e+18,0.375415802,-1.011353374,-1.120177269
857,1.55965416944e+18,0.9950408936,-0.8431400061,-0.4282383919
858,1.5596541695e+18,-0.2356534004,-0.3462443352,-1.005913258
859,1.55965416956e+18,1.462356567,-0.3389546275,-0.3954305649
860,1.55965416962e+18,0.6648688316,-0.2520949841,-0.7334580421
861,1.55965416968e+18,0.6835737228,-0.05439305305,-0.9157261848
862,1.55965416974e+18,0.2994675636,0.1382029057,-1.131844044
863,1.5596541698e+18,-0.371655941,-0.187513113,0.09163427353
864,1.55965416986e+18,-0.8710365295,-1.284606099,-0.7367091179
865,1.55965416992e+18,0.8090295792,-1.70075655,-0.7581963539
866,1.55965416998e+18,0.2709245682,-2.186290026,-3.715018988
867,1.55965417004e+18,-1.633031845,-6.4689641,-5.145969391
868,1.5596541701e+18,-2.687438965,7.035575867,0.4543731213
869,1.55965417016e+18,-1.696022034,5.534100056,5.924087524
870,1.55965417022e+18,-5.246887207,5.623827457,4.411394596
871,1.55965417028e+18,-6.368053436,-0.1257956028,-1.433895826
872,1.55965417034e+18,-0.8368577957,-4.055091858,-0.9683413506
873,1.5596541704e+18,1.487636566,-4.72177887,-1.742688179
874,1.55965417046e+18,4.844652176,-3.797956944,-3.543521643
875,1.55965417052e+18,4.208089352,-3.394162178,-5.4693923
876,1.55965417058e+18,3.962079525,-1.537274361,-5.841664791
877,1.55965417064e+18,4.368455887,0.850104332,-1.44197607
878,1.5596541707e+18,2.415430546,1.382222652,0.09767866135
879,1.55965417076e+18,5.43386364,2.511110783,-1.083818436
880,1.55965417082e+18,7.104003906,7.632033348,-0.9076757431
881,1.55965417088e+18,18.36447525,30.2364006,-5.964619637
882,1.55965417094e+18,10.23713303,7.30288744,7.247943878
883,1.559654171e+18,60.54851151,-80.46264648,-28.90821838
884,1.55965417106e+18,-9.262851715,-17.59236908,-13.09655762
885,1.55965417112e+18,6.619402409,-4.80862999,-6.828704834
886,1.55965417118e+18,-0.3436208963,-3.068647861,-5.130026817
887,1.55965417124e+18,3.54403019,1.796384811,-8.622075081
888,1.5596541713e+18,0.08850955963,4.716410637,-5.400679111
889,1.55965417136e+18,3.747340679,3.901337624,-6.835316658
890,1.55965417142e+18,0.4055113792,1.009750366,-4.05818367
891,1.55965417148e+18,1.166411877,-0.3436288834,-3.497414589
892,1.55965417154e+18,-1.612957478,-0.4328012466,-2.069967031
893,1.5596541716e+18,-0.7683944702,0.0990858078,-0.9709277153
894,1.55965417166e+18,-0.4753489494,-0.1180257797,0.128575027
895,1.55965417172e+18,0.4095900059,-0.6576929092,1.433215261
896,1.55965417178e+18,0.1168580055,-0.7501859665,0.7997034788
897,1.55965417184e+18,0.1609773636,-1.017995358,1.436516047
898,1.5596541719e+18,-0.3272306919,-0.4103240967,0.974905014
899,1.55965417196e+18,-0.4674959183,-1.585440636,0.2948720455
900,1.55965417202e+18,-1.349253058,-1.317685127,-0.08336520195
901,1.55965417208e+18,-0.5735886097,-1.214631081,-0.2394549847
902,1.55965417214e+18,-0.1911048889,-0.586534977,-0.3963360786
903,1.5596541722e+18,-0.9023400545,0.08347988129,0.4732961655
904,1.55965417226e+18,-1.284567595,-0.4902448654,-0.0687828064
905,1.55965417232e+18,-0.9265992641,-2.56900692,-0.8983726501
906,1.55965417238e+18,-1.557887077,-2.877601624,-2.379732847
907,1.55965417244e+18,-0.862975657,-2.7421875,-4.077199936
908,1.5596541725e+18,-0.5044384003,-1.992832184,-4.123541355
909,1.55965417256e+18,-0.03470110893,-1.980437517,-5.667270184
910,1.55965417262e+18,-1.620916843,-4.148657799,-2.018379211
911,1.55965417268e+18,-1.386107445,-4.890249729,2.61676693
912,1.55965417274e+18,-0.7770032883,-6.476880074,3.516843796
913,1.5596541728e+18,1.807323933,-4.692030907,5.370227814
914,1.55965417286e+18,1.435384035,-2.324870586,2.409450531
915,1.55965417292e+18,-0.09054970741,-2.612818718,1.313375473
916,1.55965417298e+18,-1.903824687,-3.196173668,0.7961473465
917,1.55965417304e+18,-2.945556641,-2.180011749,-0.3057367802
918,1.5596541731e+18,-1.982110739,-0.9980106354,-0.5055556297
919,1.55965417316e+18,-1.044438958,-0.9150466919,-0.1847691536
920,1.55965417322e+18,-0.1558769047,-0.7535715103,-0.6288685799
921,1.55965417328e+18,0.4837211668,-0.3022375107,-1.539827228
922,1.55965417334e+18,0.6034135818,-0.6346101761,-1.639733911
923,1.5596541734e+18,0.6392766237,-0.5903348923,-1.458307028
924,1.55965417346e+18,1.365772009,-0.8546886444,-1.296391726
925,1.55965417352e+18,1.817205787,-0.7947511673,-1.383568645
926,1.55965417358e+18,1.950832367,-0.2464599609,-1.070525765
927,1.55965417364e+18,1.632518411,0.248711586,-1.076783419
928,1.5596541737e+18,1.430647373,0.3460550308,-0.70865345
929,1.55965417376e+18,1.009784818,0.1039390564,-0.3592851162
930,1.55965417382e+18,0.2177200913,-0.1812543869,-0.5033787489
931,1.55965417388e+18,-0.5853661299,-0.4756946564,0.06933927536
932,1.55965417394e+18,-0.9950144291,-0.2673072815,-0.008680939674
933,1.559654174e+18,-1.391703725,-0.3176460266,0.3041568995
934,1.55965417406e+18,-1.497929811,-0.1776285172,0.1531771421
935,1.55965417412e+18,-1.348740458,-0.02644729614,0.2328951359
936,1.55965417418e+18,-1.202605605,0.08821868896,0.1332204342
937,1.55965417424e+18,-0.9229924083,0.09087371826,-0.08466124535
938,1.5596541743e+18,-0.4622353911,-0.189825058,0.01230621338
939,1.55965417436e+18,-0.05218446255,-0.2088451385,-0.08282375336
940,1.55965417442e+18,0.3439048529,-0.1070280075,-0.142424345
941,1.55965417448e+18,0.7588632703,-0.1257791519,-0.222422123
942,1.55965417454e+18,0.9477905631,-0.03859233856,-0.3332333565
943,1.5596541746e+18,1.012386918,-0.03374290466,-0.4046900272
944,1.55965417466e+18,0.9162441492,-0.005508422852,-0.5009013414
945,1.55965417472e+18,0.7520781159,0.1127910614,-0.3886594772
946,1.55965417478e+18,0.2859122157,0.176984787,-0.3145405054
947,1.55965417484e+18,-0.06296420097,0.03667449951,-0.1786020994
948,1.5596541749e+18,-0.3236269951,-0.09689331055,0.1308875084
949,1.55965417496e+18,-0.6643217802,-0.2359743118,0.1930053234
950,1.55965417502e+18,-0.907181859,-0.2862548828,0.3091983795
951,1.55965417508e+18,-0.9058971405,-0.128288269,0.4367158413
952,1.55965417514e+18,-0.6728617549,0.07190322876,0.5074316263
953,1.5596541752e+18,-0.4354340732,0.1154994965,0.366571188
954,1.55965417526e+18,-0.2069892287,0.0375995636,0.2583496571
955,1.55965417532e+18,0.007697343826,-0.1639242172,0.5029377937
956,1.55965417538e+18,0.1157491207,-0.3554468155,0.9330329895
957,1.55965417544e+18,-0.3031270504,-0.1576547623,0.5168914795
958,1.5596541755e+18,-1.078545451,-0.1181049347,0.5093514919
959,1.55965417556e+18,-0.2354443073,-0.1213750839,0.5841457844
960,1.55965417562e+18,0.02906131744,-0.5040931702,0.7462673187
961,1.55965417568e+18,-0.05542111397,-0.4242801666,0.5669701099
962,1.55965417574e+18,-0.1499361992,-0.5808792114,0.4438180923
963,1.5596541758e+18,-0.4564299583,-0.7151632309,0.2556071281
964,1.55965417586e+18,0.1455383301,0.1441297531,0.3004026413
965,1.55965417592e+18,0.269598484,0.7722797394,0.9415593147
966,1.55965417598e+18,-0.1211495399,1.322924614,0.3150219917
967,1.55965417604e+18,-0.02035522461,1.048110962,0.4839072227
968,1.5596541761e+18,0.5205631256,0.5528607368,-0.3695569038
969,1.55965417616e+18,0.6349225044,-0.3819842339,0.3006873131
970,1.55965417622e+18,0.2033629417,-1.266556978,-1.029599667
971,1.55965417628e+18,0.8263320923,-1.344552279,-0.1342353821
972,1.55965417634e+18,0.3172917366,-0.9530899525,-0.5298171043
973,1.5596541764e+18,0.285982132,-1.318527699,-1.007767677
974,1.55965417646e+18,1.715065002,-1.578907251,-2.809619188
975,1.55965417652e+18,0.520008564,-3.703447819,-3.044425011
976,1.55965417658e+18,-7.850496292,-3.771256685,-20.72559357
977,1.55965417664e+18,-1.967336655,2.789993763,2.697024345
978,1.5596541767e+18,-6.534729004,8.680789948,5.921171665
979,1.55965417676e+18,-7.259340286,4.656145573,2.270158291
980,1.55965417682e+18,-1.280571938,-2.210773468,2.166463852
981,1.55965417688e+18,-1.626729012,-4.240834236,-0.9755363464
982,1.55965417694e+18,5.07907486,-2.950416088,-5.798942089
983,1.559654177e+18,5.747902393,0.3921337128,-8.548636436
984,1.55965417706e+18,2.152397394,0.08342695236,-8.393200874
985,1.55965417712e+18,2.761068344,1.645361423,-3.520584106
986,1.55965417718e+18,3.26795435,2.683672428,-0.7528505325
987,1.55965417724e+18,2.26951313,1.565279007,-0.06584310532
988,1.5596541773e+18,1.70876193,-0.3766651154,0.7795724869
989,1.55965417736e+18,0.8573672771,-1.058667183,0.473757267
990,1.55965417742e+18,0.7087507248,-1.369073868,-1.384962559
991,1.55965417748e+18,2.642393827,-0.04448843002,-1.780562401
992,1.55965417754e+18,4.285900116,3.390201569,-1.142775536
993,1.5596541776e+18,13.67313957,20.68994713,-3.721811771
994,1.55965417766e+18,13.84549809,18.1787262,-0.829126358
995,1.55965417772e+18,-18.0741272,-9.680193901,-17.5486927
996,1.55965417778e+18,-45.01480103,-32.08569717,-3.339855433
997,1.55965417784e+18,13.42810917,-9.747260094,-6.124936104
998,1.5596541779e+18,7.23664856,16.3000145,-11.1960125
999,1.55965417796e+18,-2.072366238,3.869419098,-4.771271706
1000,1.55965417802e+18,-6.041036606,-3.354067326,-2.423556328
1001,1.55965417808e+18,-0.865670681,-2.582835197,1.476433516
1002,1.55965417814e+18,-1.201685071,-3.09470892,-0.1863338947
1003,1.5596541782e+18,1.474437475,-1.874683857,0.146283865
1004,1.55965417826e+18,1.051388621,-0.6068544388,0.5437002182
1005,1.55965417832e+18,0.5370692015,0.8070983887,0.08079338074
1006,1.55965417838e+18,0.04049706459,0.4151391983,0.2614908218
1007,1.55965417844e+18,-0.6561574936,0.8784837723,-0.9405894279
1008,1.5596541785e+18,-0.782022357,0.7906837463,-1.139508367
1009,1.55965417856e+18,-0.4320819378,0.7968225479,-1.072693348
1010,1.55965417862e+18,-0.4452226162,0.4060525894,-1.094956994
1011,1.55965417868e+18,-0.5645389557,0.8375463486,-1.021138668
1012,1.55965417874e+18,-0.3626282215,0.2969121933,-1.516620517
1013,1.5596541788e+18,0.5142900944,-0.1183109283,-0.7211880088
1014,1.55965417886e+18,0.3192651272,-1.39089489,-0.7602891922
1015,1.55965417892e+18,-0.6152634621,-3.614927769,-1.508114815
1016,1.55965417898e+18,-1.351296186,-5.50054884,-2.297599554
1017,1.55965417904e+18,-1.491713881,-4.715239525,-3.476565361
1018,1.5596541791e+18,-2.32137084,-2.788200855,-4.296096325
1019,1.55965417916e+18,-1.832187891,-3.361965179,-5.475812912
1020,1.55965417922e+18,-2.327687025,-5.608369827,-1.964681625
1021,1.55965417928e+18,-3.775668621,-4.669062614,0.9421567917
1022,1.55965417934e+18,-1.790175438,-6.801764488,4.191504002
1023,1.5596541794e+18,-2.240396023,-7.587746143,6.472477436
1024,1.55965417946e+18,-0.8042757511,-4.742754459,3.947010994
1025,1.55965417952e+18,0.9120787382,-3.052918434,2.956693649
1026,1.55965417958e+18,0.08559954166,-1.882973671,1.394026756
1027,1.55965417964e+18,-0.9478992224,-1.592528343,0.4091153145
1028,1.5596541797e+18,-2.074073553,-1.164634705,-0.1868247986
1029,1.55965417976e+18,-1.878716826,-0.7143278122,-1.001074314
1030,1.55965417982e+18,-0.5325270295,-0.8333492279,-0.2741456032
1031,1.55965417988e+18,-0.2194322348,-0.7561693192,-0.645087719
1032,1.55965417994e+18,-0.3329375982,-0.6106729507,-1.092604518
1033,1.55965418e+18,0.3289840221,-0.05570602417,-1.531450868
1034,1.55965418006e+18,0.9104825854,-0.4860754013,-1.198751807
1035,1.55965418012e+18,1.501452088,-0.2926111221,-1.404572248
1036,1.55965418018e+18,1.86414361,-0.1425571442,-0.6199738979
1037,1.55965418024e+18,1.389820933,0.1700277328,0.2211306095
1038,1.5596541803e+18,-0.3611502647,0.06814289093,0.2228155136
1039,1.55965418036e+18,-1.078307152,-0.4381361008,-0.01849865913
1040,1.55965418042e+18,-0.7177155018,-0.3191213608,0.9703502655
1041,1.55965418048e+18,-0.1867396832,0.02692604065,0.8995368481
1042,1.55965418054e+18,-1.927427292,-0.23969841,1.408509731
1043,1.5596541806e+18,-0.9146952629,-0.1551933289,1.837656736
1044,1.55965418066e+18,-1.429060221,-0.3698496819,1.540857315
1045,1.55965418072e+18,-1.228992939,-0.6907138824,1.355629444
1046,1.55965418078e+18,-0.6572999954,-0.808344841,0.38585186
1047,1.55965418084e+18,-0.09296321869,-0.6373949051,-0.2061929703
1048,1.5596541809e+18,0.7612257004,0.05059146881,-0.7926793098
1049,1.55965418096e+18,1.439107418,0.7267584801,-1.598442078
1050,1.55965418102e+18,1.485666752,0.1466948986,-1.714952946
1051,1.55965418108e+18,1.13188839,-0.106328249,-1.775911808
1052,1.55965418114e+18,0.6385879517,-0.3190610409,-1.279974461
1053,1.5596541812e+18,0.1098008156,-0.3113286495,-0.9514980316
1054,1.55965418126e+18,0.1727833748,0.399261713,-0.8991627693
1055,1.55965418132e+18,0.2126412392,1.129041553,-0.789495945
1056,1.55965418138e+18,-0.1884465218,0.917634964,-0.009622097015
1057,1.55965418144e+18,0.0763258934,0.8854504824,0.03310108185
1058,1.5596541815e+18,-0.1581926346,-0.1625058651,0.3042449951
1059,1.55965418156e+18,1.381322861,-0.4993908405,1.080105782
1060,1.55965418162e+18,0.8298211098,-0.6590235233,0.09600925446
1061,1.55965418168e+18,1.166780949,-3.217639446,0.05394220352
1062,1.55965418174e+18,-1.807741165,-4.478932858,-2.592964888
1063,1.5596541818e+18,14.51214218,-5.926765442,13.11967278
1064,1.55965418186e+18,-12.35361385,8.48277092,4.214844704
1065,1.55965418192e+18,-5.54227066,6.866795063,3.46425581
1066,1.55965418198e+18,-5.188358307,-1.027227402,1.222053051
1067,1.55965418204e+18,-1.688924789,-3.131778002,-3.316184044
1068,1.5596541821e+18,6.448958397,-4.531395912,-4.04319334
1069,1.55965418216e+18,3.013097286,-2.766127825,-6.700613976
1070,1.55965418222e+18,4.153300762,-0.5291118622,-7.728727818
1071,1.55965418228e+18,3.376133442,2.813863277,-4.576791763
1072,1.55965418234e+18,4.989366531,6.104185104,-1.741914272
1073,1.5596541824e+18,10.03705788,20.27397537,-1.480238914
1074,1.55965418246e+18,16.01467323,26.62060165,-5.087240696
1075,1.55965418252e+18,-3.419895887,-9.772138596,20.56075287
1076,1.55965418258e+18,-19.20221138,-21.10539246,-2.510389805
1077,1.55965418264e+18,18.04927063,-1.832015991,-12.26610661
1078,1.5596541827e+18,-1.468297243,7.134034157,-11.36828518
1079,1.55965418276e+18,-0.1047526598,-1.09367609,-4.809058189
1080,1.55965418282e+18,-0.7139530182,-2.955585003,-1.332237005
1081,1.55965418288e+18,1.82848227,-2.91986227,1.729021549
1082,1.55965418294e+18,4.600823402,-2.311950207,2.401762009
1083,1.559654183e+18,3.702253342,-0.09653282166,0.7856044769
1084,1.55965418306e+18,1.538429499,0.2556190491,0.9226117134
1085,1.55965418312e+18,-2.074295044,-0.5535731316,-0.4639015198
1086,1.55965418318e+18,-2.918536186,-0.2351202965,-0.2041845322
1087,1.55965418324e+18,-1.558849931,0.3269176483,-0.09162950516
1088,1.5596541833e+18,-1.387099385,-0.05016279221,-0.583594799
1089,1.55965418336e+18,-0.7140212059,0.6009740829,-0.1614584923
1090,1.55965418342e+18,-0.7879389524,-1.156997204,-1.137857437
1091,1.55965418348e+18,-0.07926881313,-3.497524261,-1.459172487
1092,1.55965418354e+18,0.1944183111,-6.638239384,-2.857329845
1093,1.5596541836e+18,-1.274245739,-6.715544224,-4.019166946
1094,1.55965418366e+18,-1.32360971,-4.40101862,-4.040384769
1095,1.55965418372e+18,-0.8030370474,-1.903302431,-4.455343246
1096,1.55965418378e+18,0.02302366495,2.899417877,-3.054728508
1097,1.55965418384e+18,-0.633556366,3.038571119,0.02401828766
1098,1.5596541839e+18,-4.388073444,-2.797767162,1.408427238
1099,1.55965418396e+18,-2.277440548,-5.03490448,5.982639313
1100,1.55965418402e+18,-0.9165844917,-4.1110425,2.869434357
1101,1.55965418408e+18,2.473531246,-3.910908222,2.826154232
1102,1.55965418414e+18,2.405322552,-2.494642735,1.249679565
1103,1.5596541842e+18,-0.1289765835,-2.456403732,0.3563570976
1104,1.55965418426e+18,-0.2185418606,-1.637021065,-1.195091248
1105,1.55965418432e+18,-0.8055843115,-1.887555122,-0.7269804478
1106,1.55965418438e+18,-0.7062598467,-1.484982491,-0.8255498409
1107,1.55965418444e+18,-0.5198993087,-1.155514717,-0.5712029934
1108,1.5596541845e+18,-1.013478279,-1.163250923,-0.2397296429
1109,1.55965418456e+18,-0.5775340796,-0.7397603989,-0.1515359879
1110,1.55965418462e+18,-0.2801539302,-0.3640642166,-0.5726277828
1111,1.55965418468e+18,0.2172902226,-0.4525251389,-0.7678515911
1112,1.55965418474e+18,0.6891410351,-0.4654655457,-0.8138215542
1113,1.5596541848e+18,1.024000645,-0.3127584457,-1.119450569
1114,1.55965418486e+18,1.101487517,-0.2293024063,-1.221033812
1115,1.55965418492e+18,1.21472168,-0.1941347122,-1.257623553
1116,1.55965418498e+18,1.330032468,-0.03211688995,-1.011974573
1117,1.55965418504e+18,1.045482874,0.1184902191,-1.114983439
1118,1.5596541851e+18,0.7162926793,-0.04479408264,-0.6589334011
1119,1.55965418516e+18,0.4122636318,-0.08926582336,-0.6992371082
1120,1.55965418522e+18,-0.1326833963,-0.1896076202,-0.4304430485
1121,1.55965418528e+18,-0.389436543,-0.2865991592,-0.2933413982
1122,1.55965418534e+18,-0.5492898822,0.04034519196,-0.1390805244
1123,1.5596541854e+18,-0.5850168467,-0.2149553299,0.001330375671
1124,1.55965418546e+18,-0.6638586521,-0.3009204865,-0.05073082447
1125,1.55965418552e+18,-0.4891065955,-0.1589384079,-0.1642289162
1126,1.55965418558e+18,-0.2223043442,-0.05061435699,-0.1509004831
1127,1.55965418564e+18,0.1552396417,-0.1104393005,-0.1566358805
1128,1.5596541857e+18,0.3814917207,-0.1711511612,-0.2568479776
1129,1.55965418576e+18,0.5215175152,-0.1313056946,-0.4331034422
1130,1.55965418582e+18,0.5422816277,-0.1296606064,-0.400472641
1131,1.55965418588e+18,0.5769404173,-0.1258907318,-0.3819032907
1132,1.55965418594e+18,0.4118262231,0.09991359711,-0.1480606794
1133,1.559654186e+18,0.315903306,0.1457386017,-0.1099786758
1134,1.55965418606e+18,-0.005778968334,-0.097448349,-0.009431600571
1135,1.55965418612e+18,1.293191552,-0.158493042,1.735046864
1136,1.55965418618e+18,-1.371539354,-1.69217968,2.758012295
1137,1.55965418624e+18,-1.593532443,-0.9905309677,2.588518143
1138,1.5596541863e+18,-0.8493747711,-0.8994073868,2.365816116
1139,1.55965418636e+18,0.3147175312,-1.110291958,1.183713913
1140,1.55965418642e+18,0.4521610737,-0.60526371,-0.3113265038
1141,1.55965418648e+18,1.111981869,-0.2882094383,-0.6824059486
1142,1.55965418654e+18,0.9668068886,0.4657592773,-1.089391232
1143,1.5596541866e+18,1.027959824,0.964384079,-0.9008994102
1144,1.55965418666e+18,-0.3422503471,0.3887910843,-1.581544399
1145,1.55965418672e+18,0.2743678093,0.355004549,-0.9782834053
1146,1.55965418678e+18,-0.5062952042,0.4697811604,-1.437261105
1147,1.55965418684e+18,-0.6370410919,-0.5024552345,-2.179283381
1148,1.5596541869e+18,-0.9118118286,-1.51124382,-3.56552577
1149,1.55965418696e+18,-0.569442749,-1.252577305,-3.788487434
1150,1.55965418702e+18,-1.561544418,-4.306466103,-7.168750763
1151,1.55965418708e+18,-0.9151668549,0.301330924,1.41712451
1152,1.55965418714e+18,2.286733627,1.866720915,-0.1922740936
1153,1.5596541872e+18,0.4093866348,3.821138859,-2.787615538
1154,1.55965418726e+18,-1.108833313,4.342312813,-0.02934622765
1155,1.55965418732e+18,2.905662537,2.887247324,5.814425468
1156,1.55965418738e+18,-14.94701195,-3.31237936,7.339683533
1157,1.55965418744e+18,-6.797913551,-5.035729408,9.934715271
1158,1.5596541875e+18,-2.16989994,-7.430880547,2.801251888
1159,1.55965418756e+18,1.717448711,-6.284623623,-2.820455551
1160,1.55965418762e+18,5.207388878,-5.297687054,-8.883049011
1161,1.55965418768e+18,6.686392784,-8.473882675,-3.477096081
1162,1.55965418774e+18,1.968524218,-6.991817474,-4.04912138
1163,1.5596541878e+18,1.075466752,-5.56576395,-4.301735878
1164,1.55965418786e+18,0.650595963,-1.084098816,-0.7859187126
1165,1.55965418792e+18,10.18968391,1.101834774,0.8830256462
1166,1.55965418798e+18,6.779761314,6.26291275,3.255427361
1167,1.55965418804e+18,12.56538391,14.235219,1.096361637
1168,1.5596541881e+18,20.45178986,28.38837433,-4.553200722
1169,1.55965418816e+18,10.88433075,2.041190624,16.29391289
1170,1.55965418822e+18,-9.37297821,-74.34594727,16.1426239
1171,1.55965418828e+18,-3.423519373,-18.27061844,-2.699045658
1172,1.55965418834e+18,12.42105484,2.829129696,-8.9705019
1173,1.5596541884e+18,-0.9876196384,-1.743333817,-5.470221519
1174,1.55965418846e+18,1.180357456,-3.32930851,-2.470674992
1175,1.55965418852e+18,2.253471136,-1.137454987,1.487730503
1176,1.55965418858e+18,1.987806559,1.036128044,-1.675784588
1177,1.55965418864e+18,2.405841827,0.7994003296,-1.375583887
1178,1.5596541887e+18,2.45166254,1.047664642,-2.899111271
1179,1.55965418876e+18,1.409706831,1.411237717,-2.664928675
1180,1.55965418882e+18,1.552239418,1.607211113,-2.005987644
1181,1.55965418888e+18,1.194394112,0.3335733414,-0.7259562612
1182,1.55965418894e+18,0.6679394245,-0.5271453857,-0.6172907352
1183,1.559654189e+18,0.7462787628,-0.5911598206,0.3757946491
1184,1.55965418906e+18,0.4975116253,-0.3916397095,0.2959855199
1185,1.55965418912e+18,0.688434124,-0.8200740814,0.2208839655
1186,1.55965418918e+18,0.3283092976,-1.779859543,0.1202635765
1187,1.55965418924e+18,0.2339775562,-2.662500858,-0.5033569336
1188,1.5596541893e+18,-0.1899034977,-2.564936161,-0.7201015949
1189,1.55965418936e+18,-0.7483353615,-3.046124935,-0.4409182072
1190,1.55965418942e+18,-0.9665038586,-1.889000893,-1.086793423
1191,1.55965418948e+18,-1.7097857,-2.525619984,-2.254252911
1192,1.55965418954e+18,-1.200090051,-1.529185295,-0.7175831795
1193,1.5596541896e+18,-2.106816053,-0.08290624619,-1.135756016
1194,1.55965418966e+18,-0.8009613752,0.2387938499,-0.4900474548
1195,1.55965418972e+18,-2.278213024,-0.7590985298,1.707379818
1196,1.55965418978e+18,-1.647015095,-0.3922009468,1.197532177
1197,1.55965418984e+18,-1.082520962,-1.19871521,0.2649970055
1198,1.5596541899e+18,1.084917068,-1.038362741,0.8726806641
1199,1.55965418996e+18,1.933807731,-0.6830269694,1.646367073
1200,1.55965419002e+18,0.1141505241,-2.274774551,4.86507988
1201,1.55965419008e+18,-1.693657398,-2.24874568,3.46473217
1202,1.55965419014e+18,-1.996692896,-2.485805273,3.462919235
1203,1.5596541902e+18,0.09718871117,-1.088273764,1.136135101
1204,1.55965419026e+18,-0.27323246,-1.828264236,0.3423118591
1205,1.55965419032e+18,0.6170539856,-0.8037137985,-0.5148878098
1206,1.55965419038e+18,1.285206556,-0.8512806892,-0.7148575783
1207,1.55965419044e+18,0.5456628799,-0.4314141273,-1.626271248
1208,1.5596541905e+18,1.30260849,0.3855407834,-1.192203522
1209,1.55965419056e+18,0.2608013153,-0.1328982115,-1.387692451
1210,1.55965419062e+18,0.4151530266,0.1436804533,-1.926546097
1211,1.55965419068e+18,0.6330661774,0.08187389374,-0.9176692963
1212,1.55965419074e+18,-1.049724102,-1.49925673,-0.9720683098
1213,1.5596541908e+18,-1.163926601,-2.946810722,-1.096059322
1214,1.55965419086e+18,-0.620388031,-2.624895573,-1.914821625
1215,1.55965419092e+18,-2.691005707,-5.446487904,-3.087855577
1216,1.55965419098e+18,-4.081103325,-2.788086414,-3.497408152
1217,1.55965419104e+18,-4.354560852,-0.3434152603,7.652122021
1218,1.5596541911e+18,-4.094997406,4.681415081,3.533376694
1219,1.55965419116e+18,-3.802311897,1.296513677,2.878745079
1220,1.55965419122e+18,-4.212084293,-1.476458788,-3.202654123
1221,1.55965419128e+18,3.876874447,-4.571854591,-1.847559929
1222,1.55965419134e+18,3.137672186,-4.127885342,-6.843320847
1223,1.5596541914e+18,3.51862669,-4.042944431,-6.753735542
1224,1.55965419146e+18,1.599474669,-2.711472034,-6.323218346
1225,1.55965419152e+18,5.283787727,2.137272358,-3.054297686
1226,1.55965419158e+18,5.415992737,6.467954159,0.7936425209
1227,1.55965419164e+18,14.38925362,21.92770004,-0.5990037918
1228,1.5596541917e+18,17.5506649,21.28225327,-2.469888449
1229,1.55965419176e+18,1.740891457,-4.52775526,29.72259903
1230,1.55965419182e+18,-11.85198402,-33.35878372,-0.1524806023
1231,1.55965419188e+18,6.456572533,-11.49869442,-8.864195824
1232,1.55965419194e+18,3.958676338,9.119316101,-12.41088486
1233,1.559654192e+18,-3.16158843,-0.04361248016,-9.11931324
1234,1.55965419206e+18,2.687780619,0.5922393799,-2.141083241
1235,1.55965419212e+18,1.397425652,-0.4347772598,-0.2599098682
1236,1.55965419218e+18,2.129599571,-3.559024334,2.053485394
1237,1.55965419224e+18,2.250063181,-1.648679256,2.019137383
1238,1.5596541923e+18,1.599708557,1.448016167,0.6967763901
1239,1.55965419236e+18,1.50071013,0.638420105,1.200619698
1240,1.55965419242e+18,0.8752709627,-1.586948872,0.6861195564
1241,1.55965419248e+18,0.5965684652,-2.176393986,-0.06227397919
1242,1.55965419254e+18,1.426960588,-2.905147552,-0.2175068855
1243,1.5596541926e+18,1.616978526,-3.79750061,-0.5197892189
1244,1.55965419266e+18,0.5494458079,-3.033295631,-1.110415459
1245,1.55965419272e+18,-0.3363927007,-3.10220623,-2.095394135
1246,1.55965419278e+18,-1.280042529,-2.284891605,-2.874808788
1247,1.55965419284e+18,-4.72525692,-0.8806548119,-5.163804531
1248,1.5596541929e+18,-4.089467049,1.257924557,-5.839622498
1249,1.55965419296e+18,-3.27684474,1.336343288,-3.226040363
1250,1.55965419302e+18,-3.301355362,0.1276328564,2.007357597
1251,1.55965419308e+18,-2.387462616,-0.001645565033,5.715424538
1252,1.55965419314e+18,-1.78316927,-0.05167901516,6.744541168
1253,1.5596541932e+18,2.838997841,-1.306289077,4.014000416
1254,1.55965419326e+18,4.342105865,-2.799001694,2.156148911
1255,1.55965419332e+18,3.592445612,-2.952224255,0.005046844482
1256,1.55965419338e+18,2.092247486,-2.553207397,-1.232360363
1257,1.55965419344e+18,-1.751065016,-3.234584808,-0.8469638824
1258,1.5596541935e+18,-0.8147330284,-2.446353436,0.1179451942
1259,1.55965419356e+18,-0.8057391644,-1.871276379,-0.2656612396
1260,1.55965419362e+18,0.1552591324,-0.9661970139,0.3379864693
1261,1.55965419368e+18,0.02153551579,-0.7642431259,0.1978833675
1262,1.55965419374e+18,0.2943725586,-1.044000626,0.7398507595
1263,1.5596541938e+18,0.2385017276,-1.267264366,1.002571583
1264,1.55965419386e+18,-0.008534252644,-0.9024505615,0.6679034233
1265,1.55965419392e+18,-0.3254102468,-0.4132938385,0.5254149437
1266,1.55965419398e+18,-0.08174270391,-0.1575222015,0.09349298477
1267,1.55965419404e+18,-0.2213699818,-0.2012271881,-0.3955836296
1268,1.5596541941e+18,-0.01998001337,-0.1665077209,-0.6585359573
1269,1.55965419416e+18,-0.009576380253,-0.2071828842,-0.92283988
1270,1.55965419422e+18,0.01342988014,-0.2585115433,-1.063614607
1271,1.55965419428e+18,0.4360120893,-0.1325111389,-1.156469464
1272,1.55965419434e+18,0.689727366,-0.232509613,-0.9439365864
1273,1.5596541944e+18,0.8236624002,-0.2723779678,-0.7687330246
1274,1.55965419446e+18,0.9357588291,-0.1995687485,-0.8594594002
1275,1.55965419452e+18,1.176690221,0.03161716461,-0.880240202
1276,1.55965419458e+18,1.116476655,-0.02818202972,-0.6042039394
1277,1.55965419464e+18,0.65122509,-0.04984092712,-0.8435691595
1278,1.5596541947e+18,0.6203052998,-0.05269908905,-0.5882771015
1279,1.55965419476e+18,0.4076640606,-0.1840486526,-0.3730342388
1280,1.55965419482e+18,0.2186533213,-0.1513547897,-0.1811401844
1281,1.55965419488e+18,-0.1803313494,-0.01815891266,0.05505251884
1282,1.55965419494e+18,-0.01770472527,-0.1069717407,0.369412899
1283,1.559654195e+18,-0.005916982889,-0.2437572479,0.4100461006
1284,1.55965419506e+18,-0.3260827065,-0.1761474609,0.2754353285
1285,1.55965419512e+18,-0.4746430218,-0.1141700745,0.2458420992
1286,1.55965419518e+18,-0.2386330366,0.06430625916,0.2210803032
1287,1.55965419524e+18,-0.1055710316,-0.06722831726,0.1657009125
1288,1.5596541953e+18,-0.03890782595,-0.2089490891,0.05298995972
1289,1.55965419536e+18,0.09170597792,-0.0416097641,-0.1146597862
1290,1.55965419542e+18,0.1794230044,0.05147075653,-0.2379482985
1291,1.55965419548e+18,0.2369255126,0.06845569611,-0.2870520353
1292,1.55965419554e+18,0.2856418192,0.08442306519,-0.1706619263
1293,1.5596541956e+18,0.1518822312,-0.04475402832,-0.1706285477
1294,1.55965419566e+18,0.1354393661,-0.04026985168,-0.091319561
1295,1.55965419572e+18,0.04783439636,-0.01976966858,-0.05593037605
1296,1.55965419578e+18,-0.009875655174,-0.04339790344,-0.06791496277
1297,1.55965419584e+18,0.03212693334,-0.03023529053,0.008664608002
1298,1.5596541959e+18,0.003827810287,-0.09056091309,-0.02532172203
1299,1.55965419596e+18,0.3348644376,-0.2704544067,0.2817070484
1300,1.55965419602e+18,-1.418926597,-1.520983696,3.074193001
1301,1.55965419608e+18,-0.9578328729,-2.042281151,2.056215763
1302,1.55965419614e+18,0.8973391056,-4.504947662,4.09078598
1303,1.5596541962e+18,-0.7864486575,-4.383202076,2.713611603
1304,1.55965419626e+18,-2.048780203,-2.217958927,-2.190574646
1305,1.55965419632e+18,-0.05794382095,-0.5665426254,-1.598011017
1306,1.55965419638e+18,-0.3126587868,1.323494911,-4.922924519
1307,1.55965419644e+18,0.7295510769,1.258307576,-3.644650936
1308,1.5596541965e+18,0.4461061954,1.296434879,-3.096084118
1309,1.55965419656e+18,0.1092431545,0.8269896507,-2.424181938
1310,1.55965419662e+18,0.1220803261,0.6778165698,-0.9906759262
1311,1.55965419668e+18,-0.1650869846,0.8764517307,-1.452223301
1312,1.55965419674e+18,0.1385071278,0.96862185,-0.9021968842
1313,1.5596541968e+18,0.3042469025,0.7571930885,-0.649977684
1314,1.55965419686e+18,0.2057409286,0.773008585,-0.8003320694
1315,1.55965419692e+18,0.481187582,0.4072035551,-0.05773353577
1316,1.55965419698e+18,0.2828018665,0.3645701408,0.02242851257
1317,1.55965419704e+18,0.4497377872,0.4800719023,0.1462554932
1318,1.5596541971e+18,0.2932305336,0.745288372,-0.1758527756
1319,1.55965419716e+18,0.4907426834,0.76593858,0.6467561722
1320,1.55965419722e+18,0.5684540272,1.309955716,0.5382385254
1321,1.55965419728e+18,0.6438281536,1.995313644,1.966038704
1322,1.55965419734e+18,0.9012260437,0.5941317081,2.390851974
1323,1.5596541974e+18,-0.1039609909,-0.2580154836,0.5650949478
1324,1.55965419746e+18,0.65082407,0.2275720239,-0.5704612732
1325,1.55965419752e+18,-0.6702356339,-0.01830458641,-1.653911114
1326,1.55965419758e+18,-0.2595539093,0.1668901443,-1.460263252
1327,1.55965419764e+18,-0.2373981476,0.3063206673,-1.251496792
1328,1.5596541977e+18,-0.1696405411,-0.1016278267,-1.229471684
1329,1.55965419776e+18,-0.3514437675,-0.07140564919,-1.104222298
1330,1.55965419782e+18,-0.3636035919,-0.04731988907,-0.6922850609
1331,1.55965419788e+18,0.1171898842,0.284665823,-0.5036067963
1332,1.55965419794e+18,0.09005784988,0.4031009674,-0.7442884445
1333,1.559654198e+18,-0.1833806038,0.954647541,-0.5936632156
1334,1.55965419806e+18,0.3093438148,0.09639215469,-0.190885067
1335,1.55965419812e+18,0.2238526344,-0.01736760139,-0.2310357094
1336,1.55965419818e+18,0.2228021622,-0.07321333885,-0.2843775749
1337,1.55965419824e+18,-0.1880125999,-0.09866952896,-0.02387523651
1338,1.5596541983e+18,0.004858016968,0.1005535126,0.2501606941
1339,1.55965419836e+18,0.1067595482,0.3646888733,-0.2832183838
1340,1.55965419842e+18,-0.6502156258,0.1674559116,-0.1723613739
1341,1.55965419848e+18,0.1249837875,0.4125738144,-0.5986361504
1342,1.55965419854e+18,-0.05257987976,-0.1544332504,0.2453732491
1343,1.5596541986e+18,-0.2073850632,-0.2451968193,-0.3091235161
1344,1.55965419866e+18,0.1255083084,-0.009957551956,0.2867474556
1345,1.55965419872e+18,0.2668347359,0.06121826172,-0.05639696121
1346,1.55965419878e+18,0.2008280754,0.04431509972,0.177052021
1347,1.55965419884e+18,0.2376246452,0.2707648277,-0.1289176941
1348,1.5596541989e+18,-0.238257885,0.09023201466,-0.2118940353
1349,1.55965419896e+18,-0.007565021515,0.2716188431,-0.4069390297
1350,1.55965419902e+18,-0.1064562798,-0.03524053097,0.08810186386
1351,1.55965419908e+18,-0.03768157959,-0.02859997749,0.07215833664
1352,1.55965419914e+18,-0.208483696,0.05298197269,0.03776741028
1353,1.5596541992e+18,-0.06781816483,0.01093482971,0.03594636917
1354,1.55965419926e+18,0.133934021,0.1084913015,0.1017446518
1355,1.55965419932e+18,-0.08221006393,-0.07963240147,0.1087808609
1356,1.55965419938e+18,-0.1152291298,-0.05176353455,-0.2733283043
1357,1.55965419944e+18,-0.1645679474,0.2197827101,-0.6048703194
1358,1.5596541995e+18,-0.5998797417,-0.6264542341,-1.725039959
1359,1.55965419956e+18,-2.112101793,-3.116647959,-4.427481174
1360,1.55965419962e+18,-2.533508778,-2.973602295,-5.395440578
1361,1.55965419968e+18,-3.405648232,-0.4805055559,-4.092995644
1362,1.55965419974e+18,-2.152509212,-2.401009083,-0.4639348984
1363,1.5596541998e+18,-1.75075376,-2.026353121,0.5091161728
1364,1.55965419986e+18,-0.4716007411,-4.238871098,4.581693649
1365,1.55965419992e+18,-1.032723069,-2.969072819,4.104086399
1366,1.55965419998e+18,-0.4401493073,-0.7877964973,3.486166954
1367,1.55965420004e+18,-0.05019516125,0.3297348022,2.717666626
1368,1.5596542001e+18,0.08920819312,1.398737907,1.53231287
1369,1.55965420016e+18,1.03371048,2.867156982,-0.4830198288
1370,1.55965420022e+18,1.486008644,2.166027546,-1.204349995
1371,1.55965420028e+18,-0.6178071499,-3.627020836,-0.4499528408
1372,1.55965420034e+18,-4.522583008,-5.50971508,-0.9400308132
1373,1.5596542004e+18,-0.2859526575,-1.556385994,-0.4675767422
1374,1.55965420046e+18,-0.3470181823,-0.7998790741,-0.4823322296
1375,1.55965420052e+18,-0.338624686,0.1059646606,-1.059668779
1376,1.55965420058e+18,-0.2400434613,0.923415184,-2.041707277
1377,1.55965420064e+18,-0.5259795785,0.5426101685,-1.866774917
1378,1.5596542007e+18,-0.4223715663,-0.333987236,-0.9101901054
1379,1.55965420076e+18,0.1928685009,-0.5968923569,-0.9747190475
1380,1.55965420082e+18,0.7916370034,-0.5747337341,-0.7849881649
1381,1.55965420088e+18,1.30162096,-0.3191862106,-0.5184381008
1382,1.55965420094e+18,1.268718004,0.01260566711,-0.4780344963
1383,1.559654201e+18,1.138365984,0.1663551331,-0.468783617
1384,1.55965420106e+18,1.489777207,0.2388296127,-0.4235541821
1385,1.55965420112e+18,0.40306741,0.1334896088,-0.892834425
1386,1.55965420118e+18,-1.722601175,-0.601266861,-0.1473226547
1387,1.55965420124e+18,0.2066212893,-0.805727005,2.003371716
1388,1.5596542013e+18,1.455778599,-0.3615036011,2.189436674
1389,1.55965420136e+18,-0.5570211411,-0.4606189728,1.956650734
1390,1.55965420142e+18,-0.795604229,-0.1325645447,0.5473456383
1391,1.55965420148e+18,-0.5350234509,0.319981575,0.9032282829
1392,1.55965420154e+18,-0.7955589294,0.9866585732,0.3555269241
1393,1.5596542016e+18,-0.4540038109,0.9268040657,0.2428183556
1394,1.55965420166e+18,0.108725071,0.9501132965,-0.8588728905
1395,1.55965420172e+18,-0.1051864624,0.4406037331,-1.504109859
1396,1.55965420178e+18,-0.6549944878,-0.3405482769,-1.460017204
1397,1.55965420184e+18,-1.072729111,-0.8978536129,-1.476518631
1398,1.5596542019e+18,-0.4871902466,-0.3560957909,-1.162398338
1399,1.55965420196e+18,-0.3968300819,-0.7564554214,-1.420481682
1400,1.55965420202e+18,2.109237671,-0.3512630463,-1.869116545
1401,1.55965420208e+18,0.3885345459,-1.242272615,-2.770488739
1402,1.55965420214e+18,0.4700260162,-2.036565781,-2.528787374
1403,1.5596542022e+18,-2.905218124,-4.985245228,-4.905879021
1404,1.55965420226e+18,6.412592888,-0.7552776337,6.275561333
1405,1.55965420232e+18,0.20707798,2.188464165,1.093843937
1406,1.55965420238e+18,2.069248676,3.365112305,-0.1181569099
1407,1.55965420244e+18,1.471601009,-0.1311486661,0.3176968098
1408,1.5596542025e+18,4.786837101,1.519726396,-1.330734015
1409,1.55965420256e+18,-2.372109413,2.359796762,3.183583021
1410,1.55965420262e+18,-3.895772934,-6.013436794,13.77205563
1411,1.55965420268e+18,-13.01110649,0.008594959974,6.292168617
1412,1.55965420274e+18,-2.130738258,-5.811917782,2.642158985
1413,1.5596542028e+18,2.824066401,-7.08101368,-4.471117973
1414,1.55965420286e+18,3.525449991,-6.883204937,-5.921940327
1415,1.55965420292e+18,5.700370789,-6.73204422,-6.2932868
1416,1.55965420298e+18,1.544019341,-5.34673214,-6.968278408
1417,1.55965420304e+18,1.770898342,-3.451782703,-2.904690981
1418,1.5596542031e+18,2.891283989,-0.5828008652,-1.5922966
1419,1.55965420316e+18,2.280714035,3.450787544,-0.01057815552
1420,1.55965420322e+18,8.496146202,7.658712387,0.1829409599
1421,1.55965420328e+18,16.84166527,29.10433578,-4.22382164
1422,1.55965420334e+18,9.117290497,14.28980827,2.508751869
1423,1.5596542034e+18,-18.25650215,-8.81325531,-39.42753601
1424,1.55965420346e+18,-23.96151733,-29.14831924,-3.38237381
1425,1.55965420352e+18,12.33428574,-2.4539361,-12.96356106
1426,1.55965420358e+18,4.023727417,4.365026474,-7.513584137
1427,1.55965420364e+18,-3.402984381,-7.356294632,-0.9730603695
1428,1.5596542037e+18,1.20677042,-0.2895870209,-0.994314909
1429,1.55965420376e+18,2.985711575,-2.125169277,1.154452562
1430,1.55965420382e+18,0.4249725342,-0.07018470764,-1.758926868
1431,1.55965420388e+18,0.939915657,0.7117681503,-2.59107995
1432,1.55965420394e+18,0.5882191658,1.991220474,-3.298563004
1433,1.559654204e+18,0.7765889168,1.979643822,-3.698373318
1434,1.55965420406e+18,0.6765532494,1.485233307,-3.698025227
1435,1.55965420412e+18,1.917984486,0.9893293381,-3.312940598
1436,1.55965420418e+18,1.027862549,1.249769688,-1.368354559
1437,1.55965420424e+18,0.7274971008,0.1360054016,-0.06179404259
1438,1.5596542043e+18,1.622998714,-0.1206374168,0.7638633251
1439,1.55965420436e+18,1.604139328,-0.6902828217,1.337852836
1440,1.55965420442e+18,0.7015519142,-0.8515706062,0.2456419468
1441,1.55965420448e+18,-0.1835103035,-1.057034016,0.1270147562
1442,1.55965420454e+18,-0.725880146,-1.229636192,-0.4099612236
1443,1.5596542046e+18,-0.9255576134,-1.721399307,-1.325166225
1444,1.55965420466e+18,-1.000576496,-2.468314648,-2.030788422
1445,1.55965420472e+18,-1.83016777,-1.916676044,-3.376048803
1446,1.55965420478e+18,-3.285181522,-1.715788364,-4.78464222
1447,1.55965420484e+18,-4.172200203,-1.123569489,-5.916014194
1448,1.5596542049e+18,-3.248012304,-3.054553032,0.534318924
1449,1.55965420496e+18,-1.173681259,-1.736422777,-2.46970892
1450,1.55965420502e+18,4.084899902,-7.198786259,3.581728935
1451,1.55965420508e+18,5.207914829,-5.495230675,2.927635193
1452,1.55965420514e+18,0.6116935015,-5.206151009,1.118718147
1453,1.5596542052e+18,-1.581210136,-3.585373878,1.364873886
1454,1.55965420526e+18,0.05970680714,-2.023424625,1.591419697
1455,1.55965420532e+18,-0.4272936583,-0.7557740211,1.200231075
1456,1.55965420538e+18,-2.208947659,-1.270895958,1.396655083
1457,1.55965420544e+18,-2.164950848,-0.421295166,-0.1081118584
1458,1.5596542055e+18,-1.518543482,-0.817817688,0.4445829391
1459,1.55965420556e+18,-0.9368002415,-0.71900177,-0.4484801292
1460,1.55965420562e+18,-1.410467386,-0.6988387108,-0.2003154755
1461,1.55965420568e+18,-0.1704721451,-0.6294016838,-0.1330809593
1462,1.55965420574e+18,0.6019449234,-1.04718256,0.2830600739
1463,1.5596542058e+18,0.6740787029,-1.068274498,-0.4761471748
1464,1.55965420586e+18,0.9291884899,-1.081417084,-1.083257675
1465,1.55965420592e+18,1.383921146,-0.8114957809,-1.441313267
1466,1.55965420598e+18,1.126321077,-0.731534481,-1.876301765
1467,1.55965420604e+18,1.016502619,-0.188847065,-1.561775684
1468,1.5596542061e+18,0.5886530876,0.112010479,-0.9555239677
1469,1.55965420616e+18,0.547721386,0.172358036,-0.05222892761
1470,1.55965420622e+18,-0.05087184906,0.406001091,0.208943367
1471,1.55965420628e+18,-0.4123387337,0.3906621933,1.203835487
1472,1.55965420634e+18,-0.9905099869,0.775244236,0.6885976791
1473,1.5596542064e+18,-0.9766058922,0.5602555275,0.7144274712
1474,1.55965420646e+18,-0.5422291756,0.6667518616,0.1954083443
1475,1.55965420652e+18,-0.4486732483,0.3980784416,-0.1995930672
1476,1.55965420658e+18,-0.53891325,0.222322464,-0.7384815216
1477,1.55965420664e+18,-0.1690840721,0.8246233463,-1.025285721
1478,1.5596542067e+18,-0.2697124481,1.025221109,-0.838889122
1479,1.55965420676e+18,-0.3849544525,1.175909758,-0.2366642952
1480,1.55965420682e+18,0.1864099503,0.4351687431,0.6852483749
1481,1.55965420688e+18,0.6101908684,0.3114366531,0.3198456764
1482,1.55965420694e+18,1.375385284,-0.9340496063,-0.3058860302
1483,1.559654207e+18,0.3611736298,-2.198215723,-2.489451408
1484,1.55965420706e+18,0.7145552635,-4.123954773,-2.417567015
1485,1.55965420712e+18,-4.683666229,-11.23370075,-3.961895466
1486,1.55965420718e+18,-10.38691711,1.710843444,5.292113304
1487,1.55965420724e+18,-6.393746376,3.104552746,4.47736454
1488,1.5596542073e+18,-5.712247849,2.095508575,4.573971748
1489,1.55965420736e+18,-1.688708782,-0.2753075361,1.167768955
1490,1.55965420742e+18,1.568575382,-2.551092148,-5.244818211
1491,1.55965420748e+18,3.35322547,-3.264446974,-5.508251667
1492,1.55965420754e+18,3.996725798,-3.062644005,-7.920757771
1493,1.5596542076e+18,1.328802347,-3.304949522,-7.232644558
1494,1.55965420766e+18,3.000050545,-0.4694027901,-3.139925957
1495,1.55965420772e+18,3.798211575,3.214875698,-1.483437061
1496,1.55965420778e+18,7.256270409,8.151636124,0.3457565308
1497,1.55965420784e+18,17.68187523,32.6619873,-3.317523479
1498,1.5596542079e+18,13.19126415,17.4366188,5.669887543
1499,1.55965420796e+18,-0.7985216379,-17.14361191,-16.39690971
1500,1.55965420802e+18,-17.5156002,-27.74709702,-4.671861649
1501,1.55965420808e+18,15.06833649,0.5846276283,-13.79467583
1502,1.55965420814e+18,-4.401174545,5.51554203,-13.83936977
1503,1.5596542082e+18,0.08857551217,-2.346108437,-3.866461754
1504,1.55965420826e+18,2.270354748,1.153745651,-1.28996253
1505,1.55965420832e+18,0.3137226701,-0.6783294678,1.317554235
1506,1.55965420838e+18,0.9836028218,-1.824300766,0.4238955975
1507,1.55965420844e+18,-0.4151438177,-0.8916854858,-0.115550518
1508,1.5596542085e+18,-0.5821606517,-0.2536478043,0.3198542595
1509,1.55965420856e+18,-0.2953367829,0.8457450867,0.3056545258
1510,1.55965420862e+18,-0.2419468313,-0.8485321999,0.1042923927
1511,1.55965420868e+18,-0.7679226398,-2.184220791,0.787147522
1512,1.55965420874e+18,-0.915590167,-1.120095253,0.1244525909
1513,1.5596542088e+18,-0.2970196307,-1.45346117,0.06434059143
1514,1.55965420886e+18,-0.9957143068,-1.870316029,-0.2509279251
1515,1.55965420892e+18,-0.2684823871,-1.282920361,-0.1108942032
1516,1.55965420898e+18,-1.682739973,-1.876436234,-1.499135971
1517,1.55965420904e+18,-2.104056597,-1.42568922,-0.91634655
1518,1.5596542091e+18,-1.198987484,-1.441000462,-1.135807991
1519,1.55965420916e+18,-0.7876764536,-1.618488789,-3.140758276
1520,1.55965420922e+18,-0.8419077396,-2.079533577,-2.900238276
1521,1.55965420928e+18,-0.03643035889,0.6380448341,-2.726145744
1522,1.55965420934e+18,-0.1397299767,0.9952712059,0.1787433624
1523,1.5596542094e+18,-1.896232605,0.2486689091,1.122690201
1524,1.55965420946e+18,-3.747667313,-1.089702368,2.878499985
1525,1.55965420952e+18,-3.430717468,-1.843576789,1.80753684
1526,1.55965420958e+18,-1.645197868,-1.60995543,0.8602643013
1527,1.55965420964e+18,-1.458560944,-1.768191457,-0.1007781029
1528,1.5596542097e+18,0.930270195,-0.3671073914,-2.041843176
1529,1.55965420976e+18,0.2210679054,-2.471928596,-0.6795258522
1530,1.55965420982e+18,3.262195587,-0.9318208694,-0.8423781395
1531,1.55965420988e+18,-0.1847252846,-3.18403101,1.457854748
1532,1.55965420994e+18,0.7633023262,-1.732848167,-0.2727642059
1533,1.55965421e+18,-2.487841129,-1.441427231,0.01900959015
1534,1.55965421006e+18,-0.7959384918,-0.547472477,0.5938692093
1535,1.55965421012e+18,-0.922791481,-0.992190361,2.109591961
1536,1.55965421018e+18,-0.8039956093,-0.4996137619,1.718881607
1537,1.55965421024e+18,-0.7556619644,-0.498966217,1.408000946
1538,1.5596542103e+18,0.1106748581,-0.459195137,0.4693126678
1539,1.55965421036e+18,0.2152471542,-0.652323246,-0.4083356857
1540,1.55965421042e+18,0.413216114,-0.3631176949,-1.004575253
1541,1.55965421048e+18,0.0676074028,-0.03538417816,-0.5345711708
1542,1.55965421054e+18,-0.1309394836,0.5253202915,-0.9399008751
1543,1.5596542106e+18,-0.005167007446,0.5682840347,-0.1840090752
1544,1.55965421066e+18,-0.4294457436,0.4130160809,-1.674859524
1545,1.55965421072e+18,1.411636353,0.005821943283,-0.6329264641
1546,1.55965421078e+18,0.6136236191,-2.302187681,-0.9179959297
1547,1.55965421084e+18,2.294390678,-2.254916668,-1.874955654
1548,1.5596542109e+18,-0.7088041306,-4.573617935,-2.556777
1549,1.55965421096e+18,-8.933386803,-6.600761414,-22.06235504
1550,1.55965421102e+18,-7.209965706,4.07512331,6.081864834
1551,1.55965421108e+18,-9.032086372,4.434861183,3.49668622
1552,1.55965421114e+18,-1.733992577,0.3080419898,1.965193272
1553,1.5596542112e+18,4.469159126,-4.407853127,0.6202483177
1554,1.55965421126e+18,1.234525442,-3.142560482,-4.64573288
1555,1.55965421132e+18,3.230781555,-5.423659325,-6.86620903
1556,1.55965421138e+18,1.495068073,-4.739002228,-7.914333344
1557,1.55965421144e+18,3.110883951,-2.719051361,-5.869737625
1558,1.5596542115e+18,1.174908161,-0.9717626572,-3.413244724
1559,1.55965421156e+18,3.726067066,2.216044903,-0.3842740059
1560,1.55965421162e+18,6.059338093,6.735641003,1.244382858
1561,1.55965421168e+18,13.91596031,22.32702065,0.09187984467
1562,1.55965421174e+18,18.17949295,25.90287018,-3.510120392
1563,1.5596542118e+18,0.1254868507,-0.3827300072,17.70855141
1564,1.55965421186e+18,-17.5031395,-55.17605209,4.529699326
1565,1.55965421192e+18,0.1221374273,-23.16119003,-7.281341553
1566,1.55965421198e+18,9.811956406,-1.374824047,-8.483242989
1567,1.55965421204e+18,6.015041351,7.288169861,-11.22693443
1568,1.5596542121e+18,-2.764125586,-1.647037029,-4.671330929
1569,1.55965421216e+18,-1.275226116,1.355538368,-2.022378683
1570,1.55965421222e+18,-1.744477749,-0.4961433411,-0.3379626274
1571,1.55965421228e+18,-2.128211021,-0.2055578232,0.3710775375
1572,1.55965421234e+18,-0.6043145657,0.2114086151,-1.618266821
1573,1.5596542124e+18,0.3144774437,1.09968853,-0.4787428975
1574,1.55965421246e+18,0.4647791386,1.346926689,-0.9356749058
1575,1.55965421252e+18,0.3382730484,0.4817056656,0.04782095551
1576,1.55965421258e+18,-0.3102312088,0.4880714417,-0.2370471358
1577,1.55965421264e+18,0.08197784424,0.5243473053,0.5614187717
1578,1.5596542127e+18,0.4732863903,0.5048894882,0.1995535493
1579,1.55965421276e+18,-0.6238912344,-0.189789772,0.6104896069
1580,1.55965421282e+18,-0.8588229418,-0.1943759918,-0.05094301701
1581,1.55965421288e+18,-0.6854236126,-1.005438805,-0.2751657963
1582,1.55965421294e+18,-1.190781116,-1.755787373,-1.008438349
1583,1.559654213e+18,-0.0004072189331,-2.254112244,-0.6733931899
1584,1.55965421306e+18,-0.6316642761,-2.707971096,-0.612668395
1585,1.55965421312e+18,-0.1775090694,-1.362789631,-1.665030241
1586,1.55965421318e+18,0.987991333,-1.16796875,-2.560930967
1587,1.55965421324e+18,1.604723454,2.586009026,-2.339565277
1588,1.5596542133e+18,2.009018898,7.756512642,-1.503772259
1589,1.55965421336e+18,1.998129129,5.597060204,-0.8887996674
1590,1.55965421342e+18,2.050944328,-1.050627708,0.3039579391
1591,1.55965421348e+18,-0.8052973747,-10.80585098,-3.180822611
1592,1.55965421354e+18,1.001293659,-9.998077393,-0.9920342565
1593,1.5596542136e+18,2.549006462,-11.78962994,2.685605764
1594,1.55965421366e+18,6.081276894,-5.667978764,0.57853055
1595,1.55965421372e+18,33.33376694,-3.885224581,6.351347923
1596,1.55965421378e+18,-10.51043892,-13.98008728,5.575879097
1597,1.55965421384e+18,-6.071130276,-3.757227421,0.3880608082
1598,1.5596542139e+18,-7.108325958,1.646220922,3.238307238
1599,1.55965421396e+18,-4.938802719,2.290192366,-1.709267259
1600,1.55965421402e+18,-3.646225929,0.6899981499,1.904546976
1601,1.55965421408e+18,-10.68143654,0.6603565216,3.276828527
1602,1.55965421414e+18,-12.22826195,2.021460533,6.983780861
1603,1.5596542142e+18,-7.525650024,0.2719392776,4.615745544
1604,1.55965421426e+18,-4.027739525,-2.705727339,3.382662296
1605,1.55965421432e+18,-0.8317604065,-4.303331375,-1.632538795
1606,1.55965421438e+18,1.137183666,-5.683238506,-4.946382523
1607,1.55965421444e+18,4.862114429,-5.12402916,-7.499518394
1608,1.5596542145e+18,4.144368172,-4.47565937,-7.542295456
1609,1.55965421456e+18,2.896303892,-2.419454575,-7.127634048
1610,1.55965421462e+18,-0.5028336048,-0.3015942574,-8.952212334
1611,1.55965421468e+18,5.232927799,0.9588928223,-7.763929844
1612,1.55965421474e+18,10.49530792,5.850132942,1.086788654
1613,1.5596542148e+18,7.645960331,8.583190918,3.410594463
1614,1.55965421486e+18,-4.563664436,-0.6476221085,2.831402779
1615,1.55965421492e+18,-0.0455981493,-4.432857513,-4.456670761
1616,1.55965421498e+18,0.324862957,-6.620712757,-3.114601612
1617,1.55965421504e+18,-1.045115948,-4.937731266,-4.255792141
1618,1.5596542151e+18,2.242753506,1.613956928,-1.95849371
1619,1.55965421516e+18,7.8572855,11.26385212,-0.2824172974
1620,1.55965421522e+18,14.48456573,32.35097504,-4.041971684
1621,1.55965421528e+18,13.9876194,14.31373215,2.447749615
1622,1.55965421534e+18,18.13329887,-7.965022087,-32.05897141
1623,1.5596542154e+18,-26.90462875,-18.18010139,-18.06162453
1624,1.55965421546e+18,8.931028366,-10.15276432,-9.794193268
1625,1.55965421552e+18,5.319433212,0.04134750366,-8.364753723
1626,1.55965421558e+18,0.58479321,-4.883719444,-3.778560162
1627,1.55965421564e+18,2.617176533,0.159163475,-4.159473896
1628,1.5596542157e+18,2.567285061,2.759504318,-2.939462423
1629,1.55965421576e+18,3.218667507,3.348997116,-4.168416977
1630,1.55965421582e+18,1.237572908,1.950745583,-3.710538864
1631,1.55965421588e+18,1.821863174,2.409201622,-3.38178587
1632,1.55965421594e+18,1.372536182,1.769731522,-2.597136497
1633,1.559654216e+18,0.789321661,0.7431821823,-1.235302329
1634,1.55965421606e+18,0.5217320919,-0.1743011475,-1.007303834
1635,1.55965421612e+18,0.8734562397,-0.4210414886,-0.411919713
1636,1.55965421618e+18,0.312155962,-0.4301757812,-0.3502522707
1637,1.55965421624e+18,0.3851395845,-0.8666696548,0.2081406116
1638,1.5596542163e+18,0.2895178795,-0.7610301971,-0.06249928474
1639,1.55965421636e+18,0.1653286219,-0.7515449524,-0.09325385094
1640,1.55965421642e+18,0.02454900742,-0.9024791718,-0.6015744209
1641,1.55965421648e+18,-1.0388695,-2.661109924,-2.611801624
1642,1.55965421654e+18,-1.289917707,-3.371017933,-3.526407242
1643,1.5596542166e+18,-1.129642487,-3.107615948,-2.67516613
1644,1.55965421666e+18,-0.9536761045,-2.543532372,-2.281218767
1645,1.55965421672e+18,-0.5146530271,-1.755888939,-2.005286694
1646,1.55965421678e+18,-2.457734346,-1.936005116,0.4500484467
1647,1.55965421684e+18,-6.157285213,-2.14535141,0.919778347
1648,1.5596542169e+18,-5.647575855,-1.79961729,4.264110565
1649,1.55965421696e+18,-2.715575218,-1.305202127,2.462749958
1650,1.55965421702e+18,-1.478236198,-1.544178128,2.338901043
1651,1.55965421708e+18,1.441310883,-0.4581664801,0.5867247581
1652,1.55965421714e+18,-0.4138231277,-0.006921470165,0.1185717583
1653,1.5596542172e+18,1.60259819,0.7874140143,1.866327286
1654,1.55965421726e+18,1.080234051,0.1693385839,0.2161359787
1655,1.55965421732e+18,-1.118053913,-1.903189063,1.596345901
1656,1.55965421738e+18,-0.766099453,-3.428067923,-0.2037043571
1657,1.55965421744e+18,-2.102479935,-3.430692673,-0.1503987312
1658,1.5596542175e+18,-0.8864178658,-2.527383804,-0.5577955246
1659,1.55965421756e+18,-0.8465042114,-1.069707394,-1.156573296
1660,1.55965421762e+18,-0.6262454987,0.2239518166,-0.5731263161
1661,1.55965421768e+18,0.5966329575,0.807230711,-1.24821806
1662,1.55965421774e+18,0.878610611,0.1533737183,-0.7893128395
1663,1.5596542178e+18,0.9247970581,-0.08066296577,-1.274145126
1664,1.55965421786e+18,1.595688343,-1.27124238,-1.600932598
1665,1.55965421792e+18,1.355865479,-4.300697327,-0.754019022
1666,1.55965421798e+18,-1.42259407,-5.376498222,-2.454440594
1667,1.55965421804e+18,-9.513315201,-8.753961563,-1.132086992
1668,1.5596542181e+18,-4.288089752,3.528915405,4.208386421
1669,1.55965421816e+18,-6.476539612,3.834922314,3.110644817
1670,1.55965421822e+18,-6.089514732,1.68985486,1.076180458
1671,1.55965421828e+18,-0.479745388,-1.568250656,0.1203832626
1672,1.55965421834e+18,-1.025439262,-3.508039474,-4.185017586
1673,1.5596542184e+18,2.093677521,-4.09435606,-6.146405697
1674,1.55965421846e+18,1.409947157,-4.358228207,-6.707578182
1675,1.55965421852e+18,1.048784733,-3.877314806,-7.319686413
1676,1.55965421858e+18,2.672037125,-2.21288681,-4.835542679
1677,1.55965421864e+18,2.462374449,0.3117733002,-3.908401728
1678,1.5596542187e+18,3.563849688,3.884369373,-2.236130953
1679,1.55965421876e+18,8.753667831,11.66182804,-1.444343328
1680,1.55965421882e+18,15.23185635,27.76177216,-1.997092247
1681,1.55965421888e+18,12.0857563,12.14422417,4.103564262
1682,1.55965421894e+18,-6.260583878,-12.83394051,-28.00820541
1683,1.559654219e+18,-25.38206482,-24.69931412,-5.601968765
1684,1.55965421906e+18,7.695745945,-12.72575951,-7.800984383
1685,1.55965421912e+18,1.657839894,-3.388094902,-8.348633766
1686,1.55965421918e+18,-1.557605267,-2.246612072,-6.2438941
1687,1.55965421924e+18,-0.7907209396,2.569211006,-6.995142937
1688,1.5596542193e+18,-1.010775566,3.349334717,-5.267908096
1689,1.55965421936e+18,0.6293272972,1.802554131,-3.721123934
1690,1.55965421942e+18,4.570831299,1.952737808,-5.214866638
1691,1.55965421948e+18,3.261771202,1.354382038,-3.90149641
1692,1.55965421954e+18,1.086031437,0.6650738716,-1.29404521
1693,1.5596542196e+18,-0.1582326889,-0.01115131378,-0.7022945881
1694,1.55965421966e+18,-1.527612209,-0.4135322571,-0.3965454102
1695,1.55965421972e+18,-1.553153992,0.03302335739,-0.1696807742
1696,1.55965421978e+18,-0.6315889359,0.09931707382,0.2083308101
1697,1.55965421984e+18,0.2562789917,0.101629734,0.3291803598
1698,1.5596542199e+18,0.2982954979,-0.1288638115,-0.2930314839
1699,1.55965421996e+18,-0.1012649536,-0.2153072357,-0.6714161038
1700,1.55965422002e+18,0.4519929886,-0.1907486916,-0.403599143
1701,1.55965422008e+18,-0.4839406013,-0.3814888,-0.7104036212
1702,1.55965422014e+18,-0.1358709335,-0.46671772,-0.4385627508
1703,1.5596542202e+18,-1.192163944,-0.03108882904,-0.4635682106
1704,1.55965422026e+18,-0.6393795013,-0.09831190109,0.08400464058
1705,1.55965422032e+18,-0.7717261314,0.1028900146,0.6254172325
1706,1.55965422038e+18,-0.5486176014,0.1260118484,0.001753330231
1707,1.55965422044e+18,-0.4744024277,-0.6992387772,-0.9330158234
1708,1.5596542205e+18,-1.235378385,-1.891627789,-2.277203321
1709,1.55965422056e+18,-1.640139461,-2.555478573,-1.643178463
1710,1.55965422062e+18,-1.880664349,-2.122860432,-0.4119024277
1711,1.55965422068e+18,-2.820241213,-1.655457258,1.050314903
1712,1.55965422074e+18,-2.66849947,-0.4384896755,0.4365530014
1713,1.5596542208e+18,-1.343101025,0.1927030087,0.4101657867
1714,1.55965422086e+18,0.07213926315,1.40850544,-0.1047239304
1715,1.55965422092e+18,-0.6122326851,1.674104452,-0.09912157059
1716,1.55965422098e+18,-1.083218575,0.8773924112,0.1394934654
1717,1.55965422104e+18,-1.998295307,-0.7310864925,0.03028774261
1718,1.5596542211e+18,-0.3448214531,-1.530518889,0.7081346512
1719,1.55965422116e+18,-0.7061862946,-2.209975243,-0.04862499237
1720,1.55965422122e+18,-1.483158112,-2.732106686,-0.3850297928
1721,1.55965422128e+18,-0.3342633247,-1.762089968,-0.5412826538
1722,1.55965422134e+18,-0.531255722,-1.81151247,-0.6071004868
1723,1.5596542214e+18,-0.857629776,-1.423236847,-0.3968224525
1724,1.55965422146e+18,-0.1688637733,-0.4758474827,-0.709066391
1725,1.55965422152e+18,-0.07979440689,0.4520435333,-0.4158782959
1726,1.55965422158e+18,0.8932089806,1.240312934,0.7256236076
1727,1.55965422164e+18,-0.2829899788,1.228945374,-0.5505838394
1728,1.5596542217e+18,0.8521313667,0.005003213882,0.5774564743
1729,1.55965422176e+18,-0.768219471,-1.612864971,-0.9183168411
1730,1.55965422182e+18,1.205918312,-4.010098457,-0.169781208
1731,1.55965422188e+18,-0.02450370789,-5.229372025,-2.282549858
1732,1.55965422194e+18,-3.788954735,-10.25951385,-2.581063509
1733,1.559654222e+18,-1.773218155,-2.772058487,4.25664711
1734,1.55965422206e+18,-6.945466042,4.070726395,3.244561672
1735,1.55965422212e+18,-5.266425133,2.720556498,2.288816929
1736,1.55965422218e+18,-6.731001854,0.3192083836,-2.503981113
1737,1.55965422224e+18,8.816240311,-4.762354851,-2.896611214
1738,1.5596542223e+18,-0.4946959019,-2.589407206,-7.903311729
1739,1.55965422236e+18,0.5568904877,-3.349138498,-8.909993172
1740,1.55965422242e+18,0.5302727222,-1.199329853,-8.009174347
1741,1.55965422248e+18,2.63048625,3.574801445,-5.432053089
1742,1.55965422254e+18,5.165728569,7.854600906,-2.502112389
1743,1.5596542226e+18,11.16465569,20.67672348,0.9243907928
1744,1.55965422266e+18,15.47619724,28.14358139,-4.742481232
1745,1.55965422272e+18,7.039256096,-1.310057163,17.47975159
1746,1.55965422278e+18,-16.79368591,-66.78179169,26.39882851
1747,1.55965422284e+18,3.298655748,-24.5938015,-10.8643074
1748,1.5596542229e+18,3.615884304,-4.844387531,-8.415351868
1749,1.55965422296e+18,-3.519940853,0.4791240692,-9.747573853
1750,1.55965422302e+18,-1.463545799,4.632113457,-3.99411869
1751,1.55965422308e+18,-0.7610964775,5.855210781,-3.735399485
1752,1.55965422314e+18,0.8272271156,3.123930931,-1.556224823
1753,1.5596542232e+18,3.096918583,1.963202,-3.940698624
1754,1.55965422326e+18,1.483124733,1.56840229,-1.286967516
1755,1.55965422332e+18,-0.445950985,1.594484329,0.6744706631
1756,1.55965422338e+18,-1.299372196,1.093997002,0.9678883553
1757,1.55965422344e+18,-1.099945068,0.5447654724,0.9842416048
1758,1.5596542235e+18,-0.7327513695,0.6813526154,1.116080046
1759,1.55965422356e+18,-0.07202529907,0.8255581856,0.3088331223
1760,1.55965422362e+18,-0.05416870117,0.7509036064,0.9394470453
1761,1.55965422368e+18,-0.1316847801,0.8025250435,0.441971302
1762,1.55965422374e+18,-0.1576170921,0.6068015099,0.5161697865
1763,1.5596542238e+18,-0.6527256966,0.3321380615,0.275184989
1764,1.55965422386e+18,-0.3602180481,-0.0573720932,0.3810559511
1765,1.55965422392e+18,-0.9028043747,-1.101939678,0.06132507324
1766,1.55965422398e+18,-0.6678051949,-2.256475449,-0.1795578003
1767,1.55965422404e+18,-1.820732117,-1.676535606,-0.1782538295
1768,1.5596542241e+18,-2.384389877,-2.192780018,-0.430647552
1769,1.55965422416e+18,-3.41080308,-0.7702064514,-2.148005486
1770,1.55965422422e+18,-2.900382996,-1.264634132,-2.54688406
1771,1.55965422428e+18,-2.97666955,-1.297049999,-2.625349522
1772,1.55965422434e+18,-1.503662705,-4.303306103,0.03622579575
1773,1.5596542244e+18,1.859833598,-4.725224495,-1.274190903
1774,1.55965422446e+18,1.336240053,-5.842362404,-0.01433753967
1775,1.55965422452e+18,-1.943137884,-7.965467453,1.555646896
1776,1.55965422458e+18,0.5616637468,-4.104739189,1.098357201
1777,1.55965422464e+18,-0.1818146706,-4.30368185,2.303978443
1778,1.5596542247e+18,-0.3614120483,-2.436301231,0.243355751
1779,1.55965422476e+18,-1.298544049,-2.164931297,0.2285175323
1780,1.55965422482e+18,0.02930191159,-1.213217735,-0.1604242325
1781,1.55965422488e+18,-0.7068883181,-1.316605568,0.181469202
1782,1.55965422494e+18,-0.4616672993,-1.174789429,-0.01616072655
1783,1.559654225e+18,-0.5722030997,-1.024583817,-0.1011230946
1784,1.55965422506e+18,-0.7886865735,-0.8779649734,-0.7642538548
1785,1.55965422512e+18,-0.78939116,-0.7032203674,-1.061195612
1786,1.55965422518e+18,-0.5588370562,-0.3938894272,-1.421159983
1787,1.55965422524e+18,-0.2029951811,-0.1768665314,-1.354248643
1788,1.5596542253e+18,0.4476841688,-0.128493309,-1.281812668
1789,1.55965422536e+18,0.6058456302,-0.1836557388,-1.268709302
1790,1.55965422542e+18,0.5501105785,-0.3310899734,-1.17918551
1791,1.55965422548e+18,0.639467001,-0.238366127,-1.033597112
1792,1.55965422554e+18,0.7956410646,-0.1329898834,-0.8524744511
1793,1.5596542256e+18,0.7283055782,-0.06289386749,-0.5313296318
1794,1.55965422566e+18,0.9442119002,-0.08640289307,-0.542194128
1795,1.55965422572e+18,0.4115515947,-0.2505092621,0.08071923256
1796,1.55965422578e+18,-0.0725685358,-0.2120332718,0.1834907532
1797,1.55965422584e+18,0.5194671154,-0.3295841217,0.2677602768
1798,1.5596542259e+18,0.3125803173,-0.9245462418,0.4257853031
1799,1.55965422596e+18,0.6576436162,-0.3599815369,-0.1201441288
1800,1.55965422602e+18,0.6951483488,-0.2173728943,-0.7128572464
1801,1.55965422608e+18,0.2375963926,-0.1820659637,-0.5938336849
1802,1.55965422614e+18,-0.2981610298,-0.5712957382,-0.2829082012
1803,1.5596542262e+18,-0.01284635067,-0.5745983124,-0.1117081642
1804,1.55965422626e+18,-0.3469035625,-0.4719381332,-0.1681170464
1805,1.55965422632e+18,0.1047878265,-0.3991041183,-0.3163566589
1806,1.55965422638e+18,-0.4888203144,-0.1625962257,-0.179163456
1807,1.55965422644e+18,0.08392047882,0.3022623062,0.387597084
1808,1.5596542265e+18,-0.1383347511,0.459423542,0.4395484924
1809,1.55965422656e+18,-0.02985620499,1.183544636,1.31768322
1810,1.55965422662e+18,-0.01091909409,1.295144081,1.091732025
1811,1.55965422668e+18,-0.3269948959,1.374492168,0.9116668701
1812,1.55965422674e+18,-0.153342247,0.9476089478,0.03650760651
1813,1.5596542268e+18,-0.6078724861,-0.02963495255,-0.3229308128
1814,1.55965422686e+18,-1.227894306,-0.2719836235,-1.76307869
1815,1.55965422692e+18,-1.118453026,-1.272315979,-0.703166008
1816,1.55965422698e+18,-1.334301949,-0.9040284157,-3.045922756
1817,1.55965422704e+18,0.1335220337,-1.129981518,-1.431363106
1818,1.5596542271e+18,0.1637597084,-0.7192051411,-3.875387669
1819,1.55965422716e+18,0.3643836975,-3.36352706,-2.22176075
1820,1.55965422722e+18,-0.6503210068,-1.826206684,-1.732575178
1821,1.55965422728e+18,-1.894525528,-3.045855284,2.026446819
1822,1.55965422734e+18,-1.330254555,3.567216396,2.393464565
1823,1.5596542274e+18,2.302626133,4.490628242,3.269799709
1824,1.55965422746e+18,5.335360527,2.688500643,3.046607971
1825,1.55965422752e+18,-0.7534971237,-3.140274048,-2.561471701
1826,1.55965422758e+18,-0.8829936981,-1.385222435,-6.660648823
1827,1.55965422764e+18,1.315983295,-2.940070152,-0.1964068413
1828,1.5596542277e+18,-3.194069862,-0.2346448302,10.23604202
1829,1.55965422776e+18,-4.113877296,0.5974789858,6.134570599
1830,1.55965422782e+18,2.047572136,-2.059489489,0.5995101929
1831,1.55965422788e+18,-0.03463602066,-0.4764199257,-5.51257515
1832,1.55965422794e+18,6.0879426,-4.284218788,-5.051888466
1833,1.559654228e+18,4.127817154,-4.917507648,-3.897454023
1834,1.55965422806e+18,4.306441307,-2.789754391,-3.988494635
1835,1.55965422812e+18,5.312536716,2.042191029,-2.487019777
1836,1.55965422818e+18,10.06487083,11.88086987,0.3836479187
1837,1.55965422824e+18,18.47374725,30.17168045,-3.444849014
1838,1.5596542283e+18,13.62220764,8.583050728,6.84130621
1839,1.55965422836e+18,6.318219185,-54.75902176,-27.19583321
1840,1.55965422842e+18,-9.231638908,-29.52267075,-11.77326393
1841,1.55965422848e+18,9.388433456,-8.10458374,-8.486282349
1842,1.55965422854e+18,2.083241463,3.778985977,-14.57256603
1843,1.5596542286e+18,1.380373955,7.703846931,-6.669993401
1844,1.55965422866e+18,0.05418372154,6.547748566,-4.914732933
1845,1.55965422872e+18,0.0157186985,1.326795578,-1.900528908
1846,1.55965422878e+18,-1.165415525,-1.627322197,-1.193902493
1847,1.55965422884e+18,-0.5528216362,-2.327495575,-0.8927106857
1848,1.5596542289e+18,-0.08428835869,-2.534912586,-0.9906635284
1849,1.55965422896e+18,-0.5356333256,-1.31229496,-0.9967000484
1850,1.55965422902e+18,-0.2351639271,-2.505712509,-0.3416538239
1851,1.55965422908e+18,-1.968066931,-2.100472927,0.1689267159
1852,1.55965422914e+18,-3.101713657,-1.863503933,0.2640595436
1853,1.5596542292e+18,-2.084560394,-0.5028634071,0.3856945038
1854,1.55965422926e+18,-1.723671913,-0.3898515701,0.536134243
1855,1.55965422932e+18,-1.774231195,-0.5036382675,-0.3534579277
1856,1.55965422938e+18,-2.346230507,0.2659521103,-1.588729858
1857,1.55965422944e+18,-1.966330051,-0.6423587799,-1.611350536
1858,1.5596542295e+18,-1.192260265,-0.2617008686,-2.033944607
1859,1.55965422956e+18,-1.603877544,-0.8788716793,-1.178231716
1860,1.55965422962e+18,-1.472607613,-0.0654515028,-0.2100992203
1861,1.55965422968e+18,-0.5669155121,-0.9156780839,1.047226429
1862,1.55965422974e+18,-2.253042221,-1.309097648,1.002239227
1863,1.5596542298e+18,-0.6391820908,-1.232491016,0.9703998566
1864,1.55965422986e+18,-0.7330346107,-1.115859389,0.5552830696
1865,1.55965422992e+18,-0.4215078354,-1.55015111,0.001029491425
1866,1.55965422998e+18,-0.7053151131,-1.109004974,-0.2597312927
1867,1.55965423004e+18,-0.3001823425,-0.5938689709,-0.6141805649
1868,1.5596542301e+18,0.357257843,-0.02015566826,-0.6970806122
1869,1.55965423016e+18,0.1073861122,-0.1700389385,-0.7166700363
1870,1.55965423022e+18,-0.4050812721,-0.6995244026,-0.6948699951
1871,1.55965423028e+18,0.025847435,-0.3097865582,-0.3136787415
1872,1.55965423034e+18,1.930239201,0.7317657471,-0.8301839828
1873,1.5596542304e+18,2.385088444,0.4229924679,0.1645326614
1874,1.55965423046e+18,0.4724974632,0.6278562546,-0.5295095444
1875,1.55965423052e+18,0.2125816345,-0.7624821663,0.9781031609
1876,1.55965423058e+18,0.1073799133,-1.330811501,2.177150726
1877,1.55965423064e+18,-0.7059402466,-1.236048222,0.7973098755
1878,1.5596542307e+18,-1.552241325,-1.2252388,-0.2549514771
1879,1.55965423075e+18,-1.179909706,-0.9835119247,-0.7914862633
1880,1.55965423081e+18,-0.4386062622,0.0249581337,-0.1778841019
1881,1.55965423087e+18,-0.4427666664,0.6116862297,0.4839081764
1882,1.55965423093e+18,-0.2784948349,0.689027071,0.5820131302
1883,1.55965423099e+18,0.5828471184,0.5352489948,-0.3157601357
1884,1.55965423105e+18,-0.4412088394,-0.8573460579,-0.772977829
1885,1.55965423111e+18,0.9606733322,-0.4131529331,-0.851126194
1886,1.55965423117e+18,-1.22201395,-0.5742990971,-1.478436947
1887,1.55965423123e+18,-0.1042861938,-1.451239109,-0.1617298126
1888,1.55965423129e+18,0.02288627625,-1.644872665,-0.2438793182
1889,1.55965423135e+18,0.273223877,-2.212828159,-0.8839097023
1890,1.55965423141e+18,-0.1811084747,-4.020740509,-2.142492056
1891,1.55965423147e+18,-0.1266508102,-5.280249596,-4.146232128
1892,1.55965423153e+18,-0.101026535,-3.171564341,-6.365522385
1893,1.55965423159e+18,-0.01454162598,-1.351453543,6.203622341
1894,1.55965423165e+18,-7.593186378,2.041095972,4.76386261
1895,1.55965423171e+18,-3.039498329,1.850509405,8.364341736
1896,1.55965423177e+18,-4.610110283,-0.6418691874,7.98185873
1897,1.55965423183e+18,1.587157249,-0.8305211067,-0.8974299431
1898,1.55965423189e+18,-0.1042280197,-0.4961426258,-7.144094467
1899,1.55965423195e+18,4.557080746,-1.719809294,-7.03076601
1900,1.55965423201e+18,1.890428305,-4.861673355,-4.58320713
1901,1.55965423207e+18,4.352918625,-5.03194952,-2.224557877
1902,1.55965423213e+18,5.168869495,-1.183751583,-2.252858162
1903,1.55965423219e+18,5.968129158,4.182440758,-3.13868165
1904,1.55965423225e+18,14.69491768,22.22169495,-1.86452198
1905,1.55965423231e+18,17.13018417,26.14425659,-2.64736867
1906,1.55965423237e+18,6.253958702,1.353357315,15.11419868
1907,1.55965423243e+18,-11.49232197,-33.35909271,7.001381397
1908,1.55965423249e+18,10.81851482,-18.19574738,-7.808261871
1909,1.55965423255e+18,1.55913794,-10.6043129,-3.369166374
1910,1.55965423261e+18,2.031712294,1.229487419,-14.45367336
1911,1.55965423267e+18,-1.603618622,4.380389214,-6.416090965
1912,1.55965423273e+18,1.327469826,6.189808846,-8.696539879
1913,1.55965423279e+18,0.8014655113,1.581411362,-3.678226471
1914,1.55965423285e+18,1.177581787,0.549788475,-3.577976227
1915,1.55965423291e+18,-0.5576863289,-0.5304293633,-3.326260567
1916,1.55965423297e+18,-0.6494040489,-0.8223080635,-1.686797023
1917,1.55965423303e+18,-0.6250400543,-1.455102444,-0.8217065334
1918,1.55965423309e+18,-1.571827412,-1.953351498,-0.2173453271
1919,1.55965423315e+18,-1.838255644,-0.5751924515,0.1842131615
1920,1.55965423321e+18,-2.125262737,0.2188520432,0.4515106678
1921,1.55965423327e+18,-1.760518074,0.5507059097,1.671596527
1922,1.55965423333e+18,-1.036351442,0.1513948441,1.343788624
1923,1.55965423339e+18,-1.506093144,-0.1696453094,0.6407399178
1924,1.55965423345e+18,-2.529093266,-0.1647882462,-0.6197834015
1925,1.55965423351e+18,-1.902924061,-0.6341567039,-0.6727972031
1926,1.55965423357e+18,-2.434213161,-0.5616378784,-0.5472326279
1927,1.55965423363e+18,-1.508830786,0.1855840683,1.06285429
1928,1.55965423369e+18,-1.316152096,0.3786435127,0.8603467941
1929,1.55965423375e+18,-0.2197329998,0.09618711472,1.350775719
1930,1.55965423381e+18,-0.3018789291,0.7550058365,-0.5427732468
1931,1.55965423387e+18,-0.3326468468,-0.0904250145,0.2580971718
1932,1.55965423393e+18,-0.6587696075,-0.1203775406,-0.2847862244
1933,1.55965423399e+18,-1.527588844,-0.4985117912,-0.35505867
1934,1.55965423405e+18,-1.048518658,-0.5879311562,-0.3287568092
1935,1.55965423411e+18,-0.5643897057,-0.3148441315,-0.5761771202
1936,1.55965423417e+18,-0.03443193436,-0.3552322388,-0.7076864243
1937,1.55965423423e+18,0.1051368713,-0.5834112167,-0.3744683266
1938,1.55965423429e+18,-0.6257944107,-0.5354013443,-0.57843256
1939,1.55965423435e+18,-0.3847718239,-0.4499568939,-0.5642023087
1940,1.55965423441e+18,0.3559179306,-0.03924751282,-1.494748116
1941,1.55965423447e+18,2.443065166,0.7289614677,-2.745183468
1942,1.55965423453e+18,2.259442329,0.7343435287,-3.888288736
1943,1.55965423459e+18,1.317094803,-0.8049383163,-1.687708378
1944,1.55965423465e+18,0.4223012924,-0.8545428514,-0.1069946289
1945,1.55965423471e+18,0.7377324104,-2.116310596,1.614177704
1946,1.55965423477e+18,-2.506280422,-2.751773596,1.800621986
1947,1.55965423483e+18,0.2383847237,-2.229336262,1.869584084
1948,1.55965423489e+18,-0.2586560249,-1.682877064,1.543606758
1949,1.55965423495e+18,0.3002419472,-1.012401342,1.172103882
1950,1.55965423501e+18,-0.06614351273,-0.8712279797,0.4656791687
