,Time (s),Linear Acceleration x (m/s^2),Linear Acceleration y (m/s^2),Linear Acceleration z (m/s^2)
0,1.55965472006e+18,0.04627811909,0.6519870758,0.3243246078
1,1.55965472012e+18,0.6251196861,0.5716917515,0.2175273895
2,1.55965472018e+18,1.859863281,0.4528156817,0.1134128571
3,1.55965472024e+18,4.310455322,0.3326624334,0.3845071793
4,1.5596547203e+18,5.550298691,0.3815477192,0.7802639008
5,1.55965472036e+18,4.912433624,0.8485754728,0.6013431549
6,1.55965472042e+18,1.724145651,3.225186348,3.209496498
7,1.55965472048e+18,2.491020203,3.45497942,1.177085876
8,1.55965472054e+18,-0.3628315926,1.81002593,1.180182457
9,1.5596547206e+18,-0.2149238586,0.8602549434,-0.9208374023
10,1.55965472066e+18,-4.615810394,-6.588469505,0.5453519821
11,1.55965472072e+18,-3.759490013,5.648921013,-6.610519409
12,1.55965472078e+18,3.704740524,2.368247986,-8.462379456
13,1.55965472084e+18,8.2592659,2.420326233,-21.64596558
14,1.5596547209e+18,-3.62376833,4.884689331,-10.83546734
15,1.55965472096e+18,-3.735202789,-7.065652847,10.85103416
16,1.55965472102e+18,-7.170804501,-14.94575405,8.302330017
17,1.55965472108e+18,-1.818633556,-0.8432326317,6.904239178
18,1.55965472114e+18,-4.992877007,1.945414543,7.072969913
19,1.5596547212e+18,-5.869318485,2.943342924,5.266691208
20,1.55965472126e+18,-6.99922657,0.5090990067,2.496747971
21,1.55965472132e+18,-3.859738111,2.469317436,1.545829773
22,1.55965472138e+18,-0.5081243515,3.684128523,-2.644374847
23,1.55965472144e+18,0.1150436401,0.1561837196,-7.882462025
24,1.5596547215e+18,-2.984836102,-7.976264954,-2.431083679
25,1.55965472156e+18,-4.667000771,-5.067903519,-20.4982872
26,1.55965472162e+18,8.064127922,-2.462706089,-22.71967316
27,1.55965472168e+18,0.07610702515,-0.5702595711,2.003876686
28,1.55965472174e+18,-0.9542081356,-7.955723763,8.039064407
29,1.5596547218e+18,5.121580601,-6.53487587,24.29053307
30,1.55965472186e+18,-3.688884974,-2.493882179,12.42865467
31,1.55965472192e+18,-3.974141598,-0.4088506699,12.26952457
32,1.55965472198e+18,-3.917721748,0.1757984161,8.976653099
33,1.55965472204e+18,-2.620707512,8.390039444,12.82776642
34,1.5596547221e+18,-4.214828491,3.575196743,0.8874918222
35,1.55965472216e+18,1.765582085,3.268712521,-6.600289345
36,1.55965472222e+18,4.53484869,0.7175768018,-1.151456356
37,1.55965472228e+18,5.393726826,-0.1165359616,-9.678178787
38,1.55965472234e+18,18.37741852,2.564118385,-16.08666992
39,1.5596547224e+18,3.338022709,0.2070329189,-0.8728666306
40,1.55965472246e+18,11.53173161,1.420831442,-1.367110968
41,1.55965472252e+18,6.481057167,-10.46983433,9.142739296
42,1.55965472258e+18,-1.697511673,-14.43494606,17.5140667
43,1.55965472264e+18,-4.510727882,-5.930980682,8.85134697
44,1.5596547227e+18,-3.536931992,-1.431940794,8.852845192
45,1.55965472276e+18,1.39793396,-0.8615796566,7.20806694
46,1.55965472282e+18,1.56294775,1.157318592,4.280607224
47,1.55965472288e+18,-1.653177261,0.6833001971,2.364844322
48,1.55965472294e+18,0.3861865997,-3.343741655,-4.190907478
49,1.559654723e+18,4.691726685,-4.611581326,-3.148796558
50,1.55965472306e+18,8.91132164,-7.508724213,3.447171211
51,1.55965472312e+18,5.151913166,-9.390709877,-20.34318161
52,1.55965472318e+18,13.01265907,-7.924671173,-15.17699718
53,1.55965472324e+18,-2.183080196,-8.215515137,5.279261589
54,1.5596547233e+18,8.899765015,-15.85680008,10.10673332
55,1.55965472336e+18,4.438249111,-6.907907009,26.66091537
56,1.55965472342e+18,-2.096551895,-3.709042072,19.72921562
57,1.55965472348e+18,-6.540407181,-0.4417514801,14.37130547
58,1.55965472354e+18,-6.493873119,1.986063957,7.443055153
59,1.5596547236e+18,-2.060394287,-2.801026344,2.262291431
60,1.55965472366e+18,-1.626000404,-10.16647816,-2.106189728
61,1.55965472372e+18,4.50549221,-4.779836178,-4.415546417
62,1.55965472378e+18,8.633916855,5.79541111,-8.605863571
63,1.55965472384e+18,10.65019226,10.60767269,-22.18102837
64,1.5596547239e+18,16.61852837,6.816683292,-2.566674709
65,1.55965472396e+18,9.502658844,8.963580132,2.123468161
66,1.55965472402e+18,-2.115169525,-4.405179024,14.14236069
67,1.55965472408e+18,-3.037804127,-18.56177902,23.11330795
68,1.55965472414e+18,-12.53210831,-11.03028679,15.76383209
69,1.5596547242e+18,-12.42316818,-0.2612190247,13.42765999
70,1.55965472426e+18,-10.06381607,3.211404324,12.52050018
71,1.55965472432e+18,-5.100622177,4.520469666,10.2288847
72,1.55965472438e+18,-1.444832087,8.743035316,6.689373016
73,1.55965472444e+18,-0.7859740257,5.825544357,1.605956078
74,1.5596547245e+18,-1.826843262,4.036076069,-5.309288502
75,1.55965472456e+18,3.728049517,1.860876322,-6.102164745
76,1.55965472462e+18,1.328211546,0.1291594505,-21.946064
77,1.55965472468e+18,14.29034424,10.78808022,-6.054950714
78,1.55965472474e+18,-3.53137064,3.164378643,2.519380569
79,1.5596547248e+18,-1.322626352,-22.58680725,28.41049767
80,1.55965472486e+18,-5.419242382,-4.59442997,25.52139664
81,1.55965472492e+18,-11.69458485,5.660000801,15.02833939
82,1.55965472498e+18,-11.27109241,3.294126034,14.31540012
83,1.55965472504e+18,-6.673270226,3.551034927,10.28948212
84,1.5596547251e+18,-2.455327272,7.686553001,8.97394371
85,1.55965472516e+18,-1.641660213,5.979930878,0.1378815174
86,1.55965472522e+18,-1.594205379,2.656746387,-3.700681448
87,1.55965472528e+18,-1.192049503,3.360096931,-9.928796768
88,1.55965472534e+18,13.71029091,3.629570961,-4.796242714
89,1.5596547254e+18,8.860774994,7.039616108,-23.19271278
90,1.55965472546e+18,7.674888134,8.060659409,-1.743702292
91,1.55965472552e+18,5.431569576,1.358240604,11.50393391
92,1.55965472558e+18,1.1306113,-25.44854927,39.15258026
93,1.55965472564e+18,-9.242760658,-6.421007156,18.64627075
94,1.5596547257e+18,-13.56712055,6.976547241,12.45154953
95,1.55965472576e+18,-9.136831284,1.837557793,13.54070473
96,1.55965472582e+18,-5.558476925,5.232645035,5.925153732
97,1.55965472588e+18,0.3111863136,6.828839302,3.176960945
98,1.55965472594e+18,4.131502151,6.838306904,-0.1683790684
99,1.559654726e+18,0.7440605164,2.581343651,5.496360302
100,1.55965472606e+18,-0.3201947212,5.869954109,-14.03538704
101,1.55965472612e+18,11.23417091,2.1241436,-15.3068943
102,1.55965472618e+18,8.073915482,8.017450333,-6.10638237
103,1.55965472624e+18,5.059747696,4.90041256,-2.173077345
104,1.5596547263e+18,6.632219315,-24.06458282,25.98472023
105,1.55965472636e+18,-3.363885403,-6.08370018,24.426754
106,1.55965472642e+18,-8.239774704,2.919007301,15.42873573
107,1.55965472648e+18,-6.969796181,3.008329391,12.46937084
108,1.55965472654e+18,-1.614789009,2.59620285,7.73335743
109,1.5596547266e+18,1.173048973,3.995600224,4.165336132
110,1.55965472666e+18,4.57491684,7.938930988,5.513467789
111,1.55965472672e+18,3.70933485,5.804556847,1.069178581
112,1.55965472678e+18,-1.894715786,5.539925575,0.1629452705
113,1.55965472684e+18,7.899950027,1.054438114,-12.7148819
114,1.5596547269e+18,5.752650261,-1.283181667,-8.323539734
115,1.55965472696e+18,9.253601074,6.365420341,-15.92256641
116,1.55965472702e+18,-0.5051851273,0.1347990036,10.98115826
117,1.55965472708e+18,5.551283836,-20.00484085,19.56891441
118,1.55965472714e+18,-2.705833435,-4.289312363,18.2510128
119,1.5596547272e+18,-7.232213974,2.953300476,12.85894585
120,1.55965472726e+18,-5.387630463,0.5526285172,12.49174786
121,1.55965472732e+18,-4.217181206,-0.82305336,6.794919014
122,1.55965472738e+18,2.48555851,1.457032681,3.181330442
123,1.55965472744e+18,4.572393417,5.784133434,-0.9869861603
124,1.5596547275e+18,1.890208244,4.324028969,-4.639693737
125,1.55965472756e+18,3.846903324,5.765739918,-5.231545925
126,1.55965472762e+18,12.14812851,0.07479044795,-18.47234535
127,1.55965472768e+18,10.7848835,4.667135715,-14.56435013
128,1.55965472774e+18,6.757834435,2.926926613,-6.761325836
129,1.5596547278e+18,0.1114063263,-8.8455019,17.70493507
130,1.55965472786e+18,-3.191216469,-17.49513817,28.12192917
131,1.55965472792e+18,-7.934051514,-4.05037117,12.8411274
132,1.55965472798e+18,-8.66527462,4.999519348,10.09120941
133,1.55965472804e+18,-4.267964363,1.610852718,10.57406425
134,1.5596547281e+18,-2.10329628,2.332152367,6.554835796
135,1.55965472816e+18,1.967784405,3.541696787,1.917290211
136,1.55965472822e+18,1.456953049,2.928820133,-1.61148572
137,1.55965472828e+18,6.473006248,1.871318817,-4.024549484
138,1.55965472834e+18,5.772835732,0.5547776222,-10.02230358
139,1.5596547284e+18,10.63208103,-0.515987277,-6.299064636
140,1.55965472846e+18,8.343369484,1.124894857,-14.2698822
141,1.55965472852e+18,4.896659374,2.332448006,1.104742527
142,1.55965472858e+18,7.914230824,-2.825894833,10.09405708
143,1.55965472864e+18,-4.108268738,-8.902601242,22.66077232
144,1.5596547287e+18,-5.655405521,3.191618443,13.60729885
145,1.55965472876e+18,-5.601790428,2.434191227,9.710783958
146,1.55965472882e+18,-0.5101943016,2.946475744,5.39396286
147,1.55965472888e+18,2.371282578,3.371732235,1.450032949
148,1.55965472894e+18,4.172796726,3.355613947,1.039549351
149,1.559654729e+18,1.31448555,3.925252438,-1.045907974
150,1.55965472906e+18,2.282904625,3.052296638,-2.298864603
151,1.55965472912e+18,0.8343806267,-0.4332191348,7.396152973
152,1.55965472918e+18,6.918288231,-6.401396275,-17.35109329
153,1.55965472924e+18,11.19579506,-4.504754066,-6.954262733
154,1.5596547293e+18,7.737767696,3.672899723,-7.900195122
155,1.55965472936e+18,10.10378456,-10.39415359,11.67463493
156,1.55965472942e+18,-1.701284885,-15.69577217,23.33068085
157,1.55965472948e+18,-5.399114132,0.03186988831,11.14746094
158,1.55965472954e+18,-6.010269642,2.429976463,10.02480888
159,1.5596547296e+18,-2.075546741,2.430199623,8.82550621
160,1.55965472966e+18,-0.117538929,4.121378422,4.592923641
161,1.55965472972e+18,3.529095173,4.562963486,4.16452837
162,1.55965472978e+18,0.8148508072,2.565972805,-0.655049324
163,1.55965472984e+18,2.716766834,2.197562218,-3.838813305
164,1.5596547299e+18,2.792282581,-0.4303515553,-6.06825304
165,1.55965472996e+18,5.938646317,-3.046879292,-10.18659115
166,1.55965473002e+18,11.715168,-0.3845582604,-12.76991463
167,1.55965473008e+18,6.468585968,4.284321785,-11.13623238
168,1.55965473014e+18,0.4206342697,-4.490394115,13.29201984
169,1.5596547302e+18,-7.024833679,-12.29448795,21.53654099
170,1.55965473026e+18,-4.795460701,0.7521939278,13.57002449
171,1.55965473032e+18,-3.932426929,2.633110046,8.15154171
172,1.55965473038e+18,-2.912301064,2.022031784,6.177932739
173,1.55965473044e+18,-0.9288425446,0.7089080811,2.242246628
174,1.5596547305e+18,1.750624657,1.592720985,2.311953545
175,1.55965473056e+18,1.810658455,-1.62984705,-0.9579820633
176,1.55965473062e+18,3.275169134,-1.930439591,-5.033891201
177,1.55965473068e+18,7.375424862,4.141504288,-6.216048717
178,1.55965473074e+18,7.775763035,1.49481082,-12.56333542
179,1.5596547308e+18,6.308716297,3.422214031,-0.6964035034
180,1.55965473086e+18,-0.5382180214,2.422283411,0.5267543793
181,1.55965473092e+18,-3.653513432,-4.5616045,12.99648285
182,1.55965473098e+18,-5.129108429,-1.23385334,10.21341705
183,1.55965473104e+18,-3.08628273,1.110831261,6.630230427
184,1.5596547311e+18,-2.91055727,1.54382515,4.208248138
185,1.55965473116e+18,-0.6009674072,1.736078739,1.250767231
186,1.55965473122e+18,0.9429554939,2.754623413,0.8179426193
187,1.55965473128e+18,3.581691742,7.3349967,-0.5600190163
188,1.55965473134e+18,2.451218605,2.979369879,-1.8690238
189,1.5596547314e+18,-2.129529953,-5.338836193,-6.647292137
190,1.55965473146e+18,2.597584248,-8.645088196,-18.18115425
191,1.55965473152e+18,7.465330124,0.7480473518,-11.37615681
192,1.55965473158e+18,5.063698292,6.028373241,-3.468806028
193,1.55965473164e+18,3.127217531,-27.54813957,8.516283035
194,1.5596547317e+18,-1.948675394,-5.398176193,14.64548397
195,1.55965473176e+18,-4.108374596,3.926127911,9.031920433
196,1.55965473182e+18,-5.986172676,1.211585999,8.57569313
197,1.55965473188e+18,-5.109622478,1.109929562,5.374630451
198,1.55965473194e+18,-0.9917263985,1.217068672,4.163818359
199,1.559654732e+18,2.693604946,2.349263191,1.228833675
200,1.55965473206e+18,-1.352404118,-1.853132963,-3.609760284
201,1.55965473212e+18,3.856692553,-1.11565876,-2.590298653
202,1.55965473218e+18,3.462496519,-2.347816706,-12.41573143
203,1.55965473224e+18,15.61034584,6.413778782,-22.72015762
204,1.5596547323e+18,6.541399479,1.463320136,-3.408397198
205,1.55965473236e+18,-0.5548009872,-14.42532063,14.19937515
206,1.55965473242e+18,2.612088442,-9.454511642,22.25108147
207,1.55965473248e+18,0.7934956551,1.096659184,13.65510941
208,1.55965473254e+18,-3.923156261,1.185434341,9.182164192
209,1.5596547326e+18,-2.861135006,2.244138241,9.130080223
210,1.55965473266e+18,-0.04028940201,0.7680568695,7.450679779
211,1.55965473272e+18,2.161368847,0.5012254715,1.4319942
212,1.55965473278e+18,4.187517166,0.9288728237,-0.3175640106
213,1.55965473284e+18,3.920892,2.77349925,-0.9984970093
214,1.5596547329e+18,9.921954155,1.41023612,-21.82827187
215,1.55965473296e+18,12.36510944,5.517337799,-11.46679688
216,1.55965473302e+18,5.497704029,1.917978525,0.3577368259
217,1.55965473308e+18,1.439493656,-10.42217064,8.443914413
218,1.55965473314e+18,-3.641559124,-17.9409523,24.91067505
219,1.5596547332e+18,-5.986176014,0.09043502808,14.65559387
220,1.55965473326e+18,-7.288761616,2.057174683,11.07396984
221,1.55965473332e+18,-3.32074213,1.155075073,10.4168005
222,1.55965473338e+18,-6.586249352,1.536341667,6.436402321
223,1.55965473344e+18,-1.399032593,0.4402990341,-3.379564762
224,1.5596547335e+18,6.163510323,-0.1071872711,-1.182032824
225,1.55965473356e+18,5.636445999,0.4320800602,-1.451190352
226,1.55965473362e+18,12.26086235,-2.815712929,-2.081350327
227,1.55965473368e+18,18.79993439,-1.077077508,-8.499209404
228,1.55965473374e+18,16.63456154,-5.410310745,-11.05593681
229,1.5596547338e+18,5.378318787,-8.852830887,7.174022675
230,1.55965473386e+18,9.368789673,-14.60760593,8.289546013
231,1.55965473392e+18,-1.748811722,-15.82265472,18.89289856
232,1.55965473398e+18,-3.583852291,-0.6832575798,11.84857178
233,1.55965473404e+18,-4.901172638,-1.014951229,13.487257
234,1.5596547341e+18,-0.98133564,-0.7313742638,7.130828381
235,1.55965473416e+18,2.484282017,2.126396656,4.162451744
236,1.55965473422e+18,5.317115784,1.12019372,2.240960836
237,1.55965473428e+18,2.62082386,-3.703192472,-2.565017462
238,1.55965473434e+18,5.878539085,-0.4510366917,-3.194826126
239,1.5596547344e+18,3.589190483,-1.588811398,-19.56909943
240,1.55965473446e+18,11.76158714,3.960106373,-5.392988205
241,1.55965473452e+18,5.019629478,5.21625042,3.165601015
242,1.55965473458e+18,-1.658419609,-1.654838562,15.33965778
243,1.55965473464e+18,-6.861680984,-15.72398281,24.00818062
244,1.5596547347e+18,-8.90945816,-0.7606182098,15.05566597
245,1.55965473476e+18,-7.355607986,1.064203739,10.95248222
246,1.55965473482e+18,-6.128694534,-1.171055794,10.64847279
247,1.55965473488e+18,-4.827888012,-0.5041546822,3.286128759
248,1.55965473494e+18,3.183405876,4.435872078,1.533759117
249,1.559654735e+18,4.555103779,7.456987381,0.3429067135
250,1.55965473506e+18,4.787149429,3.988553524,-3.161016464
251,1.55965473512e+18,7.505688667,0.9162380695,-2.022512197
252,1.55965473518e+18,14.79020977,2.343273401,-18.25576591
253,1.55965473524e+18,9.543887138,-0.5645525455,-0.8744709492
254,1.5596547353e+18,10.09058762,1.067983389,-0.9695730209
255,1.55965473536e+18,6.719892025,-17.32277107,5.133696079
256,1.55965473542e+18,-1.46148777,-18.74295616,21.19017601
257,1.55965473548e+18,-3.565012455,-6.160550117,12.0297718
258,1.55965473554e+18,-5.536381245,1.631097317,10.98194504
259,1.5596547356e+18,-4.597788811,1.467006683,6.582842827
260,1.55965473566e+18,-1.042866707,1.202421665,4.768696785
261,1.55965473572e+18,3.321587086,2.505179167,0.284727335
262,1.55965473578e+18,3.059987068,0.8076122999,-1.918954968
263,1.55965473584e+18,4.740516663,-1.955506921,-6.476853371
264,1.5596547359e+18,14.70949364,0.2998299599,-9.662330627
265,1.55965473596e+18,16.33950615,-2.343071222,-8.567399979
266,1.55965473602e+18,13.6742363,-2.38346529,-2.542497158
267,1.55965473608e+18,-2.265846252,-21.25392723,9.158464432
268,1.55965473614e+18,1.219076633,-20.43745995,19.07265091
269,1.5596547362e+18,0.3372840881,-7.942084312,12.39705181
270,1.55965473626e+18,1.436315536,-4.037264824,9.544289589
271,1.55965473632e+18,2.246783257,-2.537695169,7.415939331
272,1.55965473638e+18,-0.8743333817,-0.3954629898,5.499792099
273,1.55965473644e+18,3.607906818,-3.101935148,3.770796061
274,1.5596547365e+18,7.283782959,-3.875687122,2.273696899
275,1.55965473656e+18,6.259391785,-2.063715219,-0.7786860466
276,1.55965473662e+18,10.13545227,-1.579777956,-18.58498192
277,1.55965473668e+18,9.120182037,1.583952188,-6.70929718
278,1.55965473674e+18,8.412592888,-0.284332037,9.809751511
279,1.5596547368e+18,3.073692799,-8.574640274,6.800603867
280,1.55965473686e+18,-14.93446541,-11.44095421,12.95619774
281,1.55965473692e+18,-4.830040455,-2.962688923,15.93541813
282,1.55965473698e+18,-4.43199873,0.2532687187,9.517971039
283,1.55965473704e+18,-2.203213692,0.4331908226,6.312401772
284,1.5596547371e+18,-0.08103561401,-0.6635341644,0.187399745
285,1.55965473716e+18,4.156715393,-0.975363493,-0.5578597784
286,1.55965473722e+18,3.787451267,-1.669184566,-1.981820822
287,1.55965473728e+18,6.252763748,-2.192242622,-9.905115128
288,1.55965473734e+18,6.988716125,4.701031208,-3.283479214
289,1.5596547374e+18,20.19708633,5.814818382,-17.95362473
290,1.55965473746e+18,14.64800644,2.898248911,1.808325291
291,1.55965473752e+18,-2.987912178,-7.661548615,10.46692467
292,1.55965473758e+18,2.814126492,-17.53433609,16.57252884
293,1.55965473764e+18,-4.652062416,-8.662494659,8.40397644
294,1.5596547377e+18,-1.195634365,-0.4801425934,7.340728283
295,1.55965473776e+18,0.492108345,-2.189334869,5.582456589
296,1.55965473782e+18,2.83024025,-1.83910203,5.390316963
297,1.55965473788e+18,2.993265152,-2.907679319,6.334332466
298,1.55965473794e+18,3.28499794,-2.921574116,3.842176914
299,1.559654738e+18,0.0787153244,2.771042824,-10.81487656
300,1.55965473806e+18,18.9978714,-0.4589914083,-21.6134491
301,1.55965473812e+18,11.19157124,-1.002446055,-14.82937622
302,1.55965473818e+18,6.255088806,-2.79052639,-2.535107613
303,1.55965473824e+18,0.580373764,-13.20325089,11.36586857
304,1.5596547383e+18,2.421627998,-19.04551506,20.05254555
305,1.55965473836e+18,-0.5192193985,-6.325182915,10.62425613
306,1.55965473842e+18,-1.380784035,-3.000297546,6.747803688
307,1.55965473848e+18,1.149474144,-4.35471344,5.663374901
308,1.55965473854e+18,2.793872356,-2.062075377,2.929242134
309,1.5596547386e+18,3.224679947,0.4521166086,0.2190930843
310,1.55965473866e+18,3.80288744,-0.06288361549,-1.668143272
311,1.55965473872e+18,4.009894371,-3.438989878,-2.647752762
312,1.55965473878e+18,3.45091629,-7.94148922,0.5916757584
313,1.55965473884e+18,12.46579361,-7.604270935,-17.67847633
314,1.5596547389e+18,8.492575645,-2.777280569,-5.320440292
315,1.55965473896e+18,8.689609528,-13.52270412,7.926194191
316,1.55965473902e+18,-3.386081219,-18.67123413,16.55376816
317,1.55965473908e+18,-2.766635418,-2.906123161,13.19544888
318,1.55965473914e+18,-3.593852997,0.2179951668,12.54809284
319,1.5596547392e+18,-4.809305191,-1.989206791,6.757957458
320,1.55965473926e+18,-0.4160985947,-1.575152397,2.330006123
321,1.55965473932e+18,0.8835468292,-8.25825882,-3.070935965
322,1.55965473938e+18,4.109409809,-4.913442612,-4.806394577
323,1.55965473944e+18,6.762563705,2.038946152,-6.512166023
324,1.5596547395e+18,20.76439667,2.652905703,-12.70314789
325,1.55965473956e+18,18.93582916,4.957439899,-14.07950592
326,1.55965473962e+18,5.637716293,1.729490995,-1.164973259
327,1.55965473968e+18,-2.999162197,-22.60463524,1.549016953
328,1.55965473974e+18,-5.357156754,-20.42281723,18.31607437
329,1.5596547398e+18,-0.9507222176,-2.552986622,5.142416954
330,1.55965473986e+18,-0.5828065872,0.4817786217,5.56648922
331,1.55965473992e+18,-0.8701257706,-0.8867502213,2.217446804
332,1.55965473998e+18,3.31437397,-3.630237103,0.4810562134
333,1.55965474004e+18,5.229060173,-0.521469593,-1.736248493
334,1.5596547401e+18,-0.7086906433,0.7156274319,3.035435677
335,1.55965474016e+18,8.149044991,-0.8014267683,-25.95276642
336,1.55965474022e+18,5.331919193,-0.2123492658,-6.302549839
337,1.55965474028e+18,7.24232769,1.853778601,-9.313558578
338,1.55965474034e+18,-3.629566193,-6.15858984,9.946563721
339,1.5596547404e+18,1.542192698,-22.42343521,22.57287216
340,1.55965474046e+18,-3.027081728,-2.516309738,10.5703392
341,1.55965474052e+18,-2.734579563,0.6193771362,8.442186356
342,1.55965474058e+18,-2.362539291,-1.35244751,7.936692238
343,1.55965474064e+18,0.1929235458,-0.4610514641,5.539043427
344,1.5596547407e+18,0.6053929329,1.421737194,0.9701163769
345,1.55965474076e+18,3.154552937,0.9674642086,-0.539525032
346,1.55965474082e+18,4.421537399,0.5131186843,-6.584909439
347,1.55965474088e+18,8.72926712,0.472704947,-6.736101151
348,1.55965474094e+18,9.687349319,3.770447731,-11.7227478
349,1.559654741e+18,11.56543541,1.628973961,-12.28233719
350,1.55965474106e+18,5.87849474,0.4868381023,2.419739723
351,1.55965474112e+18,-0.9231228828,-27.10804939,7.376503468
352,1.55965474118e+18,-3.050675869,-14.4411993,16.548769
353,1.55965474124e+18,-1.398694515,-1.682123184,9.126648903
354,1.5596547413e+18,-1.729091167,-0.5054192543,8.444881439
355,1.55965474136e+18,-1.589076996,-2.778305054,4.467756271
356,1.55965474142e+18,-1.227142334,-1.181932211,2.476836205
357,1.55965474148e+18,2.956653595,-0.6819047928,-1.751206875
358,1.55965474154e+18,1.800926685,0.6499290466,-3.941814423
359,1.5596547416e+18,11.61542988,-0.8460187912,-3.351077318
360,1.55965474166e+18,12.50300026,0.161128521,-11.64981174
361,1.55965474172e+18,14.58541393,-2.398198128,-5.929499149
362,1.55965474178e+18,6.676374435,0.4096784592,-0.4850850105
363,1.55965474184e+18,12.16569519,-3.785160065,-8.303070068
364,1.5596547419e+18,-3.358903408,-26.61341476,20.74817657
365,1.55965474196e+18,-3.640900612,-13.02040768,9.373750687
366,1.55965474201e+18,-4.725203514,-3.996177673,7.004163265
367,1.55965474207e+18,-2.612495422,-1.759480953,6.286163807
368,1.55965474213e+18,1.818827629,-0.5094547272,3.246409416
369,1.55965474219e+18,-0.447063446,0.4668016732,1.941203356
370,1.55965474225e+18,8.222175598,-0.5532778502,-3.030888319
371,1.55965474231e+18,3.919485569,3.371604681,-3.921828985
372,1.55965474237e+18,3.665031433,-0.149532795,-3.46960783
373,1.55965474243e+18,4.618904114,-3.886651993,-5.500410557
374,1.55965474249e+18,16.85123825,-3.665449619,-5.572967529
375,1.55965474255e+18,11.44318485,-3.808162212,-2.676318884
376,1.55965474261e+18,7.774329185,-5.892618656,4.476421833
377,1.55965474267e+18,-8.574960709,-27.78197098,21.20131111
378,1.55965474273e+18,-7.462161064,-4.804478645,9.428440094
379,1.55965474279e+18,-6.084366798,0.0239648819,8.843402863
380,1.55965474285e+18,-0.5678758621,-0.9355220795,5.714353085
381,1.55965474291e+18,0.9042339325,-1.263228416,3.441290379
382,1.55965474297e+18,0.7676763535,3.409687519,0.7853882313
383,1.55965474303e+18,5.536729813,0.04244112968,-0.2043135166
384,1.55965474309e+18,3.352952957,-6.22662735,1.796209335
385,1.55965474315e+18,-3.38481617,-7.30977726,0.08057975769
386,1.55965474321e+18,8.716107368,-7.507109642,-10.73321056
387,1.55965474327e+18,6.806799889,-9.076097488,-11.83950233
388,1.55965474333e+18,12.04831505,2.881960392,-11.04183006
389,1.55965474339e+18,5.662531853,-5.509600639,10.99147129
390,1.55965474345e+18,3.206202269,-22.69238472,23.48746109
391,1.55965474351e+18,-6.759196758,-4.006659508,16.00400162
392,1.55965474357e+18,-10.42947865,3.182463169,9.043162346
393,1.55965474363e+18,-4.594512939,1.326934338,8.218888283
394,1.55965474369e+18,-2.791970253,-1.652802944,1.267093897
395,1.55965474375e+18,4.680611134,-0.2973034382,0.5014326572
396,1.55965474381e+18,5.696880341,-0.6432720423,-0.4843609333
397,1.55965474387e+18,3.414322853,-2.308248281,-2.631040096
398,1.55965474393e+18,5.35848999,-1.389985323,1.348419666
399,1.55965474399e+18,7.336501122,-1.678599,-15.33123398
400,1.55965474405e+18,22.52728844,0.6551434994,12.63214207
401,1.55965474411e+18,6.134759903,-0.06422945857,-3.747731686
402,1.55965474417e+18,7.309206009,-3.536150455,2.066175461
403,1.55965474423e+18,0.8989872932,-22.53540611,24.50309563
404,1.55965474429e+18,-7.157030582,-8.559894562,13.32245731
405,1.55965474435e+18,-9.465899467,5.916959763,6.628695011
406,1.55965474441e+18,-4.413817406,1.708645582,6.040771008
407,1.55965474447e+18,-0.1047782898,0.128578186,2.382701159
408,1.55965474453e+18,2.521858215,0.07971739769,1.633312225
409,1.55965474459e+18,3.041287422,0.09385848045,-1.868899107
410,1.55965474465e+18,4.719311714,-1.792358994,-2.059118748
411,1.55965474471e+18,5.227395058,-4.841378689,-8.716842651
412,1.55965474477e+18,6.58949852,-6.445026398,-7.754761219
413,1.55965474483e+18,9.507734299,-5.173501492,-13.25914383
414,1.55965474489e+18,4.559926033,-3.632414341,-1.248851299
415,1.55965474495e+18,1.428347111,-2.827342749,-0.09194564819
416,1.55965474501e+18,2.841124773,-15.70915222,17.83192825
417,1.55965474507e+18,-5.210406303,-5.142323971,19.26030922
418,1.55965474513e+18,-6.783978939,4.829490185,10.97997856
419,1.55965474519e+18,-2.505631924,1.884157181,8.349124908
420,1.55965474525e+18,1.753864765,0.6944198608,4.438109398
421,1.55965474531e+18,2.865929127,-2.865039825,3.281590939
422,1.55965474537e+18,1.480475903,-10.29781246,-0.2044100761
423,1.55965474543e+18,-4.634355068,-10.8307724,7.618740082
424,1.55965474549e+18,7.438411236,2.601879597,-14.3748436
425,1.55965474555e+18,10.47929001,2.401480675,-2.439276695
426,1.55965474561e+18,18.45923424,-0.1456280798,-16.4546051
427,1.55965474567e+18,2.079835892,0.3562092781,8.757663727
428,1.55965474573e+18,-1.780946255,-9.656144142,0.579949379
429,1.55965474579e+18,-7.932600975,-10.7544384,16.76111412
430,1.55965474585e+18,-6.536300182,-2.732675552,7.114928722
431,1.55965474591e+18,-4.153565407,2.202198029,7.747965813
432,1.55965474597e+18,-2.504670143,2.153636932,4.683026314
433,1.55965474603e+18,-3.778493881,-4.692234039,1.457676411
434,1.55965474609e+18,-0.6396799088,-3.480913877,-3.535267591
435,1.55965474615e+18,2.620049,-0.9848792553,6.319517136
436,1.55965474621e+18,7.234632969,4.297283649,-22.77780151
437,1.55965474627e+18,21.04459572,5.20567894,-5.988455772
438,1.55965474633e+18,11.63070679,3.36859417,-14.99875069
439,1.55965474639e+18,2.515524864,-1.638622284,-0.4144515991
440,1.55965474645e+18,6.584581852,-29.03748512,20.2445488
441,1.55965474651e+18,-6.790072441,-14.15202999,5.27903223
442,1.55965474657e+18,-8.181179047,-1.115616798,4.756871223
443,1.55965474663e+18,-4.968081951,2.764149189,2.592525959
444,1.55965474669e+18,-2.800583839,-1.618142128,1.53863287
445,1.55965474675e+18,-0.6801643372,-0.7144050598,1.021515369
446,1.55965474681e+18,2.433857679,0.43262887,-7.151302338
447,1.55965474687e+18,2.236265182,0.8549354076,-4.160376549
448,1.55965474693e+18,4.687327862,-0.5133633614,-14.15938091
449,1.55965474699e+18,10.03563309,2.567596197,-12.8366127
450,1.55965474705e+18,4.882759571,2.488428593,-15.24748039
451,1.55965474711e+18,7.766590595,-0.5272847414,-5.413772583
452,1.55965474717e+18,-0.4934082031,-18.44339752,11.20604897
453,1.55965474723e+18,-1.679185152,-11.94781494,15.82263374
454,1.55965474729e+18,-4.3535285,-3.017742634,5.413462162
455,1.55965474735e+18,-2.964036942,-1.456651211,7.630955696
456,1.55965474741e+18,-3.488022327,-2.755946875,1.058481216
457,1.55965474747e+18,0.3574609756,-3.755888462,-2.155832052
458,1.55965474753e+18,2.702214718,-0.5885646343,-3.215387344
459,1.55965474759e+18,4.10039854,0.7918653488,-3.94716692
460,1.55965474765e+18,3.612697363,-2.484958887,-7.939998627
461,1.55965474771e+18,8.693871498,-2.384393215,-3.852585554
462,1.55965474777e+18,17.69088364,-1.844165802,-21.45130348
463,1.55965474783e+18,4.453341484,-10.84913063,-11.04957581
464,1.55965474789e+18,7.867930412,-33.21158981,15.17068958
465,1.55965474795e+18,2.564949989,-14.5644989,10.5120945
466,1.55965474801e+18,-2.868474722,-1.697025299,6.455748558
467,1.55965474807e+18,-4.607584,-0.008512496948,3.022689342
468,1.55965474813e+18,-1.913537502,-2.414820194,1.089365482
469,1.55965474819e+18,-1.08288908,-1.986931801,-4.724077702
470,1.55965474825e+18,2.096520901,1.645870209,-3.808719873
471,1.55965474831e+18,4.099246979,-0.3153969049,-6.016571522
472,1.55965474837e+18,5.303750515,-3.056737423,-10.81254959
473,1.55965474843e+18,7.825659752,-0.07337582111,-14.30070019
474,1.55965474849e+18,15.16518116,0.2086911798,-19.56230164
475,1.55965474855e+18,2.041651487,-5.589143276,0.6700553894
476,1.55965474861e+18,2.885238647,-32.80949402,13.33449936
477,1.55965474867e+18,-2.041358471,-8.998080254,6.7497015
478,1.55965474873e+18,-3.979219198,-1.153448582,2.994102478
479,1.55965474879e+18,-4.547852039,1.571502209,4.243872166
480,1.55965474885e+18,-2.956589222,-1.243397713,0.7003822327
481,1.55965474891e+18,-1.039611816,-4.783568382,-3.612209797
482,1.55965474897e+18,-0.5597448349,-6.988414288,-6.185556412
483,1.55965474903e+18,4.956012249,2.606918812,-13.53900337
484,1.55965474909e+18,18.1227951,12.80009937,-24.55890274
485,1.55965474915e+18,10.82903576,6.981897831,-16.41334534
486,1.55965474921e+18,3.690759182,7.352293968,-4.250586987
487,1.55965474927e+18,5.09045887,-15.17255974,3.763404369
488,1.55965474933e+18,-3.382531643,-26.7756958,5.749032497
489,1.55965474939e+18,-5.464877129,-3.956267834,-8.466187477
490,1.55965474945e+18,-4.859279633,-7.106451511,-1.675875187
491,1.55965474951e+18,-0.5673942566,-4.166596413,1.638512611
492,1.55965474957e+18,-0.925904274,-1.958878279,-3.944124222
493,1.55965474963e+18,-0.2137899399,3.50206089,-6.567777157
494,1.55965474969e+18,1.474970818,-0.2670717835,-10.16514683
495,1.55965474975e+18,-1.741101742,-2.386202097,-3.245571136
496,1.55965474981e+18,15.49097824,3.061176062,-34.05449677
497,1.55965474987e+18,-2.552203417,-3.906086206,-4.864747047
498,1.55965474993e+18,-1.275969982,1.200457573,-6.989293098
499,1.55965474999e+18,-2.764636278,-26.7875824,15.89517021
500,1.55965475005e+18,-3.436906576,-6.09862709,12.05147648
501,1.55965475011e+18,-4.828375816,-2.268217087,2.2088027
502,1.55965475017e+18,-3.495119572,-0.3569428921,-0.560338974
503,1.55965475023e+18,-5.33185339,-8.248244286,-1.732467175
504,1.55965475029e+18,-4.462968826,-13.81420231,-5.408213615
505,1.55965475035e+18,0.7698721886,-5.046319008,-8.401943207
506,1.55965475041e+18,1.483096838,4.371095657,-7.310013294
507,1.55965475047e+18,14.76520634,3.925120354,-23.98770905
508,1.55965475053e+18,8.797029495,2.849523783,-14.79143143
509,1.55965475059e+18,-8.009486198,-4.263768196,2.270011902
510,1.55965475065e+18,-2.048160076,-19.90257454,4.551502228
511,1.55965475071e+18,-9.711817741,-16.38667679,8.628177643
512,1.55965475077e+18,-5.924416542,-4.426280022,0.1897296906
513,1.55965475083e+18,-5.350134373,-4.378952026,-2.060778618
514,1.55965475089e+18,-5.121755123,-5.220366478,-5.839738846
515,1.55965475095e+18,-0.1566812992,-2.739214897,-5.007713795
516,1.55965475101e+18,1.159498453,1.226760507,-5.931214809
517,1.55965475107e+18,-2.311590672,-1.14931035,-10.48733807
518,1.55965475113e+18,11.3224678,3.283303499,-23.64522171
519,1.55965475119e+18,-3.699250221,-5.143475056,-9.128621101
520,1.55965475125e+18,-6.278238297,-1.124000788,-3.441571712
521,1.55965475131e+18,-0.290168047,-23.03593063,17.06522179
522,1.55965475137e+18,-2.595266104,-2.82269001,10.31762886
523,1.55965475143e+18,-6.633595943,-2.598323822,2.247730255
524,1.55965475149e+18,-6.485742569,-2.607731819,1.19285965
525,1.55965475155e+18,-4.595576286,-2.107836246,-0.08019351959
526,1.55965475161e+18,-4.102193832,-0.4546964169,-3.887727261
527,1.55965475167e+18,-1.794120312,-1.539327621,-8.541794777
528,1.55965475173e+18,1.803922892,-2.710260868,-8.255190849
529,1.55965475179e+18,2.008908749,-0.7867003083,-1.509097576
530,1.55965475185e+18,14.90569019,1.575814486,-22.4633255
531,1.55965475191e+18,6.789567947,2.907083988,-8.002648354
532,1.55965475197e+18,-2.804428577,0.4868149757,6.410999298
533,1.55965475203e+18,3.757412434,-13.07629585,2.842556477
534,1.55965475209e+18,-9.887673378,-6.818058014,10.70910358
535,1.55965475215e+18,-6.955523491,2.629748344,2.468925476
536,1.55965475221e+18,-6.496442795,1.77603817,1.773118496
537,1.55965475227e+18,-2.449646473,1.527839422,-1.436649323
538,1.55965475233e+18,-2.939393044,0.07406949997,-0.6919202805
539,1.55965475239e+18,-0.9048819542,-3.505390644,-4.902630806
540,1.55965475245e+18,0.2339816093,-2.685237408,-6.913076878
541,1.55965475251e+18,1.621408224,-1.927101731,-11.15078545
542,1.55965475257e+18,4.499379635,0.9206936955,-8.795202255
543,1.55965475263e+18,13.82721329,5.263876438,-16.45504761
544,1.55965475269e+18,-1.593044519,-1.688005209,-3.749065876
545,1.55965475275e+18,3.664219379,-5.1463027,2.613829613
546,1.55965475281e+18,-19.90775299,-17.50210762,17.08360672
547,1.55965475287e+18,-7.805936813,1.84279108,5.71776247
548,1.55965475293e+18,-5.885072708,1.090539455,3.385120869
549,1.55965475299e+18,-5.054773808,-0.04089164734,0.8954124451
550,1.55965475305e+18,-4.843594074,-1.744007111,-1.499647141
551,1.55965475311e+18,-2.775284767,-6.226629734,-3.020118237
552,1.55965475317e+18,1.489090204,-3.349324703,-6.901246071
553,1.55965475323e+18,3.470937729,1.198276162,-13.10029697
554,1.55965475329e+18,4.611308575,4.878742218,-8.717400551
555,1.55965475335e+18,12.04081917,3.489164114,-13.43603706
556,1.55965475341e+18,-0.2823705673,-3.04125309,-4.404390335
557,1.55965475347e+18,1.036851168,0.01493477821,3.750582695
558,1.55965475353e+18,-4.573784828,-15.30983353,10.53986931
559,1.55965475359e+18,-11.99076176,-4.419449806,10.36475086
560,1.55965475365e+18,-5.761963844,0.4685845375,1.508338451
561,1.55965475371e+18,-1.888527393,1.199491739,1.825984955
562,1.55965475377e+18,-2.694232941,1.230340004,-3.730796576
563,1.55965475383e+18,-3.227216721,0.6391471624,-4.766704082
564,1.55965475389e+18,0.291721344,1.169221044,-5.841017723
565,1.55965475395e+18,1.835381508,-0.8801625967,-3.748854399
566,1.55965475401e+18,-7.700753212,-2.036100388,1.969694614
567,1.55965475407e+18,7.153336048,-5.678694725,-21.16491127
568,1.55965475413e+18,6.779178619,-6.097353935,1.933856964
569,1.55965475419e+18,7.463162899,4.089467525,-13.41057968
570,1.55965475425e+18,11.24141121,-11.46434402,2.31796217
571,1.55965475431e+18,-2.896130562,-12.37367153,21.91650772
572,1.55965475437e+18,-3.467088699,-1.972664833,12.92287636
573,1.55965475443e+18,-2.096826077,2.489273071,8.550046921
574,1.55965475449e+18,-0.9682440758,-0.4754862785,4.451992035
575,1.55965475455e+18,1.445095539,-0.7616102695,2.039284229
576,1.55965475461e+18,-0.3453698158,-2.636317968,-3.151112556
577,1.55965475467e+18,2.767998695,-3.359281063,-4.581158638
578,1.55965475473e+18,5.098600388,-2.029603958,-3.909888983
579,1.55965475479e+18,5.417255878,0.8540329337,-4.480534077
580,1.55965475485e+18,9.633113861,1.275659561,-13.51191521
581,1.55965475491e+18,2.801398993,1.07568872,-1.158789635
582,1.55965475497e+18,5.696852207,1.510886192,5.761184216
583,1.55965475503e+18,-10.49401665,-22.53162956,17.07147789
584,1.55965475509e+18,-3.535077572,0.7436208725,14.6930809
585,1.55965475515e+18,-5.217387676,3.238132,8.71350956
586,1.55965475521e+18,-2.161431789,4.100511551,4.754399776
587,1.55965475527e+18,-0.3479781151,1.294199944,0.7568426132
588,1.55965475533e+18,0.07612419128,-4.412276268,-0.1636137962
589,1.55965475539e+18,2.134021759,-4.259879112,-1.743549347
590,1.55965475545e+18,2.473052979,-0.2718738317,-5.231341362
591,1.55965475551e+18,2.424732685,3.771219254,-8.0744133
592,1.55965475557e+18,5.668284416,2.517058372,-14.69090652
593,1.55965475563e+18,3.6219275,2.084224224,-6.413276196
594,1.55965475569e+18,3.455852509,4.899102211,-1.069951057
595,1.55965475575e+18,0.6911520958,-6.042255878,3.876842976
596,1.55965475581e+18,-13.35809898,-8.666355133,19.23904419
597,1.55965475587e+18,-8.026947021,5.152925491,8.551170349
598,1.55965475593e+18,-6.831014633,2.975848198,5.85488987
599,1.55965475599e+18,-3.287573814,3.734006166,1.179345608
600,1.55965475605e+18,-2.357009411,1.946782351,-2.992527246
601,1.55965475611e+18,-0.2595982552,-0.768843174,-1.717579365
602,1.55965475617e+18,0.5420732498,-2.659084797,-3.309015036
603,1.55965475623e+18,1.134187222,-4.661014557,4.420115948
604,1.55965475629e+18,4.92404747,5.543822289,-12.58400726
605,1.55965475635e+18,20.37943268,6.023927689,-18.50731468
606,1.55965475641e+18,4.022044182,6.438803673,-3.281750202
607,1.55965475647e+18,1.576825857,1.783699989,1.071135044
608,1.55965475653e+18,-1.837869167,-25.52178192,29.10441399
609,1.55965475659e+18,-7.535823822,-7.459634781,8.360693932
610,1.55965475665e+18,-8.927463531,2.496930599,5.486614704
611,1.55965475671e+18,-6.546661377,3.541588306,5.567295074
612,1.55965475677e+18,-3.978554726,3.614089966,2.362759113
613,1.55965475683e+18,0.2737882137,9.400509834,5.191947937
614,1.55965475689e+18,3.07311964,9.915602684,2.6386199
615,1.55965475695e+18,-1.781028986,3.531847954,-2.610386848
616,1.55965475701e+18,-1.245798111,-0.143378973,-9.086791992
617,1.55965475707e+18,-0.7259886265,-1.933616638,-13.91948795
618,1.55965475713e+18,4.683006287,-7.296561241,-12.68865681
619,1.55965475719e+18,-0.01474118233,-2.196618319,-16.1014576
620,1.55965475725e+18,-3.910301924,-0.7731323242,-2.821069717
621,1.55965475731e+18,11.23512077,-12.4473238,10.32445717
622,1.55965475737e+18,-4.467096329,-13.11026382,21.33238983
623,1.55965475743e+18,-7.946253777,-0.4900150299,12.4374752
624,1.55965475749e+18,-10.80237961,7.674024105,11.64301395
625,1.55965475755e+18,-9.432030678,3.757522106,1.830385923
626,1.55965475761e+18,-1.977763653,3.340667009,-2.284250259
627,1.55965475767e+18,-1.496380806,-0.2780203819,-2.720064878
628,1.55965475773e+18,0.6096258163,-5.474672794,-6.477525234
629,1.55965475779e+18,-1.207448006,-5.093629837,0.2279820442
630,1.55965475785e+18,12.58093262,5.615713596,-18.95617485
631,1.55965475791e+18,13.05256462,10.07852268,-20.63612175
632,1.55965475797e+18,8.834299088,9.120765686,5.145815372
633,1.55965475803e+18,-9.424592972,-19.99965668,10.9949913
634,1.55965475809e+18,-11.25417709,-17.8169136,22.11711884
635,1.55965475815e+18,-9.334524155,-2.748164177,8.883956909
636,1.55965475821e+18,-11.68869209,2.68102169,6.963348389
637,1.55965475827e+18,-11.68032742,4.558692455,1.487739086
638,1.55965475833e+18,-7.457395554,7.250172138,-0.3551917076
639,1.55965475839e+18,-0.1908557415,7.296599865,-0.94957304
640,1.55965475845e+18,-3.641093016,-1.422571182,-9.143594742
641,1.55965475851e+18,1.194095612,1.24460113,-7.536953926
642,1.55965475857e+18,0.5982467532,2.329707623,-24.24776649
643,1.55965475863e+18,3.055227995,7.956742287,-12.25503922
644,1.55965475869e+18,-7.473558426,-2.941291809,10.99384403
645,1.55965475875e+18,0.431593895,-11.76651192,15.42224503
646,1.55965475881e+18,-10.36216736,-8.755410194,18.32963371
647,1.55965475887e+18,-7.999099731,2.071297646,9.449682236
648,1.55965475893e+18,-12.02801514,1.787306309,7.829363346
649,1.55965475899e+18,-6.803180695,2.957664967,-0.8273119926
650,1.55965475905e+18,-1.514431,6.112751961,-1.09956789
651,1.55965475911e+18,0.6067054272,9.563018799,-2.437934875
652,1.55965475917e+18,-1.640935898,7.960175514,-4.643161774
653,1.55965475923e+18,1.828456879,5.002313614,-8.324305534
654,1.55965475929e+18,14.35735703,0.4283714294,-8.576758385
655,1.55965475935e+18,10.26543045,6.156864166,-15.37823582
656,1.55965475941e+18,6.53100872,2.682113171,2.045046568
657,1.55965475947e+18,1.155566812,-24.5329895,25.09143257
658,1.55965475953e+18,-7.005211353,-9.79786396,19.03388977
659,1.55965475959e+18,-6.816481113,4.957891941,10.70782471
660,1.55965475965e+18,-4.634635448,3.311491966,11.67498779
661,1.55965475971e+18,-4.551739216,2.613525391,8.898938179
662,1.55965475977e+18,-1.364308357,4.325403214,3.776183128
663,1.55965475983e+18,-0.2047967911,7.659457207,-0.5878164768
664,1.55965475989e+18,2.980466366,6.477429867,-0.1981008053
665,1.55965475995e+18,4.490787506,4.483607292,-1.073597431
666,1.55965476001e+18,11.19852924,-2.095199585,-13.6781311
667,1.55965476007e+18,5.822679043,-1.169325471,-6.840072155
668,1.55965476013e+18,10.18668747,4.137928009,-8.683415413
669,1.55965476019e+18,9.365363121,-12.61659431,4.640817642
670,1.55965476025e+18,-9.502584457,-19.85907936,22.82211494
671,1.55965476031e+18,-7.373148918,-0.8213405609,15.24616909
672,1.55965476037e+18,-3.491166592,4.337813854,10.64221573
673,1.55965476043e+18,-2.704686642,1.54026413,10.54513836
674,1.55965476049e+18,-1.0803895,-1.048107624,3.927332401
675,1.55965476055e+18,3.219045639,0.7275743484,-0.6178069115
676,1.55965476061e+18,3.292243958,2.852138042,-2.938754559
677,1.55965476067e+18,6.891461372,3.040075302,-4.870537758
678,1.55965476073e+18,14.4342289,4.781907558,-18.46619034
679,1.55965476079e+18,10.01643944,5.046908379,-3.214819193
680,1.55965476085e+18,1.460949659,-10.03494549,6.36787796
681,1.55965476091e+18,4.231268406,-23.89992905,25.19793129
682,1.55965476097e+18,-4.121152878,-4.925451279,12.67471218
683,1.55965476103e+18,-2.566251993,3.386535168,11.88643837
684,1.55965476109e+18,-3.762922049,-0.6093425751,14.35694122
685,1.55965476115e+18,-4.497182369,2.553192139,6.096708775
686,1.55965476121e+18,2.863995552,1.994406223,4.372900486
687,1.55965476127e+18,6.993745327,4.788606167,0.2105722427
688,1.55965476133e+18,7.331785679,5.985448837,-2.23342824
689,1.55965476139e+18,13.78128624,8.370414734,-15.83428192
690,1.55965476145e+18,8.514748573,6.793135643,-4.718238831
691,1.55965476151e+18,-4.776015282,-0.9782443047,15.81775379
692,1.55965476157e+18,-2.727631569,-14.64728832,21.11960793
693,1.55965476163e+18,-3.135833263,-1.285088539,17.50271416
694,1.55965476169e+18,-5.848947048,2.976390839,13.10662365
695,1.55965476175e+18,-4.352472782,1.330594063,8.002388954
696,1.55965476181e+18,-0.8643350601,2.065525532,5.49297905
697,1.55965476187e+18,1.713366032,0.4370379448,0.1273169518
698,1.55965476193e+18,4.808320999,1.30858469,0.692312479
699,1.55965476199e+18,5.42401123,5.059262276,0.8945243359
700,1.55965476205e+18,14.15961838,5.749073982,-20.02138901
701,1.55965476211e+18,21.75712776,2.735301018,-8.202249527
702,1.55965476217e+18,4.958390236,-9.877921104,14.33019638
703,1.55965476223e+18,-5.288058281,-25.7561264,28.06382751
704,1.55965476229e+18,-6.216837883,-1.568120003,17.85668945
705,1.55965476235e+18,-8.271377563,4.587142944,13.28335953
706,1.55965476241e+18,-6.138715744,2.530031681,13.4359827
707,1.55965476247e+18,-4.622543812,3.138225555,5.23702383
708,1.55965476253e+18,2.586987019,2.982950211,1.852764726
709,1.55965476259e+18,7.138561726,6.290518284,0.5753674507
710,1.55965476265e+18,4.72337532,5.636588573,-0.8249986172
711,1.55965476271e+18,1.236838341,6.823493004,1.377957821
712,1.55965476277e+18,10.31815052,5.996868134,-9.597803116
713,1.55965476283e+18,4.979674339,5.677256584,-0.5947227478
714,1.55965476289e+18,6.360229492,-8.430848122,11.68964672
715,1.55965476295e+18,-5.489960194,-6.370604515,27.10737801
716,1.55965476301e+18,-6.631933212,6.576198101,16.84710503
717,1.55965476307e+18,-11.25065422,4.777264595,12.53995419
718,1.55965476313e+18,-5.509764194,4.234906673,6.122441769
719,1.55965476319e+18,-1.047595501,2.91409111,-1.266672254
720,1.55965476325e+18,-3.184222698,-7.263262272,-7.103215218
721,1.55965476331e+18,2.354412079,-3.627436638,-3.268251419
722,1.55965476337e+18,9.46857357,5.970703125,-7.3844347
723,1.55965476343e+18,16.59776306,8.711029053,-14.19077301
724,1.55965476349e+18,16.78370285,4.521082878,-9.233386993
725,1.55965476355e+18,9.076683044,5.540727615,1.443730831
726,1.55965476361e+18,3.794999123,-25.83466339,10.13448334
727,1.55965476367e+18,-5.491362572,-12.55508137,17.80685616
728,1.55965476373e+18,-1.990648746,1.341348648,8.611413956
729,1.55965476379e+18,1.106003284,4.135167599,11.39552498
730,1.55965476385e+18,-0.3885154724,4.685339928,6.85214138
731,1.5596547639e+18,-0.6037025452,5.331502914,2.5078125
732,1.55965476396e+18,2.899785042,4.047502995,-0.7109518051
733,1.55965476402e+18,-4.808328152,-5.311682701,9.916408539
734,1.55965476408e+18,6.051683903,-3.341668606,-19.23511505
735,1.55965476414e+18,9.455457687,4.182451248,-16.16857338
736,1.5596547642e+18,3.072301865,5.907632351,-2.29945755
737,1.55965476426e+18,6.377978325,0.3679075241,3.806801081
738,1.55965476432e+18,-5.511706829,-16.23573685,31.09546089
739,1.55965476438e+18,-12.37516975,-0.9677000046,16.38520432
740,1.55965476444e+18,-10.56320572,5.889759064,9.508343697
741,1.5596547645e+18,-5.935653687,5.370799065,8.073912621
742,1.55965476456e+18,-6.90652895,2.933748722,-3.973583698
743,1.55965476462e+18,2.424106121,2.166627169,-3.17500782
744,1.55965476468e+18,9.752044678,5.573080063,-3.878405809
745,1.55965476474e+18,8.109999657,-0.712382555,15.30034447
746,1.5596547648e+18,1.076238632,2.651814938,-22.79744339
747,1.55965476486e+18,19.05607224,6.481478691,-1.079322815
748,1.55965476492e+18,4.311237335,8.416242599,-2.744095325
749,1.55965476498e+18,6.361406326,-15.77978039,18.54302979
750,1.55965476504e+18,-4.6898489,-9.366374016,23.0802803
751,1.5596547651e+18,-0.02890372276,3.959777832,14.15176868
752,1.55965476516e+18,-0.1321821213,4.238015652,14.56886292
753,1.55965476522e+18,-0.7424345016,2.341459274,10.22662067
754,1.55965476528e+18,-1.338117123,1.340822697,6.135867596
755,1.55965476534e+18,4.874836922,1.559356689,1.410699606
756,1.5596547654e+18,0.9954319,1.254817963,-7.627887726
757,1.55965476546e+18,10.79177475,5.656252861,-9.850200653
758,1.55965476552e+18,14.00219727,4.735382557,-24.40459824
759,1.55965476558e+18,-1.483311176,5.880187035,9.698476791
760,1.55965476564e+18,6.793780327,2.383305073,-2.279446125
761,1.5596547657e+18,-12.76273918,-11.35678005,26.33692551
762,1.55965476576e+18,-5.505101681,4.282453537,18.25983429
763,1.55965476582e+18,-11.98563004,5.050337315,10.57777596
764,1.55965476588e+18,-9.437291145,5.604924202,6.948761463
765,1.55965476594e+18,-7.712503433,7.130506516,0.8285870552
766,1.559654766e+18,-3.410657883,6.762375832,0.8497376442
767,1.55965476606e+18,1.977766037,6.488908291,-1.622794151
768,1.55965476612e+18,2.29573226,0.3767533302,-7.141723633
769,1.55965476618e+18,3.088253975,-4.586811066,-16.92041969
770,1.55965476624e+18,1.269604206,0.1508626938,-11.98105049
771,1.5596547663e+18,8.452732086,10.4493084,-8.528217316
772,1.55965476636e+18,-4.908552647,1.890115261,8.467741966
773,1.55965476642e+18,5.577841759,-18.17308426,23.94865799
774,1.55965476648e+18,1.040820241,-1.112857819,25.00372314
775,1.55965476654e+18,-3.751502991,7.769227505,14.73168564
776,1.5596547666e+18,-9.460655212,2.9009161,12.83802509
777,1.55965476666e+18,-4.350847244,3.810861111,4.78068924
778,1.55965476672e+18,-1.123339176,2.973844528,3.612467289
779,1.55965476678e+18,-0.2503218651,2.067010403,-0.1376223564
780,1.55965476684e+18,6.300833225,3.735913277,-2.362800598
781,1.5596547669e+18,2.029192448,8.99917984,-7.507163048
782,1.55965476696e+18,16.78951836,3.962944984,-19.46801758
783,1.55965476702e+18,7.11639452,7.083006859,-3.763946533
784,1.55965476708e+18,4.804962158,7.606129169,3.27813673
785,1.55965476714e+18,-2.056536674,-9.434885025,16.27445984
786,1.5596547672e+18,-13.20583153,-21.67705536,20.28026962
787,1.55965476725e+18,-4.16635561,1.479842663,14.63899422
788,1.55965476731e+18,-4.625281811,1.034193516,11.41558647
789,1.55965476737e+18,-3.315079689,2.973624229,10.82293415
790,1.55965476743e+18,-0.636838913,4.544812679,7.885652542
791,1.55965476749e+18,0.8600330353,9.315414429,4.075949192
792,1.55965476755e+18,3.268935204,4.79093504,0.3090865612
793,1.55965476761e+18,3.934207916,-0.2572633624,-3.185894489
794,1.55965476767e+18,9.92870903,-2.630705118,-10.08863544
795,1.55965476773e+18,13.88739777,0.4027131796,-11.69767761
796,1.55965476779e+18,9.208594322,-0.142295599,-7.785264969
797,1.55965476785e+18,1.138467312,-6.289373875,5.722144127
798,1.55965476791e+18,7.14735508,-18.06215668,25.20371628
799,1.55965476797e+18,0.4962639809,-6.843704224,21.67669296
800,1.55965476803e+18,-5.221097946,3.374849319,10.18972683
801,1.55965476809e+18,-5.292508125,0.3281545639,6.629484653
802,1.55965476815e+18,0.94992733,1.923882008,0.8480510712
803,1.55965476821e+18,2.49966526,2.411651611,-1.583024979
804,1.55965476827e+18,0.3350763321,0.1374022961,-6.069395542
805,1.55965476833e+18,7.486433983,-1.347576857,-6.141454697
806,1.55965476839e+18,10.117342,-0.2761707306,2.78268528
807,1.55965476845e+18,10.61621475,6.869020462,-24.64276314
808,1.55965476851e+18,4.228956223,-0.175552845,11.10787773
809,1.55965476857e+18,10.01720047,-5.972997665,2.788146019
810,1.55965476863e+18,-1.329988718,-12.21974564,23.16535759
811,1.55965476869e+18,0.9605689049,-2.616153717,14.50157547
812,1.55965476875e+18,-5.622843266,2.127521992,13.50978947
813,1.55965476881e+18,-7.894371033,2.490952015,8.071042061
814,1.55965476887e+18,-5.990098953,0.9630060196,2.844412804
815,1.55965476893e+18,-2.661372185,-1.273473263,-4.278682709
816,1.55965476899e+18,3.86083293,0.3197989464,-4.328598976
817,1.55965476905e+18,6.462886333,1.149671316,9.540426254
818,1.55965476911e+18,16.39065933,9.153989792,-19.96820831
819,1.55965476917e+18,9.860013008,3.61799407,-9.021018982
820,1.55965476923e+18,5.379034519,3.219116211,9.151016235
821,1.55965476929e+18,-1.437243462,-23.21299553,16.83208275
822,1.55965476935e+18,-3.163491011,-11.98203087,24.21237755
823,1.55965476941e+18,-6.642055511,-2.90222168,13.17052269
824,1.55965476947e+18,-7.996166229,2.25501442,14.63519669
825,1.55965476953e+18,-9.019595146,4.037068844,11.48511219
826,1.55965476959e+18,-5.788686752,3.009601116,7.027847767
827,1.55965476965e+18,3.054434538,2.269361496,3.450452566
828,1.55965476971e+18,4.093719482,5.452796459,-4.031550884
829,1.55965476977e+18,2.794774771,4.331417084,-9.763648033
830,1.55965476983e+18,14.19342136,7.688406467,-15.78189087
831,1.55965476989e+18,5.056633472,7.145105839,-0.146569252
832,1.55965476995e+18,0.9440019131,4.054099083,14.90460396
833,1.55965477001e+18,-7.525456429,-14.4134407,25.75592422
834,1.55965477007e+18,-9.997012138,5.4210639,19.89946747
835,1.55965477013e+18,-10.44950294,4.452743053,13.29652214
836,1.55965477019e+18,-7.063465595,3.922709465,10.2334671
837,1.55965477025e+18,-6.017151833,3.433605671,3.387852192
838,1.55965477031e+18,-3.978710651,2.063913345,1.153634071
839,1.55965477037e+18,2.98113966,2.464631319,-0.7948762774
840,1.55965477043e+18,7.596969128,4.329060078,-0.9758737087
841,1.55965477049e+18,8.253848076,4.32256937,4.071380615
842,1.55965477055e+18,11.22398472,4.317645073,-16.60351753
843,1.55965477061e+18,6.263133049,3.80393219,7.660634995
844,1.55965477067e+18,1.211053371,8.995706558,7.025524139
845,1.55965477073e+18,-2.379317284,-15.5366354,24.39070511
846,1.55965477079e+18,-6.508796215,1.8339324,17.41628647
847,1.55965477085e+18,-6.974700451,6.293306828,9.430828094
848,1.55965477091e+18,-4.469919682,4.386325836,7.184897423
849,1.55965477097e+18,-1.705801964,2.604060173,2.75104785
850,1.55965477103e+18,1.505839348,2.889323235,1.902834415
851,1.55965477109e+18,3.480432987,1.617464066,-0.8678848743
852,1.55965477115e+18,-0.5180797577,-1.426357746,-7.469665527
853,1.55965477121e+18,6.050529003,0.2876221538,-10.8608532
854,1.55965477127e+18,20.94806099,-0.2217532992,-13.12670135
855,1.55965477133e+18,8.000644684,5.146831036,-2.476815462
856,1.55965477139e+18,11.25873756,0.5993347168,-0.5680185556
857,1.55965477145e+18,-0.6929473877,-29.36861038,33.65623856
858,1.55965477151e+18,-5.923069954,-5.710173607,18.36728287
859,1.55965477157e+18,-10.01094532,8.875027657,11.07165337
860,1.55965477163e+18,-7.993922234,4.616599083,11.2766571
861,1.55965477169e+18,-5.065470695,4.832011223,3.42957902
862,1.55965477175e+18,-0.5650277138,3.021408796,-0.06284165382
863,1.55965477181e+18,4.34527874,2.620676041,-1.586719751
864,1.55965477187e+18,4.54874897,1.421651125,-3.204375744
865,1.55965477193e+18,5.972677231,2.676906347,-9.603539467
866,1.55965477199e+18,7.13085556,4.910912514,-9.559886932
867,1.55965477205e+18,7.076931,5.723436832,-12.74985123
868,1.55965477211e+18,-4.763838768,2.497999191,10.94734764
869,1.55965477217e+18,-5.33209753,-3.4332304,5.002723217
870,1.55965477223e+18,-7.774534702,-5.784668922,23.74853134
871,1.55965477229e+18,-4.465500355,5.833981514,11.81704998
872,1.55965477235e+18,-7.498485565,7.006248474,8.577920914
873,1.55965477241e+18,-3.208111763,4.371095181,6.871378899
874,1.55965477247e+18,-1.313096046,5.827161312,2.939004421
875,1.55965477253e+18,-0.4670882225,4.389660835,2.483641148
876,1.55965477259e+18,1.120520115,2.28047657,-0.335047245
877,1.55965477265e+18,3.058411121,1.730231881,-6.545034409
878,1.55965477271e+18,5.242847443,0.9345964193,-9.436096191
879,1.55965477277e+18,6.333361149,2.019271851,-13.24445534
880,1.55965477283e+18,8.409047127,3.835400581,-8.221219063
881,1.55965477289e+18,0.1175413132,4.666228294,-0.7216615677
882,1.55965477295e+18,-0.9301457405,-1.565486431,3.206797361
883,1.55965477301e+18,-12.49902821,-6.386181831,19.27420998
884,1.55965477307e+18,-7.407803535,1.963016987,9.375102997
885,1.55965477313e+18,-4.578611851,4.890399456,8.612692833
886,1.55965477319e+18,-4.240689278,1.553919315,4.647192955
887,1.55965477325e+18,-2.050928593,-0.2298998833,3.549775124
888,1.55965477331e+18,1.276911259,1.095505714,1.590279579
889,1.55965477337e+18,2.230436325,1.006103277,-3.800672531
890,1.55965477343e+18,-1.764869213,1.319962025,-3.363878727
891,1.55965477349e+18,9.481864929,4.839897156,-13.4889946
892,1.55965477355e+18,6.269730568,4.262608051,-4.704562187
893,1.55965477361e+18,-3.87955761,3.363873482,2.758041382
894,1.55965477367e+18,-0.4648151398,-1.321804047,3.630301952
895,1.55965477373e+18,-7.363913059,-3.640329838,15.07455444
896,1.55965477379e+18,-5.568071842,3.534933567,10.42846775
897,1.55965477385e+18,-2.758116245,3.99240756,6.07254982
898,1.55965477391e+18,-2.70087719,2.106982708,2.22566843
899,1.55965477397e+18,-0.512524128,1.739881992,0.07391405106
900,1.55965477403e+18,1.538451195,1.855494976,0.6094517708
901,1.55965477409e+18,2.293957233,-0.5338408947,-1.451365948
902,1.55965477415e+18,4.972753525,-0.551281929,-3.85784936
903,1.55965477421e+18,1.717458725,3.405996084,-6.101092339
904,1.55965477427e+18,8.739606857,4.0512743,-11.91329575
905,1.55965477433e+18,-1.231231689,1.382822037,-0.6692361832
906,1.55965477439e+18,-1.136041641,-5.886882305,8.971349716
907,1.55965477445e+18,-3.752445698,-10.02228642,17.72249222
908,1.55965477451e+18,-2.566606998,1.550733566,8.360312462
909,1.55965477457e+18,-2.880888462,1.264922619,4.657964706
910,1.55965477463e+18,-0.813100338,-0.08411884308,3.043095112
911,1.55965477469e+18,-0.1666054726,-1.576543808,2.119678974
912,1.55965477475e+18,2.907996655,1.263385534,0.4789791107
913,1.55965477481e+18,4.366098881,3.474705696,-2.4551301
914,1.55965477487e+18,3.800465822,3.971781254,-5.762887955
915,1.55965477493e+18,7.941745758,1.10214293,-14.28947258
916,1.55965477499e+18,-4.319559574,1.548050165,5.438788891
917,1.55965477505e+18,6.087695122,5.557340145,-4.597266197
918,1.55965477511e+18,-1.998989582,-11.43456268,1.901115417
919,1.55965477517e+18,-2.804473877,-2.199475288,13.09739113
920,1.55965477523e+18,-2.343120575,4.203888416,7.33019352
921,1.55965477529e+18,-3.290754318,3.488078833,5.388307095
922,1.55965477535e+18,-1.899598122,1.392900944,2.05739212
923,1.55965477541e+18,-0.2376012802,0.9066340923,-0.3142771721
924,1.55965477547e+18,0.7915296555,2.087086678,-2.273886681
925,1.55965477553e+18,1.321847439,2.954504251,-2.742043972
926,1.55965477559e+18,2.788417339,0.5398230553,-4.25942421
927,1.55965477565e+18,3.18933177,-1.746633053,-9.052527428
928,1.55965477571e+18,-1.686925888,-3.968582392,-4.974430561
929,1.55965477577e+18,6.155374527,5.199427605,-2.538622379
930,1.55965477583e+18,7.832048416,-13.45318794,2.504007816
931,1.55965477589e+18,-0.7272193432,-10.49637413,10.0339222
932,1.55965477595e+18,-6.989630699,0.8771715164,5.636242867
933,1.55965477601e+18,-5.618973255,0.8957448006,8.637382507
934,1.55965477607e+18,-5.87282753,-0.1182479858,7.11631012
935,1.55965477613e+18,-5.348334789,-0.1006631851,1.064912796
936,1.55965477619e+18,0.7906031609,-4.90254879,-5.549758911
937,1.55965477625e+18,6.345788956,-2.830560207,-7.565148354
938,1.55965477631e+18,7.75384903,3.819527388,-5.797605038
939,1.55965477637e+18,4.025755882,9.789344788,-12.30517006
940,1.55965477643e+18,14.32326412,12.83947372,-10.68160629
941,1.55965477649e+18,-4.703414917,-4.386998177,2.864701271
942,1.55965477655e+18,-0.2422219515,-26.47147942,9.334757805
943,1.55965477661e+18,-5.206271172,-5.233228683,1.919842482
944,1.55965477667e+18,-5.365303993,0.9595212936,-0.1104688644
945,1.55965477673e+18,-4.393575668,-3.301791668,3.117394924
946,1.55965477679e+18,-3.722733498,0.07745981216,0.2907838821
947,1.55965477685e+18,-2.298191547,6.578069687,-8.53079319
948,1.55965477691e+18,4.297520638,2.469944,-4.252709389
949,1.55965477697e+18,7.775248528,12.47567749,5.146780014
950,1.55965477703e+18,5.572036743,7.941070557,0.2697114944
951,1.55965477709e+18,2.230844021,-0.6419047713,-9.96538353
952,1.55965477715e+18,1.231045008,-13.76318264,-17.33546066
953,1.55965477721e+18,-1.785993099,-5.799313068,-8.831311226
954,1.55965477727e+18,-2.554870367,-5.107537746,-3.864627123
955,1.55965477733e+18,-0.3994849026,-16.76969528,18.29004478
956,1.55965477739e+18,-2.646498442,-0.3444442749,11.86789322
957,1.55965477745e+18,-5.482825279,3.597126961,6.272052765
958,1.55965477751e+18,-6.633060455,-1.132910728,7.05721283
959,1.55965477757e+18,-5.540924072,1.296289921,2.829850674
960,1.55965477763e+18,-5.77349472,-2.388230324,-5.375597
961,1.55965477769e+18,0.4765677452,-2.39462471,-7.335627556
962,1.55965477775e+18,3.895953655,-0.2389383316,-7.998963356
963,1.55965477781e+18,16.91078186,6.052743435,-5.35192728
964,1.55965477787e+18,15.16492271,19.75661087,-13.43759727
965,1.55965477793e+18,7.894023895,6.556193829,-2.971107006
966,1.55965477799e+18,-2.948058367,-13.30291939,3.54978323
967,1.55965477805e+18,-2.987887383,-19.4700737,12.75189686
968,1.55965477811e+18,-2.420853138,-6.501914978,1.64879179
969,1.55965477817e+18,-1.219845772,-1.516034126,-0.2384634018
970,1.55965477823e+18,-0.3653483391,-0.4294476509,0.3195438385
971,1.55965477829e+18,0.3192853928,-2.669081211,-1.878388882
972,1.55965477835e+18,2.241268396,1.194276571,-2.167703152
973,1.55965477841e+18,2.677643299,3.574768066,-3.281033516
974,1.55965477847e+18,3.176011562,5.235363007,-6.489815712
975,1.55965477853e+18,3.013297081,5.491226196,-11.87375069
976,1.55965477859e+18,9.064322472,9.641716957,-3.963526726
977,1.55965477865e+18,1.594349623,5.359837532,-6.589308739
978,1.55965477871e+18,-8.689236641,-20.43160248,0.367565155
979,1.55965477877e+18,-4.435894012,-14.15009117,9.613021851
980,1.55965477883e+18,-1.394904494,-2.048233032,5.973156452
981,1.55965477889e+18,-3.934223413,-1.419699669,2.351303101
982,1.55965477895e+18,-0.8741116524,-1.672972202,1.145957947
983,1.55965477901e+18,1.311505318,-0.06918859482,-2.720738888
984,1.55965477907e+18,4.629133224,2.357484341,-5.386798382
985,1.55965477913e+18,4.183617592,2.611594915,-5.088187218
986,1.55965477919e+18,3.802891493,3.268942118,-6.641358852
987,1.55965477925e+18,7.30550766,6.12876749,-13.62149048
988,1.55965477931e+18,3.501322031,3.727955103,7.470937729
989,1.55965477937e+18,2.479948044,-0.08889627457,-8.392271042
990,1.55965477943e+18,-9.355914116,-8.142594337,5.768856049
991,1.55965477949e+18,-1.403149843,2.644191742,10.75184059
992,1.55965477955e+18,-1.231141329,-1.38660717,14.72039127
993,1.55965477961e+18,-6.761133671,-1.248668671,5.363471031
994,1.55965477967e+18,-6.787825108,0.8358001709,-1.801781654
995,1.55965477973e+18,-2.087422371,-2.0579772,-8.734799385
996,1.55965477979e+18,2.949531794,-4.286959648,-8.182991028
997,1.55965477985e+18,7.031193733,-2.497207165,-11.51044273
998,1.55965477991e+18,7.136701584,0.7921261787,-19.15880966
999,1.55965477997e+18,13.11990356,29.4631958,-10.46976852
1000,1.55965478003e+18,1.059126496,-2.806228638,9.808927536
1001,1.55965478009e+18,4.370626926,-18.55574036,11.91466808
1002,1.55965478015e+18,-7.524453163,-3.762310982,4.97215271
1003,1.55965478021e+18,-8.820632935,-3.486112595,7.532482147
1004,1.55965478027e+18,-8.299323082,0.416012764,3.393360853
1005,1.55965478033e+18,-4.539935112,4.040341854,-3.06916523
1006,1.55965478039e+18,-0.4837391376,-1.377430439,-9.343776703
1007,1.55965478045e+18,4.712891579,-0.2996168137,-11.23171616
1008,1.55965478051e+18,12.86933708,5.640846729,-10.28098965
1009,1.55965478057e+18,13.86316872,12.26248169,-14.78094196
1010,1.55965478063e+18,-1.564653277,5.225525379,13.35297585
1011,1.55965478069e+18,8.556985855,-28.50115204,0.6588009596
1012,1.55965478075e+18,-8.864313126,-13.25696468,4.772863388
1013,1.55965478081e+18,-8.914199829,-4.969892502,-0.524924159
1014,1.55965478087e+18,-6.361168861,-0.4834537506,3.794733047
1015,1.55965478093e+18,-3.793556929,2.359807014,4.871006012
1016,1.55965478099e+18,-3.216050148,0.002094745636,0.9127855301
1017,1.55965478105e+18,-1.869927406,1.718108177,-3.579695225
1018,1.55965478111e+18,-1.43906641,1.994040012,-8.005771637
1019,1.55965478117e+18,8.152070045,5.154225349,-18.41854668
1020,1.55965478123e+18,-2.397408485,12.00940323,-4.188315392
1021,1.55965478129e+18,5.677378654,8.903763771,-7.519476891
1022,1.55965478135e+18,2.590118885,-4.668639183,11.84131622
1023,1.55965478141e+18,-3.171228886,-23.88623047,20.68175316
1024,1.55965478147e+18,-7.821425915,-5.433013916,7.30671072
1025,1.55965478153e+18,-5.696887493,1.367466927,7.101967812
1026,1.55965478159e+18,-6.017601013,3.452000141,5.512988567
1027,1.55965478165e+18,-4.600390434,3.331906796,2.785860538
1028,1.55965478171e+18,-1.525828362,3.340809345,1.477686882
1029,1.55965478177e+18,0.3210644722,2.583445787,-3.012752533
1030,1.55965478183e+18,-1.127441883,1.054476738,-9.165100098
1031,1.55965478189e+18,7.147413731,5.665992737,-10.22224712
1032,1.55965478195e+18,10.34081936,11.11690235,-15.92965317
1033,1.55965478201e+18,1.71126008,5.279595375,-0.1030993462
1034,1.55965478207e+18,4.830377102,0.4522171021,5.160876274
1035,1.55965478213e+18,-10.77492428,-23.58923912,20.56769371
1036,1.55965478219e+18,-5.505939007,-3.83577919,11.33057594
1037,1.55965478225e+18,-5.443741798,0.1108102798,8.351482391
1038,1.55965478231e+18,-4.388607979,2.949736595,5.630529881
1039,1.55965478237e+18,-4.505955219,2.342994213,1.738925695
1040,1.55965478243e+18,-0.1944351196,7.914731503,0.05173420906
1041,1.55965478249e+18,-1.289331436,2.241445065,-3.781344414
1042,1.55965478255e+18,-0.1712293625,-2.422210932,-2.734688282
1043,1.55965478261e+18,5.343338966,0.5059364438,-6.560574532
1044,1.55965478267e+18,13.94068909,1.250012875,-17.48778152
1045,1.55965478273e+18,7.390453815,1.176848173,-4.334917068
1046,1.55965478279e+18,6.245243073,0.3848056793,-2.9182477
1047,1.55965478285e+18,8.751051903,-24.37526894,11.28668022
1048,1.55965478291e+18,2.232601643,-18.50055695,15.22093964
1049,1.55965478297e+18,-3.651421547,-1.80172348,12.32636929
1050,1.55965478303e+18,-13.49494076,7.933773994,4.648764133
1051,1.55965478309e+18,-7.453741074,2.495138645,7.196874142
1052,1.55965478315e+18,-2.691925526,4.421686172,4.522001743
1053,1.55965478321e+18,-0.327319622,7.05200243,-0.4859859943
1054,1.55965478327e+18,1.787660599,0.6695241928,-1.18309164
1055,1.55965478333e+18,3.908587456,-0.7070057392,-2.30886364
1056,1.55965478339e+18,6.600221157,1.108001828,-2.69061923
1057,1.55965478345e+18,8.443344116,0.7846230268,-5.150586605
1058,1.55965478351e+18,11.38958359,-1.168231487,-12.85147476
1059,1.55965478357e+18,2.41617918,-3.814519644,-0.3521404266
1060,1.55965478363e+18,5.726610184,1.138803482,-4.677593708
1061,1.55965478369e+18,3.951877117,-20.31386185,16.85005951
1062,1.55965478375e+18,-4.30115509,-9.643027306,20.00402451
1063,1.55965478381e+18,-9.68956852,2.642621517,12.4224968
1064,1.55965478387e+18,-7.914980888,4.315895081,10.55896568
1065,1.55965478393e+18,-1.292461395,3.272795677,4.914860725
1066,1.55965478399e+18,1.25603199,2.300280571,1.145672321
1067,1.55965478405e+18,0.6404271126,-1.518801928,-2.79309082
1068,1.55965478411e+18,2.524772644,-2.26559329,-5.928508282
1069,1.55965478417e+18,7.4379673,1.457975626,2.761429787
1070,1.55965478423e+18,4.955506325,1.20482862,-14.94210243
1071,1.55965478429e+18,9.853443146,1.672222733,-13.91730213
1072,1.55965478435e+18,6.277256012,1.938938975,-2.928677559
1073,1.55965478441e+18,1.411511898,1.995481491,-1.278748035
1074,1.55965478447e+18,1.912624598,-16.05861282,17.50298691
1075,1.55965478453e+18,-3.14371109,-4.979982376,20.89966583
1076,1.55965478459e+18,-2.810575485,7.276553631,13.49724483
1077,1.55965478465e+18,-8.789593697,2.554959297,8.816586494
1078,1.55965478471e+18,-5.304815769,4.532606602,3.742379427
1079,1.55965478477e+18,0.08530664444,2.312673569,2.777298927
1080,1.55965478483e+18,4.965117455,0.202070713,-0.1856899261
1081,1.55965478489e+18,1.126072407,-4.188494682,-2.836411476
1082,1.55965478495e+18,-1.714558601,0.5975921154,-6.547902584
1083,1.55965478501e+18,4.429895401,3.582037449,-9.333045959
1084,1.55965478507e+18,6.422112465,3.78922081,-16.51890945
1085,1.55965478513e+18,3.157110691,3.741018057,-9.619773865
1086,1.55965478519e+18,-2.988618612,4.170804977,-0.0729341507
1087,1.55965478525e+18,-6.566758156,-4.379560471,2.644928694
1088,1.55965478531e+18,-15.02326393,-11.92996407,14.84529591
1089,1.55965478537e+18,-10.21209812,-0.08568668365,7.50028944
1090,1.55965478543e+18,-9.712938309,4.332966805,6.921815872
1091,1.55965478549e+18,-8.620234489,2.77640152,5.599590302
1092,1.55965478555e+18,-5.742659569,1.558971405,2.276226521
1093,1.55965478561e+18,0.5805501938,4.20157814,-0.1089611053
1094,1.55965478567e+18,-0.09698534012,0.3338913918,-1.351561546
1095,1.55965478572e+18,-0.08770561218,0.02938318253,0.4660797119
1096,1.55965478578e+18,3.135700226,0.412769556,-12.54730225
1097,1.55965478584e+18,7.942187309,4.540493011,-21.3034668
1098,1.5596547859e+18,5.988388538,3.050334692,-9.251339912
1099,1.55965478596e+18,-0.9227538109,4.497353554,-6.799571514
1100,1.55965478602e+18,-1.055944443,0.1964330673,7.21838522
1101,1.55965478608e+18,0.4283141494,-18.45916557,22.19752312
1102,1.55965478614e+18,-6.083921432,-6.18471241,14.67167854
1103,1.5596547862e+18,-5.517389297,2.681358337,8.50022316
1104,1.55965478626e+18,-10.20989132,0.04290866852,7.670681953
1105,1.55965478632e+18,-6.717515945,-0.4014091492,2.702767849
1106,1.55965478638e+18,-3.079209805,5.480587959,-1.86403203
1107,1.55965478644e+18,0.7221546173,2.949035883,-3.901896715
1108,1.5596547865e+18,3.238289833,1.23465848,-4.617236137
1109,1.55965478656e+18,5.725549221,-0.557266295,-8.706936836
1110,1.55965478662e+18,11.00571442,-2.747889996,-16.36882782
1111,1.55965478668e+18,14.74659348,-1.722202897,8.705410004
1112,1.55965478674e+18,11.33104134,2.823083401,-2.731890678
1113,1.5596547868e+18,-1.329107285,-9.212497711,4.487398624
1114,1.55965478686e+18,0.1035370827,-12.6296854,13.82704258
1115,1.55965478692e+18,-4.897058487,-4.573946953,17.78019905
1116,1.55965478698e+18,-1.828892708,-0.515455246,16.20561981
1117,1.55965478704e+18,-3.939682007,-0.4341287613,8.216799736
1118,1.5596547871e+18,-3.085883141,2.319495201,2.111862421
1119,1.55965478716e+18,-0.3500432968,-2.164996624,-4.508727074
1120,1.55965478722e+18,1.601369381,8.165607452,-1.390205383
1121,1.55965478728e+18,4.039811611,9.506464958,-3.653552055
1122,1.55965478734e+18,7.49888134,5.343496799,-5.25188446
1123,1.5596547874e+18,7.770513058,-2.639919281,-8.611960411
1124,1.55965478746e+18,7.472256184,-11.22121239,-13.0262022
1125,1.55965478752e+18,9.582683563,-0.8529553413,-5.266544819
1126,1.55965478758e+18,2.79409647,-1.402313709,5.107112885
1127,1.55965478764e+18,6.285801411,-8.722383499,8.685153961
1128,1.5596547877e+18,3.424819946,-10.42930984,26.11604691
1129,1.55965478776e+18,-1.786261559,2.339793205,18.34357834
1130,1.55965478782e+18,-7.072002411,0.7433271408,10.01897812
1131,1.55965478788e+18,0.0130572319,-0.6898093224,5.278158665
1132,1.55965478794e+18,1.902582169,-1.965393543,-0.07146310806
1133,1.559654788e+18,3.08411932,-5.562887192,-1.592250824
1134,1.55965478806e+18,4.199752808,-3.637579441,-1.990663767
1135,1.55965478812e+18,6.217545509,2.964290142,-0.6483380795
1136,1.55965478818e+18,8.138589859,-0.421987474,-10.14202309
1137,1.55965478824e+18,16.20334053,3.355985641,-5.645274162
1138,1.5596547883e+18,6.794445992,1.830932379,3.443524361
1139,1.55965478836e+18,8.006810188,1.13565588,2.88162756
1140,1.55965478842e+18,-3.143782139,-21.35385132,25.34895325
1141,1.55965478848e+18,-2.547755241,-3.52104187,16.24988365
1142,1.55965478854e+18,-3.227172375,4.371143341,12.41053772
1143,1.5596547886e+18,-4.127520561,3.215420723,8.513288498
1144,1.55965478866e+18,-1.700553894,1.084945679,5.899929047
1145,1.55965478872e+18,1.083275318,-1.959945202,1.81960845
1146,1.55965478878e+18,0.6201982498,-2.858180761,-0.5673289299
1147,1.55965478884e+18,2.872632027,0.2984752655,-5.028252602
1148,1.5596547889e+18,1.460751534,3.76275301,-1.077494144
1149,1.55965478896e+18,26.68385696,2.47597599,-16.93932343
1150,1.55965478902e+18,9.828092575,-0.9958424568,-6.962721348
1151,1.55965478908e+18,1.920574665,2.156672716,-4.166461945
1152,1.55965478914e+18,4.720169067,-4.254545212,0.5426988602
1153,1.5596547892e+18,-3.58344388,-23.02267075,26.21476173
1154,1.55965478926e+18,-4.071702957,-5.105861664,14.48917294
1155,1.55965478932e+18,-5.823664665,4.128331661,7.165837288
1156,1.55965478938e+18,-3.173864841,2.492543697,4.051006317
1157,1.55965478944e+18,-1.487689018,0.6722683907,3.748500824
1158,1.5596547895e+18,1.354030132,4.805392265,-0.2633543015
1159,1.55965478956e+18,4.249135017,2.993163586,-1.097174168
1160,1.55965478962e+18,0.05429363251,-4.625725746,-5.786714554
1161,1.55965478968e+18,1.231151581,0.6464853883,-7.535168171
1162,1.55965478974e+18,5.366062164,-4.125433922,-14.96094418
1163,1.5596547898e+18,9.51970005,2.433843613,-11.95890808
1164,1.55965478986e+18,4.610989094,-0.3052864075,-10.26988983
1165,1.55965478992e+18,5.430474281,-17.62311554,16.37127876
1166,1.55965478998e+18,-0.6379425526,-9.599557877,22.51500511
1167,1.55965479004e+18,-2.223981857,1.45442009,17.33934784
1168,1.5596547901e+18,-3.92454505,3.420301437,11.11751556
1169,1.55965479016e+18,-5.09711504,1.721319199,6.080459595
1170,1.55965479022e+18,-0.9632468224,-1.122600555,0.246686697
1171,1.55965479028e+18,4.022301674,1.321367025,-1.246928215
1172,1.55965479034e+18,4.862444878,0.262881279,-2.595974445
1173,1.5596547904e+18,3.187133312,-1.04825449,-6.023529053
1174,1.55965479046e+18,1.597850561,0.7756268978,-9.372625351
1175,1.55965479052e+18,9.493429184,5.723361969,-16.74087715
1176,1.55965479058e+18,10.13306236,7.34321785,-14.3204031
1177,1.55965479064e+18,4.78471756,-4.400708199,16.85759735
1178,1.5596547907e+18,5.880228043,-18.66825867,18.16130638
1179,1.55965479076e+18,-7.968136787,-7.211878777,17.39121056
1180,1.55965479082e+18,-5.178686619,4.807173252,13.40739155
1181,1.55965479088e+18,-8.275891304,1.463830948,8.701919556
1182,1.55965479094e+18,-5.573184967,2.783848286,4.662111759
1183,1.559654791e+18,-1.186154842,-0.2308740616,1.941868067
1184,1.55965479106e+18,11.2930479,6.897957325,-6.613797188
1185,1.55965479112e+18,4.986786842,9.119398117,-2.186538696
1186,1.55965479118e+18,-7.099928856,1.759403467,-0.8336133957
1187,1.55965479124e+18,-1.164814711,0.1914906502,-21.93496704
1188,1.5596547913e+18,4.577772141,2.959875345,-10.96442986
1189,1.55965479136e+18,-9.297319412,3.977718115,-6.945019245
1190,1.55965479142e+18,-1.54588306,-10.29800606,7.940423012
1191,1.55965479148e+18,-0.9081246257,-10.77751827,23.69861221
1192,1.55965479154e+18,-3.700219631,1.924174309,17.27173996
1193,1.5596547916e+18,-8.405945778,3.112016201,13.23312569
1194,1.55965479166e+18,-11.68578625,0.4377679825,10.26337433
1195,1.55965479172e+18,-6.269169807,1.50915575,1.334896088
1196,1.55965479178e+18,-1.290764809,3.682064295,-3.250168085
1197,1.55965479184e+18,2.576795816,1.879881859,-2.514304161
1198,1.5596547919e+18,5.319886684,2.044418573,-4.634871483
1199,1.55965479196e+18,7.282376289,9.153106689,-20.03396606
1200,1.55965479202e+18,14.67634201,7.53234005,-9.370900154
1201,1.55965479208e+18,8.011436462,9.341859818,8.346014023
1202,1.55965479214e+18,-5.122989655,-11.901618,14.28184319
1203,1.5596547922e+18,-5.336187363,-20.84786224,26.60674095
1204,1.55965479226e+18,-3.308026075,1.14227438,15.17554474
1205,1.55965479232e+18,-5.705854416,3.851091385,10.16059303
1206,1.55965479238e+18,-2.635062218,2.380876541,8.173382759
1207,1.55965479244e+18,0.08223247528,1.269159794,5.565508842
1208,1.5596547925e+18,1.289277077,4.2511096,3.043778419
1209,1.55965479256e+18,1.114677906,1.957644224,-0.06996965408
1210,1.55965479262e+18,6.676523209,4.146509171,-5.693397522
1211,1.55965479268e+18,14.27232552,0.3302130699,-15.24177074
1212,1.55965479274e+18,8.892837524,2.693369627,-12.46303654
1213,1.5596547928e+18,6.350923538,3.400075436,2.300742149
1214,1.55965479286e+18,3.099966288,-3.400169849,10.99407578
1215,1.55965479292e+18,1.724775791,-22.60368347,21.84065628
1216,1.55965479298e+18,-4.592078209,0.1088609695,10.30510712
1217,1.55965479303e+18,-5.952951908,2.627248287,6.421052933
1218,1.55965479309e+18,-2.502395153,-0.5566458702,6.702158451
1219,1.55965479315e+18,-0.4423885345,4.529127598,2.815006018
1220,1.55965479321e+18,-0.6787128448,3.156028748,-0.263384223
1221,1.55965479327e+18,2.812477112,0.6113190651,-2.040887594
1222,1.55965479333e+18,3.73627758,-2.64677763,-2.983946323
1223,1.55965479339e+18,12.20103073,0.2772577405,-3.716220856
1224,1.55965479345e+18,13.12145042,2.479291916,-10.35772133
1225,1.55965479351e+18,11.32959557,2.083010674,-8.911720276
1226,1.55965479357e+18,5.572449684,0.4310259819,11.93542099
1227,1.55965479363e+18,3.184539318,-11.55166721,7.645050049
1228,1.55965479369e+18,-5.783373356,-4.332912445,14.34284878
1229,1.55965479375e+18,-7.107452869,2.467890263,7.136404037
1230,1.55965479381e+18,-3.733721256,1.123904705,6.290312767
1231,1.55965479387e+18,-0.8895993233,-0.3702111244,2.087752819
1232,1.55965479393e+18,0.1926722527,-2.464281559,0.3209648132
1233,1.55965479399e+18,1.901804447,-6.340782642,-1.716314316
1234,1.55965479405e+18,-3.545897961,-5.257292747,9.550970078
1235,1.55965479411e+18,7.024329662,5.17899704,-13.31066513
1236,1.55965479417e+18,9.420597076,7.092937946,-11.16038704
1237,1.55965479423e+18,10.14549828,6.379196167,-11.86636448
1238,1.55965479429e+18,4.145089149,4.756327152,-2.345668316
1239,1.55965479435e+18,1.774992228,-23.93955231,6.262036324
1240,1.55965479441e+18,-10.11894703,-19.47249222,14.09674263
1241,1.55965479447e+18,-4.529603004,3.637532711,4.454153538
1242,1.55965479453e+18,-6.637120724,1.064721584,2.676526308
1243,1.55965479459e+18,-3.535186291,-2.027069569,2.018671513
1244,1.55965479465e+18,-0.7621150017,-6.905670166,-0.06554937363
1245,1.55965479471e+18,7.146258354,-2.480684757,-4.157234669
1246,1.55965479477e+18,4.214054108,0.7371474504,-10.76720333
1247,1.55965479483e+18,0.5930318832,6.229412556,-7.149995804
1248,1.55965479489e+18,5.191570282,2.900169849,-23.10773468
1249,1.55965479495e+18,4.297383785,2.017230749,-7.999855042
1250,1.55965479501e+18,3.173512936,4.133891582,-10.60684109
1251,1.55965479507e+18,-2.112999439,-4.739553928,3.741292477
1252,1.55965479513e+18,0.9397755861,-28.8988533,22.99826813
1253,1.55965479519e+18,-6.036431313,-5.604327202,6.705965042
1254,1.55965479525e+18,-5.119287491,1.748372078,2.712609291
1255,1.55965479531e+18,-3.043433666,0.701775074,3.968532085
1256,1.55965479537e+18,-1.947519302,-0.6200237274,1.574607372
1257,1.55965479543e+18,-3.041134357,1.813554764,0.7147903442
1258,1.55965479549e+18,2.078767776,4.307326794,-2.947379827
1259,1.55965479555e+18,0.1286845207,2.555452824,-5.328845501
1260,1.55965479561e+18,5.685925484,0.3277720213,-6.529437542
1261,1.55965479567e+18,5.411607742,-0.6217312813,-6.174232006
1262,1.55965479573e+18,5.610560894,-1.238209128,-14.27715683
1263,1.55965479579e+18,4.971195698,-0.9614127874,-6.341864109
1264,1.55965479585e+18,7.333667278,-1.823126674,-7.154151917
1265,1.55965479591e+18,5.186286926,-13.04638195,3.104152679
1266,1.55965479597e+18,-1.224028826,-17.06348419,15.75858784
1267,1.55965479603e+18,-2.121073961,-3.726911545,12.72804642
1268,1.55965479609e+18,0.05681872368,-1.051979065,9.938421249
1269,1.55965479615e+18,-1.50037241,-2.088515282,5.814740658
1270,1.55965479621e+18,0.572458744,-0.2079801559,3.524779797
1271,1.55965479627e+18,0.1497740746,4.0390172,-0.3119440079
1272,1.55965479633e+18,1.906609058,2.510214329,-5.423897743
1273,1.55965479639e+18,3.395749331,-0.9211568832,-4.830780983
1274,1.55965479645e+18,1.973112583,-2.967803001,-6.034677505
1275,1.55965479651e+18,5.2102561,-3.846975088,-6.41425705
1276,1.55965479657e+18,2.878316164,-5.499187946,-10.85949516
1277,1.55965479663e+18,5.372159004,-2.731659412,-9.215219498
1278,1.55965479669e+18,3.508073568,-2.736642838,-6.077798367
1279,1.55965479675e+18,-3.911133766,-17.31283951,11.66098118
1280,1.55965479681e+18,-3.347710848,-7.863903046,16.59119987
1281,1.55965479687e+18,-5.422207832,-0.9517993927,13.06858635
1282,1.55965479693e+18,-7.570038795,1.799531937,9.094882965
1283,1.55965479699e+18,-5.173579216,-2.123705864,7.124123573
1284,1.55965479705e+18,-3.126852512,-5.543067455,1.523983479
1285,1.55965479711e+18,2.062634945,-4.296473503,-3.437088251
1286,1.55965479717e+18,2.879811525,-1.71024847,-6.002985954
1287,1.55965479723e+18,4.414105892,1.500799298,-5.862654209
1288,1.55965479729e+18,5.258379459,2.050679922,-10.79297256
1289,1.55965479735e+18,14.33815765,5.243620872,-9.938027382
1290,1.55965479741e+18,4.836702347,4.365731239,-0.7292132378
1291,1.55965479747e+18,5.90286541,-2.394257545,-0.556047678
1292,1.55965479753e+18,0.1763523817,-26.20376968,19.34453011
1293,1.55965479759e+18,-6.045625687,-6.810848236,7.047260761
1294,1.55965479765e+18,-6.611597538,0.2674322128,6.163984299
1295,1.55965479771e+18,-7.707927227,2.478736877,6.61183548
1296,1.55965479777e+18,-4.869971752,2.638324261,2.485956669
1297,1.55965479783e+18,2.922418118,4.558004379,0.4676675797
1298,1.55965479789e+18,5.430622101,4.875854969,-2.783893108
1299,1.55965479795e+18,0.5596687794,0.6171603203,-6.419475555
1300,1.55965479801e+18,-0.6412529945,-0.8797063828,-8.738098145
1301,1.55965479807e+18,5.09130764,4.756412983,-15.46155739
1302,1.55965479813e+18,0.3260207176,5.941091537,-7.197446823
1303,1.55965479819e+18,1.21909833,1.770082474,1.635018826
1304,1.55965479825e+18,1.316555381,-19.56588364,19.61563492
1305,1.55965479831e+18,-7.208392143,-6.59483242,9.973596573
1306,1.55965479837e+18,-5.633408546,-0.1135196686,9.492541313
1307,1.55965479843e+18,-4.659649849,-0.3291883469,5.412811279
1308,1.55965479849e+18,-2.940561771,-0.6509084702,1.058674335
1309,1.55965479855e+18,-3.298390865,-3.647093773,-2.072406292
1310,1.55965479861e+18,3.747085571,-1.508022308,-4.971901894
1311,1.55965479867e+18,4.471607208,4.164390564,-8.684221268
1312,1.55965479873e+18,-3.839613438,7.864980698,3.66979599
1313,1.55965479879e+18,16.71507835,10.33724976,-23.32991409
1314,1.55965479885e+18,5.373810291,4.325936794,-4.152442932
1315,1.55965479891e+18,-3.322728395,-13.37513924,2.376157284
1316,1.55965479897e+18,-14.02080059,-32.63536453,13.28054333
1317,1.55965479903e+18,-5.024912834,-0.2704820633,4.006075859
1318,1.55965479909e+18,-5.621319771,-1.09778595,2.827593327
1319,1.55965479915e+18,-4.965945244,0.4749336243,0.996966362
1320,1.55965479921e+18,-4.934371948,0.0648856163,-2.928356171
1321,1.55965479927e+18,-0.3976230621,0.4048666954,-4.01183033
1322,1.55965479933e+18,-2.954084396,-3.150702,-0.3167514801
1323,1.55965479939e+18,-0.1362690926,2.589627028,-13.21190929
1324,1.55965479945e+18,14.41094589,4.168084145,-21.82958603
1325,1.55965479951e+18,8.499197006,4.685563564,-19.38502502
1326,1.55965479957e+18,3.840541601,3.106035709,-7.577361584
1327,1.55965479963e+18,-3.081821442,-9.601655006,7.966219425
1328,1.55965479969e+18,-9.79968071,-26.81194687,14.1349287
1329,1.55965479975e+18,-8.66061306,-3.479986191,4.062095165
1330,1.55965479981e+18,-7.486075401,1.58171463,3.411531448
1331,1.55965479987e+18,-3.49435997,-0.8486690521,1.735211372
1332,1.55965479993e+18,-6.878218651,-3.279649734,-3.08332634
1333,1.55965479999e+18,-5.714844704,-4.499581337,-5.370892525
1334,1.55965480005e+18,-0.1268286705,-3.138807058,-7.802489281
1335,1.55965480011e+18,0.05434751511,-0.318697691,-8.864258766
1336,1.55965480017e+18,7.528091908,3.864030838,-14.59569359
1337,1.55965480023e+18,9.432313919,5.95228529,-13.33750916
1338,1.55965480029e+18,-0.8949439526,-1.018122911,-4.438323498
1339,1.55965480035e+18,-2.041192293,6.901412964,0.2164859772
1340,1.55965480041e+18,-0.7452659011,-7.649218082,5.748986244
1341,1.55965480047e+18,-11.98753929,-8.318843842,11.17170143
1342,1.55965480053e+18,-14.09941292,-1.299592018,1.911284447
1343,1.55965480059e+18,-6.845976353,0.957546711,3.862075329
1344,1.55965480065e+18,-6.515454292,-1.802865505,-3.202290058
1345,1.55965480071e+18,-3.791454315,-4.644355297,-4.516207695
1346,1.55965480077e+18,-0.3065488338,-5.866448402,-6.291261673
1347,1.55965480083e+18,2.1569314,0.6955484152,-20.69727135
1348,1.55965480089e+18,10.29622936,5.678936005,-30.04863739
1349,1.55965480095e+18,10.38873386,11.95314312,-11.80510902
1350,1.55965480101e+18,2.242772102,12.58517075,-8.839751244
1351,1.55965480107e+18,-4.956284523,-4.986992836,12.28152847
1352,1.55965480113e+18,-12.16398621,-33.36066818,17.64841843
1353,1.55965480119e+18,-9.067893028,-4.950948715,1.354184866
1354,1.55965480125e+18,-3.926254272,0.7162036896,2.882476568
1355,1.55965480131e+18,-6.093828201,1.324696541,7.999664307
1356,1.55965480137e+18,-10.84669781,2.400027752,4.324730873
1357,1.55965480143e+18,-12.07430649,17.2023468,3.337828636
1358,1.55965480149e+18,-0.1978554726,8.006746292,-5.017199039
1359,1.55965480155e+18,-2.510128021,-3.748226881,-2.359658718
1360,1.55965480161e+18,6.445211887,-1.760110855,-18.38794136
1361,1.55965480167e+18,6.702800274,-2.189441681,-8.117577553
1362,1.55965480173e+18,6.315086365,6.071071625,-7.108406544
1363,1.55965480179e+18,5.050940037,-4.409497261,-1.602809429
1364,1.55965480185e+18,-0.1319532394,-21.97522736,25.32503319
1365,1.55965480191e+18,-4.964580059,-6.000100136,18.55227852
1366,1.55965480197e+18,-9.873127937,1.382142067,16.08019066
1367,1.55965480203e+18,-8.742144585,5.163628101,10.05086803
1368,1.55965480209e+18,-6.424875259,7.327271461,7.402237892
1369,1.55965480215e+18,-11.2053833,1.913513184,-1.695835352
1370,1.55965480221e+18,5.329971313,2.518475771,-6.053704739
1371,1.55965480227e+18,6.168796062,-2.668122768,8.924639702
1372,1.55965480233e+18,10.32684326,-0.7222337723,-16.95355415
1373,1.55965480239e+18,9.763198853,0.1838212013,-15.18223572
1374,1.55965480245e+18,2.707217932,-0.7779998779,0.1712931395
1375,1.55965480251e+18,2.082250118,-8.927508354,-1.540288925
1376,1.55965480257e+18,-6.403859138,-28.33878136,21.5087986
1377,1.55965480263e+18,-15.7032423,-15.28068829,11.52789116
1378,1.55965480269e+18,-25.60125542,4.043351173,0.9118402004
1379,1.55965480275e+18,-19.73505402,-1.298318386,6.572049618
1380,1.55965480281e+18,-15.05841446,6.352812767,4.315165997
1381,1.55965480287e+18,-8.266789436,1.022259712,-0.2736308575
1382,1.55965480293e+18,-3.873642206,-2.168663025,-2.915120602
1383,1.55965480299e+18,-0.74180305,-1.235404491,-0.28916502
1384,1.55965480305e+18,3.865986347,8.259725571,-17.63254166
1385,1.55965480311e+18,0.9860898256,13.76444817,-15.3436985
1386,1.55965480317e+18,0.699592948,8.61898613,2.115074635
1387,1.55965480323e+18,-6.739953041,-0.997636795,18.35830116
1388,1.55965480329e+18,-19.2406044,-28.04337692,23.14452553
1389,1.55965480335e+18,-13.73460197,-4.508860111,12.24123287
1390,1.55965480341e+18,-8.537570953,0.3883562088,10.2987709
1391,1.55965480347e+18,-4.564498425,1.639690876,11.4407444
1392,1.55965480353e+18,-4.815125465,0.6725234985,11.07616043
1393,1.55965480359e+18,-2.669118881,2.255718708,2.716172218
1394,1.55965480365e+18,12.33084488,12.64107323,-0.301264286
1395,1.55965480371e+18,7.098050117,9.458779335,-23.7683754
1396,1.55965480377e+18,8.107940674,13.70529652,-0.9222619534
1397,1.55965480383e+18,1.885994434,9.498456001,4.202847481
1398,1.55965480389e+18,-10.45817661,-5.55079937,6.400257111
1399,1.55965480395e+18,-18.14261818,-21.28466225,21.18546486
1400,1.55965480401e+18,-14.19829559,-10.85322762,13.13318634
1401,1.55965480407e+18,-12.46785736,1.674143314,8.696908951
1402,1.55965480413e+18,-10.98805141,3.102017879,8.255083084
1403,1.55965480419e+18,-4.887872219,5.553137302,3.407470703
1404,1.55965480425e+18,-0.4836464524,1.72073555,-0.4800645113
1405,1.55965480431e+18,-0.1082389355,5.451605797,-12.72180843
1406,1.55965480437e+18,11.86143112,11.78621197,-13.34998989
1407,1.55965480443e+18,7.188821316,12.33579445,0.7531034946
1408,1.55965480449e+18,-4.949820518,-7.990507126,14.93157673
1409,1.55965480455e+18,-9.322851181,-27.07079887,21.87700653
1410,1.55965480461e+18,-13.82775879,-7.434019089,9.870019913
1411,1.55965480467e+18,-13.7721386,-2.053063393,6.871051311
1412,1.55965480473e+18,-12.55358315,2.243916035,5.415396214
1413,1.55965480479e+18,-6.786634922,1.798906326,-0.2246376276
1414,1.55965480485e+18,1.620675087,3.425103664,-4.182556152
1415,1.55965480491e+18,1.69871974,17.42505264,-0.399336338
1416,1.55965480497e+18,-7.30544281,21.79158974,-20.52851677
1417,1.55965480503e+18,-2.216197729,10.09473419,11.99002457
1418,1.55965480509e+18,-13.58980942,-47.78152084,8.038788795
1419,1.55965480515e+18,-15.96655083,-21.58221817,-4.884076595
1420,1.55965480521e+18,-8.351993561,-11.83586502,6.586603642
1421,1.55965480527e+18,-8.203888893,1.116705418,9.218842506
1422,1.55965480533e+18,-13.12063408,10.45633698,0.3115409613
1423,1.55965480539e+18,-5.095547676,8.350524902,2.404201269
1424,1.55965480545e+18,-4.261815071,1.026360512,8.904123306
1425,1.55965480551e+18,5.705402374,20.46969604,-18.85252762
1426,1.55965480557e+18,0.6539783478,8.841797829,1.252205133
1427,1.55965480563e+18,-7.800488472,-7.087979317,1.826560736
1428,1.55965480569e+18,-13.84264183,-15.13204575,15.45191097
1429,1.55965480575e+18,-10.83213902,-2.060720444,4.981725216
1430,1.55965480581e+18,-8.320602417,1.191930771,2.367721558
1431,1.55965480587e+18,-3.402547359,4.190876961,1.095429897
1432,1.55965480593e+18,1.520452619,3.346913815,3.865706444
1433,1.55965480599e+18,4.111027241,4.091623783,-5.29104805
1434,1.55965480605e+18,-16.48399353,3.600383997,-3.460743904
1435,1.55965480611e+18,3.037454605,11.94688034,-4.335429192
1436,1.55965480617e+18,-0.8893316984,2.107134819,5.87955761
1437,1.55965480623e+18,-15.34056187,-15.6732378,16.5925312
1438,1.55965480629e+18,-10.78166676,-3.453840256,8.89461422
1439,1.55965480635e+18,-7.072397709,3.301671505,6.623990059
1440,1.55965480641e+18,-8.128705978,3.448754311,2.756149292
1441,1.55965480647e+18,0.452488184,3.946864128,1.243549585
1442,1.55965480653e+18,1.119787216,2.606341839,-1.433464527
1443,1.55965480659e+18,3.172119141,6.526426792,-16.45925331
1444,1.55965480665e+18,20.39926338,20.79659271,-15.13190269
1445,1.55965480671e+18,8.132276535,10.6746254,4.335105896
1446,1.55965480677e+18,4.362700939,-17.15967941,1.13381052
1447,1.55965480683e+18,-17.79150009,-15.31807327,11.76585579
1448,1.55965480689e+18,-12.79273987,-1.872052193,5.98378849
1449,1.55965480695e+18,-9.974441528,1.935008049,5.263450623
1450,1.55965480701e+18,-6.64469099,6.558424473,1.542206049
1451,1.55965480707e+18,-4.836571217,5.390147209,-3.747442722
1452,1.55965480713e+18,2.192983627,2.626267433,-3.939837933
1453,1.55965480719e+18,4.573950291,3.411613941,-3.126005411
1454,1.55965480725e+18,-1.891538858,3.614482164,0.4103870392
1455,1.55965480731e+18,5.832242012,4.935811043,-13.40725231
1456,1.55965480737e+18,7.957391739,6.082307339,-9.105831146
1457,1.55965480743e+18,-1.997194409,-10.36515141,9.035243034
1458,1.55965480749e+18,-8.2710886,-14.60784912,22.58810234
1459,1.55965480755e+18,-10.76760197,-3.715788841,9.18265152
1460,1.55965480761e+18,-7.313800335,5.906835556,7.434729099
1461,1.55965480767e+18,-4.943915844,2.457939625,7.154246807
1462,1.55965480773e+18,-2.339587212,0.9093604088,2.856592178
1463,1.55965480779e+18,1.792775154,-1.00986433,-2.075819969
1464,1.55965480785e+18,2.753927946,3.62699151,-2.308684587
1465,1.55965480791e+18,9.948365211,7.632150173,-11.7485714
1466,1.55965480797e+18,22.25115395,7.919919491,-13.27554703
1467,1.55965480803e+18,1.31643033,10.5709734,8.425073624
1468,1.55965480809e+18,7.415518284,-8.409352303,-8.555310249
1469,1.55965480815e+18,-4.954797268,-18.1687336,17.63788414
1470,1.55965480821e+18,-4.664488792,-2.604585648,7.881700039
1471,1.55965480827e+18,-5.920783997,0.367852211,9.543449402
1472,1.55965480833e+18,-5.660216331,2.218225956,9.274131775
1473,1.55965480839e+18,-6.528351784,-4.651207924,1.581209898
1474,1.55965480845e+18,-3.023536444,-2.541516304,-6.27896595
1475,1.55965480851e+18,3.906518459,4.909272194,-9.699163437
1476,1.55965480857e+18,12.29157829,3.608533621,-10.7227087
1477,1.55965480863e+18,8.554405212,7.071561813,-9.848604202
1478,1.55965480869e+18,4.629637241,4.389975548,-12.25613403
1479,1.55965480875e+18,7.947248459,-2.632070541,-1.000791311
1480,1.55965480881e+18,-7.132169724,-25.85770607,23.16556549
1481,1.55965480887e+18,-14.22131348,-10.7222805,9.440889359
1482,1.55965480893e+18,-15.0885582,2.066847324,3.981407166
1483,1.55965480899e+18,-11.56023979,2.923731327,4.724224091
1484,1.55965480905e+18,-7.375831604,4.870173931,1.98099637
1485,1.55965480911e+18,-1.741244793,3.517042637,1.76133728
1486,1.55965480917e+18,1.658914328,-0.0113325119,-2.261243582
1487,1.55965480923e+18,-3.458776712,-0.6771154404,-4.598834991
1488,1.55965480929e+18,8.159623146,6.65539217,-15.63688183
1489,1.55965480935e+18,1.105493069,10.98261452,-3.558897018
1490,1.55965480941e+18,1.331029058,10.70754719,-0.2776536942
1491,1.55965480947e+18,-5.815994263,-7.375850677,11.26110744
1492,1.55965480953e+18,-15.18770027,-25.06448364,21.81311989
1493,1.55965480959e+18,-8.655869484,-1.219362259,7.602006912
1494,1.55965480965e+18,-9.873004913,4.441997528,2.580411911
1495,1.55965480971e+18,-4.920712471,4.876505852,0.6644046307
1496,1.55965480977e+18,-3.857494354,3.771692753,1.095923424
1497,1.55965480983e+18,-4.750415802,6.797461033,-2.598882675
1498,1.55965480989e+18,-2.792561054,6.269472599,-6.794639587
1499,1.55965480995e+18,-0.5272922516,4.873109818,-2.175557375
1500,1.55965481001e+18,10.3229866,1.640350699,-16.24838638
1501,1.55965481007e+18,14.61987782,1.068702936,-17.57706261
1502,1.55965481013e+18,2.170614719,1.917350292,0.4218101501
1503,1.55965481019e+18,3.674371243,-19.6656723,1.133078456
1504,1.55965481025e+18,-0.156386137,-19.96817017,24.42856216
1505,1.55965481031e+18,-5.956279755,-2.60119915,9.282548904
1506,1.55965481037e+18,-5.409720421,4.252959728,9.606893539
1507,1.55965481043e+18,-2.824847221,-0.5221195221,11.95462894
1508,1.55965481049e+18,-3.029271603,-0.2813119888,5.704595566
1509,1.55965481055e+18,0.9959349632,3.749985218,0.7738039494
1510,1.55965481061e+18,1.312320709,5.688738346,-1.120671272
1511,1.55965481067e+18,4.86283493,2.350491047,-3.896170855
1512,1.55965481073e+18,23.72429657,1.62747705,-16.15166664
1513,1.55965481079e+18,9.765291214,1.515634537,-4.247152328
1514,1.55965481085e+18,10.60703659,0.163942337,-6.089364052
1515,1.55965481091e+18,9.438079834,-25.01449585,11.78437614
1516,1.55965481097e+18,-0.7942436337,-17.67379379,19.74588394
1517,1.55965481103e+18,-12.5116806,-4.810658455,9.157857895
1518,1.55965481109e+18,-16.9188118,6.777093887,5.399628639
1519,1.55965481115e+18,-12.63887119,2.097824574,4.487141132
1520,1.55965481121e+18,-7.067391872,5.584454536,3.342131376
1521,1.55965481127e+18,3.689171791,7.974279404,0.5576817989
1522,1.55965481133e+18,4.210103989,4.133761406,0.3733410835
1523,1.55965481139e+18,0.7338931561,-1.255252838,8.2707901
1524,1.55965481145e+18,5.779268265,0.3461351395,-17.39160728
1525,1.55965481151e+18,4.934877396,4.620659351,-10.89704323
1526,1.55965481157e+18,0.01596903801,2.5435462,-0.7858333588
1527,1.55965481163e+18,6.05024004,-16.9362278,12.72612858
1528,1.55965481169e+18,-5.514436722,-10.23029709,20.40991974
1529,1.55965481175e+18,-10.89213657,0.8367376328,16.65952301
1530,1.55965481181e+18,-13.43854618,1.599485397,11.29068947
1531,1.55965481187e+18,-10.09875107,1.18453598,10.51922131
1532,1.55965481193e+18,-4.47827673,1.991437435,4.06397295
1533,1.55965481199e+18,-3.419983387,-3.503632545,-1.092479706
1534,1.55965481205e+18,-3.805317879,-2.860609055,-6.841139793
1535,1.55965481211e+18,1.067212105,8.440581322,-7.884762287
1536,1.55965481217e+18,15.5189991,16.79226685,-10.18703651
1537,1.55965481223e+18,8.315276146,16.12869072,-9.352235794
1538,1.55965481229e+18,1.564151287,12.92129326,7.433536053
1539,1.55965481235e+18,0.164981842,-10.76280594,7.2270298
1540,1.55965481241e+18,-7.770354748,-27.98846054,17.16862869
1541,1.55965481247e+18,-14.32012177,-8.609822273,-0.541900456
1542,1.55965481253e+18,-12.3094883,-1.479735851,3.322518349
1543,1.55965481259e+18,-13.56213093,1.709058762,3.19969058
1544,1.55965481265e+18,-4.527358532,2.516196251,-1.66254878
1545,1.55965481271e+18,-1.949633598,7.756188869,-5.118402958
1546,1.55965481277e+18,-4.116641998,10.34755707,-1.082706451
1547,1.55965481283e+18,5.164307117,8.523284912,-15.6593895
1548,1.55965481289e+18,0.1682517827,13.42859554,-19.54200363
1549,1.55965481295e+18,-5.13760519,5.14670372,4.403245449
1550,1.55965481301e+18,-6.227730274,-25.64339447,7.651192188
1551,1.55965481307e+18,-6.32356739,-19.27679253,24.39403915
1552,1.55965481313e+18,-10.48532963,-2.344286919,12.73677349
1553,1.55965481319e+18,-11.17768574,-0.00190448761,9.74701786
1554,1.55965481325e+18,-5.60942173,-1.520627022,6.533473969
1555,1.55965481331e+18,-4.870474815,-1.056670189,3.518214941
1556,1.55965481337e+18,-1.479745865,0.8952236176,-0.8732608557
1557,1.55965481343e+18,4.983407497,5.669047356,-2.826435089
1558,1.55965481349e+18,15.97208786,13.98381424,-13.73207951
1559,1.55965481355e+18,12.3978138,9.710863113,-11.65191269
1560,1.55965481361e+18,-2.640706062,-0.6974649429,5.162677765
1561,1.55965481367e+18,0.03496611118,-20.46221924,13.59985542
1562,1.55965481373e+18,-6.111972332,-23.80856705,26.82868958
1563,1.55965481379e+18,-7.886083603,-6.309959412,18.0228157
1564,1.55965481385e+18,-9.784983635,0.5783143044,12.73556519
1565,1.55965481391e+18,-8.804203987,1.532320976,10.69453812
1566,1.55965481397e+18,-5.724475861,4.173961163,3.660298109
1567,1.55965481403e+18,-0.0867702961,4.260798931,3.654684544
1568,1.55965481409e+18,2.416056156,4.316257477,-0.909599781
1569,1.55965481415e+18,-1.089260101,3.589903831,-5.529289722
1570,1.55965481421e+18,8.161342621,8.644838333,-17.80436325
1571,1.55965481427e+18,3.689914703,5.198758125,1.356138229
1572,1.55965481433e+18,-2.16183877,-5.255179405,5.855589867
1573,1.55965481439e+18,-12.32005978,-31.85724831,21.48336411
1574,1.55965481445e+18,-13.89842224,-6.572853565,16.88831902
1575,1.55965481451e+18,-15.05383492,-0.7052726746,11.51741028
1576,1.55965481457e+18,-14.11189842,-0.1047496796,10.37727165
1577,1.55965481463e+18,-8.495624542,-0.1326036453,6.664207935
1578,1.55965481469e+18,-3.321092606,-1.894175529,1.538199186
1579,1.55965481475e+18,1.025602579,1.916975021,-0.07429027557
1580,1.5596548148e+18,0.2558434606,4.84922123,-5.827535629
1581,1.55965481486e+18,-9.950130463,8.063112259,-8.064056396
1582,1.55965481492e+18,0.29986763,14.37896919,-12.66957569
1583,1.55965481498e+18,-11.37464142,5.690551758,7.318175316
1584,1.55965481504e+18,-13.89725494,-9.956447601,9.021304131
1585,1.5596548151e+18,-18.1824131,-14.63123512,21.74685097
1586,1.55965481516e+18,-12.27431774,1.476966381,13.11216927
1587,1.55965481522e+18,-16.61816788,4.199527264,5.590498924
1588,1.55965481528e+18,-12.11288452,4.657904148,1.286381841
1589,1.55965481534e+18,-7.644605637,5.521918297,-1.122422814
1590,1.5596548154e+18,-5.438598156,-2.811404228,-2.999686718
1591,1.55965481546e+18,-2.533730745,-2.968772888,-2.366749763
1592,1.55965481552e+18,1.114946127,8.371477127,-7.788072586
1593,1.55965481558e+18,12.85290527,12.19539833,-12.76119041
1594,1.55965481564e+18,4.129115582,13.25456524,-1.340069175
1595,1.5596548157e+18,0.8463426828,6.632764816,7.938872814
1596,1.55965481576e+18,-7.073885918,-22.42933464,18.69781303
1597,1.55965481582e+18,-9.741344452,-8.496854782,17.23181915
1598,1.55965481588e+18,-8.529976845,3.776200771,13.13529396
1599,1.55965481594e+18,-7.916916847,3.833347797,9.495128632
1600,1.559654816e+18,-5.321107864,1.827156544,5.886426926
1601,1.55965481606e+18,-4.347452641,-2.955951691,1.209385633
1602,1.55965481612e+18,0.2035098076,-2.779207706,-3.401293516
1603,1.55965481618e+18,6.204066753,6.572541714,-10.66807461
1604,1.55965481624e+18,1.664645672,13.26907158,7.928948879
1605,1.5596548163e+18,15.73531151,13.2530117,-5.50269556
1606,1.55965481636e+18,4.321334362,1.68487978,0.1921418905
1607,1.55965481642e+18,-10.58411789,-32.55358505,28.67221451
1608,1.55965481648e+18,-8.552381516,-12.81867123,18.68727303
1609,1.55965481654e+18,-9.266303062,2.266760826,12.61736488
1610,1.5596548166e+18,-7.285766125,1.700891972,13.56404495
1611,1.55965481666e+18,-7.236521244,3.400568962,6.73959589
1612,1.55965481672e+18,0.1113522053,5.248086452,6.604955673
1613,1.55965481678e+18,3.084071159,8.27219677,5.084911823
1614,1.55965481684e+18,2.707051754,6.084106922,-5.650343895
1615,1.5596548169e+18,-2.160756111,5.628062725,-10.64065361
1616,1.55965481696e+18,9.960176468,-0.9567656517,-16.27465439
1617,1.55965481702e+18,5.929183006,4.352109432,-10.32353973
1618,1.55965481708e+18,-7.673296452,-5.059127808,2.855886459
1619,1.55965481714e+18,11.1023016,-24.84085083,24.19434929
1620,1.5596548172e+18,-3.141387224,-7.0394454,18.42121124
1621,1.55965481726e+18,-10.02980804,-3.048969269,14.8014183
1622,1.55965481732e+18,-13.2885952,-1.646708488,14.51847458
1623,1.55965481738e+18,-10.8311348,2.751431465,3.636239052
1624,1.55965481744e+18,-4.394974232,2.316029072,4.559547901
1625,1.5596548175e+18,6.520293236,5.476278305,-0.06686067581
1626,1.55965481756e+18,0.9337981939,4.2058568,2.900318623
1627,1.55965481762e+18,4.686418056,6.763985157,-16.16560173
1628,1.55965481768e+18,1.841537595,9.222572327,-8.650377274
1629,1.55965481774e+18,1.056382656,10.35123634,-8.124282837
1630,1.5596548178e+18,-4.466362953,2.437869072,7.547934532
1631,1.55965481786e+18,-12.37997723,-14.38157463,25.15987587
1632,1.55965481792e+18,-10.32885742,1.807191849,16.11619377
1633,1.55965481798e+18,-10.69666481,5.264034271,9.488219261
1634,1.55965481804e+18,-8.58275032,2.893839359,5.094336987
1635,1.5596548181e+18,-5.727622986,3.444153786,-0.7714483738
1636,1.55965481816e+18,-1.472337246,-1.502874374,-2.109599113
1637,1.55965481822e+18,-1.362495899,-6.588449478,-3.332823277
1638,1.55965481828e+18,-13.10975456,-3.135562897,28.13710022
1639,1.55965481834e+18,7.242055893,17.47608566,-17.44647789
1640,1.5596548184e+18,5.560545921,13.62157059,-5.206929207
1641,1.55965481846e+18,2.293187618,11.64068127,6.890461922
1642,1.55965481852e+18,-4.582613468,-9.202391624,8.389305115
1643,1.55965481858e+18,-7.243741989,-19.7763443,21.00201988
1644,1.55965481864e+18,-2.721238613,1.358930588,9.435544968
1645,1.5596548187e+18,-2.368439198,3.740055084,7.596093178
1646,1.55965481876e+18,-1.44131279,1.303902149,4.623003006
1647,1.55965481882e+18,1.377809048,3.423731804,4.499375343
1648,1.55965481888e+18,4.788247108,7.281000137,2.881295204
1649,1.55965481894e+18,5.320692539,2.392889977,-3.450331688
1650,1.559654819e+18,0.9182152748,-6.478072166,-8.366847038
1651,1.55965481906e+18,8.934699059,-1.145970821,-22.80205536
1652,1.55965481912e+18,9.952705383,2.977254391,0.1943421364
1653,1.55965481918e+18,0.7686712742,-3.495552063,6.26071167
1654,1.55965481924e+18,-3.229387283,-22.19667625,24.07594681
1655,1.5596548193e+18,-4.885876656,-0.6426677704,16.3997345
1656,1.55965481936e+18,-7.446603298,0.6329431534,12.07795715
1657,1.55965481942e+18,-3.292185068,0.5564880371,7.087736607
1658,1.55965481948e+18,-2.043817997,1.745643139,1.951575994
1659,1.55965481954e+18,1.105295658,1.13932991,1.79231286
1660,1.5596548196e+18,2.440182209,0.2890911102,-0.9707491398
1661,1.55965481966e+18,1.781832457,0.5383052826,0.5843348503
1662,1.55965481972e+18,15.00563335,14.44200516,-20.25019836
1663,1.55965481978e+18,11.4994278,11.53129101,-3.337798357
1664,1.55965481984e+18,-0.9521098137,7.592832088,2.781711817
1665,1.5596548199e+18,-2.17864275,-28.60499573,13.17968369
1666,1.55965481996e+18,-5.131369591,-12.02850914,14.29470253
1667,1.55965482002e+18,-8.074050903,-2.070414543,6.760737419
1668,1.55965482008e+18,-8.144933701,2.303429127,5.697205067
1669,1.55965482014e+18,-8.20540905,1.087871552,5.214169502
1670,1.5596548202e+18,-2.607052326,2.290282726,1.493727207
1671,1.55965482026e+18,-0.6841783524,2.123868942,-0.2017831802
1672,1.55965482032e+18,-0.249199152,4.231211662,-5.053746223
1673,1.55965482038e+18,4.890482903,8.803236008,-6.564334869
1674,1.55965482044e+18,5.474057198,11.51649284,-15.13392448
1675,1.5596548205e+18,8.802715302,12.26857662,-12.95845604
1676,1.55965482056e+18,3.546103954,5.606955528,5.082366467
1677,1.55965482062e+18,-6.564586163,-37.24245453,24.40192032
1678,1.55965482068e+18,-6.030888557,-11.30506802,10.26565456
1679,1.55965482074e+18,-6.378696918,-0.3987026215,8.64772892
1680,1.5596548208e+18,-2.946270227,2.311270237,5.638600349
1681,1.55965482086e+18,-2.565705299,4.620042324,2.669274807
1682,1.55965482092e+18,1.501249552,6.697748661,-2.232765675
1683,1.55965482098e+18,3.126269102,7.180736542,-2.784035683
1684,1.55965482104e+18,-0.1647572517,3.965755939,-6.613745213
1685,1.5596548211e+18,11.39721489,13.53515434,-21.70249557
1686,1.55965482116e+18,6.951976776,5.904787064,-6.630713463
1687,1.55965482122e+18,2.998191118,-0.9844164848,1.566761255
1688,1.55965482128e+18,-3.124047756,-26.08633423,24.05780792
1689,1.55965482134e+18,-3.069240808,-3.567943573,13.51466084
1690,1.5596548214e+18,-2.082350731,-0.215590477,9.255372047
1691,1.55965482146e+18,1.194206238,0.385175705,5.446472645
1692,1.55965482152e+18,-0.00207233429,1.177970409,2.681632757
1693,1.55965482158e+18,1.829098701,4.35461998,-2.65854454
1694,1.55965482164e+18,2.703418255,4.36196804,-0.3367643356
1695,1.5596548217e+18,3.815774918,7.726165771,-12.83537292
1696,1.55965482176e+18,24.12215424,6.615350246,-19.99975395
1697,1.55965482182e+18,8.215325356,4.663326263,1.976588488
1698,1.55965482188e+18,4.06072855,-8.140644073,-0.3634226322
1699,1.55965482194e+18,3.663506269,-30.65794373,28.8091259
1700,1.559654822e+18,-2.049985409,-4.890511513,8.958809853
1701,1.55965482206e+18,-3.092385292,3.01318121,8.969223022
1702,1.55965482212e+18,-2.001142502,1.186799049,10.43730831
1703,1.55965482218e+18,-1.542087555,-2.46109581,4.097345352
1704,1.55965482224e+18,5.348801613,-6.292315483,-0.8146173954
1705,1.5596548223e+18,10.75357628,-1.500231981,-0.6277813911
1706,1.55965482236e+18,14.71666145,8.128452301,-12.90957546
1707,1.55965482242e+18,23.46372604,5.340196609,-17.92412567
1708,1.55965482248e+18,7.212025642,-7.442998409,16.36213303
1709,1.55965482254e+18,14.90262794,-6.218931675,-5.717950821
1710,1.5596548226e+18,-24.91949463,-20.44559288,10.21297264
1711,1.55965482266e+18,-2.311572552,0.02814483643,17.937994
1712,1.55965482272e+18,2.765347004,-3.756144524,14.54470253
1713,1.55965482278e+18,-1.403802872,0.7288169861,8.629544258
1714,1.55965482284e+18,-1.79032588,-2.255311012,3.700759888
1715,1.5596548229e+18,5.72288847,5.505797386,0.4627389908
1716,1.55965482296e+18,-1.827377081,-0.06100225449,21.14068604
1717,1.55965482302e+18,-8.978554726,-5.587854385,-19.50152397
1718,1.55965482308e+18,9.353607178,4.257019997,-21.7496357
1719,1.55965482314e+18,6.462508202,10.36022663,-1.893979788
1720,1.5596548232e+18,2.493914604,12.10128212,-1.725128055
1721,1.55965482326e+18,2.806306362,-24.04387093,18.91670036
1722,1.55965482332e+18,-6.967469215,-6.595731735,19.44404984
1723,1.55965482338e+18,-4.499175072,3.987875938,12.23327255
1724,1.55965482344e+18,-0.7095184326,0.507101059,10.71539688
1725,1.5596548235e+18,-2.059455872,0.2090058327,6.35801363
1726,1.55965482356e+18,1.350958824,-2.401352406,5.756222725
1727,1.55965482362e+18,5.980547428,1.28144598,4.319896698
1728,1.55965482368e+18,12.76567364,14.00954628,2.373562336
1729,1.55965482374e+18,13.25087357,8.687740326,-22.10157776
1730,1.5596548238e+18,7.673694134,10.07041931,4.560925961
1731,1.55965482386e+18,5.945589066,9.466976166,0.4681238532
1732,1.55965482392e+18,-13.45031357,-22.99899673,3.92017436
1733,1.55965482398e+18,-9.260684013,-19.00183105,19.10439873
1734,1.55965482404e+18,-7.531832695,-7.596138954,10.8477993
1735,1.5596548241e+18,-7.672459602,2.614197731,5.990792751
1736,1.55965482416e+18,-3.715494156,2.701956749,5.872800827
1737,1.55965482422e+18,0.8893942833,1.86949873,5.026471615
1738,1.55965482428e+18,6.107203484,3.658586025,1.550307274
1739,1.55965482434e+18,3.869139194,10.6708231,-2.309714317
1740,1.5596548244e+18,8.897216797,10.24900532,-16.26872063
1741,1.55965482446e+18,5.270296097,9.68053627,0.06290411949
1742,1.55965482452e+18,-0.2173962593,-0.3315639496,5.167698383
1743,1.55965482458e+18,-13.3373127,-35.0034523,21.34691429
1744,1.55965482464e+18,-5.523836136,-5.31390667,13.69969177
1745,1.5596548247e+18,-5.866999626,1.244112968,8.25164032
1746,1.55965482476e+18,-5.440948009,1.883948803,9.69683075
1747,1.55965482482e+18,-3.239573002,1.797468185,6.266015053
1748,1.55965482488e+18,3.990854502,5.911073685,6.032564163
1749,1.55965482494e+18,5.049670219,5.396411896,5.841329575
1750,1.559654825e+18,-2.306855679,2.966208458,-0.2810320854
1751,1.55965482506e+18,8.535852432,2.396664143,-15.23167896
1752,1.55965482512e+18,11.49204922,0.3491954803,-9.782064438
1753,1.55965482518e+18,2.622367382,3.410867453,-2.436024904
1754,1.55965482524e+18,7.481093407,-7.207947731,0.9543673992
1755,1.5596548253e+18,-2.708849192,-18.70127487,24.8853054
1756,1.55965482536e+18,-5.015384197,-0.5934295654,14.04133129
1757,1.55965482542e+18,-5.665231705,3.569155216,10.48984718
1758,1.55965482548e+18,-2.642141104,-1.292175293,7.083713055
1759,1.55965482554e+18,-2.58696413,-6.316575527,-2.970335722
1760,1.5596548256e+18,3.454124451,-4.319429874,-6.982381821
1761,1.55965482566e+18,6.301447392,2.371946812,-3.523673296
1762,1.55965482572e+18,13.66530991,18.04224968,-3.024992704
1763,1.55965482578e+18,13.24560928,8.439281464,-10.28857422
1764,1.55965482584e+18,4.308078766,11.31628323,0.7419908047
1765,1.5596548259e+18,6.714948654,-7.541978836,-4.881030083
1766,1.55965482596e+18,-13.33721733,-24.94901276,17.23045731
1767,1.55965482602e+18,-10.94882202,-3.978987694,2.745377779
1768,1.55965482608e+18,-11.48337555,5.061246395,0.7983827591
1769,1.55965482614e+18,-10.45374584,0.7229452133,2.403414249
1770,1.5596548262e+18,-3.849098682,3.625229359,-0.2503004074
1771,1.55965482626e+18,-1.084859133,3.86176157,-2.720879078
1772,1.55965482632e+18,-5.151190758,-5.586068153,-9.140636444
1773,1.55965482638e+18,0.6554553509,-3.47760582,-4.77464056
1774,1.55965482644e+18,5.890057564,5.080783844,-24.31135941
1775,1.5596548265e+18,1.635046482,8.828582764,-2.140357971
1776,1.55965482656e+18,3.551597118,9.330817223,1.895197868
1777,1.55965482662e+18,-2.409127235,-20.64022827,11.24536896
1778,1.55965482668e+18,-12.89463329,-10.60893822,11.44661236
1779,1.55965482674e+18,-10.50317383,6.772645473,5.866997242
1780,1.5596548268e+18,-8.768631935,1.743351936,7.355331898
1781,1.55965482686e+18,-6.658804893,4.787828922,-3.051442385
1782,1.55965482692e+18,-1.604645729,3.512349606,-5.142692089
1783,1.55965482698e+18,1.712767124,4.912175179,-2.57511425
1784,1.55965482704e+18,2.984864235,6.184891701,-2.918395996
1785,1.5596548271e+18,-2.258594036,6.483918667,-10.302495
1786,1.55965482716e+18,19.42743111,4.229777813,-14.7443924
1787,1.55965482722e+18,10.15206718,9.58976841,-5.659524918
1788,1.55965482728e+18,4.401035786,-3.269935608,5.369080544
1789,1.55965482734e+18,-4.532943726,-28.07805634,24.01773453
1790,1.5596548274e+18,-9.28113842,-4.336996078,12.28283119
1791,1.55965482746e+18,-7.09461832,4.881806374,10.86382008
1792,1.55965482752e+18,-6.235878944,1.538046837,12.40456676
1793,1.55965482758e+18,-4.035822392,1.926383018,9.195189476
1794,1.55965482764e+18,2.134367228,3.402901173,4.520358562
1795,1.5596548277e+18,5.754910946,3.339864016,0.4691047668
1796,1.55965482776e+18,6.240570068,2.924128056,-6.546392441
1797,1.55965482782e+18,0.7099132538,4.599638462,-11.30459404
1798,1.55965482788e+18,9.363091469,8.453392029,-0.4646067619
1799,1.55965482794e+18,5.905378342,4.850178242,4.092424393
1800,1.559654828e+18,-8.960446358,-19.70476913,11.01799679
1801,1.55965482806e+18,-3.884930849,-9.676735878,18.77859688
1802,1.55965482812e+18,-1.697065592,-0.09950447083,12.45262337
1803,1.55965482818e+18,-6.698660851,3.728144169,8.692554474
1804,1.55965482824e+18,-8.332941055,0.251543045,3.845955133
1805,1.5596548283e+18,-4.536217213,-2.642915726,-1.714539409
1806,1.55965482836e+18,4.545767784,0.8349118233,-2.275257587
1807,1.55965482842e+18,10.40457535,4.679004669,-7.548186302
1808,1.55965482848e+18,17.39160156,20.01170349,-9.426202774
1809,1.55965482854e+18,12.70279503,7.352652073,-8.019314766
1810,1.5596548286e+18,1.346952319,3.110537529,1.95945096
1811,1.55965482866e+18,-1.574236631,-25.53988266,9.558651924
1812,1.55965482872e+18,-4.887086391,-11.17617989,11.72041798
1813,1.55965482878e+18,-7.774774551,0.03394412994,3.774624348
1814,1.55965482884e+18,-6.273911476,3.24361372,2.426388741
1815,1.5596548289e+18,-1.627614498,2.836605549,5.080323219
1816,1.55965482896e+18,1.550410509,2.444340706,2.448320389
1817,1.55965482902e+18,1.330969572,0.6157989502,-0.2887444496
1818,1.55965482908e+18,2.219744205,6.75401783,7.056249619
1819,1.55965482914e+18,10.6532402,7.595546722,-25.42799377
1820,1.5596548292e+18,6.657854557,11.2916584,2.184129715
1821,1.55965482926e+18,0.5076935291,5.192127705,-3.182321787
1822,1.55965482932e+18,-7.5003829,-21.34002113,14.04317093
1823,1.55965482938e+18,-5.652827263,-5.774831772,8.317878723
1824,1.55965482944e+18,-3.955439568,1.123797417,3.042394161
1825,1.5596548295e+18,-1.149102926,3.310700893,5.192548752
1826,1.55965482956e+18,-0.1658611298,2.890544891,4.237011909
1827,1.55965482962e+18,-0.3781981468,4.424405098,3.072713852
1828,1.55965482968e+18,4.233287811,5.521158695,2.712583065
1829,1.55965482974e+18,3.238972664,3.564659119,-5.192523956
1830,1.5596548298e+18,-0.04970741272,4.117648125,-14.04266548
1831,1.55965482986e+18,2.59605813,3.914116144,-6.001146793
1832,1.55965482992e+18,0.9049569368,1.770377636,-13.44720173
1833,1.55965482998e+18,-4.273779869,-17.02968788,7.154016018
1834,1.55965483004e+18,-6.933078766,-9.749659538,10.05216408
1835,1.5596548301e+18,-7.088337898,-0.8498191833,3.953102589
1836,1.55965483016e+18,-5.113455772,0.408249855,5.214035034
1837,1.55965483022e+18,-3.886170864,0.06161212921,4.135655403
1838,1.55965483028e+18,-0.02776527405,4.609329224,1.890848637
1839,1.55965483034e+18,1.514508247,5.830242157,2.542728901
1840,1.5596548304e+18,0.5272498131,7.229286194,-3.2299757
1841,1.55965483046e+18,-1.073405266,2.268626213,-9.594788551
1842,1.55965483052e+18,3.547958374,-3.701465845,-16.43004417
1843,1.55965483058e+18,9.73046875,-3.081521034,-24.63212204
1844,1.55965483064e+18,-0.7781839371,-4.715950012,1.679265499
1845,1.5596548307e+18,1.878454924,-3.348009109,0.7152647972
1846,1.55965483076e+18,-6.876786232,-11.78424454,16.29381561
1847,1.55965483082e+18,-6.810744762,-0.6207427979,14.61003113
1848,1.55965483088e+18,-14.10690784,3.446090221,8.687458038
1849,1.55965483094e+18,-7.696269512,1.011947632,5.940356255
1850,1.559654831e+18,-2.447085142,-0.2444448471,-0.4724142551
1851,1.55965483106e+18,-0.234787941,-12.51640701,-9.943296432
1852,1.55965483112e+18,5.075682163,-5.896125793,-10.6567173
1853,1.55965483118e+18,8.949839592,8.290933609,-10.62583542
1854,1.55965483124e+18,23.48036575,14.33735085,-10.52865791
1855,1.5596548313e+18,13.823699,21.98609543,2.436280012
1856,1.55965483136e+18,7.470469952,1.35841465,8.238280296
1857,1.55965483142e+18,-6.734938145,-33.22048569,8.820474625
1858,1.55965483148e+18,-11.09912586,-4.161400795,-5.516354561
1859,1.55965483154e+18,-10.63204288,-2.764724731,-2.27088213
1860,1.5596548316e+18,-4.592566967,-3.04265976,1.049863815
1861,1.55965483166e+18,-1.868015051,2.334881783,0.6016387939
1862,1.55965483172e+18,0.9543464184,2.787350178,-3.920506954
1863,1.55965483178e+18,0.8085157871,-0.4686598778,-5.063900948
1864,1.55965483184e+18,2.028987408,5.303642273,-3.706735134
1865,1.5596548319e+18,7.965681076,10.44856262,-17.97258759
1866,1.55965483196e+18,1.329508424,9.943816185,-5.595615864
1867,1.55965483202e+18,-6.240350723,-4.65055275,6.837423325
1868,1.55965483208e+18,-5.822547436,-26.04467392,18.80774117
1869,1.55965483214e+18,-7.019016266,-4.478658676,9.233834267
1870,1.5596548322e+18,-4.708812237,1.387159824,6.532944202
1871,1.55965483226e+18,-2.04609251,1.009577751,8.56310463
1872,1.55965483232e+18,-3.860982418,1.698922157,3.803644657
1873,1.55965483238e+18,-3.09223175,3.982807398,2.225601673
1874,1.55965483244e+18,-5.489607334,2.804925919,0.137614727
1875,1.5596548325e+18,-4.705944061,3.030570984,-9.094742775
1876,1.55965483256e+18,2.051886559,1.788168907,-12.85893917
1877,1.55965483262e+18,10.98885536,8.104887962,-12.86104393
1878,1.55965483268e+18,9.723070145,10.05832005,-5.980783463
1879,1.55965483274e+18,-7.66741991,-2.525527,2.606554985
1880,1.5596548328e+18,-9.482422829,-23.85555267,17.3494854
1881,1.55965483286e+18,-6.075742245,-9.41015625,12.30412102
1882,1.55965483292e+18,-6.733968258,0.4854383469,3.696839333
1883,1.55965483298e+18,-6.681310177,2.7032938,2.990866184
1884,1.55965483304e+18,-5.596161842,2.26060915,-1.462759495
1885,1.5596548331e+18,0.4900934696,3.6483531,-3.641118526
1886,1.55965483316e+18,2.796656132,7.495232582,-2.157891273
1887,1.55965483322e+18,0.3946835995,4.456343651,-6.14237833
1888,1.55965483328e+18,-0.1579771042,2.914168119,-13.12601948
1889,1.55965483334e+18,8.328339577,1.422608137,-15.96331978
1890,1.5596548334e+18,3.004499674,5.491905212,-2.684325218
1891,1.55965483346e+18,-2.787527561,-8.850416183,-0.01443719864
1892,1.55965483352e+18,-7.439918995,-17.9296093,16.53487396
1893,1.55965483358e+18,-4.51314497,1.419070244,6.107079506
1894,1.55965483364e+18,-4.401071548,0.1361169815,7.429376602
1895,1.5596548337e+18,-3.986694336,0.3029699326,4.777922153
1896,1.55965483376e+18,0.4191298485,2.61955595,1.283150196
1897,1.55965483382e+18,2.632572412,4.630329132,-1.503961563
1898,1.55965483388e+18,1.402736545,3.988720655,-2.158618927
1899,1.55965483394e+18,-0.905561924,1.94963932,-5.154083252
1900,1.559654834e+18,1.035613298,1.221921206,-11.07429123
1901,1.55965483406e+18,4.752370834,4.515740871,-11.2414999
1902,1.55965483412e+18,-0.6469209194,1.331335545,-7.751198769
1903,1.55965483418e+18,4.642838478,-1.177218437,-1.160381317
1904,1.55965483424e+18,-7.531701565,-18.00539398,20.80918121
1905,1.5596548343e+18,-5.736193657,-3.512329102,9.773127556
1906,1.55965483436e+18,-2.002876043,3.192557812,5.427009583
1907,1.55965483442e+18,-0.4211871922,1.359677315,3.383765697
1908,1.55965483448e+18,-2.361959934,1.127465725,-0.9144105911
1909,1.55965483454e+18,0.384743005,2.992088079,0.222653389
1910,1.5596548346e+18,-0.04329681396,1.81867218,-0.6531457901
1911,1.55965483466e+18,-1.162883639,1.15333271,-5.040818691
1912,1.55965483472e+18,1.624216199,2.672609568,-9.041544914
1913,1.55965483478e+18,6.104421139,2.476987839,-25.91984558
1914,1.55965483484e+18,-3.902062893,2.448424578,0.4354104996
1915,1.5596548349e+18,3.558924675,2.862585545,-7.694092751
1916,1.55965483496e+18,-7.520883083,-20.01749039,19.8457489
1917,1.55965483502e+18,-0.2850217223,1.266016006,15.95402718
1918,1.55965483508e+18,-4.317873955,4.348377705,11.94852638
1919,1.55965483514e+18,-3.351536989,2.611938,8.149177551
1920,1.5596548352e+18,-3.854318619,-1.352301121,-0.4711942673
1921,1.55965483526e+18,-2.501872063,-3.552371979,-5.118491173
1922,1.55965483532e+18,0.5006399155,-2.91794157,-6.337704659
1923,1.55965483538e+18,-0.104244709,-0.3422021866,-11.44038963
1924,1.55965483544e+18,8.327972412,8.144927979,-23.65435982
1925,1.5596548355e+18,16.7085762,7.752670765,-15.33927536
1926,1.55965483556e+18,8.822101593,10.65125847,2.438924313
1927,1.55965483562e+18,1.809201598,-20.78350067,8.051630974
1928,1.55965483568e+18,-4.372793198,-16.87068939,19.42066956
1929,1.55965483574e+18,-6.350263119,0.4114761353,8.158277512
1930,1.5596548358e+18,-3.928283691,3.728646755,10.20642567
1931,1.55965483586e+18,-3.78409338,2.379481792,9.255473137
1932,1.55965483592e+18,-1.110405445,0.6099367142,1.816536903
1933,1.55965483598e+18,1.068184614,-1.442419052,1.704147339
1934,1.55965483604e+18,3.979926586,2.740995884,-7.169538498
1935,1.5596548361e+18,7.849791527,16.73488998,-5.77185154
1936,1.55965483616e+18,7.701840401,14.20664215,-16.2557106
1937,1.55965483622e+18,1.546666861,11.54580402,4.219971657
1938,1.55965483628e+18,-4.203939438,1.499816895,11.39358807
1939,1.55965483634e+18,-7.731730461,-35.25152588,15.52789688
1940,1.5596548364e+18,-7.454792023,-4.220021248,4.357738972
1941,1.55965483646e+18,-12.15891647,0.5660715103,3.196732521
1942,1.55965483652e+18,-6.396986961,4.343451023,0.283441782
1943,1.55965483658e+18,-4.236624718,8.196298599,-0.6911716461
1944,1.55965483664e+18,2.960449457,7.596230507,-2.116625547
1945,1.55965483669e+18,5.056313515,9.074385643,-1.950023651
1946,1.55965483675e+18,-15.6842308,-9.76715374,16.34101295
1947,1.55965483681e+18,9.3244524,6.957502365,-27.92208862
1948,1.55965483687e+18,1.855199814,8.899638176,-6.809292793
1949,1.55965483693e+18,-5.073458195,0.5920372009,4.7439394
1950,1.55965483699e+18,1.327162266,-22.26923752,12.59144306
1951,1.55965483705e+18,-8.669372559,-5.270284653,11.4467535
1952,1.55965483711e+18,-9.952924728,2.547996998,5.514868736
1953,1.55965483717e+18,-11.90023041,1.771895409,8.127102852
1954,1.55965483723e+18,-5.986519337,3.631399632,5.195593834
1955,1.55965483729e+18,-3.745029688,4.239479542,0.4757509232
1956,1.55965483735e+18,0.8954341412,4.732380867,-2.743253231
1957,1.55965483741e+18,2.036442041,-2.215159416,7.861428738
1958,1.55965483747e+18,13.57657051,10.63530636,-20.56896973
1959,1.55965483753e+18,9.35395813,10.25608921,-7.060029984
1960,1.55965483759e+18,2.179794788,1.785143852,5.938724995
1961,1.55965483765e+18,8.867123604,-33.72612762,12.34565926
1962,1.55965483771e+18,-5.380359173,-6.726818085,10.01745224
1963,1.55965483777e+18,-12.5543251,0.1499300003,9.125112534
1964,1.55965483783e+18,-12.03854465,-0.1957540512,12.54189968
1965,1.55965483789e+18,-9.172768593,-0.5733556747,8.397501945
1966,1.55965483795e+18,-3.946856737,7.494973183,4.736687183
1967,1.55965483801e+18,2.46032691,8.522386551,1.325375319
1968,1.55965483807e+18,3.376214981,6.175169468,-2.22127676
1969,1.55965483813e+18,-1.356100082,-1.350216866,1.518972397
1970,1.55965483819e+18,4.58132267,2.464215517,-16.02737045
1971,1.55965483825e+18,9.048839569,4.03194952,-16.8181076
1972,1.55965483831e+18,-5.444842815,-6.303004265,0.1852293015
1973,1.55965483837e+18,-0.4968819618,-6.586924553,3.009242058
1974,1.55965483843e+18,-3.692023277,-14.75963688,19.26806831
1975,1.55965483849e+18,-13.56736088,-5.197896004,12.15327072
1976,1.55965483855e+18,-24.85360909,0.1092233658,5.535573006
1977,1.55965483861e+18,-18.81863213,-4.819351196,8.832021713
1978,1.55965483867e+18,-12.79787159,-0.1539478302,0.2992992401
1979,1.55965483873e+18,-5.649495125,3.335707188,-1.29674983
1980,1.55965483879e+18,1.445815682,8.219025612,-1.695762157
1981,1.55965483885e+18,9.313709259,-5.777822971,-14.6148262
1982,1.55965483891e+18,-5.004356384,-10.76156616,-27.60327148
1983,1.55965483897e+18,8.575013161,16.97238922,-8.292303085
1984,1.55965483903e+18,-4.53223896,20.68444061,-4.784312248
1985,1.55965483909e+18,-9.489740372,0.009162902832,14.52392387
1986,1.55965483915e+18,-28.80312538,-25.93768883,12.98813438
1987,1.55965483921e+18,-13.12417412,-9.763225555,6.904370785
1988,1.55965483927e+18,-8.37276268,-1.194056988,3.836409092
1989,1.55965483933e+18,-9.475824356,1.429241657,7.168076038
1990,1.55965483939e+18,-12.58166885,4.220416069,13.70199299
1991,1.55965483945e+18,-10.42091942,18.49319077,13.89428902
1992,1.55965483951e+18,-16.26008034,1.430221081,-14.80368519
1993,1.55965483957e+18,-1.086750865,1.298175335,-13.61246109
1994,1.55965483963e+18,6.876032829,6.577881813,-6.415447235
1995,1.55965483969e+18,1.635545969,4.420338154,9.379184723
1996,1.55965483975e+18,-7.068751812,5.828546524,-2.58550334
1997,1.55965483981e+18,-1.209967256,-8.093671799,0.263864398
1998,1.55965483987e+18,-5.048420906,-21.89577484,26.31343842
1999,1.55965483993e+18,-5.343476772,-1.621095657,16.8117981
2000,1.55965483999e+18,-11.1793623,1.888392448,10.43889713
2001,1.55965484005e+18,-7.103075981,0.8077869415,8.700508118
2002,1.55965484011e+18,-5.221022606,1.483034134,2.692362547
2003,1.55965484017e+18,-2.921819687,7.642174721,-1.008714795
2004,1.55965484023e+18,-0.754961729,5.399038315,-3.279881477
2005,1.55965484029e+18,-0.6767091751,3.664572716,-7.326748848
