,Time (s),Linear Acceleration x (m/s^2),Linear Acceleration y (m/s^2),Linear Acceleration z (m/s^2)
0,1.55965532206e+18,-1.323709488,-0.2699060142,-1.918762684
1,1.55965532212e+18,-2.120688438,-0.3696029186,-2.444156647
2,1.55965532218e+18,-2.932946205,-0.4699842036,-2.873519897
3,1.55965532224e+18,-3.625015497,-0.6141479611,-3.165940285
4,1.5596553223e+18,-4.305796623,-0.798822403,-3.391996384
5,1.55965532236e+18,-4.860767365,-1.011884332,-3.530990601
6,1.55965532242e+18,3.640368462,0.01024979353,-0.7067422867
7,1.55965532248e+18,2.644477606,-0.2737755179,-0.8453426361
8,1.55965532254e+18,2.917277575,-0.7873053551,-0.5257892609
9,1.5596553226e+18,1.831405163,-1.980771542,-0.4607963562
10,1.55965532266e+18,2.679437399,-1.651455641,0.4962244034
11,1.55965532272e+18,0.3601067066,-2.039502144,-1.682438374
12,1.55965532278e+18,-0.2663927078,-1.042443037,-1.04660511
13,1.55965532284e+18,-4.024021149,2.079499722,-0.9579172134
14,1.5596553229e+18,-1.546329021,3.652086496,-0.2912578583
15,1.55965532296e+18,-0.9474196434,3.711434841,1.014797211
16,1.55965532302e+18,-0.6136074066,6.146329403,-1.908726215
17,1.55965532308e+18,1.112071991,3.354455948,0.4364256859
18,1.55965532314e+18,-0.33086586,1.101594806,1.238996029
19,1.5596553232e+18,-0.1073331833,-2.903039455,0.7033109665
20,1.55965532326e+18,0.6854977608,-3.482331276,2.533257008
21,1.55965532332e+18,3.169990301,-2.403844357,6.143698692
22,1.55965532338e+18,-3.016863823,0.486092627,-2.914068222
23,1.55965532344e+18,0.3232860565,-1.34038806,-1.360481262
24,1.5596553235e+18,-1.647924423,-1.390471458,0.746881485
25,1.55965532356e+18,-2.423131227,0.0859606266,-1.578304291
26,1.55965532362e+18,-0.5169767141,0.9425458908,-2.21385622
27,1.55965532368e+18,-0.5175123215,1.454218864,-2.696326256
28,1.55965532374e+18,0.4185900092,2.155689001,-2.231611729
29,1.5596553238e+18,-1.03032577,0.8037683964,-1.36374855
30,1.55965532386e+18,1.429973006,1.48238492,-0.880197525
31,1.55965532392e+18,1.478910327,2.41385746,-0.3383674622
32,1.55965532398e+18,1.866065502,1.893572092,0.1765623093
33,1.55965532404e+18,1.459382772,0.5539357662,-0.873380661
34,1.5596553241e+18,-1.427743077,-0.04443287849,-1.432111263
35,1.55965532416e+18,-1.053897858,0.2609789371,-2.152105331
36,1.55965532422e+18,0.1520174891,-1.12752223,-1.519118786
37,1.55965532428e+18,-0.8215043545,-2.30001688,-1.724411011
38,1.55965532434e+18,0.2035585046,-0.2369585037,-0.4808425903
39,1.5596553244e+18,-0.5195887089,0.6313080788,-0.06005191803
40,1.55965532446e+18,0.364180088,-0.1288073063,1.013375282
41,1.55965532452e+18,0.9121222496,-1.611881495,1.777481079
42,1.55965532458e+18,1.648604274,-1.005007982,1.71560955
43,1.55965532464e+18,1.902950287,-0.455978483,1.628089905
44,1.5596553247e+18,1.007456899,-0.3016603291,0.4758071899
45,1.55965532476e+18,1.350619078,-0.2891194224,0.642578125
46,1.55965532482e+18,2.276751041,0.6627908945,0.667678833
47,1.55965532488e+18,1.601201534,0.4887076616,0.3894424438
48,1.55965532494e+18,0.5416939259,0.7622891665,-0.8764181137
49,1.559655325e+18,0.1682929993,1.201011658,-0.5981121063
50,1.55965532506e+18,-0.7842717171,0.2817998528,-0.5271606445
51,1.55965532512e+18,0.715190053,0.4465446472,0.2610425949
52,1.55965532518e+18,-2.95255661,-1.605750799,0.9758272171
53,1.55965532524e+18,-0.5357310772,-0.6372537017,0.5890102386
54,1.55965532529e+18,-1.736817598,-0.7216497064,0.3142147064
55,1.55965532535e+18,-1.190632582,-0.9482542276,-0.7997264862
56,1.55965532541e+18,0.2005593777,0.04378819466,-0.1085882187
57,1.55965532547e+18,0.4559276104,-0.2382192314,-0.7140254974
58,1.55965532553e+18,0.257030189,0.4524031878,-1.141393661
59,1.55965532559e+18,-0.707519412,-0.5348956585,0.1947212219
60,1.55965532565e+18,-1.822330594,-0.8239209652,0.884718895
61,1.55965532571e+18,-0.1064883918,-1.168738127,3.727720261
62,1.55965532577e+18,-1.332345247,-1.433956146,-0.7720174789
63,1.55965532583e+18,0.4021046162,-2.016338348,-1.604692936
64,1.55965532589e+18,0.1101357937,-2.120586157,-2.384366989
65,1.55965532595e+18,-1.31930685,-2.64253521,-1.499033928
66,1.55965532601e+18,-0.5777857304,-2.119327545,-0.4626197815
67,1.55965532607e+18,-0.5678703785,0.445572257,-0.9375457764
68,1.55965532613e+18,-0.455930829,1.439935446,-0.03508663177
69,1.55965532619e+18,0.5258412361,1.767509937,0.6741285324
70,1.55965532625e+18,-0.06910252571,2.23293972,-0.3512296677
71,1.55965532631e+18,0.676857233,1.280600548,0.1752338409
72,1.55965532637e+18,0.646914959,1.426245213,0.16751194
73,1.55965532643e+18,-0.7662395239,0.7414433956,0.8719158173
74,1.55965532649e+18,-0.6769317389,0.9392260909,0.4467897415
75,1.55965532655e+18,-0.6768703461,0.5688813329,-0.0467338562
76,1.55965532661e+18,-1.133871198,0.9928847551,1.058825493
77,1.55965532667e+18,-0.747621119,0.05348366499,1.452936172
78,1.55965532673e+18,-0.08915889263,-0.6661984324,1.195692062
79,1.55965532679e+18,-0.1733313799,-0.7986551523,0.6749668121
80,1.55965532685e+18,-0.1585139036,-0.5938996077,-0.402176857
81,1.55965532691e+18,-0.06121945381,-0.2602806091,-0.5843496323
82,1.55965532697e+18,-1.503184795,-1.278820038,-0.5561561584
83,1.55965532703e+18,0.8258485794,-1.120699644,-0.6332864761
84,1.55965532709e+18,-1.024827719,-0.7083330154,-2.960431099
85,1.55965532715e+18,0.335375309,-0.7196350098,-2.158393383
86,1.55965532721e+18,-1.140015125,0.7826163769,-2.73346138
87,1.55965532727e+18,-0.2271142006,0.1030600071,-1.347414017
88,1.55965532733e+18,-1.096441269,-0.1053249836,-3.547919273
89,1.55965532739e+18,-0.7182645798,-0.03852891922,-2.425343037
90,1.55965532745e+18,-0.6794786453,0.6417016983,-2.681852818
91,1.55965532751e+18,0.1335062981,0.7751202583,-1.912478447
92,1.55965532757e+18,3.299473763,1.382701397,-1.104997635
93,1.55965532763e+18,4.64155817,2.060668707,2.824834347
94,1.55965532769e+18,8.329564095,3.916564703,4.363384247
95,1.55965532775e+18,17.74765778,6.916376591,5.573058128
96,1.55965532781e+18,30.68008995,16.84220123,-5.581964016
97,1.55965532787e+18,14.07079411,-0.6102864742,-1.537947297
98,1.55965532793e+18,-1.225207806,-21.51125717,-8.450331688
99,1.55965532799e+18,-10.72929573,-33.85153198,-7.755738735
100,1.55965532805e+18,-1.104571223,-10.50205612,-9.453087807
101,1.55965532811e+18,4.808260918,2.124159336,-7.20043993
102,1.55965532817e+18,-0.7337031364,-2.102862358,-6.118105888
103,1.55965532823e+18,-3.045624971,-2.883427143,-6.901477814
104,1.55965532829e+18,-1.889534235,-5.722828388,-2.618799686
105,1.55965532835e+18,-3.402519464,-9.780607224,0.154047966
106,1.55965532841e+18,-1.69885385,-9.524333954,4.711087227
107,1.55965532847e+18,0.2384908199,-4.647679806,3.84397316
108,1.55965532853e+18,0.05600440502,-2.38222146,6.661237717
109,1.55965532859e+18,-0.8615218401,-1.297769547,4.843447685
110,1.55965532865e+18,-1.474095345,-0.6641309261,0.3135690689
111,1.55965532871e+18,-4.14661932,1.574396729,-4.999691963
112,1.55965532877e+18,-6.601250648,3.571678162,-0.8385481834
113,1.55965532883e+18,-4.113554001,6.614344597,-1.352189302
114,1.55965532889e+18,-4.218071938,5.526065826,0.6105735302
115,1.55965532895e+18,-3.109270096,3.386134863,0.7608203888
116,1.55965532901e+18,-1.023965836,2.754112959,-1.253600955
117,1.55965532907e+18,-2.576485634,0.3594784737,-2.670082331
118,1.55965532913e+18,-0.4379692078,-0.1686205864,-1.967740893
119,1.55965532919e+18,0.5928258896,-1.374521732,-1.653416634
120,1.55965532925e+18,1.560020924,-0.6454045177,-1.509951234
121,1.55965532931e+18,1.433141708,-0.4201304913,-0.5785582066
122,1.55965532937e+18,0.7949771881,0.6243737936,2.032576084
123,1.55965532943e+18,-3.242357254,1.148249865,2.425618887
124,1.55965532949e+18,-2.440339088,3.201929092,1.904782534
125,1.55965532955e+18,-4.017045975,3.855710745,1.320403337
126,1.55965532961e+18,-3.482502937,3.293965578,0.9937734604
127,1.55965532967e+18,-0.8680238724,0.6869094372,-0.2983827591
128,1.55965532973e+18,-1.828739643,-1.214663982,-0.5068571568
129,1.55965532979e+18,1.198115349,-1.258001804,-0.9376859665
130,1.55965532985e+18,2.588500261,0.1228861809,0.8913249969
131,1.55965532991e+18,-1.789896488,1.01305294,0.608792305
132,1.55965532997e+18,-3.724484921,-0.9803228378,1.786042213
133,1.55965533003e+18,-1.291194439,-3.01778698,-1.334748507
134,1.55965533009e+18,-0.8431844711,-3.382035255,-0.1302118301
135,1.55965533015e+18,-0.2171759605,-2.630187988,-1.997683167
136,1.55965533021e+18,2.023552895,-2.124820232,-1.114176869
137,1.55965533027e+18,4.732365608,-1.796297073,-1.598243833
138,1.55965533033e+18,3.683404446,-5.308740616,-2.877864838
139,1.55965533039e+18,5.087561131,-8.153652191,-2.995380163
140,1.55965533045e+18,1.680051565,-9.37896347,-6.288128853
141,1.55965533051e+18,2.401066542,-23.22684479,-2.782699108
142,1.55965533057e+18,-11.42886543,4.577044487,-4.796133518
143,1.55965533063e+18,2.566103458,5.258002281,-7.086170197
144,1.55965533069e+18,-3.721878052,4.008656979,-5.192784786
145,1.55965533075e+18,-0.2765159607,5.27239418,-2.40348196
146,1.55965533081e+18,-5.365697861,4.201124191,-2.091649294
147,1.55965533087e+18,-3.337036133,4.530054092,0.1584671736
148,1.55965533093e+18,-4.044883728,2.367098331,0.4578036666
149,1.55965533099e+18,-3.236584663,1.717054129,1.287820816
150,1.55965533105e+18,-4.212510109,-0.3140776753,0.9623129964
151,1.55965533111e+18,-4.300243378,-2.587724686,1.557032585
152,1.55965533117e+18,-0.7850151062,-2.015810966,0.6031187773
153,1.55965533123e+18,-0.4759368896,-1.50003612,0.4315154552
154,1.55965533129e+18,-0.3305444717,-1.860496044,1.057867527
155,1.55965533135e+18,-0.8876543045,-2.117471933,-0.1435947418
156,1.55965533141e+18,0.1766757965,-2.319395542,1.905427933
157,1.55965533147e+18,0.5335540771,-3.585016251,0.090675354
158,1.55965533153e+18,3.612995625,-3.035233021,-0.08827209473
159,1.55965533159e+18,1.064341068,-1.396927834,-0.05123853683
160,1.55965533165e+18,5.435517788,-1.700594187,-1.07265234
161,1.55965533171e+18,1.364618301,-2.077661991,-2.279126167
162,1.55965533177e+18,3.399469614,-2.274044991,0.2658700943
163,1.55965533183e+18,0.9206514359,-1.219657183,-3.400335789
164,1.55965533189e+18,2.612960815,-1.459027648,-1.289485455
165,1.55965533195e+18,1.236798286,1.191627026,-2.059279442
166,1.55965533201e+18,0.4510493279,0.6799225807,-1.983584404
167,1.55965533207e+18,0.6979050636,-0.2561290264,-1.820557594
168,1.55965533213e+18,0.6644439697,0.338709116,-3.24433279
169,1.55965533219e+18,-0.9890999794,0.851729393,-3.208896637
170,1.55965533225e+18,-0.8022894859,0.7643946409,-3.478013992
171,1.55965533231e+18,0.5877785683,1.161900878,-1.609121323
172,1.55965533237e+18,1.769854546,1.020480514,-0.2524809837
173,1.55965533243e+18,4.215621471,1.665905476,1.879051208
174,1.55965533249e+18,7.964910507,1.442752481,6.008233547
175,1.55965533255e+18,15.94945717,4.925037384,5.323308468
176,1.55965533261e+18,30.43975067,13.42086124,-2.661243439
177,1.55965533267e+18,15.57919407,3.475785494,-4.59152317
178,1.55965533273e+18,-2.941568851,-12.98694992,7.342426777
179,1.55965533279e+18,-12.74497414,-32.90748978,2.995359421
180,1.55965533285e+18,-2.655280828,-12.65510178,-14.1338892
181,1.55965533291e+18,2.381696939,-2.393257618,-8.05552578
182,1.55965533297e+18,1.703576088,-1.389233589,-5.134047985
183,1.55965533303e+18,-2.838867426,-5.264683723,-2.050655365
184,1.55965533309e+18,-3.098301888,-8.480531693,-0.7620377541
185,1.55965533315e+18,-1.504289627,-10.97515965,3.06195879
186,1.55965533321e+18,1.064614296,-5.389885426,4.148256779
187,1.55965533327e+18,-0.2370314598,1.420704842,-0.8200235367
188,1.55965533333e+18,-1.210484028,3.223644733,0.5851783752
189,1.55965533339e+18,-0.4590892494,1.943608284,4.81375885
190,1.55965533345e+18,-1.930701256,2.313859463,3.677654266
191,1.55965533351e+18,-5.370614529,4.470810413,4.318504333
192,1.55965533357e+18,-5.297065258,5.219379902,4.117467403
193,1.55965533363e+18,-2.571382046,4.690313816,1.029401302
194,1.55965533369e+18,-3.922944546,4.064002991,0.4713163376
195,1.55965533375e+18,-2.604081631,3.35527277,-2.456778049
196,1.55965533381e+18,-0.2240428925,2.304639101,-1.977582932
197,1.55965533387e+18,-1.230806828,0.9573608041,-2.146024227
198,1.55965533393e+18,-1.450395584,-0.3141511083,-1.777626038
199,1.55965533399e+18,-0.6405258179,-1.069694281,-1.954646587
200,1.55965533405e+18,1.190912724,-0.3491725922,-0.9206223488
201,1.55965533411e+18,0.5853428841,0.03733953089,-1.353788376
202,1.55965533417e+18,0.8054413795,0.5637996197,-0.9187073708
203,1.55965533423e+18,0.222905159,0.6162105203,-0.5452327728
204,1.55965533429e+18,-0.8524217606,1.130055308,-0.6847321987
205,1.55965533435e+18,-2.106882095,1.035575032,-0.7481358051
206,1.55965533441e+18,-1.151276588,0.08312064409,0.5946319103
207,1.55965533447e+18,0.5083379745,-0.2822876573,0.9504361153
208,1.55965533453e+18,1.566267967,-0.1040928364,0.8359832764
209,1.55965533459e+18,1.08127594,-0.1861682534,0.5107660294
210,1.55965533465e+18,-0.7506666183,-0.4759652317,0.4502086639
211,1.55965533471e+18,-1.189531326,0.467994988,0.5413155556
212,1.55965533477e+18,-2.499732018,0.02158880234,-0.1755595207
213,1.55965533483e+18,0.9383721352,-0.75997293,-0.1924538612
214,1.55965533489e+18,2.149252415,-0.8413339853,-1.651072502
215,1.55965533495e+18,1.322725534,-2.48603344,-0.2287387848
216,1.55965533501e+18,1.513656855,-2.681115627,0.04906177521
217,1.55965533507e+18,1.741214991,-1.886138678,-0.2134284973
218,1.55965533513e+18,2.241978645,-1.122987747,-0.7858352661
219,1.55965533519e+18,0.6716969013,-0.2446400523,-1.32264328
220,1.55965533525e+18,0.4522352219,0.3251541853,-0.38139534
221,1.55965533531e+18,-0.3188304901,0.5295785666,0.7654561996
222,1.55965533537e+18,-0.4068336487,0.828294754,0.963347435
223,1.55965533543e+18,0.225625515,1.314089417,0.1970386505
224,1.55965533549e+18,0.6706151962,1.659172654,-0.6060576439
225,1.55965533555e+18,-0.5011630058,1.809461355,-0.7648921013
226,1.55965533561e+18,-1.648520947,2.117397308,-1.24721241
227,1.55965533567e+18,-1.529870987,1.443698645,-1.147484303
228,1.55965533573e+18,-1.390357018,0.2012983114,-1.217704296
229,1.55965533579e+18,-1.272371769,0.08635310829,-1.190698624
230,1.55965533585e+18,0.001394748688,0.4222471416,-0.7208147049
231,1.55965533591e+18,0.754693985,0.653309226,-0.1607589722
232,1.55965533597e+18,-0.09346485138,0.5020959377,0.03830003738
233,1.55965533603e+18,-0.8319311142,-0.04273462296,0.08259677887
234,1.55965533609e+18,0.03187847137,1.080842495,0.7316865921
235,1.55965533615e+18,-0.2330141068,1.640895247,1.708718777
236,1.55965533621e+18,-0.9577207565,1.043080807,0.7308883667
237,1.55965533627e+18,-0.06127643585,0.3775558472,-0.06810522079
238,1.55965533633e+18,-1.123641491,-0.6889922619,-0.9046387672
239,1.55965533639e+18,0.1470341682,-0.6998608112,-1.349798203
240,1.55965533645e+18,1.809853077,-0.02704882622,-0.6347689629
241,1.55965533651e+18,1.926499844,0.5509786606,-1.152704239
242,1.55965533657e+18,2.906687737,0.6023273468,-1.237849712
243,1.55965533663e+18,2.60722208,0.2737417221,-0.8040733337
244,1.55965533669e+18,0.2725925446,-1.58481884,0.08792972565
245,1.55965533675e+18,0.748073101,-2.70900178,-0.1471180916
246,1.55965533681e+18,-0.3290243149,-3.191216946,-0.6691331863
247,1.55965533687e+18,-0.1436228752,-3.656526089,-2.131030083
248,1.55965533693e+18,-0.5677609444,-3.658286572,-0.003953456879
249,1.55965533699e+18,-1.622695446,-4.954334259,0.5908546448
250,1.55965533705e+18,-0.3842258453,-3.104608059,-6.15809536
251,1.55965533711e+18,0.2598958015,2.203741074,2.288374901
252,1.55965533717e+18,0.04124832153,1.293858051,1.288642883
253,1.55965533723e+18,-0.9439225197,1.420785189,1.592215061
254,1.55965533729e+18,-1.156912327,0.6796153784,1.779467583
255,1.55965533735e+18,-0.2012033463,1.608501196,0.5167894363
256,1.55965533741e+18,-0.5331220627,1.318374872,-0.6145238876
257,1.55965533747e+18,0.1482198238,1.621442437,-1.825427055
258,1.55965533753e+18,1.931690454,2.079921246,-1.811878204
259,1.55965533759e+18,0.9471548796,1.887526989,-4.323301315
260,1.55965533765e+18,4.925217628,-0.02128052711,-4.873394012
261,1.55965533771e+18,-0.0250377655,0.3898015022,-4.451777458
262,1.55965533777e+18,0.2179808617,0.01640081406,-3.712677002
263,1.55965533783e+18,-0.3507027626,-0.1688582897,-2.278475285
264,1.55965533789e+18,0.8665084839,0.1143455505,-2.436345577
265,1.55965533795e+18,1.701919079,0.1414470673,-2.248016357
266,1.55965533801e+18,1.502818108,0.9302258492,-0.009402275085
267,1.55965533807e+18,4.725914001,1.296932697,3.004613876
268,1.55965533813e+18,9.494223595,2.940531254,5.248532772
269,1.55965533819e+18,23.50681496,8.607391357,7.533676147
270,1.55965533825e+18,26.29171944,17.00992584,-6.796113014
271,1.55965533831e+18,6.056077957,-5.294863224,4.455687523
272,1.55965533837e+18,-6.085101604,-45.42671204,-0.1073198318
273,1.55965533843e+18,-3.787303448,-26.95474815,-11.12966919
274,1.55965533849e+18,1.394723654,-10.96299553,-9.079611778
275,1.55965533855e+18,10.29514694,7.277627945,-2.457579136
276,1.55965533861e+18,-1.368215084,-3.449728012,0.8829951286
277,1.55965533867e+18,-1.851524353,-3.098795891,-1.695804715
278,1.55965533873e+18,-1.555013657,-4.945991039,2.068972111
279,1.55965533879e+18,-0.005838871002,-5.451891899,3.93787694
280,1.55965533885e+18,-2.048853397,-4.618572235,2.208301544
281,1.55965533891e+18,-3.104786873,-2.793682098,0.4643778801
282,1.55965533897e+18,-3.905003548,0.04312336445,-0.5284776688
283,1.55965533903e+18,-2.710240602,2.88495326,-1.186886787
284,1.55965533909e+18,-3.000686169,2.679080963,2.881259918
285,1.55965533915e+18,-2.749482632,4.139142513,5.523568153
286,1.55965533921e+18,-3.449606419,5.458491325,0.7455682755
287,1.55965533927e+18,-6.428193569,1.581743956,0.1971020699
288,1.55965533933e+18,-5.157786369,5.058251858,1.282557487
289,1.55965533939e+18,-2.252711296,5.504081726,0.4135332108
290,1.55965533945e+18,-0.3303699493,2.666184187,0.2622585297
291,1.55965533951e+18,-0.06943511963,0.1659424752,-1.764000893
292,1.55965533957e+18,0.106218338,-0.4356605709,-2.167986155
293,1.55965533963e+18,0.8827328682,-0.3775885999,-2.487030029
294,1.55965533969e+18,1.569973469,0.3539659381,-1.876195192
295,1.55965533975e+18,0.2824726105,0.4506768286,-1.488624454
296,1.55965533981e+18,-1.48388958,0.8530414104,-1.93745029
297,1.55965533987e+18,-0.6451663971,0.733708024,-0.6595884562
298,1.55965533993e+18,-0.1591243744,0.7278479934,-0.8814071417
299,1.55965533999e+18,-0.63326931,0.2575605214,-0.8292123079
300,1.55965534005e+18,-2.020506859,-1.383553743,-1.075563908
301,1.55965534011e+18,0.2873048782,-0.9047531486,-0.5213253498
302,1.55965534017e+18,2.38762188,-0.2356773317,-0.02328538895
303,1.55965534023e+18,1.407318115,-0.0600515008,-0.3725721836
304,1.55965534029e+18,-0.7907028198,-0.9882979393,-0.3173937798
305,1.55965534035e+18,0.4604482651,0.3461990952,-0.007558822632
306,1.55965534041e+18,-0.3290510178,0.2129303515,0.3135156631
307,1.55965534047e+18,0.2996349335,0.6263589859,0.8454525471
308,1.55965534053e+18,0.9146299362,1.084218264,0.6120917797
309,1.55965534059e+18,0.9922208786,0.5310058594,0.4463839531
310,1.55965534065e+18,-0.08460712433,0.6975306273,-0.1956040859
311,1.55965534071e+18,-0.551240921,1.07632947,-0.2821128368
312,1.55965534077e+18,-0.6901426315,1.366498947,0.621720314
313,1.55965534083e+18,-1.015601158,2.658983707,1.530691862
314,1.55965534089e+18,-1.746023178,1.810470939,0.5896401405
315,1.55965534095e+18,-0.2199401855,0.6928114891,-0.9524869919
316,1.55965534101e+18,1.878237247,0.8471741676,-1.426165581
317,1.55965534107e+18,2.181344509,-0.1716907024,-1.158711672
318,1.55965534113e+18,1.662871361,-0.8210157156,-1.783337831
319,1.55965534119e+18,-2.480350494,-2.906740189,-0.5545516014
320,1.55965534125e+18,-0.0280456543,-0.2027506828,2.193646431
321,1.55965534131e+18,1.459641457,0.7474315166,0.7204389572
322,1.55965534137e+18,2.29799509,0.1031275988,-1.684348583
323,1.55965534143e+18,0.5252184868,-0.497192502,-1.834502459
324,1.55965534149e+18,-0.1392712593,-0.6884926558,-0.6286501884
325,1.55965534155e+18,0.863720417,-1.140558839,-0.01529836655
326,1.55965534161e+18,1.074365139,-2.223330259,-0.4347066879
327,1.55965534167e+18,-1.12085247,-6.112341404,0.9081101418
328,1.55965534173e+18,5.749869823,-9.060383797,3.011743546
329,1.55965534179e+18,-2.525147438,4.595509529,0.2226715088
330,1.55965534185e+18,2.127156258,-1.274508953,7.446658134
331,1.55965534191e+18,-3.941770554,1.506119967,2.285877228
332,1.55965534197e+18,0.05413246155,1.018277407,1.340018749
333,1.55965534203e+18,0.8264737129,2.032924652,0.5117821693
334,1.55965534209e+18,0.9859302044,3.081594467,-1.722455502
335,1.55965534215e+18,4.062087536,1.638801575,-0.3161659241
336,1.55965534221e+18,1.208976507,1.066449881,-2.56148243
337,1.55965534227e+18,2.352766514,0.6537950039,-1.973146439
338,1.55965534233e+18,2.141747952,-0.08942699432,-1.994092464
339,1.55965534239e+18,-0.6642346382,-0.3291862011,-2.2803936
340,1.55965534245e+18,2.674356937,-1.632901192,-2.33533144
341,1.55965534251e+18,-0.1360402107,-1.266437292,-2.759335518
342,1.55965534257e+18,-0.8156194687,-0.3180015087,-3.163707256
343,1.55965534263e+18,-0.3533520699,0.7248342037,-1.814974785
344,1.55965534269e+18,1.08862114,0.8050119877,-2.074630737
345,1.55965534275e+18,1.89025116,0.9251422882,-1.116005421
346,1.55965534281e+18,3.234342575,1.049590826,1.611224174
347,1.55965534287e+18,6.625499725,1.9617033,4.022208691
348,1.55965534293e+18,11.59971237,4.26877737,5.866009712
349,1.55965534299e+18,28.78941727,14.41826153,4.705310822
350,1.55965534305e+18,20.55154037,7.42985487,-6.371659756
351,1.55965534311e+18,-0.7075896263,-14.31475067,19.53512192
352,1.55965534317e+18,-10.37768841,-48.95824432,9.881786346
353,1.55965534323e+18,-9.684110641,-18.46841812,-13.06808281
354,1.55965534329e+18,7.96399641,-0.8895335197,-8.69569397
355,1.55965534335e+18,5.189193726,0.3157072067,-2.887170315
356,1.55965534341e+18,-0.5521287918,-2.935791969,-2.516100407
357,1.55965534347e+18,-1.436581135,-5.523566246,-0.3082976341
358,1.55965534353e+18,-1.417006969,-6.050008774,1.409622192
359,1.55965534359e+18,-0.5029540062,-4.635303497,1.428992271
360,1.55965534365e+18,-0.8934464455,-3.496121407,2.083897591
361,1.55965534371e+18,-1.217593193,-0.5756347179,1.305720806
362,1.55965534377e+18,-0.9772906303,2.007609844,1.359653473
363,1.55965534383e+18,-0.9614320397,1.336748362,0.4126367569
364,1.55965534389e+18,-2.889528036,1.475676298,3.370102882
365,1.55965534395e+18,-3.083848,3.40186429,-0.5974359512
366,1.55965534401e+18,-5.679256439,2.303274393,0.276640892
367,1.55965534407e+18,-4.687680244,4.946389675,0.7844705582
368,1.55965534413e+18,-5.3327775,3.290829182,1.436594963
369,1.55965534419e+18,-2.893812656,1.729445457,0.6865391731
370,1.55965534425e+18,-1.062505245,0.8403083086,-0.3675985336
371,1.55965534431e+18,0.2897558212,0.3482540846,-1.597986221
372,1.55965534437e+18,0.8398208618,0.2283532023,-2.299469948
373,1.55965534443e+18,0.272231102,-0.3459208608,-2.234807491
374,1.55965534449e+18,0.2715587616,-0.1645840704,-1.23195672
375,1.55965534455e+18,0.1332101822,-0.6539714336,0.2967414856
376,1.55965534461e+18,-4.059807777,1.970772743,1.580656767
377,1.55965534467e+18,-9.791677475,6.215414047,1.015152335
378,1.55965534473e+18,-3.64972496,2.887990952,0.5944771767
379,1.55965534479e+18,-2.53068018,-1.188041925,-2.446550369
380,1.55965534485e+18,-2.352296352,-6.013127327,-6.601973534
381,1.55965534491e+18,4.240233421,-6.834198952,-4.843007088
382,1.55965534497e+18,6.270264149,-5.656747341,-3.765530586
383,1.55965534503e+18,6.42545414,-4.728199005,-2.846834421
384,1.55965534509e+18,5.409161568,-2.994348526,-2.097184181
385,1.55965534515e+18,5.075366497,-3.961616755,-3.277617455
386,1.55965534521e+18,3.110468149,-4.352487087,0.0675110817
387,1.55965534527e+18,-2.09027195,-0.8861804008,-1.679473758
388,1.55965534533e+18,-10.20078564,-1.703616381,-0.906889677
389,1.55965534539e+18,-8.36041069,3.615324974,1.467219472
390,1.55965534545e+18,-3.178519249,6.122088432,2.439185381
391,1.55965534551e+18,-0.3436603546,4.694513798,0.4102776051
392,1.55965534557e+18,0.2456674576,3.268288136,-0.6085066199
393,1.55965534563e+18,1.824024677,2.266882181,-0.6439092159
394,1.55965534569e+18,1.781319618,1.135051847,-0.6154344082
395,1.55965534575e+18,0.1948451996,0.01729679108,-1.248009086
396,1.55965534581e+18,-2.753296852,0.1460455656,-2.114201784
397,1.55965534587e+18,1.509562492,1.222191572,1.416584849
398,1.55965534593e+18,-2.522870064,-0.4516707659,0.5525268316
399,1.55965534599e+18,0.9857263565,-0.6636666059,0.7150552273
400,1.55965534605e+18,0.8424158096,-0.4295738935,0.9730485678
401,1.55965534611e+18,1.16400528,0.5603182316,0.4911903143
402,1.55965534617e+18,1.319578171,1.068721056,1.599779963
403,1.55965534623e+18,0.7301778793,1.262789249,1.125596881
404,1.55965534629e+18,0.5881090164,0.8699889183,1.041231632
405,1.55965534635e+18,-0.9404706955,1.313911915,-0.2286629677
406,1.55965534641e+18,0.6252193451,2.110352516,-0.2265486717
407,1.55965534647e+18,1.484495163,1.993105888,-0.3736987114
408,1.55965534653e+18,2.225805759,2.366258144,-0.513446331
409,1.55965534659e+18,0.8408732414,0.6940567493,-0.4527082443
410,1.55965534665e+18,0.7229824066,-2.00834465,0.2783982754
411,1.55965534671e+18,-2.811229706,-6.015692711,-0.6684150696
412,1.55965534677e+18,-0.5788145065,-6.18500185,-0.2017753124
413,1.55965534683e+18,0.1759786606,-5.351124287,0.3398714066
414,1.55965534689e+18,0.7579250336,-3.907945871,-0.02976441383
415,1.55965534695e+18,1.008854866,-1.200276852,0.0870475769
416,1.55965534701e+18,1.2763834,-4.068919182,15.21274757
417,1.55965534707e+18,-5.515471458,-2.305166721,1.528131485
418,1.55965534713e+18,1.101130486,-1.194631338,2.509317398
419,1.55965534719e+18,-3.071195602,0.1283689737,1.302497864
420,1.55965534725e+18,0.1649608612,0.9004498124,1.430921555
421,1.55965534731e+18,2.980294466,3.04929018,-0.346198082
422,1.55965534737e+18,0.7110757828,2.865880251,0.6264061928
423,1.55965534743e+18,4.086883068,1.415858269,-0.8644604683
424,1.55965534749e+18,2.502797604,0.8933820724,-0.7778491974
425,1.55965534755e+18,3.349304199,0.6984553337,-2.685803413
426,1.55965534761e+18,3.115320444,0.3325891495,-3.132865429
427,1.55965534767e+18,2.352667809,-0.4520852566,-2.069902897
428,1.55965534773e+18,1.492093563,-1.205888271,-2.505583763
429,1.55965534779e+18,1.564087868,-0.6697263718,-2.746053219
430,1.55965534785e+18,0.6457247734,-0.2821979523,-2.358721256
431,1.55965534791e+18,-0.7262482643,-0.7349281311,-2.156402111
432,1.55965534797e+18,-0.5835518837,-0.2592933178,-2.362213135
433,1.55965534803e+18,-0.4454803467,-0.3802243471,-1.839017868
434,1.55965534809e+18,0.9037308693,-0.2506090403,-1.506698132
435,1.55965534815e+18,1.836716652,0.1691089869,-0.2218441963
436,1.55965534821e+18,2.522862434,0.6003059149,2.212325096
437,1.55965534827e+18,5.224352837,1.031016827,3.387157917
438,1.55965534833e+18,7.428316593,1.212884307,4.927302361
439,1.55965534839e+18,19.14424706,4.695175171,7.276175499
440,1.55965534845e+18,25.3561554,14.02125549,-5.920900345
441,1.55965534851e+18,8.339234352,-2.990095139,-3.061255455
442,1.55965534857e+18,-11.63801575,-37.26750183,4.334274292
443,1.55965534863e+18,-10.27031517,-27.54515457,-0.1803548336
444,1.55965534869e+18,0.04307556152,-9.369413376,-8.25383091
445,1.55965534875e+18,5.349387646,2.917476654,-8.116449356
446,1.55965534881e+18,0.02033567429,-2.629342079,-1.557829261
447,1.55965534887e+18,-1.56559515,-5.970426559,0.3508965969
448,1.55965534893e+18,-2.481043816,-5.394501209,2.350268841
449,1.55965534899e+18,-1.614310265,-4.43253088,3.141049623
450,1.55965534905e+18,-1.801006317,-3.52592802,3.138258457
451,1.55965534911e+18,-1.796283245,-1.921579123,3.2119174
452,1.55965534917e+18,-0.3843486309,1.017246962,0.3417272568
453,1.55965534923e+18,-0.3631988764,2.321512699,0.4295063019
454,1.55965534929e+18,-3.026316166,-0.01754385233,0.1715459824
455,1.55965534935e+18,-4.917883873,2.933001757,-6.272940636
456,1.55965534941e+18,-10.53406143,4.813728333,-4.300107002
457,1.55965534947e+18,-3.677278519,4.859460354,0.9263994694
458,1.55965534953e+18,-0.03642940521,2.334711075,1.448711634
459,1.55965534959e+18,0.401927948,2.165934086,-1.118346691
460,1.55965534965e+18,-3.115143776,0.07885742188,-2.174002647
461,1.55965534971e+18,-0.9657392502,-0.3381683826,-1.422981501
462,1.55965534977e+18,0.732257843,-0.1924169064,-1.501945019
463,1.55965534983e+18,1.947432995,0.5880368948,-1.446120739
464,1.55965534989e+18,0.7238540649,0.9259470701,-0.7585339546
465,1.55965534995e+18,-4.218148232,2.571369171,5.581609726
466,1.55965535001e+18,-13.36589909,5.070618153,12.93364716
467,1.55965535007e+18,-4.741548061,4.256418228,2.845162392
468,1.55965535013e+18,-1.789989948,-0.1543598175,-6.269471645
469,1.55965535019e+18,-0.8058586121,-4.413137436,-12.16510105
470,1.55965535025e+18,4.397900105,-4.148483276,-7.567801952
471,1.55965535031e+18,3.366373777,-5.338999271,-4.861563683
472,1.55965535037e+18,0.07634997368,-1.691101074,-4.351137638
473,1.55965535043e+18,0.5600271225,-1.738186836,-2.844375849
474,1.55965535049e+18,-0.2942214012,-2.842751503,-2.770787954
475,1.55965535055e+18,0.4253249168,-3.605285406,-3.409948826
476,1.55965535061e+18,0.7103404999,-2.812083721,-1.76679635
477,1.55965535067e+18,1.953156471,1.734004974,-0.6430211067
478,1.55965535073e+18,1.756340504,1.975678444,4.086718559
479,1.55965535079e+18,-6.642842293,1.293403149,3.245559931
480,1.55965535085e+18,-4.079792976,5.224671364,7.757513046
481,1.55965535091e+18,-2.678045273,1.873043776,-0.3350078464
482,1.55965535097e+18,-0.9108295441,0.09540534019,0.8852279186
483,1.55965535103e+18,-1.181127548,-2.420657635,0.5878796577
484,1.55965535109e+18,1.017093658,-2.077362776,-0.4175779819
485,1.55965535115e+18,3.663983345,-1.194984674,-0.1213536263
486,1.55965535121e+18,2.343193054,0.0643736124,-0.5298268795
487,1.55965535127e+18,-0.927441597,0.4172203541,0.730707407
488,1.55965535133e+18,-0.6750907898,1.98770988,0.2790181637
489,1.55965535139e+18,0.3975791931,1.530748606,0.5867507458
490,1.55965535145e+18,0.2512807846,0.792855382,0.2492730618
491,1.55965535151e+18,0.8419837952,0.7594797611,0.2737853527
492,1.55965535157e+18,1.24912405,0.7101264,-0.4567751884
493,1.55965535163e+18,3.003279209,0.1211929321,-0.3994750977
494,1.55965535169e+18,-0.3907527924,-1.949388027,-0.7210087776
495,1.55965535175e+18,-1.816531181,-0.5293880701,0.007275104523
496,1.55965535181e+18,1.129162788,1.278951406,1.991642952
497,1.55965535187e+18,0.8395385742,0.5117919445,0.9865517616
498,1.55965535193e+18,-0.3137273788,0.7753856182,0.6035814285
499,1.55965535199e+18,-0.5097131729,0.851388216,-0.9408552647
500,1.55965535205e+18,-0.5676450729,0.804538846,-0.666343689
501,1.55965535211e+18,1.190959454,0.7676904202,-0.4603886604
502,1.55965535217e+18,0.5647211075,0.5524225831,0.6327185631
503,1.55965535223e+18,-0.9736948013,0.08928504586,0.8535499573
504,1.55965535229e+18,-1.348870277,0.03703385592,0.8128128052
505,1.55965535235e+18,-1.564366341,-0.4439680278,0.2451334
506,1.55965535241e+18,-0.3286991119,-0.8590242863,0.6804122925
507,1.55965535247e+18,1.448237419,-1.126835108,-0.3071603775
508,1.55965535253e+18,1.388422966,-2.060174465,-0.1239886284
509,1.55965535259e+18,-0.3146524429,0.6400408745,0.9015550613
510,1.55965535265e+18,-0.8079099655,1.613188505,-0.8463408947
511,1.55965535271e+18,0.761238575,1.03536582,-0.04082250595
512,1.55965535277e+18,0.8924179077,-1.994237542,-1.48955512
513,1.55965535283e+18,2.041393757,-2.562966108,-1.626904488
514,1.55965535289e+18,0.7787470818,-3.83431077,-2.475992441
515,1.55965535295e+18,2.776074409,-5.932712078,-5.961852551
516,1.55965535301e+18,-7.1092062,-4.501290798,2.307374001
517,1.55965535307e+18,-0.958521843,0.1083149761,4.24655056
518,1.55965535313e+18,-3.256550789,-0.952701509,0.2826833725
519,1.55965535319e+18,1.791127205,-0.4782861471,2.817336559
520,1.55965535325e+18,0.8170137405,0.7655858994,1.094701767
521,1.55965535331e+18,0.3786315918,1.609425306,-1.207707882
522,1.55965535337e+18,1.425697803,0.882694006,-0.6316871643
523,1.55965535343e+18,2.405182123,1.984726906,-1.233536243
524,1.55965535349e+18,2.753586054,1.158094168,0.2970123291
525,1.55965535355e+18,2.393888474,0.5563156605,0.005473136902
526,1.55965535361e+18,3.358406782,0.4283494949,-1.345139503
527,1.55965535367e+18,2.692169905,0.7068624496,-2.482008934
528,1.55965535373e+18,2.837609291,0.34811306,0.9388208389
529,1.55965535379e+18,0.07909250259,1.06904459,-4.51742506
530,1.55965535385e+18,4.14739275,0.6978008747,-1.560389519
531,1.55965535391e+18,0.8626255989,-0.1497447491,1.649033546
532,1.55965535397e+18,0.5460891724,0.09467172623,-0.05655574799
533,1.55965535403e+18,0.2644529343,-0.830262661,-0.6164050102
534,1.55965535409e+18,-0.6936407089,-0.8608765602,-1.066628456
535,1.55965535415e+18,-0.6316571236,-0.845934391,-2.658831596
536,1.55965535421e+18,-0.9740862846,-0.8647506237,-2.958453178
537,1.55965535427e+18,-0.7573108673,-0.6989445686,-1.980196476
538,1.55965535433e+18,0.1087522507,0.09606647491,-1.419389248
539,1.55965535439e+18,0.6973481178,-0.02105998993,-1.930604458
540,1.55965535445e+18,1.658918381,0.64656353,-0.01040792465
541,1.55965535451e+18,3.169458866,1.256565094,1.412182808
542,1.55965535457e+18,5.249269009,2.367823362,3.40655756
543,1.55965535463e+18,9.388113022,3.811486721,6.113523483
544,1.55965535469e+18,26.2135067,9.650427818,2.999145508
545,1.55965535475e+18,23.12168884,10.38186646,-2.332199812
546,1.55965535481e+18,-5.546373367,-12.21898079,26.29597855
547,1.55965535487e+18,-17.67629623,-49.83626938,6.2105546
548,1.55965535493e+18,-7.193408012,-20.45594978,-11.36283684
549,1.55965535499e+18,1.292292118,-5.117239952,-9.242361069
550,1.55965535505e+18,2.390308857,0.7024693489,-4.083287239
551,1.55965535511e+18,-3.183745146,-6.464018822,-0.5970599651
552,1.55965535517e+18,-4.168180466,-6.306468487,2.286792278
553,1.55965535523e+18,-3.110391855,-3.453918219,1.622379303
554,1.55965535529e+18,0.3547058105,1.138275146,2.008280277
555,1.55965535535e+18,3.162392139,4.073104382,1.343437672
556,1.55965535541e+18,3.534355402,3.975486755,3.578700066
557,1.55965535547e+18,1.010204315,0.785589695,2.171328545
558,1.55965535553e+18,-3.835057735,-0.7249560356,-2.2012887
559,1.55965535559e+18,-6.107279778,1.394981742,-1.386171341
560,1.55965535565e+18,-3.402236462,1.485122442,-0.4106550217
561,1.55965535571e+18,-1.081655502,2.034518719,0.5823616982
562,1.55965535577e+18,-1.833312035,0.1827996075,0.1131081581
563,1.55965535583e+18,-1.90500021,-0.8333328962,-0.2857408524
564,1.55965535589e+18,-0.3122940063,-1.03547895,-0.6027488708
565,1.55965535595e+18,0.5179467201,-1.384879947,-1.190275192
566,1.55965535601e+18,0.5568695068,-1.524271607,-1.933508873
567,1.55965535607e+18,0.4756407738,-1.030666232,-1.819022655
568,1.55965535613e+18,0.5968360901,-0.380019486,-1.207715988
569,1.55965535619e+18,-0.6351571083,0.03715789318,-0.6782612801
570,1.55965535625e+18,-0.09494400024,1.507021546,-0.2618632317
571,1.55965535631e+18,-1.381721497,2.189698696,0.08166694641
572,1.55965535637e+18,-0.6696357727,2.269357681,-0.02761363983
573,1.55965535643e+18,1.113416672,3.084990978,0.03740215302
574,1.55965535649e+18,-1.091371536,2.578768492,0.004885435104
575,1.55965535655e+18,-1.841766357,1.619580269,0.2290968895
576,1.55965535661e+18,-0.600361824,0.9123809338,-0.6315660477
577,1.55965535667e+18,0.3922567368,1.009574294,-0.9572739601
578,1.55965535673e+18,-0.7178602219,-0.2050150633,-1.320557833
579,1.55965535679e+18,0.2180757523,-0.7303839326,-1.553633332
580,1.55965535685e+18,1.091590405,-0.8602832556,-1.34482348
581,1.55965535691e+18,0.1774072647,-1.405110359,-1.696350336
582,1.55965535697e+18,0.5911273956,-1.106734753,-0.6270073652
583,1.55965535703e+18,0.9683761597,-0.4684635401,0.6552331448
584,1.55965535709e+18,0.07719993591,0.2578196526,0.4973902702
585,1.55965535715e+18,-0.9531183243,0.1136832237,-0.4395297766
586,1.55965535721e+18,-0.02211380005,-0.1086771488,-0.3187918663
587,1.55965535727e+18,0.5202989578,-0.5337004662,0.00871515274
588,1.55965535733e+18,-0.04012489319,-0.4351164103,-0.08195257187
589,1.55965535739e+18,-0.4014701843,0.1413486004,0.4791204929
590,1.55965535745e+18,0.04846382141,0.5393021107,0.02191162109
591,1.55965535751e+18,-0.2107915878,0.9469708204,0.291318655
592,1.55965535757e+18,2.576761246,1.858845472,-0.6838364601
593,1.55965535763e+18,0.03203487396,-0.8330261707,-0.5215158463
594,1.55965535769e+18,0.05181980133,-0.2250649929,-0.514821291
595,1.55965535775e+18,-0.7393035889,2.05760479,0.8806464672
596,1.55965535781e+18,1.079926491,1.870761514,0.02051329613
597,1.55965535787e+18,0.7320756912,-0.4957182407,-1.403278112
598,1.55965535793e+18,-3.624967575,-6.772490501,-1.838683844
599,1.55965535799e+18,2.72125721,-3.4574368,1.370441198
600,1.55965535805e+18,1.18129158,-2.878732681,-0.5766246319
601,1.55965535811e+18,-8.730441093,-7.601610661,-1.226382375
602,1.55965535817e+18,2.005750179,1.736463666,-2.691142321
603,1.55965535823e+18,2.156619549,0.4126856923,3.876400471
604,1.55965535829e+18,-2.9983778,1.92820859,0.2601747513
605,1.55965535835e+18,-1.663207054,0.4065971375,2.003624916
606,1.55965535841e+18,-2.748231888,0.7379617691,2.311141014
607,1.55965535847e+18,0.3560376167,0.5407655239,0.9479894638
608,1.55965535853e+18,1.255410194,0.3450973034,1.165489197
609,1.55965535859e+18,1.604665518,0.2234544754,-2.58255434
610,1.55965535865e+18,1.758642554,0.4071640968,-3.00500679
611,1.55965535871e+18,2.137637854,0.2363405228,-3.330079556
612,1.55965535877e+18,4.103248596,-2.140949726,-2.603451729
613,1.55965535883e+18,1.079064846,-0.8741102219,-3.862537146
614,1.55965535889e+18,-0.9072349072,-1.12713027,-1.973402977
615,1.55965535895e+18,1.313080311,-0.4319324493,-1.522319794
616,1.55965535901e+18,-0.2621474266,-1.16289854,-2.30962038
617,1.55965535907e+18,-0.4262866974,-1.647172928,-2.55737114
618,1.55965535913e+18,-1.286618233,-0.5318331718,-2.944740772
619,1.55965535919e+18,0.9431967735,-0.6299686432,-2.359686375
620,1.55965535925e+18,1.996201038,-0.5434863567,-0.9780826569
621,1.55965535931e+18,1.560712337,0.6363284588,0.3960838318
622,1.55965535937e+18,3.127583981,0.8621959686,1.523438931
623,1.55965535943e+18,5.452737331,1.87887907,3.368740082
624,1.55965535949e+18,12.1163826,3.842878342,7.336816311
625,1.55965535955e+18,28.24041367,13.13832855,5.202495098
626,1.55965535961e+18,23.25440025,8.959442139,-1.419865251
627,1.55965535967e+18,-6.141450882,-18.46831894,26.92575455
628,1.55965535973e+18,-16.45895958,-39.97730255,1.645278931
629,1.55965535979e+18,-6.160217285,-18.11212158,-10.43631554
630,1.55965535985e+18,0.1156965494,-5.883921623,-8.04419899
631,1.55965535991e+18,1.756490946,-2.724236488,-4.873707294
632,1.55965535997e+18,-1.561739206,-3.907390118,-2.095280409
633,1.55965536003e+18,-0.727244854,-5.641523838,0.7796282768
634,1.55965536009e+18,1.096783161,-4.543506145,1.211530685
635,1.55965536015e+18,0.3414993286,-2.711658001,2.277702332
636,1.55965536021e+18,2.84804368,0.1221220493,0.997092247
637,1.55965536027e+18,2.423783302,0.3973715305,2.736592293
638,1.55965536033e+18,0.01447629929,-0.6688559055,1.294172287
639,1.55965536039e+18,-5.166584492,-1.205491185,-4.127247334
640,1.55965536045e+18,-5.04114151,2.155529499,-0.5183038712
641,1.55965536051e+18,-1.650705338,2.938666821,1.958839893
642,1.55965536057e+18,-2.896193504,3.10203433,1.908462763
643,1.55965536063e+18,-1.951282501,2.217608929,0.966480732
644,1.55965536069e+18,-1.922995567,0.2839058638,-0.1709270477
645,1.55965536075e+18,-0.9613466263,0.6833992004,-0.5241107941
646,1.55965536081e+18,-0.2295312881,0.585263133,-1.299422741
647,1.55965536087e+18,-0.6058740616,1.163460374,-0.3355555534
648,1.55965536093e+18,1.174113274,1.050771832,-0.8695015907
649,1.55965536099e+18,2.06780386,0.8124387264,-0.04918003082
650,1.55965536105e+18,1.419109344,1.647479534,-0.06936192513
651,1.55965536111e+18,-1.138806343,0.5829848051,0.2140779495
652,1.55965536117e+18,-0.7078533173,-0.1488710642,-0.4369564056
653,1.55965536123e+18,1.461976051,-0.1660140753,-0.4555318356
654,1.55965536129e+18,1.012870789,0.2746562958,-0.7471957207
655,1.55965536135e+18,-0.99010849,-0.3315460682,-0.3984434605
656,1.55965536141e+18,-0.8825922012,-0.2747510672,-0.9391610622
657,1.55965536147e+18,0.704829216,-0.2555279732,-0.147605896
658,1.55965536153e+18,0.4837436676,-0.3717247248,-0.2713472843
659,1.55965536159e+18,0.06221961975,-0.3746212721,-0.1084492207
660,1.55965536165e+18,0.2840280533,-0.2258987427,-0.5738894939
661,1.55965536171e+18,0.03057289124,0.004603266716,-0.759517312
662,1.55965536176e+18,-0.03417205811,-0.1547390223,-0.899974823
663,1.55965536182e+18,-0.1522855759,-0.3659011126,-0.632278204
664,1.55965536188e+18,0.2269659042,-0.4803555012,-0.1104784012
665,1.55965536194e+18,0.3759040833,-0.4396409988,-0.05740618706
666,1.559655362e+18,0.06437969208,-0.4505535364,-0.1654071808
667,1.55965536206e+18,0.05352973938,-0.2607394457,-0.2920187712
668,1.55965536212e+18,0.3042936325,-0.1145203114,-0.2521871328
669,1.55965536218e+18,-0.07578754425,-0.2947254181,-0.3638445139
670,1.55965536224e+18,-0.07988643646,-0.141125083,-0.3414306641
671,1.5596553623e+18,0.1623020172,0.02154123783,-0.2532836199
672,1.55965536236e+18,0.1309089661,-0.03070616722,-0.355743289
673,1.55965536242e+18,0.3195085526,-0.003088116646,-0.4544560909
674,1.55965536248e+18,0.1614217758,-0.1733158827,-0.4338476658
675,1.55965536254e+18,0.1508846283,-0.1295452118,-0.3842166662
676,1.5596553626e+18,0.2152843475,-0.0590596199,-0.3518394232
677,1.55965536266e+18,0.4420108795,-0.02072608471,-0.1263334751
678,1.55965536272e+18,0.1241636276,0.01554882526,-0.1211287975
679,1.55965536278e+18,0.1371164322,0.08950829506,-0.09296321869
680,1.55965536284e+18,-0.01451206207,-0.04696953297,0.2424336672
681,1.5596553629e+18,0.06821060181,-0.1298009157,0.5288653374
682,1.55965536296e+18,0.3463916779,-0.1943458319,0.5470004082
683,1.55965536302e+18,0.4022827148,-0.2425475121,0.2723128796
684,1.55965536308e+18,0.2703723907,-0.2512162328,-0.0662612915
685,1.55965536314e+18,0.1958684921,-0.2932100296,-0.2343395948
686,1.5596553632e+18,0.1845598221,-0.2396124005,-0.2651079893
687,1.55965536326e+18,0.2727899551,-0.08246433735,-0.1765425205
688,1.55965536332e+18,0.441280365,0.01387751102,-0.1529445648
689,1.55965536338e+18,0.3827705383,0.1234970093,0.0006678104401
690,1.55965536344e+18,0.07875728607,0.003155946732,-0.08611369133
691,1.5596553635e+18,-0.05667591095,-0.005319833755,0.04655134678
692,1.55965536356e+18,0.02781105042,0.005435824394,0.1316426992
693,1.55965536362e+18,0.3938932419,0.03841924667,0.1755281687
694,1.55965536368e+18,0.3078775406,0.06745541096,0.0444508791
695,1.55965536374e+18,0.105099678,0.05439198017,-0.2820074558
696,1.5596553638e+18,-0.1706562042,-0.1100772619,0.0533850193
697,1.55965536386e+18,0.4571151733,0.1648144722,-0.006176710129
698,1.55965536392e+18,0.4879550934,0.03469097614,0.06538248062
699,1.55965536398e+18,0.1440677643,-0.4451526403,-0.2395362854
700,1.55965536404e+18,0.3314943314,-0.3780069947,-0.3097224236
701,1.5596553641e+18,0.5449075699,-0.3144411445,-0.3006429672
702,1.55965536416e+18,0.3556871414,-0.01847475767,-0.03434622288
703,1.55965536422e+18,0.1277046204,0.1252126098,0.04954326153
704,1.55965536428e+18,0.1033697128,0.2503100634,-0.01661467552
705,1.55965536434e+18,0.06991291046,0.1355662942,0.005323886871
706,1.5596553644e+18,0.2351551056,-0.02588123083,0.05840444565
707,1.55965536446e+18,0.6489725113,-0.2621930838,0.2223889828
708,1.55965536452e+18,1.109749794,-0.02717655897,0.4017338753
709,1.55965536458e+18,-0.5131111145,0.1219965219,-0.05984199047
710,1.55965536464e+18,-1.796363831,-0.07675218582,-0.2647980452
711,1.5596553647e+18,0.767077446,-0.2477576435,-0.3968586922
712,1.55965536476e+18,2.196997643,0.1095903516,-0.9114785194
713,1.55965536482e+18,0.4122037888,-0.831158936,-0.4055700302
714,1.55965536488e+18,-0.814789772,-0.4199588597,0.1797783375
715,1.55965536494e+18,-0.5068254471,0.4071870446,0.8370168209
716,1.559655365e+18,0.2136993408,0.4420256019,0.6132376194
717,1.55965536506e+18,0.7357540131,-0.3295626044,-0.1309478283
718,1.55965536512e+18,0.904900074,-0.347196281,0.1094303131
719,1.55965536518e+18,0.5961551666,-0.3578302562,-0.05720329285
720,1.55965536524e+18,0.8715133667,-0.1937102675,-0.2887678146
721,1.5596553653e+18,0.4895858765,0.004222452641,-0.2603936195
722,1.55965536536e+18,0.1587381363,-0.16724509,-0.06905031204
723,1.55965536542e+18,0.745672226,0.4222278595,-0.1730980873
724,1.55965536548e+18,0.04973316193,0.08786129951,-0.08049464226
725,1.55965536554e+18,0.344332695,0.1098273396,-0.3144469261
726,1.5596553656e+18,-0.4285449982,-0.1854610443,-0.5743243694
727,1.55965536566e+18,-0.2234716415,-0.1855750084,-0.3708162308
728,1.55965536572e+18,0.2915401459,-0.1384636164,-0.2203948498
729,1.55965536578e+18,-0.4322824478,-0.3364821672,-0.2326104641
730,1.55965536584e+18,-0.3146095276,-0.1796808243,0.3901362419
731,1.5596553659e+18,0.05079841614,0.04620599747,0.3880341053
732,1.55965536596e+18,0.04854774475,0.0756778717,0.3147301674
733,1.55965536602e+18,0.03788471222,0.02704930305,0.3289337158
734,1.55965536608e+18,0.01420116425,0.06606245041,0.1753866673
735,1.55965536614e+18,0.4238443375,-0.01925241947,0.08448052406
736,1.5596553662e+18,0.04387569427,-0.3099218607,-0.05130577087
737,1.55965536626e+18,-0.03343963623,-0.5133943558,-0.3883948326
738,1.55965536632e+18,0.4519433975,-0.5145055056,-0.4797847271
739,1.55965536638e+18,1.108467579,-0.3834683895,-0.72428298
740,1.55965536644e+18,0.5225934982,-0.1748546362,-0.2722525597
741,1.5596553665e+18,0.03570270538,0.06229889393,0.2864022255
742,1.55965536656e+18,-0.0667552948,0.1199795008,0.4563405514
743,1.55965536662e+18,-0.3516712189,0.8212399483,0.03096818924
744,1.55965536668e+18,-0.2841854095,0.3998764753,0.1497852802
745,1.55965536674e+18,0.5564899445,0.02077412605,0.09884262085
746,1.5596553668e+18,0.6710042953,-0.003240764141,-0.44044137
747,1.55965536686e+18,0.6227455139,-0.1933020949,-0.4909555912
748,1.55965536692e+18,0.3040018082,0.1495451331,-0.08453583717
749,1.55965536698e+18,-0.5769805908,0.3802497983,0.2043504715
750,1.55965536704e+18,-0.04410552979,0.8982403874,0.7020881176
751,1.5596553671e+18,0.0376958847,0.9489278793,0.8870174885
752,1.55965536716e+18,0.2551136017,1.130953789,0.7164485455
753,1.55965536722e+18,-0.1647005081,0.9620995522,0.266646862
754,1.55965536728e+18,-0.9018659592,-0.1705362499,-0.5512189865
755,1.55965536734e+18,-0.3561983109,-0.9988027811,-0.6480212212
756,1.5596553674e+18,0.6791143417,-0.6750209332,-0.9460356236
757,1.55965536746e+18,0.919989109,-0.4316974282,-1.240808487
758,1.55965536752e+18,1.465314865,0.321669668,-0.2012877464
759,1.55965536758e+18,0.2948656082,-0.379961431,0.02009487152
760,1.55965536764e+18,-0.9079551697,-2.909095049,-1.304971218
761,1.5596553677e+18,-0.3756446838,-2.019517899,-0.7489733696
762,1.55965536776e+18,0.6857852936,-0.7594236135,-0.2454581261
763,1.55965536782e+18,0.482922554,-0.2230299562,-0.07558774948
764,1.55965536788e+18,0.02142524719,0.5264208317,0.6633272171
765,1.55965536794e+18,-0.5456361771,0.9066508412,0.4028477669
766,1.559655368e+18,-0.7141857147,0.1820087433,-0.187769413
767,1.55965536806e+18,0.5090227127,-0.8307090998,0.2585673332
768,1.55965536812e+18,0.7560372353,-3.558830261,2.016384125
769,1.55965536818e+18,1.705334187,-1.608064055,0.6604237556
770,1.55965536824e+18,0.4585170746,-1.247408271,-3.92772007
771,1.5596553683e+18,-2.445350647,-1.501064301,-7.176576614
772,1.55965536836e+18,0.7179369926,-0.0362046361,0.852807045
773,1.55965536842e+18,-0.1242380142,-2.25058198,2.864055157
774,1.55965536848e+18,-0.3189115524,-0.09277290106,1.494139194
775,1.55965536854e+18,0.3884868622,0.5032087564,1.155403614
776,1.5596553686e+18,-0.1324329376,0.09747552872,1.474208832
777,1.55965536866e+18,0.2337431908,0.4702664614,1.855121613
778,1.55965536872e+18,1.075254917,0.9243352413,0.2896504402
779,1.55965536878e+18,2.18019557,1.360496998,-2.132000446
780,1.55965536884e+18,2.874386787,0.5181045532,-2.102935314
781,1.5596553689e+18,4.293802261,0.6901519299,-4.128134251
782,1.55965536896e+18,2.232645512,0.2708415985,-3.444729328
783,1.55965536902e+18,5.339912415,0.03752470016,-1.378503799
784,1.55965536908e+18,1.205978394,-0.09875702858,-1.482014179
785,1.55965536914e+18,1.151470184,-0.2836623192,-0.391459465
786,1.5596553692e+18,0.4562468529,-0.4715838432,-1.663561344
787,1.55965536926e+18,-0.2698287964,-0.4511017799,-2.341739178
788,1.55965536932e+18,-0.7234053612,0.9363124371,-3.593644619
789,1.55965536938e+18,-1.143084049,-0.8667111397,-2.994706154
790,1.55965536944e+18,-0.979414463,-0.640818119,-2.226899624
791,1.5596553695e+18,0.1406888962,-0.5217628479,-2.49902916
792,1.55965536956e+18,0.1227054596,0.5369348526,-0.794262886
793,1.55965536962e+18,1.661445618,0.7649319172,0.4436359406
794,1.55965536968e+18,3.618963242,0.9126271009,1.850958347
795,1.55965536974e+18,5.899704933,0.6264407635,3.56132412
796,1.5596553698e+18,6.827580929,2.121998072,4.16092062
797,1.55965536986e+18,22.54834747,4.10736084,6.238995552
798,1.55965536992e+18,28.23876953,15.18090534,-6.98643589
799,1.55965536998e+18,6.883718491,-4.87584877,-1.714258313
800,1.55965537004e+18,-14.56103516,-57.90555573,0.2170474529
801,1.5596553701e+18,-11.438344,-25.76172066,-8.003818512
802,1.55965537016e+18,-1.917991519,-9.899250984,-7.767416477
803,1.55965537022e+18,1.839821815,-2.629915714,-5.350907803
804,1.55965537028e+18,-0.797791481,-3.734167814,-0.6692368984
805,1.55965537034e+18,-1.068514824,-0.6028063297,0.5400400162
806,1.5596553704e+18,0.1782779694,-0.8900744915,1.81990099
807,1.55965537046e+18,1.875084877,0.5836071968,3.320536137
808,1.55965537052e+18,1.535699368,0.9683425426,0.6853041649
809,1.55965537058e+18,0.006289482117,1.828860879,1.497774124
810,1.55965537064e+18,-1.110659361,0.2313051224,2.028711319
811,1.5596553707e+18,-2.619717598,-0.7936782837,-1.638636112
812,1.55965537076e+18,-5.441124916,0.5179007053,-1.148588181
813,1.55965537082e+18,-3.629789829,1.295179725,-0.9934682846
814,1.55965537088e+18,-4.740578175,1.302081823,1.997861385
815,1.55965537094e+18,-1.293705463,0.4791107178,1.570273399
816,1.559655371e+18,-0.8638682365,-0.4457935095,0.5530452728
817,1.55965537106e+18,0.6253752708,-0.7370824218,-1.987318516
818,1.55965537112e+18,0.5742292404,-0.1128995419,-1.654067039
819,1.55965537118e+18,-0.2182059288,0.05766201019,-2.092118263
820,1.55965537124e+18,-1.147219181,-0.2216565609,-1.539607048
821,1.5596553713e+18,-0.454079628,1.795615435,-1.155010223
822,1.55965537136e+18,0.06901931763,1.453067303,-0.05246114731
823,1.55965537142e+18,-0.4687438011,2.544314384,0.2984819412
824,1.55965537148e+18,-0.1503572464,1.921456814,0.1416625977
825,1.55965537154e+18,0.8373680115,1.174118042,0.2065134048
826,1.55965537159e+18,0.8016943932,1.382505417,-0.06161308289
827,1.55965537165e+18,0.413110733,0.63448596,-0.3528456688
828,1.55965537171e+18,0.5284719467,0.8637943268,-0.3835344315
829,1.55965537177e+18,-0.4590520859,0.2812662125,-1.017591476
830,1.55965537183e+18,-0.5191993713,-0.3123991489,-1.083720207
831,1.55965537189e+18,0.3381938934,-0.562271595,-1.087054729
832,1.55965537195e+18,0.02387619019,-0.5315608978,-1.009378433
833,1.55965537201e+18,0.1246652603,-0.6222805977,-0.7805459499
834,1.55965537207e+18,0.1137628555,-0.2496533394,-0.6176002026
835,1.55965537213e+18,-0.2646474838,0.1961548328,-0.2097344398
836,1.55965537219e+18,-0.4509344101,0.369040966,0.009112596512
837,1.55965537225e+18,-0.4338626862,0.4578285217,0.4042284489
838,1.55965537231e+18,0.2498435974,1.368032694,0.6907606125
839,1.55965537237e+18,1.842520237,1.544301271,0.4594516754
840,1.55965537243e+18,0.7199625969,0.193956852,-1.54571867
841,1.55965537249e+18,0.5461940765,-0.836604476,-1.185744762
842,1.55965537255e+18,3.048215866,-1.135093451,0.9267864227
843,1.55965537261e+18,-3.548475266,-2.560161591,-3.541382313
844,1.55965537267e+18,-5.657002449,-1.036267757,-3.748420715
845,1.55965537273e+18,0.6150121689,-0.2201588154,0.02475643158
846,1.55965537279e+18,1.196093559,-0.493863821,-0.3961865902
847,1.55965537285e+18,0.5777540207,-1.068559408,-0.9629426003
848,1.55965537291e+18,0.2623119354,-1.20110929,-1.366088033
849,1.55965537297e+18,0.6003160477,-0.4883271456,-0.4018704891
850,1.55965537303e+18,0.7191743851,-0.0006140470505,0.01961874962
851,1.55965537309e+18,-0.6248970032,0.4235312939,0.5487911701
852,1.55965537315e+18,0.2569561005,0.7509816885,0.7127342224
853,1.55965537321e+18,-0.4726734161,0.4961793423,0.7012181282
854,1.55965537327e+18,0.05564403534,0.2849364281,0.2100157738
855,1.55965537333e+18,0.1987190247,0.1561309099,-0.006618976593
856,1.55965537339e+18,0.3961515427,-0.08693027496,-0.3009979725
857,1.55965537345e+18,-0.05360126495,0.73503685,0.2371673584
858,1.55965537351e+18,-0.1755208969,1.557932734,0.1820983887
859,1.55965537357e+18,0.7816734314,1.158692002,-0.6227121353
860,1.55965537363e+18,1.895283699,-0.9322820306,-1.792022824
861,1.55965537369e+18,0.8063745499,-5.489652157,-0.6489114761
862,1.55965537375e+18,1.593286991,-4.553912163,-0.3391988277
863,1.55965537381e+18,-0.07565498352,-2.248685837,-1.508302927
864,1.55965537387e+18,-0.7709245682,-3.006162167,-3.857026815
865,1.55965537393e+18,-2.065054893,-1.249929905,-1.212750912
866,1.55965537399e+18,0.02318096161,-4.228856564,-0.5704519749
867,1.55965537405e+18,-0.3642148972,-3.032952785,0.1922309399
868,1.55965537411e+18,-0.2614631653,-1.087492466,-0.4692749977
869,1.55965537417e+18,0.1644573212,1.267765164,2.041180611
870,1.55965537423e+18,-0.4519710541,4.76374197,1.915581465
871,1.55965537429e+18,1.022277832,5.351153374,2.425392628
872,1.55965537435e+18,1.336391449,4.325453281,1.063904047
873,1.55965537441e+18,1.331581116,3.424831629,-0.2914206982
874,1.55965537447e+18,1.062120914,1.858690023,-0.1630196571
875,1.55965537453e+18,-0.250837326,0.8419594765,0.08793926239
876,1.55965537459e+18,1.22036171,0.7946527004,1.603739738
877,1.55965537465e+18,-0.320909977,1.150066137,-1.49249649
878,1.55965537471e+18,0.5883922577,0.6079711914,0.03636884689
879,1.55965537477e+18,0.8199110031,0.06840753555,-1.898023605
880,1.55965537483e+18,2.203731537,0.1378192902,-1.723742008
881,1.55965537489e+18,2.78058672,0.1718654633,-2.190012455
882,1.55965537495e+18,2.353427172,-1.186595201,-1.51570797
883,1.55965537501e+18,2.205638885,-1.638585329,0.6457424164
884,1.55965537507e+18,0.809787035,-0.226454258,-3.92266798
885,1.55965537513e+18,2.525231361,0.4562540054,0.3010735512
886,1.55965537519e+18,3.750439167,-0.6788182259,0.8902134895
887,1.55965537525e+18,0.537317276,-0.3540942669,-0.768655777
888,1.55965537531e+18,0.1547551155,-1.152081728,-0.8027296066
889,1.55965537537e+18,0.3038096428,-0.7528877258,-1.049862385
890,1.55965537543e+18,0.6072010994,-0.3490152359,-0.4590392113
891,1.55965537549e+18,-0.7205357552,0.3439490795,-2.270477772
892,1.55965537555e+18,-1.083897114,-0.7264790535,-2.492333889
893,1.55965537561e+18,-1.321167469,-0.6011782885,-2.405313492
894,1.55965537567e+18,-0.8181376457,-0.5971152782,-1.991134644
895,1.55965537573e+18,1.60576582,0.091360569,-1.02376318
896,1.55965537579e+18,1.33866024,-0.1130107641,-0.1171412468
897,1.55965537585e+18,1.922739029,0.6313956976,0.6820664406
898,1.55965537591e+18,5.748461723,0.8229082823,2.485832691
899,1.55965537597e+18,8.02501297,1.298695326,3.366471291
900,1.55965537603e+18,27.03045654,7.637811661,4.777945518
901,1.55965537609e+18,26.7169342,14.62338066,-10.83104801
902,1.55965537615e+18,-1.597353458,-10.17536259,9.703652382
903,1.55965537621e+18,-10.52178383,-41.25909805,-10.26796532
904,1.55965537627e+18,-10.38364029,-22.79860306,-9.487821579
905,1.55965537633e+18,-2.812277794,-7.725841522,-14.5728035
906,1.55965537639e+18,8.708357811,7.984619617,-4.277326584
907,1.55965537645e+18,-1.155898094,-0.3919129372,-4.187202454
908,1.55965537651e+18,-5.313282967,-5.809499741,-4.845747948
909,1.55965537657e+18,-5.81623888,-8.078125954,-3.488520622
910,1.55965537663e+18,-5.444932938,-10.12872601,-2.575078964
911,1.55965537669e+18,-4.929860592,-11.54066372,2.178576469
912,1.55965537675e+18,-3.254162312,-8.42293644,5.106757164
913,1.55965537681e+18,-0.5715396404,-4.28746891,6.796394348
914,1.55965537687e+18,-1.46313715,-2.027132988,4.161695957
915,1.55965537693e+18,-11.62978649,-0.3344769478,-6.364616871
916,1.55965537699e+18,-14.69759178,4.216825962,-9.838332176
917,1.55965537705e+18,-9.769926071,10.81253147,-1.627093554
918,1.55965537711e+18,-2.232831478,9.270179749,2.054392576
919,1.55965537717e+18,-1.561276913,2.67279458,3.261530399
920,1.55965537723e+18,-1.634799004,-2.251140594,0.9766026139
921,1.55965537729e+18,-1.258728981,-3.827804089,-1.789008141
922,1.55965537735e+18,0.4805583954,-4.565012932,-3.198814869
923,1.55965537741e+18,3.334876537,-3.121845722,-2.869647741
924,1.55965537747e+18,2.617039204,-0.7902235985,-3.217394829
925,1.55965537753e+18,1.345968723,0.4143122435,-2.22649312
926,1.55965537759e+18,-0.1265592575,1.928719282,-1.021823883
927,1.55965537765e+18,-1.076342583,2.258090496,-0.03863835335
928,1.55965537771e+18,-0.605222702,3.407357693,0.784471035
929,1.55965537777e+18,-2.274710655,4.347962379,0.9737793207
930,1.55965537783e+18,-3.17109108,3.788850784,0.934726119
931,1.55965537789e+18,-0.06942462921,3.273402691,1.544624448
932,1.55965537795e+18,1.486223221,2.999433756,1.246467113
933,1.55965537801e+18,-1.61528492,1.73829031,-0.04772341251
934,1.55965537807e+18,-2.462615967,0.954148531,-0.8745552301
935,1.55965537813e+18,-0.01226329803,-0.1153807938,-0.3658065796
936,1.55965537819e+18,1.832120895,-0.3650182784,-0.531137228
937,1.55965537825e+18,1.0649786,-0.1058176458,-0.4594714642
938,1.55965537831e+18,0.3914146423,-0.2972154617,-0.8217630386
939,1.55965537837e+18,0.591334343,-0.7071684003,-0.08122181892
940,1.55965537843e+18,0.4441814423,-1.393362761,-0.1293187141
941,1.55965537849e+18,1.745985508,-0.7935427427,0.05088400841
942,1.55965537855e+18,1.089729309,-0.5042259097,0.3304743767
943,1.55965537861e+18,0.1128425598,-0.5875712037,0.5327162743
944,1.55965537867e+18,-0.3156280518,-0.5572189093,1.574728012
945,1.55965537873e+18,-0.6412715912,-0.3290738761,1.024987221
946,1.55965537879e+18,0.6294174194,0.09239950776,0.1671965122
947,1.55965537885e+18,1.113271236,0.1984716654,-0.3830869198
948,1.55965537891e+18,0.4524745941,-0.1629163474,-0.4685451984
949,1.55965537897e+18,-0.1618499756,-0.09680093825,-0.3112642765
950,1.55965537903e+18,0.3756427765,0.1652905494,-0.5861940384
951,1.55965537909e+18,0.6824903488,-0.2081817389,-0.4155137539
952,1.55965537915e+18,2.210969925,0.009978784248,-0.8247768879
953,1.55965537921e+18,-0.2520189285,-1.315015793,-0.5625884533
954,1.55965537927e+18,2.379503727,-0.05622369051,-0.5940954685
955,1.55965537933e+18,4.545984268,0.6245338917,-1.189197779
956,1.55965537939e+18,6.065397739,0.9086879492,-1.74712801
957,1.55965537945e+18,3.086912632,-2.350524902,-1.792265773
958,1.55965537951e+18,-3.133610249,-6.69534874,0.1848385334
959,1.55965537957e+18,-2.98670435,-5.604452133,1.745895386
960,1.55965537963e+18,-1.303810835,-2.862154961,1.51568222
961,1.55965537969e+18,-0.2202954292,-0.3509654999,0.5722048283
962,1.55965537975e+18,-1.379906416,0.8634052277,-0.8203504086
963,1.55965537981e+18,-2.640557766,0.7638015747,-1.57171309
964,1.55965537987e+18,-2.28681016,0.2021465302,-1.027732491
965,1.55965537993e+18,-1.301354408,0.07717609406,-0.856033802
966,1.55965537999e+18,-0.8671205044,-0.09583187103,-0.7042138577
967,1.55965538005e+18,-0.5025038719,-0.0554895401,-0.6940501928
968,1.55965538011e+18,-0.7239260674,-0.905172348,-0.2291922569
969,1.55965538017e+18,0.5951442719,-0.7800416946,0.1452937126
970,1.55965538023e+18,1.187285423,-0.1571884155,0.1920824051
971,1.55965538029e+18,1.396626949,0.3298096657,-0.2656869888
972,1.55965538035e+18,1.759505272,0.1107296944,-0.1666948795
973,1.55965538041e+18,1.983291864,-0.3960700035,0.08634257317
974,1.55965538047e+18,1.736598253,-0.8911895752,0.490165472
975,1.55965538053e+18,1.541979313,-0.9830131531,1.010868788
976,1.55965538059e+18,1.116385698,-0.4093999863,0.7596278191
977,1.55965538065e+18,0.3964891434,-0.1405525208,0.008065700531
978,1.55965538071e+18,-0.3719911575,-0.1449737549,-0.04701638222
979,1.55965538077e+18,-0.9966015816,0.01653671265,-0.5240508318
980,1.55965538083e+18,-1.764388561,-0.07493686676,-0.4829577208
981,1.55965538089e+18,-1.418639183,0.1207733154,-0.2568576336
982,1.55965538095e+18,-1.013688087,0.378636837,-0.1277837753
983,1.55965538101e+18,-0.9137096405,0.412457943,-0.4158998728
984,1.55965538107e+18,-0.801463604,0.3562412262,-0.49190557
985,1.55965538113e+18,-0.6977086067,0.114865303,-0.3522213697
986,1.55965538119e+18,-0.7411718369,-0.2711162567,-0.2859870195
987,1.55965538125e+18,-0.2089500427,-0.3548469543,-0.01826238632
988,1.55965538131e+18,0.2069687843,-0.2389349937,-0.06287109852
989,1.55965538137e+18,0.6490592957,-0.3846678734,0.1604135036
990,1.55965538143e+18,0.887948513,-0.3681225777,0.2266359329
991,1.55965538149e+18,0.8942847252,-0.3297357559,0.2351527214
992,1.55965538155e+18,1.194132328,0.05460309982,0.1020035744
993,1.55965538161e+18,1.089885712,0.2253143787,-0.1236270666
994,1.55965538167e+18,0.8118200302,0.247399807,-0.171128273
995,1.55965538173e+18,0.4245443344,0.2741470337,-0.2310547829
996,1.55965538179e+18,0.1777133942,0.3212356567,-0.07179629803
997,1.55965538185e+18,-0.1266441345,0.5018091202,0.06866943836
998,1.55965538191e+18,-0.5922441483,0.4780933857,0.3859195709
999,1.55965538197e+18,-0.4766330719,0.8656079769,0.2591593266
1000,1.55965538203e+18,-0.2939357758,0.7532505989,0.4653338194
1001,1.55965538209e+18,0.2212648392,0.6607666016,0.009790182114
1002,1.55965538215e+18,0.4418296814,0.2680737972,-0.2834986448
1003,1.55965538221e+18,0.1866455078,-0.0728085041,-0.147341013
1004,1.55965538227e+18,-2.035265923,0.4909021854,1.246290207
1005,1.55965538233e+18,-2.050086021,2.462901592,0.7708247304
1006,1.55965538239e+18,-2.822379112,1.822977424,-0.3592118621
1007,1.55965538245e+18,-0.617398262,0.8233174086,-0.7566060424
1008,1.55965538251e+18,1.684771538,0.3373256326,-0.7862446308
1009,1.55965538257e+18,0.7929172516,-0.05641081929,-0.8971575499
1010,1.55965538263e+18,1.036193848,-0.2232659608,0.9174845219
1011,1.55965538269e+18,0.2488412857,0.6001621485,1.168261766
1012,1.55965538275e+18,1.321035862,0.4943440557,2.056921959
1013,1.55965538281e+18,1.854762554,-0.2929952741,0.173740387
1014,1.55965538287e+18,1.367413998,-1.238517523,-1.15482688
1015,1.55965538293e+18,0.002577781677,-2.912125349,-2.943195581
1016,1.55965538299e+18,0.4706459045,-3.602285862,-1.837312222
1017,1.55965538305e+18,0.6149892807,-1.075807691,-0.358736515
1018,1.55965538311e+18,-0.2235364914,-0.5211815834,-0.1263923645
1019,1.55965538317e+18,-0.1162052155,-1.413943648,0.4961998463
1020,1.55965538323e+18,0.5357055664,0.4346933961,0.03603863716
1021,1.55965538329e+18,-1.318698883,-1.01939261,-2.110706329
1022,1.55965538335e+18,-2.89518261,-3.326017141,-4.743336201
1023,1.55965538341e+18,-0.4002447128,1.101575851,0.3363928795
1024,1.55965538347e+18,2.081665516,-1.639638782,2.436766624
1025,1.55965538353e+18,-3.759685516,0.443359971,-0.3688590527
1026,1.55965538359e+18,0.6737546921,0.5823003054,3.087034702
1027,1.55965538365e+18,0.7334713936,0.6064450741,0.7758131027
1028,1.55965538371e+18,1.883752346,0.3540821075,0.7421188354
1029,1.55965538377e+18,1.474641323,-0.3063400984,1.656177044
1030,1.55965538383e+18,1.257884502,-0.4673095942,0.7728848457
1031,1.55965538389e+18,0.959051609,-0.6100783348,0.2164363861
1032,1.55965538395e+18,1.542393446,0.2140734196,-1.999125004
1033,1.55965538401e+18,3.613063812,0.527946949,0.7654848099
1034,1.55965538407e+18,2.091160774,2.141851425,-1.546815395
1035,1.55965538413e+18,3.668987751,1.412708282,-2.754202366
1036,1.55965538419e+18,2.303370714,0.8552150726,0.2607450485
1037,1.55965538425e+18,2.088977814,-0.2340385914,-0.5854635239
1038,1.55965538431e+18,1.364017963,0.3191435337,-1.264697552
1039,1.55965538437e+18,-0.1594805717,0.5310482979,-2.241383553
1040,1.55965538443e+18,0.0487370491,-0.01552629471,-1.701391697
1041,1.55965538449e+18,-0.2497496605,-1.105519414,-2.975506306
1042,1.55965538455e+18,-1.948176384,-0.1055879593,-2.85158205
1043,1.55965538461e+18,-1.110534668,-0.3527824879,-1.839747906
1044,1.55965538467e+18,-0.2866325378,-0.3263295889,-1.631307602
1045,1.55965538473e+18,-0.2317094803,-0.1243907213,-1.939359188
1046,1.55965538479e+18,0.5022783279,0.2278684378,-0.9590353966
1047,1.55965538485e+18,1.413955688,0.1793477535,-0.9364824295
1048,1.55965538491e+18,2.328042984,0.130952239,0.6488761902
1049,1.55965538497e+18,4.658763885,0.6162194014,1.962087631
1050,1.55965538503e+18,7.013102055,0.8673616648,4.01210022
1051,1.55965538509e+18,13.45580387,2.603825092,8.233170509
1052,1.55965538515e+18,31.76631546,12.07923412,3.285311222
1053,1.55965538521e+18,19.28495789,3.119894981,-7.689687729
1054,1.55965538527e+18,-5.869443893,-23.21162415,25.1860733
1055,1.55965538533e+18,-22.21222305,-41.90689468,-4.668960094
1056,1.55965538539e+18,-6.887918472,-19.3935833,-11.33940697
1057,1.55965538545e+18,1.968574524,-5.597394466,-5.78036499
1058,1.55965538551e+18,3.266749382,-0.7330374718,-1.498257637
1059,1.55965538557e+18,-3.676045418,-1.925988197,-3.160235405
1060,1.55965538563e+18,-3.747844219,-1.86720252,0.6780791283
1061,1.55965538569e+18,-0.07633686066,1.374600053,4.442340374
1062,1.55965538575e+18,1.323083878,0.5835285783,6.67680645
1063,1.55965538581e+18,0.9851727486,0.4037465453,2.112529755
1064,1.55965538587e+18,1.018389702,3.280032635,-3.816798687
1065,1.55965538593e+18,-5.302324772,1.638862014,-2.562654018
1066,1.55965538599e+18,-5.673811913,3.517341375,-4.56649065
1067,1.55965538605e+18,-9.228153229,4.182923317,-2.622610569
1068,1.55965538611e+18,-7.86920166,0.844304204,-3.009025574
1069,1.55965538617e+18,-1.274768829,0.4875143766,-1.593593597
1070,1.55965538623e+18,2.324684143,0.07894957066,-2.52668643
1071,1.55965538629e+18,1.817979813,0.5837670565,-3.558142185
1072,1.55965538635e+18,-3.168394089,-0.3663480282,-3.402194023
1073,1.55965538641e+18,-2.87611866,-1.265127897,-4.423376083
1074,1.55965538647e+18,-1.368585587,-2.047789574,-3.938425064
1075,1.55965538653e+18,1.636497021,-1.51457417,-3.371072769
1076,1.55965538659e+18,1.712425709,-1.098108888,-2.4181602
1077,1.55965538665e+18,0.7485542297,-0.568883419,-1.249591589
1078,1.55965538671e+18,-1.388765335,0.164337635,0.1014091969
1079,1.55965538677e+18,-2.273032188,1.949480891,1.934851885
1080,1.55965538683e+18,-2.167905807,1.894664526,2.128345251
1081,1.55965538689e+18,0.5650520325,1.748179317,1.032771945
1082,1.55965538695e+18,2.76576376,2.124722004,0.6917464733
1083,1.55965538701e+18,-0.1321783066,1.469177961,-0.6631475687
1084,1.55965538707e+18,-1.939453125,0.4054480791,-1.259952545
1085,1.55965538713e+18,-0.262547493,0.6922556162,-0.5795439482
1086,1.55965538719e+18,0.7364692688,0.4643054008,-0.3408851624
1087,1.55965538725e+18,0.6204319,-0.1905171871,-0.7321074009
1088,1.55965538731e+18,0.02613735199,-1.015784264,-0.8654344082
1089,1.55965538737e+18,1.047790527,-0.6403128505,-0.9135417938
1090,1.55965538743e+18,2.067346096,-0.2976083159,-0.2762029171
1091,1.55965538749e+18,2.381226063,0.569547832,-0.4475998878
1092,1.55965538755e+18,-1.116995811,0.3163933158,-0.667318821
1093,1.55965538761e+18,-1.928296089,1.195384026,0.1481628418
1094,1.55965538767e+18,-2.292927742,1.767322063,-0.01832580566
1095,1.55965538773e+18,1.062282562,1.274853945,-0.1716632843
1096,1.55965538779e+18,-0.3702230453,-0.6582812071,-1.518617392
1097,1.55965538785e+18,0.8782815933,-0.7113275528,-1.371227741
1098,1.55965538791e+18,0.537771225,0.2826700211,-0.7173415422
1099,1.55965538797e+18,0.04856491089,0.9889887571,0.6271276474
1100,1.55965538803e+18,-0.3573827744,0.6362346411,0.4589605331
1101,1.55965538809e+18,0.02799415588,0.0808006525,0.7894554138
1102,1.55965538815e+18,0.01993560791,0.4276471138,0.2093987465
1103,1.55965538821e+18,0.6541919708,1.893597484,0.3215939999
1104,1.55965538827e+18,0.5230045319,1.678985357,0.3773891926
1105,1.55965538833e+18,-0.4055271149,1.079001069,0.6926159859
1106,1.55965538839e+18,-1.382712364,-1.331463933,0.1431910992
1107,1.55965538845e+18,-0.3330392838,-2.595742941,-0.3553128242
1108,1.55965538851e+18,2.37920332,-2.519516945,-1.084798813
1109,1.55965538857e+18,1.629309177,-2.794282913,-1.020611763
1110,1.55965538863e+18,-0.9734745026,-5.39495182,-0.8710920811
1111,1.55965538869e+18,1.920466423,-2.20655179,14.11497688
1112,1.55965538875e+18,-2.943472862,1.50078392,-1.201518774
1113,1.55965538881e+18,1.655466557,-1.221251249,2.0692873
1114,1.55965538887e+18,-3.922562599,-1.528602123,0.9997549057
1115,1.55965538893e+18,-1.675534725,-1.310045958,2.487210274
1116,1.55965538899e+18,-3.658184528,1.280032277,-0.9451727867
1117,1.55965538905e+18,2.403961658,0.5845837593,1.15952158
1118,1.55965538911e+18,-1.510066986,1.802747011,-1.452076912
1119,1.55965538917e+18,2.013530731,1.768982172,-1.844641685
1120,1.55965538923e+18,4.101613045,1.590075016,-4.35698843
1121,1.55965538929e+18,2.445299149,1.733449221,-4.821772099
1122,1.55965538935e+18,4.087456226,0.9124801159,-3.274546146
1123,1.55965538941e+18,2.531695604,1.012746572,-1.769865036
1124,1.55965538947e+18,0.9825606346,-0.7986690998,-2.16277504
1125,1.55965538953e+18,-0.20495224,-0.6158127785,-1.356752872
1126,1.55965538959e+18,0.2288475037,0.662730217,-3.161914825
1127,1.55965538965e+18,-0.002005577087,-0.7581000328,-2.362744808
1128,1.55965538971e+18,-1.229543686,0.193801403,-1.429553986
1129,1.55965538977e+18,0.5416140556,-0.6089766026,-2.542568684
1130,1.55965538983e+18,0.7126312256,-0.2637419701,-1.335319519
1131,1.55965538989e+18,1.168871403,0.7783746719,-0.3735027313
1132,1.55965538995e+18,3.858653545,0.3656041622,1.954045296
1133,1.55965539001e+18,6.858501434,1.745850801,3.402982712
1134,1.55965539007e+18,16.50499725,3.268423557,8.959960938
1135,1.55965539013e+18,30.80797958,15.09333992,-0.8105750084
1136,1.55965539019e+18,19.3628006,4.167129517,-5.803563118
1137,1.55965539025e+18,-9.589069366,-21.05686569,21.51544762
1138,1.55965539031e+18,-18.63504028,-34.38272858,-0.141143322
1139,1.55965539037e+18,-2.526334047,-16.55612183,-15.97981262
1140,1.55965539043e+18,7.200436592,2.414616585,-1.656882524
1141,1.55965539049e+18,0.3529548645,-2.744616508,-2.835497856
1142,1.55965539055e+18,-4.215664864,-2.822816133,-0.6318339109
1143,1.55965539061e+18,-3.670469761,-4.416667938,1.895332336
1144,1.55965539067e+18,-1.413351059,-1.153543711,3.537169456
1145,1.55965539073e+18,-3.086322784,0.1974732876,3.160545349
1146,1.55965539079e+18,-3.722394466,-0.8768465519,-1.409650326
1147,1.55965539084e+18,-7.53386116,-2.497457027,-3.374677181
1148,1.5596553909e+18,-11.0964241,0.6823613644,-7.369781017
1149,1.55965539096e+18,-7.382583618,4.429406166,1.316369057
1150,1.55965539102e+18,-4.535022736,2.3415308,0.7348103523
1151,1.55965539108e+18,-3.101805687,4.13897419,0.4226908684
1152,1.55965539114e+18,-2.865450859,1.849634647,-1.231361866
1153,1.5596553912e+18,-1.47121048,0.7422015667,-1.207438946
1154,1.55965539126e+18,-0.05539035797,1.193907142,-2.144973993
1155,1.55965539132e+18,-0.5127878189,0.9191719294,-2.15566659
1156,1.55965539138e+18,0.1742277145,1.089097738,-2.466498613
1157,1.55965539144e+18,0.4399490356,1.724490762,-1.734879017
1158,1.5596553915e+18,0.1942529678,1.13938117,-0.7893872261
1159,1.55965539156e+18,-0.07668685913,0.9101589918,-0.2486689091
1160,1.55965539162e+18,-0.3241577148,0.7034726143,-0.4263632298
1161,1.55965539168e+18,0.0910243988,0.7605670691,-0.0959982872
1162,1.55965539174e+18,-0.6509504318,-0.4100442529,-0.7026255131
1163,1.5596553918e+18,-0.5417575836,-0.8703488111,-0.930160284
1164,1.55965539186e+18,0.6489419937,-0.9006443024,-0.3412902355
1165,1.55965539192e+18,0.3865385056,-0.7490464449,-1.125215292
1166,1.55965539198e+18,0.4014673233,-0.2633588314,-0.480525732
1167,1.55965539204e+18,0.2530384064,0.34268713,-1.441009998
1168,1.5596553921e+18,0.01411914825,0.1701905727,-1.05327487
1169,1.55965539216e+18,-0.1606988907,0.03755152225,-1.03609252
1170,1.55965539222e+18,-0.1959428787,-0.3084269762,-0.5787725449
1171,1.55965539228e+18,-0.1956968307,-0.09407269955,-0.7039651871
1172,1.55965539234e+18,0.1585083008,-0.04169714451,-0.6809771061
1173,1.5596553924e+18,0.2952547073,0.1680347919,-0.5813279152
1174,1.55965539246e+18,-0.3325862885,0.2349396944,-0.6357123852
1175,1.55965539252e+18,0.09647750854,-0.04028367996,-0.4366829395
1176,1.55965539258e+18,0.5371217728,-0.1047852039,-0.6500089169
1177,1.55965539264e+18,0.4928426743,-0.4811655879,-0.6356065273
1178,1.5596553927e+18,1.058549404,-0.1085127592,0.1227047443
1179,1.55965539276e+18,-0.9836711884,0.1000038981,0.5971624851
1180,1.55965539282e+18,-1.10390377,0.8368252516,0.6346430779
1181,1.55965539288e+18,-0.4851016998,1.066263795,0.4569783211
1182,1.55965539294e+18,-1.020857811,0.3232140541,-0.1729867458
1183,1.559655393e+18,-0.0681142807,0.9507646561,-0.4262583256
1184,1.55965539306e+18,1.119602203,1.048264384,-0.167072773
1185,1.55965539312e+18,0.5874700546,-0.3110389709,-1.182261229
1186,1.55965539318e+18,0.9662389755,-0.9613064528,-1.419851065
1187,1.55965539324e+18,0.4873027802,-0.479788065,-0.9380629063
1188,1.5596553933e+18,2.049106598,1.739688993,-0.5158760548
1189,1.55965539336e+18,1.566464901,1.986673951,0.8075530529
1190,1.55965539342e+18,-2.21219635,0.144597888,-0.5386564732
1191,1.55965539348e+18,-2.104345322,-1.593549609,-0.3557267189
1192,1.55965539354e+18,0.2879495621,-2.761554718,0.8312797546
1193,1.5596553936e+18,0.9417977333,-3.474544525,0.3578791618
1194,1.55965539366e+18,0.1239795685,-4.50214529,1.227725506
1195,1.55965539372e+18,-0.003740310669,-3.288263559,-1.827661753
1196,1.55965539378e+18,-4.072008133,-4.93436718,-15.49120045
1197,1.55965539384e+18,-2.203061104,-0.7175221443,-0.04921674728
1198,1.5596553939e+18,2.160486221,-2.463674068,3.808295727
1199,1.55965539396e+18,-4.79224205,-1.072585821,1.026074409
1200,1.55965539402e+18,0.2217912674,-1.357809782,3.346549511
1201,1.55965539408e+18,-0.9222817421,0.9268342853,0.9007472992
1202,1.55965539414e+18,-1.040741444,1.189110637,-0.8599414825
1203,1.5596553942e+18,2.191696644,2.160871744,-3.819744587
1204,1.55965539426e+18,3.829384089,2.728466749,-3.949109077
1205,1.55965539432e+18,3.84616375,0.8388390541,-3.107435703
1206,1.55965539438e+18,1.048889875,1.927800417,-3.508471012
1207,1.55965539444e+18,3.151616096,-0.2486264706,-4.4064641
1208,1.5596553945e+18,1.174650669,0.489282608,-2.938528061
1209,1.55965539456e+18,1.370700359,0.4630095959,-1.714220047
1210,1.55965539462e+18,1.932552814,0.2923095226,0.1611118317
1211,1.55965539468e+18,0.2036647797,0.411128521,-1.711546898
1212,1.55965539474e+18,0.3325548172,-0.07614481449,-1.930465221
1213,1.5596553948e+18,-0.3644776344,-0.3378124237,-2.125752449
1214,1.55965539486e+18,-1.344187737,-0.1614857912,-3.461524487
1215,1.55965539492e+18,-1.370356083,-0.3944962621,-2.593016148
1216,1.55965539498e+18,-0.5055141449,0.144220829,-2.604110479
1217,1.55965539504e+18,1.193591595,-0.1105202436,0.008291244507
1218,1.5596553951e+18,4.223129272,0.2207119465,1.391418934
1219,1.55965539516e+18,5.392601013,0.3786549568,2.475996971
1220,1.55965539522e+18,8.191171646,1.002912998,4.721718311
1221,1.55965539528e+18,29.78079987,4.607941628,3.465738297
1222,1.55965539534e+18,28.29739189,12.72360516,-11.63256454
1223,1.5596553954e+18,0.2546987534,-12.11043644,7.30519104
1224,1.55965539546e+18,-11.92745972,-73.64500427,3.584258556
1225,1.55965539552e+18,-18.45705795,-18.89248657,-13.1734581
1226,1.55965539558e+18,3.894201279,-8.405493736,-12.56928635
1227,1.55965539564e+18,12.01935959,3.584439754,-2.544159412
1228,1.5596553957e+18,-2.57852602,-4.568694115,-0.7064031959
1229,1.55965539576e+18,-3.712069035,-4.805503368,0.9832404852
1230,1.55965539582e+18,-3.210072994,-4.655964375,3.959861279
1231,1.55965539588e+18,-2.366726875,-3.20566988,4.463150501
1232,1.55965539594e+18,-2.141933918,-0.058452636,4.184551239
1233,1.559655396e+18,-3.521570921,1.25096941,4.489465714
1234,1.55965539606e+18,-2.971641064,1.403274536,2.290397644
1235,1.55965539612e+18,-4.003453255,1.490453482,5.617525101
1236,1.55965539618e+18,-2.815382719,0.5954272151,1.864721298
1237,1.55965539624e+18,-2.791091681,1.519646406,1.357990265
1238,1.5596553963e+18,-3.529507399,1.469058871,-0.5152730942
1239,1.55965539636e+18,-2.159907341,1.863756418,-1.006930351
1240,1.55965539642e+18,-1.836364269,0.3973476291,0.0340385437
1241,1.55965539648e+18,-1.024020195,0.3211423457,-0.3343548775
1242,1.55965539654e+18,-1.722946644,-0.3777678609,0.7553334236
1243,1.5596553966e+18,-1.381402493,0.3439288437,-0.06072425842
1244,1.55965539666e+18,-0.877055645,0.80098629,0.45759058
1245,1.55965539672e+18,-1.54603672,0.7539545894,-0.1594996452
1246,1.55965539678e+18,-0.5872883797,1.301763773,-0.8276157379
1247,1.55965539684e+18,0.02853727341,1.266408205,-1.535103798
1248,1.5596553969e+18,-0.8752808571,1.209554195,-1.203155518
1249,1.55965539696e+18,-1.81803894,0.3979197443,-0.7755641937
1250,1.55965539702e+18,-1.184780121,0.4547346234,-1.395480633
1251,1.55965539708e+18,-1.145545483,-0.02476808429,-1.78552103
1252,1.55965539714e+18,-0.1291875839,-0.5360577106,-1.756368637
1253,1.5596553972e+18,0.0144610405,-0.8646023273,-1.152311802
1254,1.55965539726e+18,0.2964129448,-0.887234509,-1.066665649
1255,1.55965539732e+18,0.3728065491,-0.7206843495,-0.669508934
1256,1.55965539738e+18,0.5853357315,-0.2483896613,-0.4020037651
1257,1.55965539744e+18,0.6426525116,-0.1542441845,0.1647343636
1258,1.5596553975e+18,0.1813135147,0.1588997841,0.209253788
1259,1.55965539756e+18,-0.3104915619,0.3596545458,-0.3063931465
1260,1.55965539762e+18,-0.5740909576,0.2474626303,-0.1505455971
1261,1.55965539768e+18,-0.05459976196,0.1273289323,-0.4000573158
1262,1.55965539774e+18,0.4387845993,0.3149271309,-0.5649342537
1263,1.5596553978e+18,0.48320961,0.1971420646,-0.6085305214
1264,1.55965539786e+18,-0.5206260681,-0.3991061449,-0.2502660751
1265,1.55965539792e+18,-0.1282167435,-0.2887918949,-0.2892780304
1266,1.55965539798e+18,0.1926441193,-0.173173517,-0.2077498436
1267,1.55965539804e+18,0.160326004,-0.1109385937,0.1463651657
1268,1.5596553981e+18,-0.2769699097,-0.09673881531,0.1706972122
1269,1.55965539815e+18,0.2214593887,0.1260160506,0.2088150978
1270,1.55965539821e+18,0.1807546616,-0.1696474552,-0.2982878685
1271,1.55965539827e+18,0.08775615692,-0.4375679791,-0.6000256538
1272,1.55965539833e+18,0.1406478882,-0.158454299,-0.6217136383
1273,1.55965539839e+18,-1.081495285,-0.03127455711,-1.1444664
1274,1.55965539845e+18,-1.006556511,0.1638505459,-1.0672822
1275,1.55965539851e+18,2.410081863,-0.01048958302,0.03447389603
1276,1.55965539857e+18,1.690263271,-1.127377033,-0.3329730034
1277,1.55965539863e+18,-0.2444720268,-1.481769562,-0.7696375847
1278,1.55965539869e+18,-0.4945459366,-1.022132993,-1.538831711
1279,1.55965539875e+18,0.7354488373,-0.5362483263,-0.7581691742
1280,1.55965539881e+18,0.5746426582,-0.3948218226,-0.5297431946
1281,1.55965539887e+18,-0.1035547256,-0.06316541135,-0.5500252247
1282,1.55965539893e+18,-0.06483459473,0.06776705384,-0.06331086159
1283,1.55965539899e+18,0.2144060135,0.3121747375,1.124569416
1284,1.55965539905e+18,0.2165088654,0.4493188262,1.32527566
1285,1.55965539911e+18,-0.02773761749,0.5691660643,0.887917757
1286,1.55965539917e+18,0.09306907654,1.068612099,1.172031164
1287,1.55965539923e+18,-1.136144638,0.9987714887,-0.4426004887
1288,1.55965539929e+18,-1.359229088,0.3383034468,-1.124312639
1289,1.55965539935e+18,0.3652591705,-0.09237369895,-0.4635612965
1290,1.55965539941e+18,0.4840507507,-0.4426221848,-0.8492259979
1291,1.55965539947e+18,0.2902116776,0.04755773023,-0.8493196964
1292,1.55965539953e+18,0.2954797745,0.6055521369,-0.5694756508
1293,1.55965539959e+18,-0.1773958206,1.06537652,0.4491186142
1294,1.55965539965e+18,-1.057463646,0.7300792933,-0.01793909073
1295,1.55965539971e+18,-0.9659919739,0.9425237179,0.3845286369
1296,1.55965539977e+18,-1.024888992,0.9269176126,-0.9330353737
1297,1.55965539983e+18,-0.3699369431,0.1172252893,-0.1278657913
1298,1.55965539989e+18,0.5008602142,-0.4059712887,-0.4631433487
1299,1.55965539995e+18,2.491550446,-1.364179373,-0.9611940384
1300,1.55965540001e+18,0.9641265869,-2.218323231,-0.6127176285
1301,1.55965540007e+18,-0.1809940338,-3.257867813,-1.431680918
1302,1.55965540013e+18,1.409981251,-1.95539248,0.5303220749
1303,1.55965540019e+18,0.006808280945,-3.043228626,-0.2157902718
1304,1.55965540025e+18,0.1792640686,-0.6035255194,-3.092245817
1305,1.55965540031e+18,-0.5319919586,0.8204509616,1.479184151
1306,1.55965540037e+18,-1.105714798,0.5319089293,-1.632493973
1307,1.55965540043e+18,-1.440552711,-0.9378471375,-0.8028082848
1308,1.55965540049e+18,-0.3561296463,-2.91667223,3.152645111
1309,1.55965540055e+18,0.1643328667,-1.460120082,2.390582085
1310,1.55965540061e+18,1.297471523,-0.5479876399,1.423702717
1311,1.55965540067e+18,-0.2639260292,0.4860896468,1.015567303
1312,1.55965540073e+18,-0.8991470337,2.116867542,0.04785633087
1313,1.55965540079e+18,1.983450651,1.579520822,-0.03200244904
1314,1.55965540085e+18,2.069883585,1.691908956,1.185587883
1315,1.55965540091e+18,3.786687374,1.120504856,-0.06853199005
1316,1.55965540097e+18,0.5631974936,0.8015303612,-5.140813828
1317,1.55965540103e+18,2.824841499,-2.708012581,1.482046127
1318,1.55965540109e+18,3.42551136,0.8015687466,-2.415032387
1319,1.55965540115e+18,0.9035534859,0.1841909885,0.4226121902
1320,1.55965540121e+18,1.0934515,-0.9213759899,-2.085727692
1321,1.55965540127e+18,1.075333118,-0.1554880142,-1.783363342
1322,1.55965540133e+18,0.2815594673,0.04000878334,-1.220086098
1323,1.55965540139e+18,-0.157992363,-0.8328799009,-2.516997576
1324,1.55965540145e+18,-2.942293167,-1.190575004,-2.813804865
1325,1.55965540151e+18,-4.280219078,0.2855480909,-3.18868494
1326,1.55965540157e+18,-1.932176113,-0.1499686837,-2.665035963
1327,1.55965540163e+18,1.215551376,0.3930880427,-1.481305122
1328,1.55965540169e+18,4.470235825,1.142701864,0.7182102203
1329,1.55965540175e+18,6.664311409,0.535256207,2.634838581
1330,1.55965540181e+18,10.2713356,1.322242975,3.616187572
1331,1.55965540187e+18,25.89096451,3.870696306,1.358063698
1332,1.55965540193e+18,28.53707504,15.47173405,-10.12745094
1333,1.55965540199e+18,9.216803551,-2.998290062,-3.417877436
1334,1.55965540205e+18,1.257788658,-47.53645706,7.035198689
1335,1.55965540211e+18,-15.00718212,-25.232584,-15.61222172
1336,1.55965540217e+18,1.863995075,-10.79771709,-16.1288147
1337,1.55965540223e+18,8.02241993,5.88639164,-2.36129427
1338,1.55965540229e+18,-1.6385746,0.153842926,-4.871260643
1339,1.55965540235e+18,-6.85329628,-6.504264355,-4.858798981
1340,1.55965540241e+18,-6.96105051,-10.12631989,-0.6251883507
1341,1.55965540247e+18,-4.599743843,-12.87215233,3.236090183
1342,1.55965540253e+18,-2.424428463,-9.726027489,6.642752647
1343,1.55965540259e+18,0.8874440193,-1.224282742,5.485398769
1344,1.55965540265e+18,3.2291255,1.661611319,7.408405304
1345,1.55965540271e+18,2.768545866,3.290345669,5.492899895
1346,1.55965540277e+18,-3.201759577,1.019500256,4.70672226
1347,1.55965540283e+18,-5.51772213,3.060996771,-1.99354887
1348,1.55965540289e+18,-8.654474258,4.595627308,-3.142223597
1349,1.55965540295e+18,-5.16570282,3.143364906,-1.293556213
1350,1.55965540301e+18,-1.183049679,0.0538482666,1.566827774
1351,1.55965540307e+18,-0.3800930977,-2.024943829,1.881590843
1352,1.55965540313e+18,-0.2916045189,-0.8286306858,-0.6144871712
1353,1.55965540319e+18,-1.173523426,-1.521524668,-1.284922123
1354,1.55965540325e+18,-0.4230103493,-2.369629383,-0.9880619049
1355,1.55965540331e+18,0.04853868484,-1.932519197,-0.9735226631
1356,1.55965540337e+18,0.6192193031,-1.066332102,-1.62257576
1357,1.55965540343e+18,0.6403126717,-0.4548854828,-1.733647823
1358,1.55965540349e+18,0.4656620026,-0.01178812981,-1.634162426
1359,1.55965540355e+18,0.03603982925,0.7833544016,-1.518714428
1360,1.55965540361e+18,-0.07765579224,1.369376898,-1.429836273
1361,1.55965540367e+18,0.4803681374,0.7438118458,-1.217689991
1362,1.55965540373e+18,1.542054176,1.766800284,-0.8175840378
1363,1.55965540379e+18,-1.272737503,1.348464489,0.1185045242
1364,1.55965540385e+18,-1.914306641,1.982092381,-0.4549868107
1365,1.55965540391e+18,-1.074357033,2.467732906,0.3681461811
1366,1.55965540397e+18,-0.8825187683,2.732290745,0.4841601849
1367,1.55965540403e+18,-0.7348451614,2.414511204,0.08204722404
1368,1.55965540409e+18,0.4038076401,2.383375168,0.02206730843
1369,1.55965540415e+18,-0.2591123581,1.793444276,-0.1775226593
1370,1.55965540421e+18,-0.8180942535,0.7678743601,-0.4333376884
1371,1.55965540427e+18,-0.7718524933,-0.1331557035,-0.3909239769
1372,1.55965540433e+18,1.701868057,0.04407644272,-0.5017671585
1373,1.55965540439e+18,0.7357006073,0.1260185242,-0.8442953825
1374,1.55965540445e+18,-1.721274376,-0.8473529816,-1.234852314
1375,1.55965540451e+18,0.4215555191,-0.3902612925,-0.5544776917
1376,1.55965540457e+18,0.6751728058,-0.1964706779,-0.6867089272
1377,1.55965540463e+18,0.3520231247,-0.4339042008,-0.5683619976
1378,1.55965540469e+18,0.4299173355,-0.2109668851,-0.1561801434
1379,1.55965540475e+18,0.1943359375,-0.2245957255,0.02569437027
1380,1.55965540481e+18,-0.2359828949,-0.2910283208,-0.5074272156
1381,1.55965540487e+18,0.13022995,-0.3849085569,-0.5409675837
1382,1.55965540493e+18,0.2801141739,-0.5764740109,-0.6362924576
1383,1.55965540499e+18,0.6065807343,-0.5169872046,-0.4506027699
1384,1.55965540505e+18,0.37413311,-0.3728405833,-0.6604795456
1385,1.55965540511e+18,0.059217453,-0.2574137449,-0.8552523851
1386,1.55965540517e+18,-0.0671339035,-0.117334336,-0.7595981359
1387,1.55965540523e+18,0.1912002563,0.2562327981,-0.4702215195
1388,1.55965540529e+18,0.3011856079,0.3213635683,-0.4641771317
1389,1.55965540535e+18,0.445646286,0.4179861248,-0.3815355301
1390,1.55965540541e+18,0.9613361359,0.282977134,-0.06305909157
1391,1.55965540547e+18,0.1813831329,-0.4243343472,-0.1038353443
1392,1.55965540553e+18,-0.3761720657,-0.6643195152,-0.4083783627
1393,1.55965540559e+18,-0.2679862976,-0.3699308634,-0.07126498222
1394,1.55965540565e+18,-0.211520195,-0.07823395729,0.4058389664
1395,1.55965540571e+18,-0.06848239899,-0.2188746929,0.4881968498
1396,1.55965540577e+18,0.009853363037,-0.3359276056,-0.4093482494
1397,1.55965540583e+18,0.2295894623,-0.3699003458,-0.508605957
1398,1.55965540589e+18,0.3627357483,-0.2655774355,-0.6770608425
1399,1.55965540595e+18,0.2658634186,-0.2237014771,-0.5372822285
1400,1.55965540601e+18,0.07575511932,-0.08591330051,-0.3900626898
1401,1.55965540607e+18,-0.04413318634,-0.06181621552,0.007418632507
1402,1.55965540613e+18,0.03979873657,0.01300609112,-0.06415772438
1403,1.55965540619e+18,0.3815889359,-0.05553495884,0.1519985199
1404,1.55965540625e+18,0.3744945526,-0.1441422701,0.03357672691
1405,1.55965540631e+18,0.2529916763,-0.1387591362,-0.1500446796
1406,1.55965540637e+18,0.2878990173,-0.03977847099,-0.1096189022
1407,1.55965540643e+18,0.3070116043,-0.06020915508,-0.01134300232
1408,1.55965540649e+18,0.2656745911,0.1445744038,-0.1330741644
1409,1.55965540655e+18,0.07477760315,0.1954455376,-0.1389679909
1410,1.55965540661e+18,-0.0127325058,0.3087209463,-0.2442271709
1411,1.55965540667e+18,0.1344232559,0.2572909594,0.07378864288
1412,1.55965540673e+18,0.2897100449,0.2433342934,0.05549550056
1413,1.55965540679e+18,0.003622055054,0.1644384861,0.03698050976
1414,1.55965540685e+18,0.1490364075,0.2536196709,0.3398447037
1415,1.55965540691e+18,-0.08426952362,0.3425943851,0.1840779781
1416,1.55965540697e+18,0.1309280396,0.3380234241,0.2520623207
1417,1.55965540703e+18,-0.2420721054,0.2480661869,-0.1764867306
1418,1.55965540709e+18,-0.4652500153,0.5017268658,0.4211610556
1419,1.55965540715e+18,-0.4983196259,0.5800526738,0.4237411022
1420,1.55965540721e+18,0.05150508881,0.5308741927,0.4381957054
1421,1.55965540727e+18,-0.3044395447,0.8016027808,0.3116137981
1422,1.55965540733e+18,-0.3545274734,-0.5419709682,-0.7813858986
1423,1.55965540739e+18,0.1699647903,-0.2697252929,-0.2516360283
1424,1.55965540745e+18,0.7768573761,0.8418920636,0.5536599159
1425,1.55965540751e+18,-1.30078125,2.614943266,1.361301899
1426,1.55965540757e+18,-0.1571969986,1.979755759,0.7494616508
1427,1.55965540763e+18,1.125837326,0.02745258808,0.40284729
1428,1.55965540769e+18,1.226907253,-1.773685098,-1.2940979
1429,1.55965540775e+18,1.728180885,-2.879235744,-0.8735866547
1430,1.55965540781e+18,0.3487892151,-4.584681034,-0.02348613739
1431,1.55965540787e+18,0.1012592316,-2.645361662,-2.230367422
1432,1.55965540793e+18,-2.561471939,-0.417848587,-6.669793129
1433,1.55965540799e+18,2.123614788,0.002220034599,3.824976921
1434,1.55965540805e+18,-0.5430641174,-1.540179968,0.6940717697
1435,1.55965540811e+18,-2.042814255,-1.230373263,0.8728208542
1436,1.55965540817e+18,-0.3617887497,0.1189596653,0.278213501
1437,1.55965540823e+18,0.2259063721,1.108876944,1.022387028
1438,1.55965540829e+18,-2.67600441,0.7092728615,0.5639753342
1439,1.55965540835e+18,2.67828393,1.72930932,-1.333874226
1440,1.55965540841e+18,1.624947667,1.379065275,-1.213077068
1441,1.55965540847e+18,1.980276346,2.204510689,-4.247363567
1442,1.55965540853e+18,3.241271019,1.501507044,-3.35751152
1443,1.55965540859e+18,0.7630851269,1.513113022,-3.550487041
1444,1.55965540865e+18,2.850559235,0.6060743332,-2.199691296
1445,1.55965540871e+18,0.2662115097,0.1571016312,1.001416206
1446,1.55965540877e+18,1.490193367,0.1824398041,-2.737020493
1447,1.55965540883e+18,1.766249657,-1.72779429,-0.8174157143
1448,1.55965540889e+18,-1.252276897,0.2944223881,-1.540887833
1449,1.55965540895e+18,-1.578165531,-0.6322933435,-2.399662733
1450,1.55965540901e+18,-2.10771513,-1.337063074,-3.445396662
1451,1.55965540907e+18,-1.035182476,-0.6741980314,-1.851606846
1452,1.55965540913e+18,-0.2823433876,0.2714858055,-1.583387852
1453,1.55965540919e+18,0.9194588661,0.04677343369,-1.146179199
1454,1.55965540925e+18,3.068082809,0.5905987024,0.2000403404
1455,1.55965540931e+18,5.362656116,0.6432574987,1.440868855
1456,1.55965540937e+18,9.630781174,1.462928295,3.879022121
1457,1.55965540943e+18,27.5377121,2.945504665,4.921101093
1458,1.55965540949e+18,30.54292679,13.63444614,-7.714200974
1459,1.55965540955e+18,8.872919083,-4.408153057,-6.768132687
1460,1.55965540961e+18,3.326433659,-36.67146301,6.220212936
1461,1.55965540967e+18,-11.48280811,-28.53962326,-10.67304802
1462,1.55965540973e+18,3.444984436,-10.73405647,-17.17192078
1463,1.55965540979e+18,7.785141468,1.412229538,-0.4874670506
1464,1.55965540985e+18,-3.8137815,-3.67798543,-4.07853651
1465,1.55965540991e+18,-7.668234348,-8.352607727,-1.965975523
1466,1.55965540997e+18,-3.604615688,-7.619918823,4.174242973
1467,1.55965541003e+18,-0.5299563408,-3.115241289,3.508677959
1468,1.55965541009e+18,-1.820392132,-0.2770135403,3.896776199
1469,1.55965541015e+18,0.9115171432,0.6909285784,3.710205078
1470,1.55965541021e+18,0.4134907722,3.519473553,2.499177933
1471,1.55965541027e+18,-1.061057568,3.038861275,2.033218384
1472,1.55965541033e+18,-1.89389348,0.009492635727,-0.1792240143
1473,1.55965541039e+18,-6.114966393,-0.7837036252,0.26583004
1474,1.55965541045e+18,-3.420384884,2.63036561,-0.7803359032
1475,1.55965541051e+18,-2.774141788,2.458973169,2.188049793
1476,1.55965541057e+18,-2.332300186,0.4286330938,0.9092459679
1477,1.55965541063e+18,-1.810626507,-0.9479572773,-0.698331356
1478,1.55965541069e+18,-0.1140294075,-0.7761186957,-1.40081358
1479,1.55965541075e+18,-0.1817331314,-0.4231262207,-1.449120045
1480,1.55965541081e+18,0.9371175766,0.2447962761,-2.499620438
1481,1.55965541087e+18,0.9181623459,0.3620962501,-2.573396206
1482,1.55965541093e+18,0.3445949554,-0.7202278376,-1.947182894
1483,1.55965541099e+18,0.5092496872,0.4639824927,1.218583584
1484,1.55965541105e+18,0.001656532288,1.493268013,1.003775597
1485,1.55965541111e+18,-3.374661446,0.7584026456,1.139242172
1486,1.55965541117e+18,-0.6054010391,2.887584686,0.1825413704
1487,1.55965541123e+18,-1.944767952,2.01651597,0.05799722672
1488,1.55965541129e+18,-1.361468315,1.872921824,-0.9314455986
1489,1.55965541135e+18,-0.4235725403,1.638722181,-2.008949041
1490,1.55965541141e+18,-0.5527386665,0.3397606909,-2.04723978
1491,1.55965541147e+18,-0.1311759949,-0.3890371025,-2.077619076
1492,1.55965541153e+18,-0.3179416656,-0.9735690951,-1.295857906
1493,1.55965541159e+18,-1.985889435,-1.119639158,-1.229715347
1494,1.55965541165e+18,-1.874076843,-1.821261406,0.3871569633
1495,1.55965541171e+18,0.9292788506,-2.331936121,-0.4756178856
1496,1.55965541177e+18,2.632577419,-1.29397583,-0.3687901497
1497,1.55965541183e+18,2.388605595,-0.6740380526,-0.05737400055
1498,1.55965541189e+18,0.02936601639,-1.237732649,0.07221078873
1499,1.55965541195e+18,-0.4030928612,-0.8459917903,-0.662504673
1500,1.55965541201e+18,-0.4413414001,-0.03453980386,-0.9237632751
1501,1.55965541207e+18,-0.08816814423,0.7476412654,-1.225688457
1502,1.55965541213e+18,-0.5948867798,0.799366653,-1.023547173
1503,1.55965541219e+18,-1.094807148,0.5071204901,-0.5837278366
1504,1.55965541225e+18,-0.381046772,-0.06893785298,-0.5328779221
1505,1.55965541231e+18,0.7418284416,0.2267638147,-0.1333317757
1506,1.55965541237e+18,1.421620369,-0.6184425354,1.43615818
1507,1.55965541243e+18,0.7570371628,-0.0103624016,1.403719902
1508,1.55965541249e+18,0.5785255432,1.027822614,-0.0003371238708
1509,1.55965541255e+18,0.08554935455,1.111866236,-0.1560583115
1510,1.55965541261e+18,0.1341323853,1.431072474,0.1987557411
1511,1.55965541267e+18,0.9117274284,1.019260168,-0.05719566345
1512,1.55965541273e+18,0.1325845718,0.8503887057,-0.7980313301
1513,1.55965541279e+18,-0.7387533188,-0.1943052709,-0.01364707947
1514,1.55965541285e+18,0.4378461838,-1.206307173,-0.5072026253
1515,1.55965541291e+18,1.783977032,-0.7927344441,-0.6597366333
1516,1.55965541297e+18,0.06853961945,-1.518821478,-1.018625736
1517,1.55965541303e+18,-1.233819008,-1.704354644,-0.4179339409
1518,1.55965541309e+18,-0.05926132202,-0.2882450819,-0.01175069809
1519,1.55965541315e+18,-0.01510047913,-0.2222895622,0.6969485283
1520,1.55965541321e+18,0.5812759399,-0.4873057604,-0.001767635345
1521,1.55965541327e+18,1.127110481,-0.3686906099,-0.4134688377
1522,1.55965541333e+18,0.8559303284,-0.8568720818,0.8357076645
1523,1.55965541339e+18,0.2377872467,-1.231491089,0.4861860275
1524,1.55965541345e+18,0.389605999,-0.869831562,0.6109242439
1525,1.55965541351e+18,0.3277535439,-0.9876785278,0.9909071922
1526,1.55965541357e+18,0.2691502571,-0.5570459366,1.130081177
1527,1.55965541363e+18,-0.9310064316,-0.1714092493,0.552957058
1528,1.55965541369e+18,-1.122312069,0.01506710052,-0.2932171822
1529,1.55965541375e+18,-0.9846014977,0.5231199265,-0.8419322968
1530,1.55965541381e+18,-1.80630064,0.1278380901,-1.739525318
1531,1.55965541387e+18,-0.7229757309,1.26497376,-3.110163689
1532,1.55965541393e+18,0.2032957077,1.790855885,-2.843238115
1533,1.55965541399e+18,-0.06943702698,-0.6107734442,-2.020702362
1534,1.55965541405e+18,1.808489323,0.02623414993,-0.6616258621
1535,1.55965541411e+18,0.6102571487,0.3223189116,-1.466440201
1536,1.55965541417e+18,-0.3788862228,-1.617787957,3.270953655
1537,1.55965541423e+18,-0.02043819427,0.8267520666,-0.7571206093
1538,1.55965541429e+18,1.847010612,-0.09948074818,-0.6606664658
1539,1.55965541435e+18,-1.241050243,-1.936970234,0.560031414
1540,1.55965541441e+18,-0.4275212288,-1.129403353,1.956966877
1541,1.55965541447e+18,1.272817612,0.9374537468,-0.4894609451
1542,1.55965541453e+18,-0.02460432053,1.180418968,0.08576154709
1543,1.55965541459e+18,0.913690567,0.8088722229,0.8930649757
1544,1.55965541465e+18,0.1757965088,0.615240097,-0.4354219437
1545,1.55965541471e+18,0.5831484795,-0.1888008118,1.231619358
1546,1.55965541477e+18,0.2089948654,0.06766843796,-1.408849239
1547,1.55965541483e+18,1.386524439,-0.7977795601,-0.7042164803
1548,1.55965541489e+18,-1.452085018,-1.107398987,1.641673088
1549,1.55965541495e+18,-0.05352568626,-1.105028629,-0.5013742447
1550,1.55965541501e+18,0.1762623787,-1.603638887,-1.240044594
1551,1.55965541507e+18,0.8346699476,-1.878848791,1.158379555
1552,1.55965541513e+18,-0.8673989177,-2.473460674,2.066269875
1553,1.55965541519e+18,0.2796747684,-2.028239489,-0.7816963196
1554,1.55965541525e+18,0.9376647472,-2.496644497,0.8915958405
1555,1.55965541531e+18,0.3832840919,-0.3882169724,0.2602758408
1556,1.55965541537e+18,1.246575356,-0.920232296,-1.314779758
1557,1.55965541543e+18,1.042176723,-0.3247339725,-2.044972897
1558,1.55965541549e+18,1.677560329,0.7503607273,-2.20445776
1559,1.55965541555e+18,0.8446130753,0.5918598175,-1.879623413
1560,1.55965541561e+18,0.8697242737,0.7097640038,-1.661748409
1561,1.55965541567e+18,-0.05560159683,0.1806212664,-2.256557465
1562,1.55965541573e+18,-1.398643494,-0.4163262844,-2.733354568
1563,1.55965541579e+18,-1.639166355,-0.5970610976,-2.480112553
1564,1.55965541585e+18,0.3452563286,0.136513114,-2.289960384
1565,1.55965541591e+18,0.3469939232,0.06049013138,-1.939960003
1566,1.55965541597e+18,1.752651215,0.4942010641,-0.3718800545
1567,1.55965541603e+18,3.405252934,0.764056623,1.680360317
1568,1.55965541609e+18,6.502537727,1.171306491,3.627244473
1569,1.55965541615e+18,15.82641602,1.535924911,6.471923828
1570,1.55965541621e+18,27.82343292,11.80908394,7.168169975
1571,1.55965541627e+18,24.80526924,5.845242023,-10.49426651
1572,1.55965541633e+18,-2.623152256,-14.44305229,23.76800728
1573,1.55965541639e+18,-18.24423981,-63.20363235,0.8939452171
1574,1.55965541645e+18,-13.25993252,-16.84960938,-19.75107574
1575,1.55965541651e+18,15.08961487,1.447818756,-5.932868004
1576,1.55965541657e+18,0.972017765,-1.368108749,-3.029911518
1577,1.55965541663e+18,-5.882421017,-4.330311775,-4.086564064
1578,1.55965541669e+18,-5.830711365,-6.525966644,0.2140102386
1579,1.55965541675e+18,-1.256257534,-6.59898138,4.502651215
1580,1.55965541681e+18,0.495057106,-7.336013794,5.270348072
1581,1.55965541687e+18,1.857629776,-3.870208979,5.644552231
1582,1.55965541693e+18,0.6660671234,-0.1084716246,1.710434437
1583,1.55965541699e+18,1.04971981,2.982722044,1.757245064
1584,1.55965541705e+18,1.738622189,0.8837081194,3.282199383
1585,1.55965541711e+18,0.9134697914,1.561733842,2.828795433
1586,1.55965541717e+18,0.5664787292,1.794287205,-0.07108974457
1587,1.55965541723e+18,-2.427080631,0.115809083,3.607191086
1588,1.55965541729e+18,-2.83262682,0.4137384892,0.08261585236
1589,1.55965541735e+18,-3.647304296,0.2214690447,0.2553157806
1590,1.55965541741e+18,-2.071415663,0.5914065838,-0.5976428986
1591,1.55965541747e+18,-0.6484460831,0.5421975851,-0.06566905975
1592,1.55965541753e+18,-1.555741787,-0.5159986019,-0.5268936157
1593,1.55965541759e+18,-0.449739933,0.07258188725,-0.9458708763
1594,1.55965541765e+18,0.2743253708,0.03569924831,-1.836038113
1595,1.55965541771e+18,-0.4366874695,-1.950546741,-0.7516093254
1596,1.55965541777e+18,-1.424039364,-1.092230439,-0.1804704666
1597,1.55965541783e+18,-1.709845543,-0.2141500711,-1.336547852
1598,1.55965541789e+18,-1.723656654,2.27882123,-1.351089001
1599,1.55965541795e+18,-2.315414429,2.323929071,-1.672091007
1600,1.55965541801e+18,-1.483399868,1.430784941,-1.074559689
1601,1.55965541807e+18,0.5067539215,1.40997839,-0.03138685226
1602,1.55965541813e+18,1.26796627,1.470739961,0.6815490723
1603,1.55965541819e+18,0.8224892616,0.3892019391,1.088337898
1604,1.55965541825e+18,-0.7103657722,-0.01236331463,-0.03746128082
1605,1.55965541831e+18,-0.4331703186,-0.2924437523,-0.07138729095
1606,1.55965541837e+18,0.1272187233,-0.5565958023,-0.2689599991
1607,1.55965541843e+18,0.3702507019,-0.5962952375,-0.9286074638
1608,1.55965541849e+18,0.1020293236,-0.5415782928,-1.020160198
1609,1.55965541855e+18,0.2375645638,-0.4302936792,-0.8326029778
1610,1.55965541861e+18,-0.1897373199,-0.7144033909,0.09437465668
1611,1.55965541867e+18,1.290814877,-1.702345133,0.3848824501
1612,1.55965541873e+18,0.8200445175,-2.043452024,0.01908111572
1613,1.55965541879e+18,-0.2010650635,-1.312915683,-0.9611420631
1614,1.55965541885e+18,-1.557222366,-1.104684353,-1.618069172
1615,1.55965541891e+18,-1.905036926,-0.8216779232,-1.570465088
1616,1.55965541897e+18,-0.229821682,-0.2027050257,-1.722409725
1617,1.55965541903e+18,0.05854988098,0.1943881512,-1.796133518
1618,1.55965541909e+18,0.2561764717,0.3214446306,-1.647581577
1619,1.55965541915e+18,-0.1198015213,0.4395648241,-0.9542617798
1620,1.55965541921e+18,0.04952096939,0.7580326796,-0.4188842773
1621,1.55965541927e+18,0.04024076462,1.09444797,0.2501344681
1622,1.55965541933e+18,0.178527832,1.338579416,0.2125358582
1623,1.55965541939e+18,-0.2877926826,1.391721249,-0.006536960602
1624,1.55965541945e+18,-0.8660583496,1.317849517,-0.4470772743
1625,1.55965541951e+18,-2.19568634,0.291983366,-0.2998747826
1626,1.55965541957e+18,-0.8327450752,-0.01982617378,-0.3815727234
1627,1.55965541963e+18,0.74933815,0.2478468418,0.4491710663
1628,1.55965541969e+18,0.3683261871,-0.7455084324,0.7230772972
1629,1.55965541975e+18,0.832300663,-1.222436309,0.7668766975
1630,1.55965541981e+18,1.671024323,-0.7987601757,0.6062607765
1631,1.55965541987e+18,1.228063583,-0.7026753426,0.8540711403
1632,1.55965541993e+18,1.732834339,-0.5607366562,0.2816820145
1633,1.55965541999e+18,1.102394581,-0.4910603762,0.06513118744
1634,1.55965542005e+18,0.2792897224,-0.7160615921,-0.4366388321
1635,1.55965542011e+18,0.1612234116,-0.370860219,0.1249470711
1636,1.55965542017e+18,0.1866159439,-0.2794187069,-0.2857809067
1637,1.55965542023e+18,-0.6102514267,-0.01511454582,-0.6963219643
1638,1.55965542029e+18,-0.5650191307,0.6175597906,-1.159236908
1639,1.55965542035e+18,-0.1590843201,1.258538961,-0.2225060463
1640,1.55965542041e+18,0.1933460236,0.9718236327,0.4681034088
1641,1.55965542047e+18,0.1543812752,0.6291924715,0.7317872047
1642,1.55965542053e+18,-0.280878067,-0.3119425774,0.5521979332
1643,1.55965542059e+18,-0.1584687233,-0.3708702326,-0.09192419052
1644,1.55965542065e+18,-0.5424084663,0.2967045903,0.1711783409
1645,1.55965542071e+18,-0.1476044655,1.030374646,-0.08580970764
1646,1.55965542077e+18,-0.8472557068,1.277600169,0.8041381836
1647,1.55965542083e+18,-0.937889576,1.083953738,0.6942133904
1648,1.55965542089e+18,-0.04591703415,1.396811604,-0.762992382
1649,1.55965542095e+18,2.576362133,0.6109814048,-1.326607704
1650,1.55965542101e+18,-0.9078030586,-1.004962444,-2.123276234
1651,1.55965542107e+18,-2.745421886,-2.543105364,-3.205204248
1652,1.55965542113e+18,0.5628437996,-1.829699159,-0.9778561592
1653,1.55965542119e+18,0.7325077057,-0.3933489919,-2.000110388
1654,1.55965542125e+18,3.032506943,-2.689596176,9.877450943
1655,1.55965542131e+18,-2.944946289,0.8892549872,-3.499155998
1656,1.55965542137e+18,0.9497976303,0.4131399393,2.583220005
1657,1.55965542143e+18,1.220884323,0.3679548502,2.406335354
1658,1.55965542149e+18,-0.218624115,1.261935711,1.186676979
1659,1.55965542155e+18,1.730619907,1.321311951,1.455439091
1660,1.55965542161e+18,1.336524487,0.7944619656,1.886125565
1661,1.55965542167e+18,0.1971254349,1.260673761,-1.050743103
1662,1.55965542173e+18,-0.960963726,0.2819533348,-0.6685290337
1663,1.55965542179e+18,0.3954906464,-0.2967972755,-1.275840282
1664,1.55965542185e+18,-0.9120998383,-0.66680336,0.2274842262
1665,1.55965542191e+18,0.1619813442,-1.077663422,0.821103096
1666,1.55965542197e+18,0.198012352,-1.41268158,1.568834305
1667,1.55965542203e+18,-0.349878788,-1.331470013,0.7185783386
1668,1.55965542209e+18,0.5714216232,-2.582422972,1.868925095
1669,1.55965542215e+18,0.5267491937,-2.288486242,1.003815651
1670,1.55965542221e+18,0.8735747337,-2.029859066,-0.5177750587
1671,1.55965542227e+18,1.458734751,-1.583815813,-1.320631504
1672,1.55965542233e+18,1.279514313,-2.813395739,2.108570576
1673,1.55965542239e+18,-0.3583016396,-0.9264266491,-3.55740881
1674,1.55965542245e+18,1.281980515,-3.264567137,-1.378341198
1675,1.55965542251e+18,-0.7043914795,0.5431382656,-1.405189037
1676,1.55965542257e+18,1.521635532,0.1749374866,-0.8388876915
1677,1.55965542263e+18,1.306780815,0.8564949036,-0.5823936462
1678,1.55965542269e+18,1.108642101,0.2841055393,-1.848762989
1679,1.55965542275e+18,-0.0226726532,0.3378367424,-1.89552927
1680,1.55965542281e+18,-0.0107755661,-0.1335805655,-2.842415571
1681,1.55965542287e+18,-0.8272805214,0.1778030396,-2.344872236
1682,1.55965542293e+18,-1.584833622,0.03412187099,-2.810820818
1683,1.55965542299e+18,-2.011972904,-0.1673310995,-2.636846066
1684,1.55965542305e+18,-0.4834461212,0.5484745502,-2.360011816
1685,1.55965542311e+18,2.043950081,0.3118978143,-0.7249703407
1686,1.55965542317e+18,4.476565361,0.5707848668,0.2274036407
1687,1.55965542323e+18,8.389648438,1.187064171,1.86912775
1688,1.55965542329e+18,15.77397442,1.877587557,3.829364777
1689,1.55965542335e+18,33.71345139,12.14683723,-4.50919342
1690,1.55965542341e+18,24.046175,6.483385086,-12.55078697
1691,1.55965542347e+18,-6.565562248,-11.75249481,25.26649666
1692,1.55965542353e+18,-16.42920685,-57.19278336,1.127545357
1693,1.55965542359e+18,-7.03636694,-20.11891937,-16.68856049
1694,1.55965542365e+18,4.967318058,-7.129803181,-4.285704613
1695,1.55965542371e+18,-0.2440414429,-0.4261279106,-3.26879549
1696,1.55965542377e+18,-4.614104271,-1.016535759,-3.878321171
1697,1.55965542383e+18,-3.867238045,-5.188042641,1.030863523
1698,1.55965542389e+18,-3.923714161,-1.405763388,5.031457901
1699,1.55965542395e+18,-1.994493008,-0.02794504166,4.902716637
1700,1.55965542401e+18,-0.2423963547,2.548920393,4.716042519
1701,1.55965542407e+18,0.7334394455,2.885264397,3.262683392
1702,1.55965542413e+18,-1.66846323,1.679345131,2.026890755
1703,1.55965542419e+18,-2.894955158,0.6624469757,-1.322797775
1704,1.55965542425e+18,-6.665827751,1.332710981,-2.914907932
1705,1.55965542431e+18,-3.82991457,3.664592505,-0.8234114647
1706,1.55965542437e+18,-4.644866467,2.517812729,2.193117619
1707,1.55965542443e+18,-4.906555653,-0.305350244,0.2194991112
1708,1.55965542449e+18,-2.653338432,-1.292670488,-0.2236680984
1709,1.55965542455e+18,-0.2719078064,-1.870213509,-0.7543568611
1710,1.55965542461e+18,0.3717403412,-1.578963757,-1.571540356
1711,1.55965542467e+18,-0.01304197311,-1.448745131,-1.417999744
1712,1.55965542473e+18,-0.7621512413,-1.922017336,-1.32886076
1713,1.55965542479e+18,0.6547808647,-0.7485969663,-1.059992313
1714,1.55965542485e+18,1.395197868,-0.1410157681,-1.229980946
1715,1.55965542491e+18,0.3549437523,-0.3761463761,-0.8305277824
1716,1.55965542497e+18,-0.08091545105,0.4542967081,-1.018793583
1717,1.55965542503e+18,-0.2449803352,0.6502456665,-1.65512085
1718,1.55965542509e+18,-0.9654054642,1.233805656,-1.612547159
1719,1.55965542515e+18,-1.236783028,1.607936621,-1.33855176
1720,1.55965542521e+18,-1.058144569,1.164477825,-1.274166346
1721,1.55965542527e+18,-1.507338524,0.4944893122,-0.03770971298
1722,1.55965542533e+18,0.1357011795,1.139231563,-0.1955752373
1723,1.55965542539e+18,0.1973838806,1.709168792,0.6208081245
1724,1.55965542545e+18,-0.5995750427,2.097513676,1.312199116
1725,1.55965542551e+18,-1.153756142,1.304068685,0.9474110603
1726,1.55965542557e+18,-0.7010116577,2.12639761,1.47976923
1727,1.55965542563e+18,1.596261024,4.068265438,2.018442154
1728,1.55965542569e+18,2.151715279,2.909268856,1.645359993
1729,1.55965542575e+18,-3.661111832,-1.43086338,-1.232188225
1730,1.55965542581e+18,-6.079036713,-2.593886852,-2.145304441
1731,1.55965542587e+18,0.1430959702,-1.925038576,-1.556683064
1732,1.55965542593e+18,3.463047743,-1.172821522,-0.4099445343
1733,1.55965542599e+18,-0.7197008133,-1.494171619,-3.451797485
1734,1.55965542605e+18,0.4314718246,-1.330759287,-1.117386818
1735,1.55965542611e+18,0.3032536507,-1.462445974,-1.807711601
1736,1.55965542617e+18,0.9258651733,-2.434402466,-0.5936541557
1737,1.55965542623e+18,0.1621222496,-3.930235863,-0.3008723259
1738,1.55965542629e+18,-5.476394653,-4.21678257,-13.05635262
1739,1.55965542635e+18,1.588697433,-6.713471413,6.05010128
1740,1.55965542641e+18,0.495496273,-1.688416958,3.683630466
1741,1.55965542647e+18,1.364233017,-1.329476237,-0.9868116379
1742,1.55965542653e+18,2.72523427,0.2058088928,4.52173233
1743,1.55965542659e+18,-1.219099522,0.583450973,1.085224152
1744,1.55965542665e+18,2.567549467,0.3750931025,-0.3441734314
1745,1.55965542671e+18,1.320499063,0.3822212219,0.5178012848
1746,1.55965542677e+18,1.748307824,0.9369397163,-2.360822678
1747,1.55965542683e+18,3.697765827,1.146117449,-1.964004993
1748,1.55965542689e+18,1.287343025,0.7311551571,-3.340567112
1749,1.55965542695e+18,0.4209518433,0.3574609756,-2.805938244
1750,1.55965542701e+18,0.4847950935,-0.06136775017,-3.526245356
1751,1.55965542707e+18,1.061752319,-1.8036834,-4.069497585
1752,1.55965542713e+18,-1.111708641,0.3809115887,-3.085506678
1753,1.55965542719e+18,-2.353524685,-0.7905780077,-2.564243317
1754,1.55965542725e+18,-1.553714275,-0.01600062847,-2.009241581
1755,1.55965542731e+18,-0.1556825638,-0.006869137287,-2.205460787
1756,1.55965542737e+18,1.406732082,0.174171567,-1.988886356
1757,1.55965542743e+18,2.410126209,0.2605493665,-1.115046501
1758,1.55965542749e+18,4.745930672,0.6561381817,1.631297112
1759,1.55965542755e+18,12.02449131,1.111300826,3.995666981
1760,1.55965542761e+18,31.01968002,5.833076477,2.873121262
1761,1.55965542767e+18,29.25346947,13.41911411,-8.231437683
1762,1.55965542773e+18,5.755352974,-9.744997025,0.6676818132
1763,1.55965542779e+18,2.430879593,-58.82129288,3.340055227
1764,1.55965542785e+18,-16.42472649,-24.77068138,-20.68357277
1765,1.55965542791e+18,-0.03014850616,-12.38049316,-7.954297543
1766,1.55965542797e+18,4.545450211,-1.074272633,-5.593537807
1767,1.55965542803e+18,-1.37224102,-1.158659458,-0.8578696251
1768,1.55965542809e+18,-3.764889717,-2.891735554,1.266141653
1769,1.55965542815e+18,-3.623663902,-2.925729275,1.393062115
1770,1.55965542821e+18,-1.463805199,0.1192314625,1.502439499
1771,1.55965542827e+18,-1.287622929,2.878500462,5.302606106
1772,1.55965542833e+18,-0.3565244675,0.6658661366,3.259456635
1773,1.55965542839e+18,-3.86485219,-0.8939143419,-0.569278717
1774,1.55965542845e+18,-9.138561249,0.9206124544,-0.100467205
1775,1.55965542851e+18,-5.584570885,2.636137009,-0.1847958565
1776,1.55965542857e+18,-1.44704628,3.485816956,2.323216915
1777,1.55965542863e+18,-0.2523527145,4.199731827,2.033469677
1778,1.55965542869e+18,-1.825897217,2.084936619,-1.07006073
1779,1.55965542875e+18,-1.658588886,0.6129167676,-1.299002171
1780,1.55965542881e+18,-2.833631992,-0.7541264296,-1.884482861
1781,1.55965542887e+18,-1.088005066,-0.3853682578,-2.790358305
1782,1.55965542893e+18,-0.3576116562,-0.7835379243,-2.771723509
1783,1.55965542899e+18,0.4499459267,0.04859817028,-2.65155983
1784,1.55965542905e+18,0.9292755127,0.9842796326,-1.106247902
1785,1.55965542911e+18,-0.5804891586,1.014189839,-0.1861276627
1786,1.55965542917e+18,0.9348926544,2.083398104,0.5165200233
1787,1.55965542923e+18,1.65368557,2.476760864,0.5510704517
1788,1.55965542929e+18,-0.7764062881,2.097844124,0.5065243244
1789,1.55965542935e+18,-2.40429306,0.6314105988,-0.2367043495
1790,1.55965542941e+18,0.4071903229,-0.7334725857,-0.5543837547
1791,1.55965542947e+18,2.312986374,0.1569405794,0.1901826859
1792,1.55965542953e+18,0.001892089844,0.05092382431,-1.398856878
1793,1.55965542959e+18,-1.545899391,-0.7751234174,-1.233513117
1794,1.55965542965e+18,0.3045778275,-0.2989134789,-1.145231009
1795,1.55965542971e+18,0.2906394005,-0.187920332,-0.8412833214
1796,1.55965542977e+18,0.3081583977,-0.4812971354,0.3523335457
1797,1.55965542983e+18,0.06344985962,-0.0009175539017,-0.2877488136
1798,1.55965542989e+18,-0.06434440613,0.06394708157,-0.8614308834
1799,1.55965542995e+18,-0.1672735214,-0.1815555096,-0.37703228
1800,1.55965543001e+18,-0.3453931808,-0.3116512895,-0.3890089989
1801,1.55965543007e+18,-0.1620836258,-0.2824540734,-0.4411587715
1802,1.55965543013e+18,0.1882581711,-0.1790278554,-0.4347090721
1803,1.55965543019e+18,-0.06755447388,-0.4350445271,-0.5091609955
1804,1.55965543025e+18,0.1272878647,-0.5359306931,-0.299220562
1805,1.55965543031e+18,0.3964033127,-0.5785511732,-0.233230114
1806,1.55965543037e+18,0.3474998474,-0.5584306121,-0.2645397186
1807,1.55965543043e+18,0.2685670853,-0.3025453687,-0.1105246544
1808,1.55965543049e+18,0.235124588,0.01582247019,-0.1038446426
1809,1.55965543055e+18,0.1496295929,0.179255724,-0.4667744637
1810,1.55965543061e+18,-0.02548313141,0.1835868955,-0.237912178
1811,1.55965543067e+18,-0.03510570526,0.1527080685,-0.4355354309
1812,1.55965543073e+18,-0.1846752167,-0.003110140562,-0.6712293625
1813,1.55965543079e+18,-0.1328849792,0.1209314615,-0.7002396584
1814,1.55965543085e+18,-0.052775383,-0.05590561032,-0.7845888138
1815,1.55965543091e+18,0.140080452,0.1247191876,-0.4929132462
1816,1.55965543097e+18,-0.06501674652,0.4771440029,0.4421067238
1817,1.55965543103e+18,-0.1287660599,0.277634263,-0.005721092224
1818,1.55965543109e+18,-0.3039617538,0.5073812604,0.2871866226
1819,1.55965543115e+18,0.320151329,0.9428449869,0.3420825005
1820,1.55965543121e+18,0.839454174,1.355611086,1.073787212
1821,1.55965543127e+18,0.2976493835,2.158355236,0.209821701
1822,1.55965543133e+18,-1.74273777,0.7308752537,-0.7253172398
1823,1.55965543139e+18,-0.583533287,0.08600389957,-0.5454268456
1824,1.55965543145e+18,-0.6895046234,-1.22109437,-0.5569663048
1825,1.55965543151e+18,-0.1583786011,-0.77280128,-0.8789401054
1826,1.55965543157e+18,0.009293556213,-0.6273393631,-0.9023809433
1827,1.55965543163e+18,-0.6772060394,-0.2317401171,-0.9246125221
1828,1.55965543169e+18,0.5408930779,0.7905418873,-0.4009366035
1829,1.55965543175e+18,1.122862816,0.4547250271,-0.3819026947
1830,1.55965543181e+18,1.496089458,-0.1812659502,0.5503158569
1831,1.55965543187e+18,0.6595511436,-1.454988837,0.09638500214
1832,1.55965543193e+18,1.327207565,-0.3415260315,0.6521544456
1833,1.55965543199e+18,0.3997073174,-1.666205406,-0.4931006432
1834,1.55965543205e+18,-2.199581623,-3.799841881,-1.334702015
1835,1.55965543211e+18,-0.4090366364,-3.285963774,-0.1511206627
1836,1.55965543217e+18,0.3624186516,-2.907457352,1.00043726
1837,1.55965543223e+18,-0.729947567,-0.9489258528,-1.42658186
1838,1.55965543229e+18,-2.544280052,-1.464523554,-6.095208168
1839,1.55965543235e+18,0.05677604675,-1.430172443,-0.3176751137
1840,1.55965543241e+18,3.614675522,-3.167930841,6.496500969
1841,1.55965543247e+18,-2.128152847,-1.622662663,-1.649677277
1842,1.55965543253e+18,-0.7932038307,-1.958809495,2.443629265
1843,1.55965543259e+18,-0.5141372681,-0.5797168016,1.170165539
1844,1.55965543265e+18,-1.750205517,0.09403347969,2.356436729
1845,1.55965543271e+18,-0.9736227989,3.017147064,-0.04644203186
1846,1.55965543277e+18,2.189475298,2.427504301,-1.505265236
1847,1.55965543283e+18,2.413997889,3.817559004,-3.922958374
1848,1.55965543289e+18,2.382280827,2.805599213,-3.702287674
1849,1.55965543295e+18,7.099545479,1.377937317,0.02871513367
1850,1.55965543301e+18,-1.662374735,2.40214777,-5.379898548
1851,1.55965543307e+18,5.627780914,0.5196447372,-0.2936687469
1852,1.55965543313e+18,2.718359947,0.2024588585,-2.318272591
1853,1.55965543319e+18,0.3351516724,-0.3329761028,-2.236476421
1854,1.55965543325e+18,0.432823658,-0.8011357784,-1.463223457
1855,1.55965543331e+18,-1.813970566,0.5622620583,-1.942404747
1856,1.55965543337e+18,-2.040855408,-0.02956366539,-2.660668373
1857,1.55965543343e+18,0.06102466583,-0.3635808229,-3.130167961
1858,1.55965543349e+18,0.6974992752,-0.6860932112,-1.591958046
1859,1.55965543355e+18,1.563438416,-0.337241292,-0.8207640648
1860,1.55965543361e+18,2.623256207,-0.197994113,1.233261585
1861,1.55965543367e+18,4.473386288,0.7732956409,2.209600925
1862,1.55965543373e+18,7.771724224,1.018578768,5.724191189
1863,1.55965543379e+18,16.16478729,2.565968752,9.675096512
1864,1.55965543385e+18,32.87932587,15.29732323,-1.824954391
1865,1.55965543391e+18,19.15079117,0.5303764343,-5.27131319
1866,1.55965543397e+18,-1.587283611,-19.78249741,-7.659761429
1867,1.55965543403e+18,-13.28447056,-37.81900024,-6.298765659
1868,1.55965543409e+18,-3.516269445,-19.71570587,-10.59223175
1869,1.55965543415e+18,7.686257839,2.580021858,-2.440458298
1870,1.55965543421e+18,-0.8025670052,-1.142605305,-0.9990457296
1871,1.55965543427e+18,-2.745260239,-1.531336308,-0.5522477627
1872,1.55965543433e+18,-0.7468895912,-2.181154013,3.730015039
1873,1.55965543439e+18,-0.3806743622,-2.317726374,4.754776478
1874,1.55965543445e+18,-1.444915771,-0.6286127567,3.263125181
1875,1.55965543451e+18,-0.2660346031,1.034855843,3.423992157
1876,1.55965543457e+18,-0.93064785,0.6496019363,2.305031776
1877,1.55965543463e+18,-1.189116716,0.9544370174,0.3868927956
1878,1.55965543469e+18,-3.628306866,-0.431750536,0.9765386581
1879,1.55965543475e+18,-2.018476248,1.078420401,-0.8691596985
1880,1.55965543481e+18,-2.338981628,1.292171955,1.225112915
1881,1.55965543487e+18,-3.745395422,0.4469115734,1.748941422
1882,1.55965543493e+18,-3.304840565,0.8760837317,-1.154282093
1883,1.55965543499e+18,-3.193957806,0.5274994373,1.124987602
1884,1.55965543505e+18,-2.508831978,-0.06983339787,0.3443484306
1885,1.55965543511e+18,-1.853496552,1.616416454,0.2720017433
1886,1.55965543517e+18,-0.3146958351,1.305534244,-0.5925550461
1887,1.55965543523e+18,-0.09101104736,2.097253561,-1.375855923
1888,1.55965543529e+18,-0.3035464287,1.763823748,-1.405419827
1889,1.55965543535e+18,-1.286910534,0.9953700304,-1.046279907
1890,1.55965543541e+18,-0.6576399803,0.353279829,-1.240195751
1891,1.55965543547e+18,-0.3443908691,-0.1881687641,-1.426229477
1892,1.55965543553e+18,0.1366629601,-0.5013359785,-1.775193214
1893,1.55965543559e+18,-0.6008615494,-0.338676095,-1.459900856
1894,1.55965543565e+18,-0.7169923782,-0.2828375101,-1.212972641
1895,1.55965543571e+18,-0.2256011963,0.07641148567,-1.119191885
1896,1.55965543577e+18,-0.2354669571,0.1249408722,-0.8151259422
1897,1.55965543583e+18,-0.5283327103,-0.1547638178,-0.5343317986
1898,1.55965543589e+18,-0.1075325012,-0.276943922,-0.5529375076
1899,1.55965543595e+18,0.268122673,-0.2801387906,-0.4829397202
1900,1.55965543601e+18,0.4810204506,-0.339050889,-0.8027935028
1901,1.55965543607e+18,0.1683177948,-0.4672193825,-0.3864898682
1902,1.55965543613e+18,-0.07790088654,-0.4198148251,-0.5054831505
1903,1.55965543619e+18,0.1968564987,-0.02491208911,0.1426315308
1904,1.55965543625e+18,0.2894077301,0.4028548598,-0.05968523026
1905,1.55965543631e+18,-0.3339643478,0.2593397498,-0.1914987564
1906,1.55965543637e+18,-0.8602132797,0.6507207155,-0.08276844025
1907,1.55965543643e+18,-0.9377479553,0.4508893788,0.02452659607
1908,1.55965543649e+18,-0.3274288177,0.6176400185,0.06568336487
1909,1.55965543655e+18,0.2433137894,0.7530193925,-0.4717683792
1910,1.55965543661e+18,0.4262318611,0.8568770885,-0.2400383949
1911,1.55965543667e+18,-0.4444055557,0.4509020448,0.07753372192
1912,1.55965543673e+18,-0.4658374786,1.066208839,-0.3426260948
1913,1.55965543679e+18,1.042452335,1.579819918,0.2064371109
1914,1.55965543685e+18,0.7924785614,0.896805644,-0.4119324684
1915,1.55965543691e+18,-0.8351593018,0.0610858202,-1.979823351
1916,1.55965543697e+18,0.6982488632,-0.9082278013,-1.207800865
1917,1.55965543703e+18,-3.149376392,-4.132359505,-2.412068605
1918,1.55965543709e+18,-0.1150383949,-3.894064188,0.3422484398
1919,1.55965543715e+18,0.9886007309,-3.42543602,-0.6136860847
1920,1.55965543721e+18,-0.03669643402,-1.862797976,1.098114014
1921,1.55965543727e+18,-0.1040201187,-1.713072658,-2.787769794
1922,1.55965543733e+18,-2.866459846,-5.979525089,-10.89904785
1923,1.55965543739e+18,-0.4595994949,1.066772342,-0.2113294601
1924,1.55965543745e+18,1.363391876,-4.039962292,2.986749172
1925,1.55965543751e+18,-2.058685303,-1.827599764,1.038477421
1926,1.55965543757e+18,-1.81794405,0.01953971386,1.716819286
1927,1.55965543763e+18,0.2902698517,0.9871785641,-0.4295692444
1928,1.55965543769e+18,1.078167677,3.069069147,-0.8626661301
1929,1.55965543775e+18,2.343221188,3.379024506,-2.829990864
1930,1.55965543781e+18,3.614736557,2.776566029,-3.394171715
1931,1.55965543787e+18,1.881926179,3.172121048,-5.74875927
1932,1.55965543793e+18,2.965966225,2.432095766,-5.983556747
1933,1.55965543799e+18,3.919822693,2.559406519,-1.786768913
1934,1.55965543805e+18,-0.6273202896,1.449593306,-3.824275494
1935,1.55965543811e+18,0.7110915184,0.4124081135,-1.574554443
1936,1.55965543817e+18,-2.40623188,0.4139969349,-3.124175072
1937,1.55965543823e+18,-1.000662804,-0.3702065945,-3.268318415
1938,1.55965543829e+18,0.9361553192,-0.561118722,-2.530576706
1939,1.55965543835e+18,1.309445858,-0.5199495554,-0.159971714
1940,1.55965543841e+18,3.498351097,0.9632169008,0.9694881439
1941,1.55965543847e+18,7.196626186,0.5431517363,4.325097561
1942,1.55965543853e+18,15.4030838,1.851902485,6.808056355
1943,1.55965543859e+18,34.19998169,11.78028297,-1.005064011
1944,1.55965543865e+18,20.46598434,3.59564805,-7.681963921
1945,1.55965543871e+18,-2.532616138,-19.85549927,12.6484127
1946,1.55965543877e+18,-16.03717995,-40.69262695,-6.931098461
1947,1.55965543883e+18,-5.395187378,-18.09966278,-10.42758179
1948,1.55965543889e+18,5.043863297,-3.325131416,-4.813002586
1949,1.55965543895e+18,-1.420958519,-4.633963108,0.2266064882
1950,1.55965543901e+18,-1.672602654,-1.522101641,-0.8781616688
1951,1.55965543907e+18,-1.146522999,-2.441426516,2.272818089
