,Time (s),Linear Acceleration x (m/s^2),Linear Acceleration y (m/s^2),Linear Acceleration z (m/s^2)
0,1.55965441906e+18,0.8472118378,2.019020557,-0.2224359512
1,1.55965441912e+18,1.507471323,2.470890522,-0.503443718
2,1.55965441918e+18,2.145944595,2.664974928,-0.6736288071
3,1.55965441924e+18,3.492483139,2.205256462,-0.7537088394
4,1.5596544193e+18,3.984949112,1.561849356,-0.6215982437
5,1.55965441936e+18,3.563269615,0.757901907,-0.3727359772
6,1.55965441942e+18,-11.55209827,-4.332134247,0.2619228363
7,1.55965441948e+18,-10.98339081,-2.966598988,-1.687290192
8,1.55965441954e+18,-6.849780083,-2.978359699,-1.340840816
9,1.5596544196e+18,-3.975168943,-1.8425138,-7.347901344
10,1.55965441966e+18,0.4767944813,-3.009673357,-10.95824814
11,1.55965441972e+18,1.516518474,-1.419156075,-15.04212952
12,1.55965441978e+18,-0.9251601696,-3.902647495,-10.51440048
13,1.55965441984e+18,0.1541001797,-2.620581627,6.521064758
14,1.5596544199e+18,2.127046585,-16.60026169,-5.376350403
15,1.55965441996e+18,-7.840471745,-34.86135101,11.74414349
16,1.55965442002e+18,-5.853854179,-7.901538849,4.633962631
17,1.55965442008e+18,-9.233228683,-4.835330963,-1.663554668
18,1.55965442014e+18,-4.335713387,-9.100365639,-0.2515869141
19,1.5596544202e+18,-7.330208302,-8.0847826,-14.36128426
20,1.55965442026e+18,6.07656002,-9.728880882,-25.24591446
21,1.55965442032e+18,22.30812836,1.964231491,-23.527565
22,1.55965442038e+18,-7.120280266,-5.783813477,-17.23161316
23,1.55965442044e+18,10.32719231,-5.788275242,-7.917953014
24,1.5596544205e+18,-5.513798714,-16.6986618,16.10874939
25,1.55965442056e+18,-2.427689552,-5.690846443,5.573747635
26,1.55965442062e+18,-5.204140186,-4.906979561,2.294526577
27,1.55965442068e+18,-5.685998917,-10.97613525,5.463186741
28,1.55965442074e+18,-0.9717483521,-6.407876968,1.590839386
29,1.5596544208e+18,3.292669773,-7.832275391,-8.541431427
30,1.55965442086e+18,4.331213951,-1.391706944,-8.053594589
31,1.55965442092e+18,5.763859272,-6.558299541,-11.03020859
32,1.55965442098e+18,4.321795464,-3.244486332,-14.99721527
33,1.55965442104e+18,1.806577206,2.92798996,-10.61056423
34,1.5596544211e+18,6.185895443,-7.27933979,6.202990532
35,1.55965442116e+18,-22.75815201,-65.19763184,30.74600983
36,1.55965442122e+18,1.586450577,0.6238062382,-0.9764590263
37,1.55965442128e+18,4.303760529,3.794397116,5.501803398
38,1.55965442134e+18,1.919038773,-3.012314081,8.029457092
39,1.5596544214e+18,-2.480021954,-10.3999939,6.234407425
40,1.55965442146e+18,-8.253702164,-12.19145584,1.050863743
41,1.55965442152e+18,-4.737557888,-9.317122459,0.9486560822
42,1.55965442158e+18,4.266393661,-2.609002113,-14.01771927
43,1.55965442164e+18,9.512329102,-17.7942009,-26.88936424
44,1.5596544217e+18,15.48886967,4.848144531,-21.3168335
45,1.55965442176e+18,-4.744242668,-9.706468582,24.80985832
46,1.55965442182e+18,-5.704467773,-25.65993118,10.01527596
47,1.55965442188e+18,-4.001191616,-3.904332876,6.305424213
48,1.55965442194e+18,-4.905914307,-11.442976,6.141526222
49,1.559654422e+18,-5.016077995,-6.718734741,5.725833893
50,1.55965442206e+18,-2.80657959,-5.560338497,0.2536745071
51,1.55965442212e+18,-0.5309839249,-3.423206329,0.7083687782
52,1.55965442218e+18,-1.440193653,-11.7336731,-2.747968197
53,1.55965442224e+18,2.546188593,-4.664548397,-5.1545825
54,1.55965442229e+18,0.7765806913,-1.294623375,6.31634903
55,1.55965442235e+18,3.360432386,-6.412611485,-8.446499825
56,1.55965442241e+18,4.825819016,-11.75713539,-18.42350388
57,1.55965442247e+18,9.597198486,-13.3192749,-23.71321297
58,1.55965442253e+18,-6.715480804,-15.02727509,23.24677277
59,1.55965442259e+18,-5.025599003,-13.95587349,12.6629734
60,1.55965442265e+18,-6.770941734,-1.222537279,11.39927483
61,1.55965442271e+18,-5.596940041,-5.398359299,11.30396461
62,1.55965442277e+18,-3.223478317,-3.514122963,6.34551239
63,1.55965442283e+18,4.466114521,0.1410654783,5.274733067
64,1.55965442289e+18,0.4814558029,-3.881311417,4.469385624
65,1.55965442295e+18,-5.586408615,-11.07673836,3.628830194
66,1.55965442301e+18,-6.634349346,-13.18478966,-1.952676654
67,1.55965442307e+18,0.4319300652,-5.353354454,-0.920778513
68,1.55965442313e+18,10.43029976,-7.896052837,-21.04756737
69,1.55965442319e+18,5.828133106,-11.66467285,-28.2672081
70,1.55965442325e+18,10.96944904,-12.88719749,-16.86888504
71,1.55965442331e+18,-0.5967073441,-11.72962379,26.80591011
72,1.55965442337e+18,-9.385258675,-27.04096413,11.00645161
73,1.55965442343e+18,-5.529989243,-5.401546955,11.74482727
74,1.55965442349e+18,-3.718837738,-7.161255836,5.67267704
75,1.55965442355e+18,-4.159132004,-4.817678452,3.640570164
76,1.55965442361e+18,-0.05575561523,-5.79100132,1.726679802
77,1.55965442367e+18,-2.674502373,-8.697971344,0.8454489708
78,1.55965442373e+18,-2.418756485,-20.18935585,-4.682964325
79,1.55965442379e+18,-4.714245796,-9.713274002,-0.1545817852
80,1.55965442385e+18,15.36045456,0.1464262009,-17.42027473
81,1.55965442391e+18,0.5863537788,-9.918417931,-1.873328328
82,1.55965442397e+18,10.28949261,-16.18574142,-29.6778717
83,1.55965442403e+18,3.04903698,-8.74375248,2.305594444
84,1.55965442409e+18,0.6917655468,-32.24468231,-3.433598518
85,1.55965442415e+18,-6.452963352,-5.647660732,7.768953323
86,1.55965442421e+18,-8.988417625,-7.64581871,5.510454655
87,1.55965442427e+18,-7.301044941,-6.399463177,0.9027118683
88,1.55965442433e+18,-1.970678806,-5.815145493,1.187252045
89,1.55965442439e+18,-3.520235062,-4.669513702,-0.03353261948
90,1.55965442445e+18,-0.9064331055,-1.696583271,0.7882566452
91,1.55965442451e+18,0.07535123825,-4.298054695,0.9619584084
92,1.55965442457e+18,0.194742918,-6.181889534,-1.859876633
93,1.55965442463e+18,-6.757820606,-12.01865101,4.291800022
94,1.55965442469e+18,6.694403648,-9.696252823,-28.89717865
95,1.55965442475e+18,2.37997961,-16.79042816,-14.73246765
96,1.55965442481e+18,2.383356094,-15.82162189,-6.891890049
97,1.55965442487e+18,0.8713054657,-14.99327755,5.43863678
98,1.55965442493e+18,-7.530841827,-12.99327755,16.91043854
99,1.55965442499e+18,-8.676917076,-13.94112587,10.0160265
100,1.55965442505e+18,-7.308949471,-10.64424706,9.10019207
101,1.55965442511e+18,-1.257036209,-5.987523079,8.050383568
102,1.55965442517e+18,4.242647171,-1.573246121,2.02717638
103,1.55965442523e+18,-0.9373311996,-4.215055943,2.239700794
104,1.55965442529e+18,-3.228388786,-4.696214199,-3.053140402
105,1.55965442535e+18,1.563337088,-1.517653465,-3.689095497
106,1.55965442541e+18,4.583880424,-6.493280411,-3.926129818
107,1.55965442547e+18,5.900648594,-11.15157318,9.829227448
108,1.55965442553e+18,5.738399029,-9.905906677,-27.78527069
109,1.55965442559e+18,-0.09453859925,-10.90122414,-6.378127098
110,1.55965442565e+18,-3.984034061,-4.572776794,4.387909889
111,1.55965442571e+18,-5.029909611,-3.167469025,3.82974577
112,1.55965442577e+18,-18.84341049,-7.866061211,7.158844471
113,1.55965442583e+18,-13.9790659,-0.8869411945,3.65359807
114,1.55965442589e+18,-0.0069231987,0.8571549058,3.920744896
115,1.55965442595e+18,-0.3967189789,2.098674536,0.7786846161
116,1.55965442601e+18,-6.497314453,-2.6736269,0.3611984253
117,1.55965442607e+18,-11.20762634,-7.176175594,1.845716476
118,1.55965442613e+18,-4.212088108,-7.036787987,-5.629072189
119,1.55965442619e+18,-1.404517651,-0.4970736504,-7.031331539
120,1.55965442625e+18,4.744626045,2.04885006,2.067617416
121,1.55965442631e+18,2.330138683,-5.99776125,-8.875457764
122,1.55965442637e+18,2.292120934,-14.65610027,-17.04795456
123,1.55965442643e+18,-4.763543606,-13.23927784,-27.93107414
124,1.55965442649e+18,5.819886208,-6.827663422,-9.397637367
125,1.55965442655e+18,-16.42098618,-6.586188316,3.035466671
126,1.55965442661e+18,4.240226746,-14.91123772,11.73620892
127,1.55965442667e+18,-13.59187508,-13.93849182,10.67426205
128,1.55965442673e+18,-7.433476448,-0.9276609421,11.79233837
129,1.55965442679e+18,-6.546394348,-0.6069002151,15.76736069
130,1.55965442685e+18,-8.640152931,-7.762930393,5.444674492
131,1.55965442691e+18,-9.513922691,-9.490911484,-5.922373295
132,1.55965442697e+18,1.285369873,-1.98989594,-10.23070049
133,1.55965442703e+18,6.330369473,0.1392259598,-7.6531353
134,1.55965442709e+18,22.34032631,-5.486323357,-17.48366737
135,1.55965442715e+18,8.400488853,-6.184891224,-10.22477531
136,1.55965442721e+18,4.095507622,-4.015658855,-19.05141068
137,1.55965442727e+18,-2.618833303,-6.45770216,17.9235878
138,1.55965442733e+18,2.183553457,-3.504619598,-14.91118622
139,1.55965442739e+18,-26.68743896,-15.26934338,-1.670139551
140,1.55965442745e+18,-6.675873756,-12.5513792,-1.44016552
141,1.55965442751e+18,-0.9138026237,-3.723210096,0.4267745018
142,1.55965442757e+18,0.3050370216,-9.076023102,-1.680943966
143,1.55965442763e+18,-2.778515339,-11.84024525,0.3584699631
144,1.55965442769e+18,-6.594303131,-19.34223366,1.104728699
145,1.55965442775e+18,-0.7262511253,-5.902891159,-6.249268055
146,1.55965442781e+18,5.057281017,-2.330099106,-13.98706818
147,1.55965442787e+18,8.737559319,3.028575897,-5.77413559
148,1.55965442793e+18,6.788814068,-3.663924694,-8.938049316
149,1.55965442799e+18,16.46162033,5.202755928,-6.669806957
150,1.55965442805e+18,-9.480482101,-10.01169586,27.19096184
151,1.55965442811e+18,-11.72151184,-27.02765083,1.435162067
152,1.55965442817e+18,-10.7600441,-17.27926254,1.803505659
153,1.55965442823e+18,-4.258810997,-13.42778397,0.3976297379
154,1.55965442829e+18,-1.302908421,-8.65664196,-1.863538265
155,1.55965442835e+18,-2.409197807,-7.547891617,-0.8742012978
156,1.55965442841e+18,-2.718827724,-4.758628368,-2.381598949
157,1.55965442847e+18,-9.022655487,-11.89380074,-3.100285053
158,1.55965442853e+18,-2.397631168,-5.475746632,-0.2413754463
159,1.55965442859e+18,3.530655146,-5.109083176,-2.849369287
160,1.55965442865e+18,4.52060318,-6.718493462,-8.255866051
161,1.55965442871e+18,-1.066096783,-8.808954239,8.80698204
162,1.55965442877e+18,5.976384163,-9.944358826,-32.41026306
163,1.55965442883e+18,2.488914967,-7.551070213,2.883329391
164,1.55965442889e+18,-15.25715446,-39.16714859,4.217809677
165,1.55965442895e+18,-22.61053276,-12.86704636,0.6539082527
166,1.55965442901e+18,-2.621767044,-9.409730911,3.916206837
167,1.55965442907e+18,1.513053417,-0.8375046253,2.203306198
168,1.55965442913e+18,0.7016644478,-6.464524269,3.183789253
169,1.55965442919e+18,-6.989359379,-13.09542274,0.1684484482
170,1.55965442925e+18,-7.311167717,-16.59794998,-6.2435956
171,1.55965442931e+18,2.183377743,-3.479910374,-3.508620024
172,1.55965442937e+18,8.002031326,-3.648766518,-13.40565205
173,1.55965442943e+18,11.22890186,-6.97016573,-18.88365936
174,1.55965442949e+18,16.39653778,-4.951647758,-19.06997681
175,1.55965442955e+18,0.6332602501,-7.287580967,7.819087505
176,1.55965442961e+18,-9.935400963,-21.01861954,8.713558197
177,1.55965442966e+18,-17.15739059,-18.81583977,9.454198837
178,1.55965442972e+18,-5.792945862,-9.949039459,2.170167685
179,1.55965442978e+18,0.8701410294,-4.050466061,1.209469557
180,1.55965442984e+18,1.47043848,-4.057730675,2.121652126
181,1.5596544299e+18,-4.326705456,-11.77414513,3.670697212
182,1.55965442996e+18,-4.919784546,-9.125897408,3.92666769
183,1.55965443002e+18,-1.236923218,-9.314968109,5.677785873
184,1.55965443008e+18,-2.54304266,-9.942565918,-0.3405132294
185,1.55965443014e+18,8.382853508,-0.4651751518,-7.143623352
186,1.5596544302e+18,4.334849358,-9.167704582,-15.27453423
187,1.55965443026e+18,12.38316727,-9.234379768,-21.6058197
188,1.55965443032e+18,8.83946228,0.843307972,-4.189325809
189,1.55965443038e+18,-23.07715225,-45.7403183,17.15780449
190,1.55965443044e+18,-17.21293259,-16.72338295,7.993174076
191,1.5596544305e+18,-0.8819522858,-6.011334896,6.515928268
192,1.55965443056e+18,1.621834755,1.382941365,6.600135803
193,1.55965443062e+18,1.487464905,-5.441922665,7.029261589
194,1.55965443068e+18,-0.8045282364,-14.69647217,4.745954514
195,1.55965443074e+18,-4.356559277,0.4650454521,-2.456906557
196,1.5596544308e+18,-1.99255991,-10.35857391,-8.082042694
197,1.55965443086e+18,4.990830421,-3.285464048,-2.460164309
198,1.55965443092e+18,11.05540466,-7.764555454,-12.27161312
199,1.55965443098e+18,14.9825964,-11.05782127,-18.04579926
200,1.55965443104e+18,7.390397072,-7.466990471,-6.545495987
201,1.5596544311e+18,-2.062757492,-8.987903595,21.35595512
202,1.55965443116e+18,-0.5335426331,-23.07355881,6.667009354
203,1.55965443122e+18,-12.27557373,-10.62966633,5.476601601
204,1.55965443128e+18,3.476463795,-6.413836956,7.208874702
205,1.55965443134e+18,5.678580761,1.526529312,4.646528244
206,1.5596544314e+18,1.182881355,-13.48346138,6.045283794
207,1.55965443146e+18,-1.989642143,-10.3240633,3.116727352
208,1.55965443152e+18,-5.630536079,-4.693082809,0.2556651235
209,1.55965443158e+18,4.232980728,-4.643927574,-1.327033162
210,1.55965443164e+18,12.27403259,3.085927486,-4.143387794
211,1.5596544317e+18,6.633770466,-8.710004807,-6.504259586
212,1.55965443176e+18,14.46788025,-2.659852505,-16.0755024
213,1.55965443182e+18,12.4704771,-4.744330883,-24.02783585
214,1.55965443188e+18,13.02125168,-2.174030781,3.642974854
215,1.55965443194e+18,-25.41757202,-64.79066467,7.6748209
216,1.559654432e+18,-4.866574287,-18.35120964,4.765873909
217,1.55965443206e+18,2.599729061,-1.526443005,1.247595549
218,1.55965443212e+18,3.91336441,-2.248200893,4.413033485
219,1.55965443218e+18,0.2382488251,-11.19625092,8.130633354
220,1.55965443224e+18,-8.522249222,-9.896976471,4.874263763
221,1.5596544323e+18,-5.453617573,-9.091970444,-2.90717411
222,1.55965443236e+18,2.367583275,-0.5775837898,-3.189833879
223,1.55965443242e+18,10.99853897,-5.974951744,-2.571574211
224,1.55965443248e+18,1.918397069,-14.84450245,-6.790630341
225,1.55965443254e+18,7.251227379,-11.23390675,-4.292416573
226,1.5596544326e+18,7.388709545,1.210196495,2.787002087
227,1.55965443266e+18,1.958423853,-7.76688385,6.085577011
228,1.55965443272e+18,1.213041306,-11.94464874,8.927705765
229,1.55965443278e+18,-11.91158676,-35.99756622,7.879265308
230,1.55965443284e+18,-2.558558464,-3.672203064,-0.9474580288
231,1.5596544329e+18,-1.274187088,-6.028445244,5.062306404
232,1.55965443296e+18,-4.996659279,-12.35551453,4.468996525
233,1.55965443302e+18,-9.346749306,-13.02804756,5.096715927
234,1.55965443308e+18,-1.11259079,-6.18640089,-2.081315041
235,1.55965443314e+18,4.368030071,-12.04958153,-3.716647387
236,1.5596544332e+18,5.608831882,-7.692684174,1.150000572
237,1.55965443326e+18,6.133804798,-4.247415543,-5.620997429
238,1.55965443332e+18,5.901551247,-5.061912537,-5.2137146
239,1.55965443338e+18,7.333076477,0.5545883179,-5.469525337
240,1.55965443344e+18,6.826745033,-6.830177307,-5.118826866
241,1.5596544335e+18,0.8946957588,-13.64066315,-3.932684898
242,1.55965443356e+18,5.244961262,-14.17807961,-4.677618027
243,1.55965443362e+18,-3.344176769,-22.68293953,8.323766708
244,1.55965443368e+18,-0.7420969009,-8.277886391,2.212471008
245,1.55965443374e+18,-5.633752823,-13.01530075,1.875427485
246,1.5596544338e+18,-4.054344177,-10.1163187,9.946112633
247,1.55965443386e+18,1.410272598,-0.3186173439,-2.213443756
248,1.55965443392e+18,2.532323837,-8.33497715,-6.261009693
249,1.55965443398e+18,13.28379631,-4.53943491,-6.09041214
250,1.55965443404e+18,10.46957397,-4.548074722,-3.989493847
251,1.5596544341e+18,-3.427668095,8.026963234,-0.07719683647
252,1.55965443416e+18,10.09049606,2.318178654,-7.670240402
253,1.55965443422e+18,11.35366631,-3.541829348,-18.36941719
254,1.55965443428e+18,5.487908363,-4.355885506,2.970215321
255,1.55965443434e+18,-0.2996430397,-21.87948418,-3.93005085
256,1.5596544344e+18,0.1602725983,-18.70588684,2.553560257
257,1.55965443446e+18,2.524874687,-17.20942307,1.202355385
258,1.55965443452e+18,-3.114307404,-14.96524525,2.524203777
259,1.55965443458e+18,-2.255291939,-6.11239624,2.631443501
260,1.55965443464e+18,0.7421832085,1.856786013,1.089245319
261,1.5596544347e+18,5.986908913,-1.235054016,-4.895177364
262,1.55965443476e+18,2.476954222,-10.84837246,-3.03942585
263,1.55965443482e+18,-1.403839588,-7.863589287,-5.42641449
264,1.55965443488e+18,-0.3535387516,-2.828635693,-2.234618664
265,1.55965443494e+18,5.459810257,-1.627613544,-1.076626778
266,1.559654435e+18,14.07331753,-1.900557041,-14.67370605
267,1.55965443506e+18,7.469014168,-6.913496971,-14.11925125
268,1.55965443512e+18,-2.980822802,-13.37874222,17.00781441
269,1.55965443518e+18,-7.681771755,-23.68401527,6.439229965
270,1.55965443524e+18,-8.361861229,-9.305214882,4.093715668
271,1.5596544353e+18,-10.63831425,-10.71095848,0.7679915428
272,1.55965443536e+18,-5.861462593,0.3017297983,0.8008270264
273,1.55965443542e+18,-0.7978534698,0.7200605869,-3.226264
274,1.55965443548e+18,2.220182419,-1.888819695,-4.186946869
275,1.55965443554e+18,-1.346987963,-11.28208733,-3.122181654
276,1.5596544356e+18,-10.39779091,-6.255338669,-9.83347702
277,1.55965443566e+18,-2.905382156,-4.936727524,2.235516071
278,1.55965443572e+18,4.223586559,2.016544342,-13.4899416
279,1.55965443578e+18,7.681517601,-4.905718803,-1.900473595
280,1.55965443584e+18,8.583919525,-10.63484383,-21.00265503
281,1.5596544359e+18,13.40435791,-5.409633636,0.5631113052
282,1.55965443596e+18,-0.8161001205,-16.62972069,16.15324402
283,1.55965443602e+18,-21.88158417,-42.27893829,2.737756252
284,1.55965443608e+18,-5.746243477,-2.694359779,-2.411068201
285,1.55965443614e+18,-6.55652523,-1.166494727,0.2357611656
286,1.5596544362e+18,-5.272168159,3.476861715,-1.282751083
287,1.55965443626e+18,-1.958562851,-6.24454689,-2.872348547
288,1.55965443632e+18,-2.289915085,-5.01869297,-5.515280247
289,1.55965443638e+18,-9.993471146,-11.33894825,18.58210945
290,1.55965443644e+18,-2.493599415,0.2863893509,-17.47569847
291,1.5596544365e+18,1.584584832,-4.105476856,-5.899250984
292,1.55965443656e+18,3.71525383,-6.545768738,-9.155305862
293,1.55965443662e+18,-1.781447172,-10.22402191,-9.253779411
294,1.55965443668e+18,11.99098206,-8.091540337,-10.52101707
295,1.55965443674e+18,5.731718063,-10.91662216,5.307456493
296,1.5596544368e+18,-6.161563396,-17.94892693,-1.922425866
297,1.55965443686e+18,-32.53186798,-25.15511894,1.067080975
298,1.55965443692e+18,-10.8372488,-8.191699982,4.497246742
299,1.55965443697e+18,-7.463623047,-2.446268082,-0.2234426141
300,1.55965443703e+18,0.6509332657,0.1516952515,2.308944941
301,1.55965443709e+18,7.018380642,-2.942954063,-2.282034397
302,1.55965443715e+18,6.641238213,-5.130268097,9.271988869
303,1.55965443721e+18,-5.668242455,-9.556215286,-5.230405807
304,1.55965443727e+18,-10.90244102,-3.036345005,5.377737522
305,1.55965443733e+18,11.40110588,-5.814237118,-24.19343758
306,1.55965443739e+18,-5.53068161,-16.6792469,-9.916168213
307,1.55965443745e+18,8.498724937,-5.745158195,-5.804777145
308,1.55965443751e+18,9.580172539,-6.329209328,2.672977448
309,1.55965443757e+18,-7.866918564,-35.01025391,15.59790039
310,1.55965443763e+18,-9.617344856,-19.59292412,11.34065914
311,1.55965443769e+18,-7.797050476,-4.328753471,7.812652588
312,1.55965443775e+18,-2.068005562,1.914846182,1.02786386
313,1.55965443781e+18,3.557295799,2.343605995,0.7434641123
314,1.55965443787e+18,6.35091877,-0.6753594875,0.3110916615
315,1.55965443793e+18,-2.411002159,-2.982855558,2.719946384
316,1.55965443799e+18,-9.463392258,-23.06664848,-2.178653479
317,1.55965443805e+18,-16.19595909,-19.08265877,16.45313644
318,1.55965443811e+18,13.55217171,-0.215795517,-17.35383987
319,1.55965443817e+18,12.94591522,-3.24844718,-15.5219183
320,1.55965443823e+18,9.653329849,0.7126910686,4.72383213
321,1.55965443829e+18,2.658296585,-40.61588287,-10.48196602
322,1.55965443835e+18,-0.3279180527,-29.11776543,-3.311772108
323,1.55965443841e+18,4.173014641,-25.03959084,-1.095173836
324,1.55965443847e+18,0.7683176994,-9.728146553,3.294409275
325,1.55965443853e+18,-1.769486427,4.96091795,-2.795915127
326,1.55965443859e+18,4.875104904,3.024244308,1.405123234
327,1.55965443865e+18,-2.908098698,-6.763315201,-6.627225876
328,1.55965443871e+18,-2.554063082,-9.57496357,-3.144234896
329,1.55965443877e+18,-1.806394339,6.048408508,-8.745868683
330,1.55965443883e+18,10.12654591,-0.9970474243,-31.98638153
331,1.55965443889e+18,4.096362114,-6.725930214,-21.65862846
332,1.55965443895e+18,-3.163511038,-19.27454758,6.075642586
333,1.55965443901e+18,-5.03390789,-32.98284531,15.17219162
334,1.55965443907e+18,-6.608633995,-20.50630379,-4.804803371
335,1.55965443913e+18,-7.691309929,-11.68429661,-3.795945644
336,1.55965443919e+18,-4.072108746,-4.673460007,-4.192180634
337,1.55965443925e+18,-0.5380158424,2.628072023,-3.489355564
338,1.55965443931e+18,7.6985569,2.81170702,-3.171015739
339,1.55965443937e+18,3.241600513,-4.884810925,0.2044429779
340,1.55965443943e+18,-9.779818535,-8.141453743,-8.277368546
341,1.55965443949e+18,-3.879039526,2.663582802,-7.35744381
342,1.55965443955e+18,4.438062191,3.344339371,-1.811855316
343,1.55965443961e+18,0.03366626799,-2.362612486,2.298235893
344,1.55965443967e+18,13.62788486,0.6132392883,-24.23278618
345,1.55965443973e+18,0.2008700371,-4.257469177,-3.315786362
346,1.55965443979e+18,-17.26575661,-54.33876419,10.01938629
347,1.55965443985e+18,-1.009180546,-16.443964,3.74600029
348,1.55965443991e+18,-3.003466606,-11.78568935,0.01415157318
349,1.55965443997e+18,0.7333917618,0.9550950527,-2.599521637
350,1.55965444003e+18,3.096374512,5.214482784,-6.235484123
351,1.55965444009e+18,0.3170919418,-1.557086945,-5.579081535
352,1.55965444015e+18,-5.755963326,-10.5532589,-5.449581623
353,1.55965444021e+18,-5.797950268,-4.999729156,-0.5889635086
354,1.55965444027e+18,3.632886887,1.247252941,-4.069132328
355,1.55965444033e+18,3.822297573,-0.649866581,-15.75475693
356,1.55965444039e+18,6.59713459,-8.147550583,-23.66135406
357,1.55965444045e+18,5.82780695,-1.661790252,-4.683067322
358,1.55965444051e+18,0.713758111,-34.74365616,-4.01890707
359,1.55965444057e+18,-5.462874889,-31.52547646,2.711220741
360,1.55965444063e+18,-3.950983047,-7.264103889,-0.7014083862
361,1.55965444069e+18,-3.026884556,-1.335828662,-3.150382996
362,1.55965444075e+18,3.576729298,3.849791288,-3.30224514
363,1.55965444081e+18,2.653480768,-4.112101078,0.1533575058
364,1.55965444087e+18,3.981317759,-10.53198433,-2.839595795
365,1.55965444093e+18,-5.741743088,-0.9264750481,-9.195399284
366,1.55965444099e+18,9.197963715,4.510262012,-24.99537849
367,1.55965444105e+18,5.963104725,-3.579164505,-15.07253933
368,1.55965444111e+18,-8.283490181,-13.4117384,4.092235565
369,1.55965444117e+18,2.420653343,-20.29543877,9.006949425
370,1.55965444123e+18,4.085323811,-6.966712952,3.180130959
371,1.55965444129e+18,-2.231197834,-10.16668892,4.280661106
372,1.55965444135e+18,-8.823659897,-5.479436874,5.405012608
373,1.55965444141e+18,-2.284910202,0.7736603022,-0.9656569958
374,1.55965444147e+18,6.540935516,0.8147468567,-0.4236488342
375,1.55965444153e+18,4.429728508,1.932746649,0.2487683296
376,1.55965444159e+18,-6.409741879,-3.674529076,-6.633804798
377,1.55965444165e+18,-2.0661273,-6.545623302,-2.488338947
378,1.55965444171e+18,1.987436056,-8.812366486,-6.823445797
379,1.55965444177e+18,-2.923563004,-16.91210175,-9.736750603
380,1.55965444183e+18,7.443346024,-5.991044044,-17.02899551
381,1.55965444189e+18,5.248549938,-7.47078228,-1.652436256
382,1.55965444195e+18,2.115204811,-20.67675018,5.857922077
383,1.55965444201e+18,-2.468517303,-12.84968853,8.620569229
384,1.55965444207e+18,-4.988544464,-8.332893372,6.519887924
385,1.55965444213e+18,-5.535170078,-1.670136929,8.809526443
386,1.55965444219e+18,-2.322613716,5.468559265,-2.945520639
387,1.55965444225e+18,9.003316879,3.594299316,1.38095808
388,1.55965444231e+18,6.202012062,1.899965286,6.071087837
389,1.55965444237e+18,0.3440937996,-4.820849419,-2.769015789
390,1.55965444243e+18,-3.30938673,-0.5181307793,-15.33186054
391,1.55965444249e+18,6.884576321,2.542781353,-15.90439796
392,1.55965444255e+18,15.94277763,-4.21386528,-21.34652519
393,1.55965444261e+18,8.511351585,-2.802156687,-2.701510906
394,1.55965444267e+18,9.14004612,-24.80008125,-3.378171682
395,1.55965444273e+18,1.091461182,-17.70571899,7.304319382
396,1.55965444279e+18,-3.837080956,-6.587806702,6.549075127
397,1.55965444285e+18,-4.543726921,-3.43274045,7.021231174
398,1.55965444291e+18,0.6844730377,-0.03796589375,0.6955714226
399,1.55965444297e+18,5.721366882,2.743464947,2.599478722
400,1.55965444303e+18,5.771476746,-0.3479809761,1.90550518
401,1.55965444309e+18,0.8364834785,-4.115958214,0.7704234123
402,1.55965444315e+18,-6.822322845,-6.983596802,-0.5018296242
403,1.55965444321e+18,0.5687665939,-1.096365452,-5.982309818
404,1.55965444327e+18,8.488950729,-5.680931091,-12.13166237
405,1.55965444333e+18,11.23685265,-6.938631535,-16.64293671
406,1.55965444339e+18,11.13463211,-3.499872446,-4.579593658
407,1.55965444345e+18,2.328239918,-14.02493191,10.49361897
408,1.55965444351e+18,-4.403847218,-29.76611328,8.46872139
409,1.55965444357e+18,-2.073122978,-10.97831535,7.678559303
410,1.55965444363e+18,-3.078631401,-5.621929169,7.148694038
411,1.55965444369e+18,-0.6445512772,3.083790302,0.2692928314
412,1.55965444375e+18,8.00604248,2.561445475,0.7195100784
413,1.55965444381e+18,7.682330132,-0.8846879601,4.016104221
414,1.55965444387e+18,-1.035948753,-5.700897694,0.2937626839
415,1.55965444393e+18,-16.74969864,-2.383070707,-5.062853813
416,1.55965444399e+18,6.101896763,0.1293444633,-12.12192631
417,1.55965444405e+18,7.294077873,-7.190236568,-11.29042912
418,1.55965444411e+18,9.788888931,-11.72901726,-12.30067348
419,1.55965444417e+18,1.689760208,-13.66159248,12.07301331
420,1.55965444423e+18,-0.6480455399,-24.9996357,11.47539425
421,1.55965444429e+18,-5.504181862,-4.127544403,5.846539974
422,1.55965444435e+18,-15.63625813,-8.594184875,5.105460167
423,1.55965444441e+18,-6.274813652,-1.985771179,5.510382652
424,1.55965444447e+18,1.478355885,1.333161592,-0.7568003535
425,1.55965444453e+18,8.556587219,-0.3627874851,-2.732624054
426,1.55965444459e+18,7.25193119,-3.647444963,3.546645164
427,1.55965444465e+18,-7.353915215,-19.91662025,0.935022831
428,1.55965444471e+18,-7.480687618,12.29685593,-1.144399405
429,1.55965444477e+18,19.55925369,4.623222828,-17.82182312
430,1.55965444483e+18,10.17801952,-1.321249008,-7.394512653
431,1.55965444489e+18,3.96187067,-11.59892368,11.80620193
432,1.55965444495e+18,5.112730503,-31.46087265,3.372303963
433,1.55965444501e+18,6.775503159,-11.93814564,2.366551399
434,1.55965444507e+18,-1.145759583,-10.64063931,9.027770996
435,1.55965444513e+18,-6.019388199,-9.603549957,6.12210083
436,1.55965444519e+18,-4.908843994,-3.982484102,1.800240755
437,1.55965444525e+18,4.034238815,0.9938354492,1.260403872
438,1.55965444531e+18,4.045825958,-0.1456608772,-3.583358765
439,1.55965444537e+18,-4.12276125,-8.762681961,-5.240816116
440,1.55965444543e+18,-0.2905750275,-8.856907845,0.6484906673
441,1.55965444549e+18,1.653210402,-3.605115891,-3.200455666
442,1.55965444555e+18,10.69795418,1.051659584,-8.599618912
443,1.55965444561e+18,9.433169365,-10.74809074,-19.89906311
444,1.55965444567e+18,3.953210115,-30.83216858,-4.744785786
445,1.55965444573e+18,5.004701138,-16.53272629,3.636274815
446,1.55965444579e+18,-1.431330681,-18.70201683,9.92019558
447,1.55965444585e+18,-4.303156853,-7.410271168,4.386007309
448,1.55965444591e+18,-7.820150375,-11.39738941,6.63081646
449,1.55965444597e+18,-1.110038757,0.08231127262,0.654188633
450,1.55965444603e+18,5.311882019,-0.3715498447,0.33679533
451,1.55965444609e+18,5.531889915,-5.776314735,-2.436231136
452,1.55965444615e+18,-5.506250858,-11.37726116,-6.949204445
453,1.55965444621e+18,-6.906040192,-3.897773504,-2.883577108
454,1.55965444627e+18,6.406502724,-0.4536595345,-21.85403252
455,1.55965444633e+18,15.08862019,-2.45526886,-21.60363388
456,1.55965444639e+18,-3.982493877,-9.950016022,-9.36776638
457,1.55965444645e+18,0.4478201866,-27.75003624,-0.984442234
458,1.55965444651e+18,-3.94534874,-10.67169666,6.274869442
459,1.55965444657e+18,-5.750613213,-16.1849823,9.74520874
460,1.55965444663e+18,-5.961381912,-13.21501064,8.722874641
461,1.55965444669e+18,-6.91588974,-4.661334991,-1.696560144
462,1.55965444675e+18,0.1792783737,-3.998494148,1.842944145
463,1.55965444681e+18,5.13866663,-0.9532337189,1.092567444
464,1.55965444687e+18,-1.176832676,-16.25240707,-22.41572571
465,1.55965444693e+18,-0.03950023651,-12.87078285,-17.62782097
466,1.55965444699e+18,9.532341003,-8.604260445,-12.12646294
467,1.55965444705e+18,10.36914444,13.17632294,-7.201068878
468,1.55965444711e+18,-6.221068382,-6.797408104,0.5491499901
469,1.55965444717e+18,-2.644134045,-12.44598103,-6.92465353
470,1.55965444723e+18,-12.05447102,-28.58512115,3.620690823
471,1.55965444729e+18,-4.258378029,-5.341685295,3.852706909
472,1.55965444735e+18,-2.966489315,-3.401861668,2.062059879
473,1.55965444741e+18,-8.345572472,-9.745073318,0.5187215805
474,1.55965444747e+18,-7.421725273,-12.17569923,2.53104353
475,1.55965444753e+18,-5.490543842,2.460497379,-1.323484898
476,1.55965444759e+18,-4.902227402,-3.27350688,-3.174499989
477,1.55965444765e+18,-4.341117382,-5.796924591,0.7123937607
478,1.55965444771e+18,-1.414393902,-9.014145851,-15.26793671
479,1.55965444777e+18,2.68982172,-11.73125553,-13.53645134
480,1.55965444783e+18,3.739693642,-12.28334618,3.042609692
481,1.55965444789e+18,1.081464887,-2.049054146,-11.73651123
482,1.55965444795e+18,-1.161886215,-11.43478394,3.352003098
483,1.55965444801e+18,-5.796376228,-21.37911034,-4.381193161
484,1.55965444807e+18,-15.30158329,-23.44082642,9.615840912
485,1.55965444813e+18,-4.014600277,-9.864937782,6.73607254
486,1.55965444819e+18,-6.078691483,-16.36766434,4.204240799
487,1.55965444825e+18,-7.320806026,-19.75767899,2.708044529
488,1.55965444831e+18,-4.498817444,-10.29083633,-3.80526948
489,1.55965444837e+18,4.011887074,-9.583367348,-6.819570541
490,1.55965444843e+18,7.942688942,0.8297944069,-10.87939262
491,1.55965444849e+18,-1.233803272,6.099972248,-5.944205284
492,1.55965444855e+18,7.9269104,-5.482751846,-14.18546104
493,1.55965444861e+18,7.707741261,-3.033693314,-8.478776932
494,1.55965444867e+18,-3.446591854,-3.330318451,-1.352382421
495,1.55965444873e+18,-1.625120401,-8.715360641,7.541532993
496,1.55965444879e+18,4.200489521,-7.383806229,-4.757367134
497,1.55965444885e+18,0.8864431381,-27.13265228,-2.530776978
498,1.55965444891e+18,-2.488394737,-7.570294857,-0.461769104
499,1.55965444897e+18,-0.8639574051,-13.06455803,-1.345680237
500,1.55965444903e+18,-1.098761082,-12.85214329,-0.7213811874
501,1.55965444909e+18,-2.36380434,-14.3178215,4.086405277
502,1.55965444915e+18,2.092861652,1.494628191,-4.472355366
503,1.55965444921e+18,3.935959578,-0.3022096157,-5.830488205
504,1.55965444927e+18,5.157933235,-5.637107372,-10.09123611
505,1.55965444933e+18,3.637763977,-9.08341217,-6.047010422
506,1.55965444939e+18,4.062695503,1.722817421,2.551668167
507,1.55965444945e+18,3.390593767,3.061432362,-14.63484573
508,1.55965444951e+18,5.170982361,-6.521290779,-8.192052841
509,1.55965444957e+18,2.969264984,-12.70243168,5.202640533
510,1.55965444963e+18,4.231031895,-31.35162735,2.282081604
511,1.55965444969e+18,-3.361994267,-10.64239502,-6.376255989
512,1.55965444975e+18,-3.539516449,-13.75173092,0.6316680908
513,1.55965444981e+18,-0.5507354736,-18.30467224,4.377809525
514,1.55965444987e+18,-1.12984705,-8.304162025,-4.036637783
515,1.55965444993e+18,2.734556675,-2.448217869,-8.157891273
516,1.55965444999e+18,12.6016655,-4.811078072,-8.514156342
517,1.55965445005e+18,7.558758259,-4.151004314,1.464734554
518,1.55965445011e+18,-2.19841814,5.06241703,-5.047355652
519,1.55965445017e+18,14.72023106,-1.783534527,-14.96932602
520,1.55965445023e+18,4.986533165,-4.970556736,-3.034205198
521,1.55965445029e+18,-7.209378719,-13.60303307,7.156188488
522,1.55965445035e+18,4.369550228,-19.88766861,-0.991027832
523,1.55965445041e+18,-0.629178524,-5.330467701,0.6718039513
524,1.55965445047e+18,0.6080260277,-5.336621284,1.258744717
525,1.55965445053e+18,-0.02180671692,-17.44032669,1.099339485
526,1.55965445059e+18,-3.853151321,-13.63787556,0.6894807816
527,1.55965445065e+18,-0.7461576462,0.8491253853,0.8348464966
528,1.55965445071e+18,1.372712135,-1.04053545,-7.51614666
529,1.55965445077e+18,8.92681694,-2.135721445,-7.051651001
530,1.55965445083e+18,4.47439909,-7.299723625,-5.172540665
531,1.55965445089e+18,1.966855049,-6.984496117,-10.96273422
532,1.55965445095e+18,9.479331017,-4.959621429,-12.29996967
533,1.55965445101e+18,-5.697778702,-8.620182037,-2.787881374
534,1.55965445107e+18,-0.399687767,-12.37522125,-5.85081768
535,1.55965445113e+18,-2.427634716,-26.92615509,4.839675426
536,1.55965445119e+18,-2.626915932,0.8498415947,-2.091976643
537,1.55965445125e+18,1.216091633,-6.335579872,8.083759308
538,1.55965445131e+18,-1.330826283,-11.57986069,4.367440701
539,1.55965445137e+18,-5.360081196,-9.694249153,-0.4726419449
540,1.55965445143e+18,2.967401505,-1.469953299,-2.732118845
541,1.55965445149e+18,0.6724805832,-3.888228416,4.543397903
542,1.55965445155e+18,6.636318684,-7.373985767,-10.1343441
543,1.55965445161e+18,8.733586311,-10.18994617,-23.50760841
544,1.55965445167e+18,9.565805435,-2.052587032,-10.15049171
545,1.55965445173e+18,5.227575302,-12.1097126,14.07591152
546,1.55965445179e+18,-14.6082058,-24.37613106,-0.6270830631
547,1.55965445185e+18,-12.35323811,-14.44090462,5.611288548
548,1.55965445191e+18,3.135035992,2.823207855,4.779623985
549,1.55965445197e+18,5.737421513,1.041151047,7.606638908
550,1.55965445203e+18,1.216361523,-16.04058838,6.217947006
551,1.55965445209e+18,-2.920330048,-17.40472794,6.778240204
552,1.55965445215e+18,-4.642840385,-3.265552282,5.277003765
553,1.55965445221e+18,-0.155298233,1.770855904,0.9990757108
554,1.55965445227e+18,8.76131916,-4.298837185,-13.84740734
555,1.55965445233e+18,16.66074753,-8.858646393,-13.49565792
556,1.55965445239e+18,21.01914787,-2.101214409,-20.00627518
557,1.55965445245e+18,6.498961449,-3.600910187,3.004844904
558,1.55965445251e+18,1.49100399,-17.14312935,8.587505341
559,1.55965445257e+18,-4.354743958,-17.83231354,12.29910851
560,1.55965445263e+18,-4.241209984,-8.751728058,8.7973423
561,1.55965445269e+18,3.459135056,4.110854626,13.4024086
562,1.55965445275e+18,2.702841759,-4.692633152,14.48053551
563,1.55965445281e+18,-6.76096344,-12.04998493,6.125742435
564,1.55965445287e+18,-4.032431602,-13.30879211,12.62897491
565,1.55965445293e+18,3.936998844,-2.327210426,8.443664551
566,1.55965445299e+18,6.709012032,-6.034158707,2.099273205
567,1.55965445305e+18,0.6386528015,-13.05187798,-11.1152935
568,1.55965445311e+18,6.57105732,-3.843221664,-5.283388138
569,1.55965445317e+18,11.55720615,-3.142663956,-6.698675632
570,1.55965445323e+18,17.3575592,0.4958834648,-10.90399837
571,1.55965445329e+18,14.20638275,-9.239197731,5.780161858
572,1.55965445335e+18,-9.177843094,-39.4637146,7.855048656
573,1.55965445341e+18,-0.8848495483,-9.998236656,9.938840866
574,1.55965445347e+18,-2.168703079,4.382930756,12.54327488
575,1.55965445353e+18,-3.844903946,-9.452067375,13.13432312
576,1.55965445359e+18,-7.751935959,-16.29598999,6.593588829
577,1.55965445365e+18,-5.021225929,-10.2377224,11.24547577
578,1.55965445371e+18,-0.5046672821,2.297877789,3.861634016
579,1.55965445377e+18,7.061088085,-1.362045288,-1.942790508
580,1.55965445383e+18,6.430240631,-5.598879337,-4.83114481
581,1.55965445389e+18,7.90110302,-9.714262009,6.697554588
582,1.55965445395e+18,6.180470943,-2.970683575,0.2117223144
583,1.55965445401e+18,11.05611801,-3.832808018,-4.971108913
584,1.55965445407e+18,12.14408493,-1.683634758,-0.5234420896
585,1.55965445413e+18,3.40656352,-16.04379845,3.383136511
586,1.55965445419e+18,8.591831207,-22.14313316,-10.20762348
587,1.55965445425e+18,-1.661616325,-20.81517601,5.944310188
588,1.55965445431e+18,2.365031719,-6.044334888,6.628431797
589,1.55965445437e+18,-8.690098763,-18.8180542,5.552911758
590,1.55965445443e+18,-3.010268211,-12.97457504,6.346852303
591,1.55965445449e+18,5.203722954,-2.635335445,2.685088634
592,1.55965445455e+18,8.174566269,-2.523993254,0.2639274597
593,1.55965445461e+18,0.3998985291,-8.9346838,6.727356911
594,1.55965445467e+18,7.25271368,-2.371408701,1.426894426
595,1.55965445473e+18,11.35073471,-5.661020756,-11.46339607
596,1.55965445479e+18,3.463541746,-5.598464966,-10.80965805
597,1.55965445485e+18,7.667905331,-11.85178566,2.178242683
598,1.55965445491e+18,-5.562369347,-17.90233421,1.284540653
599,1.55965445497e+18,5.292303085,-18.02077484,14.05643559
600,1.55965445503e+18,3.50274992,-3.606593609,9.854656219
601,1.55965445509e+18,1.295770168,-11.09998226,11.52169991
602,1.55965445515e+18,-6.455024719,-15.75629139,10.78165722
603,1.55965445521e+18,-3.186346054,-7.82344532,4.766077995
604,1.55965445527e+18,-0.3361568451,-2.741807461,-2.464273214
605,1.55965445533e+18,9.187185287,-3.802305937,-7.132571697
606,1.55965445539e+18,13.54612827,-1.675660372,-1.360277891
607,1.55965445545e+18,7.424964428,-7.540915489,8.288747787
608,1.55965445551e+18,11.4497366,-1.498259068,-18.66984749
609,1.55965445557e+18,13.74555206,-0.1633324623,-5.033897877
610,1.55965445563e+18,7.965573311,-10.03669071,0.5109329224
611,1.55965445569e+18,-0.8626103401,-26.32260323,-1.879583836
612,1.55965445575e+18,-5.904128075,-21.64788055,7.487548828
613,1.55965445581e+18,-0.1145343781,-6.400446892,4.976156235
614,1.55965445587e+18,-1.79867363,-11.98850918,7.606616974
615,1.55965445593e+18,-7.740372658,-13.70962715,6.740687847
616,1.55965445599e+18,-1.157354355,-4.92679882,0.7042464018
617,1.55965445605e+18,5.009657383,0.3539118767,-3.382266283
618,1.55965445611e+18,11.83321476,-1.51903677,-4.980802536
619,1.55965445617e+18,7.009242535,-5.091340065,2.515336514
620,1.55965445623e+18,-1.493827343,-1.409694672,3.527513266
621,1.55965445629e+18,0.7824296951,-8.076685905,0.7262382507
622,1.55965445635e+18,13.55063057,-2.884640455,-21.09630585
623,1.55965445641e+18,6.803844452,-13.72416973,-6.597658157
624,1.55965445647e+18,-2.272081375,-21.6807785,0.6883597374
625,1.55965445653e+18,3.740251064,-17.69087791,16.70952415
626,1.55965445659e+18,4.663625717,-5.394553661,9.870735168
627,1.55965445665e+18,-8.307468414,-13.61273003,9.762744904
628,1.55965445671e+18,-10.05264187,-10.8448391,10.27863216
629,1.55965445677e+18,-2.657764435,-4.850001335,4.515648842
630,1.55965445683e+18,6.302716255,1.974761963,1.644057989
631,1.55965445689e+18,7.621417046,-5.401137829,0.4669895172
632,1.55965445695e+18,3.229800224,-4.399207115,-0.7175463438
633,1.55965445701e+18,-2.141493797,-3.595723152,-3.753688335
634,1.55965445707e+18,-1.809719563,-4.151301384,10.21173859
635,1.55965445713e+18,2.495494127,-7.736044884,-15.70488739
636,1.55965445719e+18,16.80265427,-15.63639832,11.56278133
637,1.55965445725e+18,5.051541328,-5.37938118,-7.604702473
638,1.55965445731e+18,-5.679638863,-17.38814354,17.54697227
639,1.55965445737e+18,2.623028278,-21.15498161,6.208251953
640,1.55965445743e+18,-0.0419178009,-22.07870674,21.53824997
641,1.55965445749e+18,-5.376214981,-9.491781235,7.983017445
642,1.55965445755e+18,-14.85013676,-3.139305115,1.528193474
643,1.55965445761e+18,-2.059069633,-0.3415436745,1.314548135
644,1.55965445767e+18,2.57787466,-2.210574627,-0.6142193079
645,1.55965445773e+18,3.334186554,-1.791478157,-7.211628437
646,1.55965445779e+18,-1.427639484,-1.755885124,-0.9817583561
647,1.55965445785e+18,-9.686220169,-13.9569931,-1.908692479
648,1.55965445791e+18,0.4039018154,-11.66892338,7.060426712
649,1.55965445797e+18,-4.126994133,-2.398798943,-7.451732635
650,1.55965445803e+18,9.242928505,-4.323326111,-21.27305222
651,1.55965445809e+18,10.7401104,-13.9578867,-1.248104572
652,1.55965445815e+18,4.731291771,-4.70156908,1.760155201
653,1.55965445821e+18,-4.329463959,-37.15916443,7.184950829
654,1.55965445827e+18,-12.86774826,-25.79093552,9.06221962
655,1.55965445833e+18,-14.50908184,-4.091561794,4.549476147
656,1.55965445839e+18,-4.427669525,-2.277414799,6.350108147
657,1.55965445845e+18,-0.3140640259,0.3043971062,0.1144516468
658,1.55965445851e+18,2.222198963,-9.28780365,0.3534235954
659,1.55965445857e+18,-4.588400364,-8.878668785,-7.470881462
660,1.55965445863e+18,-7.92423439,1.29894352,-3.110350132
661,1.55965445869e+18,-1.840299368,3.740037918,-9.112401009
662,1.55965445875e+18,8.431798935,-1.575173378,-14.57782936
663,1.5596544588e+18,-1.771409512,-7.956985474,-2.968741417
664,1.55965445886e+18,6.820519447,-15.42008972,-22.65692329
665,1.55965445892e+18,6.768748283,-9.581291199,0.09669971466
666,1.55965445898e+18,2.251156569,-7.883034706,0.01393890381
667,1.55965445904e+18,-20.12270355,-51.83082581,19.1714859
668,1.5596544591e+18,-8.952925682,-21.56120872,4.292969704
669,1.55965445916e+18,-3.753430843,-2.712556362,-0.5975189209
670,1.55965445922e+18,0.4116301537,-2.390826941,2.761967659
671,1.55965445928e+18,4.319016457,-0.6394879818,4.674597263
672,1.55965445934e+18,-3.410020351,-6.977270126,-3.479750633
673,1.5596544594e+18,-6.80882597,-9.767478943,1.146253586
674,1.55965445946e+18,-4.976816177,-6.869501591,-4.404277802
675,1.55965445952e+18,4.767370224,-0.9451112747,-6.188319683
676,1.55965445958e+18,5.940502644,-5.96336174,0.3302467465
677,1.55965445964e+18,5.576505661,-9.484512329,-9.414616585
678,1.5596544597e+18,6.348578453,-14.21665192,-8.136240005
679,1.55965445976e+18,1.818954945,-9.237150192,2.043419361
680,1.55965445982e+18,3.906799316,-23.06707573,-3.852545023
681,1.55965445988e+18,-8.908126831,-41.60345078,20.81033707
682,1.55965445994e+18,5.588132381,-3.324988842,8.309885025
683,1.55965446e+18,-6.072779655,0.8133449554,2.11730814
684,1.55965446006e+18,1.933689594,2.65256381,8.604242325
685,1.55965446012e+18,-0.9820790291,-1.768660069,7.231731892
686,1.55965446018e+18,-10.15964127,-1.977066994,-3.272521973
687,1.55965446024e+18,-15.05356312,-7.840691566,1.600681305
688,1.5596544603e+18,-7.256368637,-8.652906418,1.195764065
689,1.55965446036e+18,1.036075711,-11.60813141,1.694516659
690,1.55965446042e+18,5.807213783,-13.38003349,-20.58237076
691,1.55965446048e+18,0.929479897,-18.2191391,-20.45266724
692,1.55965446054e+18,6.016827106,-13.64081383,-2.528159142
693,1.5596544606e+18,-11.75136375,-30.65623474,12.35592079
694,1.55965446066e+18,-23.69878006,-30.79930687,16.19020462
695,1.55965446072e+18,-9.097808838,-0.8476345539,2.171952248
696,1.55965446078e+18,-3.283397675,1.694802523,1.778959274
697,1.55965446084e+18,-1.39586401,2.478636265,6.056705475
698,1.5596544609e+18,-2.277825356,-2.063358784,3.054878235
699,1.55965446096e+18,-7.196505547,-6.373408794,7.854809761
700,1.55965446102e+18,-13.4877224,-8.222771645,-2.756334066
701,1.55965446108e+18,-6.175450802,-8.414309502,-2.598821878
702,1.55965446114e+18,-3.698198318,-10.67939091,-3.807500362
703,1.5596544612e+18,6.683525562,-13.39560318,-11.2608757
704,1.55965446126e+18,7.627355576,-22.31180954,-1.808567286
705,1.55965446132e+18,2.812581062,-6.976154327,14.27010632
706,1.55965446138e+18,5.08136034,0.6154994965,2.253704071
707,1.55965446144e+18,-17.97924805,-12.76315689,1.459550142
708,1.5596544615e+18,-2.68689537,-8.758952141,9.076858521
709,1.55965446156e+18,-3.472203255,-2.24469614,3.852244139
710,1.55965446162e+18,-1.603732109,0.2160125375,5.865406036
711,1.55965446168e+18,-1.605050087,-4.249670982,6.678288937
712,1.55965446174e+18,-10.50373363,-11.17713928,5.77093792
713,1.5596544618e+18,-10.16820335,-5.692996979,2.083441973
714,1.55965446186e+18,-3.362549782,-7.427790642,-4.725163937
715,1.55965446192e+18,2.257458925,-12.27838039,0.01302909851
716,1.55965446198e+18,18.19742584,-2.929784298,-31.83752441
717,1.55965446204e+18,12.49689007,-8.823926926,-17.55421638
718,1.5596544621e+18,1.131414056,-6.760503292,9.426164627
719,1.55965446216e+18,-20.90797043,-38.92505264,4.966171741
720,1.55965446222e+18,-5.827015877,-11.94549274,8.830720901
721,1.55965446228e+18,0.1937265396,1.209015131,1.244904518
722,1.55965446234e+18,1.815817356,0.6769473553,1.051217079
723,1.5596544624e+18,-0.3918719292,-2.922497034,2.769393444
724,1.55965446246e+18,-8.253499985,-9.373325348,4.923547268
725,1.55965446252e+18,-8.493297577,-13.05721283,0.01955223083
726,1.55965446258e+18,-22.77361298,-9.791965485,-4.769578934
727,1.55965446264e+18,10.08296585,-3.099871159,-14.64859009
728,1.5596544627e+18,11.41624928,-3.471671343,-23.28941345
729,1.55965446276e+18,0.7883992195,-7.750226974,4.79304409
730,1.55965446282e+18,2.804412603,-19.70191765,-4.039760113
731,1.55965446288e+18,-7.708162785,-25.09238434,16.65377426
732,1.55965446294e+18,-6.746909618,-8.087766647,0.758898735
733,1.559654463e+18,-1.098441124,-0.05880570412,-0.8985209465
734,1.55965446306e+18,5.454409122,4.782349586,-2.381892681
735,1.55965446312e+18,4.422366619,-0.6864016056,1.33127737
736,1.55965446318e+18,-1.744901657,1.214879513,3.895475388
737,1.55965446324e+18,-15.13908577,-8.992364883,2.357098103
738,1.5596544633e+18,-13.96734428,-7.397513866,2.601529121
739,1.55965446336e+18,-1.145808935,-6.606113911,-3.250420094
740,1.55965446342e+18,-2.005208254,-9.375635147,1.159963131
741,1.55965446348e+18,5.720178127,-12.0497036,-33.40562057
742,1.55965446354e+18,7.28358078,-6.532382011,-6.313586235
743,1.5596544636e+18,-12.60465336,-43.14836502,6.082238197
744,1.55965446366e+18,-12.11850739,-29.29854393,10.0244112
745,1.55965446372e+18,-4.855702877,-2.396013737,2.487236977
746,1.55965446378e+18,-6.982156277,-1.10742116,0.3640203476
747,1.55965446384e+18,-0.08410978317,2.013581514,-0.1900539398
748,1.5596544639e+18,2.405741453,-0.2906455994,1.26534605
749,1.55965446396e+18,-1.261710882,-5.689854622,-0.9875798225
750,1.55965446402e+18,-9.235284805,-5.991366386,-2.60213232
751,1.55965446408e+18,-8.870545387,-4.16261673,-3.690630436
752,1.55965446414e+18,-0.9761242867,-2.507644653,-4.810201168
753,1.5596544642e+18,6.71123457,-4.897183418,-20.2188797
754,1.55965446426e+18,9.951436996,-15.54281807,-24.77150345
755,1.55965446432e+18,10.64804459,-5.584599972,-4.593085289
756,1.55965446438e+18,-8.183901787,-29.16534042,9.209243774
757,1.55965446444e+18,-18.24229431,-34.89470291,11.75541592
758,1.5596544645e+18,-4.974833488,-3.323759317,-0.8809814453
759,1.55965446456e+18,-2.530284882,-0.588563621,2.317238331
760,1.55965446462e+18,1.378599167,3.284282207,-3.476156712
761,1.55965446468e+18,2.007655144,2.737487555,1.715894699
762,1.55965446474e+18,-1.308659554,-2.138370752,1.339064121
763,1.5596544648e+18,-12.3900547,-2.848928928,-2.305655956
764,1.55965446486e+18,-9.628358841,-0.7188744545,-1.997739553
765,1.55965446492e+18,-1.014972806,-11.26655006,-5.636749744
766,1.55965446498e+18,6.241176128,-12.88845062,-15.93142509
767,1.55965446504e+18,1.940967083,-17.01821518,-6.906273842
768,1.5596544651e+18,-2.10276866,-13.39075661,6.929663181
769,1.55965446516e+18,-0.6534779072,-13.28713322,11.00885391
770,1.55965446522e+18,-24.06858063,-1.127823114,0.05993747711
771,1.55965446528e+18,-10.13815403,-3.364471197,1.762161255
772,1.55965446534e+18,1.105156422,1.37389946,1.664230347
773,1.5596544654e+18,5.33849287,3.730046034,-0.2775521278
774,1.55965446546e+18,3.763490915,4.767908096,2.026113987
775,1.55965446552e+18,-9.969907761,0.2329974174,0.756248951
776,1.55965446558e+18,-15.16559029,-6.973187923,-4.137511253
777,1.55965446564e+18,-11.38434219,-7.457495213,-2.859105587
778,1.5596544657e+18,-2.276757002,-8.221802711,-6.715400696
779,1.55965446576e+18,5.626452446,-12.24727821,-11.11322021
780,1.55965446582e+18,3.754815578,-3.947223425,-1.117563248
781,1.55965446588e+18,3.564034462,-8.992897034,-22.05539322
782,1.55965446594e+18,6.996277809,0.9686226845,4.450633049
783,1.559654466e+18,-15.9114933,-68.77106476,-13.22063541
784,1.55965446606e+18,-10.73327351,-22.17013931,1.540718079
785,1.55965446612e+18,1.445306778,7.815649986,0.2360343933
786,1.55965446618e+18,-4.762998104,6.744819641,-1.730894566
787,1.55965446624e+18,-2.560684681,2.749150276,0.6037435532
788,1.5596544663e+18,-13.49833298,-5.860829353,0.4372215271
789,1.55965446636e+18,-13.54344845,-9.496577263,5.271989822
790,1.55965446642e+18,-4.302894115,-3.707623005,-14.55718803
791,1.55965446648e+18,36.35656738,-7.922184944,-9.256694794
792,1.55965446654e+18,6.579918861,-6.235939503,-29.23491478
793,1.5596544666e+18,-5.18116045,-14.04275131,5.23115921
794,1.55965446666e+18,-6.232270241,-26.42439842,2.34396553
795,1.55965446672e+18,-12.93913841,-15.67666054,4.941220284
796,1.55965446678e+18,-10.30407524,-5.018526554,2.194434166
797,1.55965446684e+18,-9.404268265,0.8467960358,-1.875376701
798,1.5596544669e+18,-5.79178381,7.993198872,-4.395721436
799,1.55965446696e+18,-3.279716492,8.498509407,-4.853833199
800,1.55965446702e+18,-5.433411121,4.355044842,-0.3502244949
801,1.55965446708e+18,-11.98731136,-4.847369194,-3.94448328
802,1.55965446714e+18,-5.938098907,-7.134720802,-1.012469292
803,1.5596544672e+18,0.7688348293,-3.830702782,-5.951607227
804,1.55965446726e+18,0.3773526251,-14.46417427,-15.24001312
805,1.55965446732e+18,6.113801003,-5.510407448,-25.58825874
806,1.55965446738e+18,-12.75514412,-11.21988487,7.236611366
807,1.55965446744e+18,3.381887913,-2.426429272,0.3855223656
808,1.5596544675e+18,-17.80602455,-22.25656319,2.456929684
809,1.55965446756e+18,-4.214148998,-2.551950932,13.12571907
810,1.55965446762e+18,-6.57922554,3.149092674,13.87656975
811,1.55965446768e+18,-13.34158707,7.400782585,6.212644577
812,1.55965446774e+18,-10.42682934,11.56779099,3.626743317
813,1.5596544678e+18,-8.933826447,9.400868416,0.3738732338
814,1.55965446786e+18,-10.74830532,0.8801522255,-6.605592728
815,1.55965446792e+18,-8.227523804,0.6365278959,-5.900144577
816,1.55965446798e+18,-0.05349111557,0.2842428684,-7.566937923
817,1.55965446804e+18,3.689049244,-5.098615646,-8.989387512
818,1.5596544681e+18,2.793954372,-8.316366196,-3.865231037
819,1.55965446816e+18,7.417777061,-0.7525389194,-24.94016647
820,1.55965446822e+18,11.17982483,9.148914337,-6.777035236
821,1.55965446828e+18,-15.5957756,-12.48604584,13.11330795
822,1.55965446834e+18,-14.90995312,-18.96144485,22.30054665
823,1.5596544684e+18,-10.30764294,6.236008644,19.03304482
824,1.55965446846e+18,-14.96910381,12.17316437,8.442672729
825,1.55965446852e+18,-11.0260849,12.8713398,6.391639709
826,1.55965446858e+18,-6.702327728,10.25461864,0.3820304871
827,1.55965446864e+18,-5.160714149,1.930214643,-5.624085903
828,1.5596544687e+18,0.7769422531,1.242091417,2.360038996
829,1.55965446876e+18,7.098176956,6.497413635,5.219359398
830,1.55965446882e+18,6.021975517,0.3584227562,15.03717613
831,1.55965446888e+18,9.209281921,-7.636900425,-12.07493877
832,1.55965446894e+18,11.60993958,-10.34581852,-4.240684032
833,1.559654469e+18,7.280465126,-5.862901211,-17.40683937
834,1.55965446906e+18,10.34499645,-8.231894493,-0.3381998539
835,1.55965446912e+18,-14.28257084,-24.82680893,25.8456459
836,1.55965446918e+18,-25.73746872,-32.80235672,11.34609127
837,1.55965446924e+18,-11.59593391,5.635666847,8.897455215
838,1.5596544693e+18,-6.915505409,1.604814291,12.66579342
839,1.55965446936e+18,-0.8458571434,4.085569859,13.77138424
840,1.55965446942e+18,-1.200009346,-3.649966717,0.3265433311
841,1.55965446948e+18,-3.378878593,-10.55323315,9.91836834
842,1.55965446954e+18,2.977363586,-8.858825684,1.365790606
843,1.55965446959e+18,-24.61117554,-1.552709579,28.63303757
844,1.55965446965e+18,9.798849106,-3.484448195,-15.02669907
845,1.55965446971e+18,9.026063919,-7.976828098,-8.665866852
846,1.55965446977e+18,3.135569096,0.8093690872,4.343227863
847,1.55965446983e+18,12.11113548,0.6990125179,9.241782188
848,1.55965446989e+18,3.447155952,-15.055583,14.23289013
849,1.55965446995e+18,-20.88807869,-21.34025955,10.69509888
850,1.55965447001e+18,-2.3533535,-6.872785568,10.03413391
851,1.55965447007e+18,5.032568932,0.8624031544,6.520951271
852,1.55965447013e+18,7.370508671,-1.231732488,2.889328957
853,1.55965447019e+18,7.913484573,-7.140710831,2.686921358
854,1.55965447025e+18,-0.3056735992,-5.396706581,7.044284821
855,1.55965447031e+18,-10.23422813,-4.163475037,4.131285667
856,1.55965447037e+18,-2.658580303,-0.7674946785,1.723145485
857,1.55965447043e+18,5.641441822,-1.089413166,-13.20330238
858,1.55965447049e+18,11.03975582,20.93937111,-7.280544281
859,1.55965447055e+18,13.36983299,-1.349478722,-23.60853004
860,1.55965447061e+18,-0.1707701683,-12.94055176,10.60595798
861,1.55965447067e+18,-8.464669228,-44.76386642,10.33611107
862,1.55965447073e+18,-2.320569515,-20.38201332,2.741410732
863,1.55965447079e+18,0.4933028221,-1.464634538,-0.7864711285
864,1.55965447085e+18,0.8406524658,-1.844518304,0.3244831562
865,1.55965447091e+18,3.821381569,2.108638048,1.956683397
866,1.55965447097e+18,0.2490582466,-4.203131199,1.663012028
867,1.55965447103e+18,-4.825719833,-10.78443718,1.797604561
868,1.55965447109e+18,-5.380237103,-5.072813034,-3.965952873
869,1.55965447115e+18,-4.134430885,1.988212585,-0.8196673393
870,1.55965447121e+18,12.29319191,-4.299830914,-12.08226204
871,1.55965447127e+18,14.84671783,2.097072601,-23.3956337
872,1.55965447133e+18,3.115020037,-11.43148041,4.467778683
873,1.55965447139e+18,-2.343648911,-30.84323502,-2.662086964
874,1.55965447145e+18,-2.010817051,-24.89588165,9.764413834
875,1.55965447151e+18,-0.06012153625,-10.79447651,4.923752308
876,1.55965447157e+18,-0.7835826874,2.065928459,-1.745102167
877,1.55965447163e+18,4.990927696,1.09254837,3.212861061
878,1.55965447169e+18,5.091276169,2.099036932,3.908296108
879,1.55965447175e+18,-2.43465662,-5.200138092,1.64305687
880,1.55965447181e+18,-9.405297279,-10.5314579,-0.8187773228
881,1.55965447187e+18,-8.74393177,-2.972554207,1.023260593
882,1.55965447193e+18,0.02497887611,-1.829696178,1.870973587
883,1.55965447199e+18,17.11792564,-9.18860054,-19.23510551
884,1.55965447205e+18,11.17200851,-8.212870598,-19.30805206
885,1.55965447211e+18,3.120209217,-9.92423439,6.50666666
886,1.55965447217e+18,-11.75117111,-44.52392197,5.930043221
887,1.55965447223e+18,-11.16402817,-14.33843613,4.321447849
888,1.55965447229e+18,-2.7659235,-5.95852232,2.018620491
889,1.55965447235e+18,3.098852158,1.584243298,0.3176398277
890,1.55965447241e+18,2.196064472,3.063323498,1.206124783
891,1.55965447247e+18,1.995342731,1.583353996,4.05695343
892,1.55965447253e+18,-10.43744755,-6.235998631,2.899394035
893,1.55965447259e+18,-7.979709148,-12.99302483,-3.46317625
894,1.55965447265e+18,-2.615736485,-4.783994198,2.145984411
895,1.55965447271e+18,9.37561512,-6.233582497,-18.4389267
896,1.55965447277e+18,10.83233929,-10.60153866,-18.02883911
897,1.55965447283e+18,9.740816116,-7.240534782,-7.802845955
898,1.55965447289e+18,-6.263829231,-26.09921265,6.418920994
899,1.55965447295e+18,-12.81620026,-36.56745529,18.40731239
900,1.55965447301e+18,-6.72747612,-8.225862503,1.149092674
901,1.55965447307e+18,-3.834594727,-4.32738924,2.309640884
902,1.55965447313e+18,-1.274058819,-0.9406735897,1.787364006
903,1.55965447319e+18,3.370356083,-2.677203894,1.888779163
904,1.55965447325e+18,1.331643581,-4.032269478,3.845722198
905,1.55965447331e+18,-8.938900948,-6.344448566,2.328761578
906,1.55965447337e+18,-4.264076233,-1.52206707,2.528625011
907,1.55965447343e+18,0.1685473919,-5.150945663,-8.554290771
908,1.55965447349e+18,-0.1013493538,-4.628990173,-13.69680405
909,1.55965447355e+18,10.86253929,-16.30220985,-12.28880882
910,1.55965447361e+18,10.67815685,-4.454955578,-5.404282093
911,1.55965447367e+18,3.824650526,-9.204071045,12.16185665
912,1.55965447373e+18,-4.86206007,-45.56523514,12.99395084
913,1.55965447379e+18,1.139307976,-15.92561245,10.06044674
914,1.55965447385e+18,5.44106102,1.905853987,3.765787601
915,1.55965447391e+18,-1.413372993,3.253588915,3.867098093
916,1.55965447397e+18,5.807662487,-4.198450089,3.299915791
917,1.55965447403e+18,0.5751647949,-1.991882324,1.653139114
918,1.55965447409e+18,-8.912576675,-10.69670296,-6.002354622
919,1.55965447415e+18,-3.772479534,-2.355525494,-2.910710573
920,1.55965447421e+18,3.394754648,-1.69910574,3.451934814
921,1.55965447427e+18,17.47208405,-7.423346519,-25.07530403
922,1.55965447433e+18,14.30371284,-4.636789322,-19.4678421
923,1.55965447439e+18,2.997800112,-12.02872849,13.25734329
924,1.55965447445e+18,-16.5670433,-36.65470505,0.8917527199
925,1.55965447451e+18,-8.602823257,-10.61107349,6.712189674
926,1.55965447457e+18,-4.220244408,-7.225967884,4.025489807
927,1.55965447463e+18,-2.38302803,2.793619394,-0.1996359825
928,1.55965447469e+18,2.86315918,3.601157188,2.252794981
929,1.55965447475e+18,3.151305676,-2.922154903,6.537202358
930,1.55965447481e+18,-5.22628355,-0.7138371468,1.719118595
931,1.55965447487e+18,-11.53373337,-2.05328083,-4.92411375
932,1.55965447493e+18,-6.378446579,-5.346859932,-0.1983810663
933,1.55965447499e+18,-7.282176971,-7.468277454,7.598325253
934,1.55965447505e+18,6.940719604,-10.59828186,-9.484009743
935,1.55965447511e+18,14.56577396,-18.98288727,-15.1518259
936,1.55965447517e+18,9.939918518,-12.72735214,-5.289873123
937,1.55965447523e+18,-16.081213,-30.5632534,14.78273392
938,1.55965447529e+18,-24.35251617,-26.17883492,12.78928947
939,1.55965447535e+18,-12.07097721,-0.8825423717,4.18522644
940,1.55965447541e+18,-2.062281609,0.8387141228,5.959894657
941,1.55965447547e+18,-1.657645226,2.006098509,2.101381302
942,1.55965447553e+18,0.5658898354,-3.246788502,0.9814901352
943,1.55965447559e+18,-5.054779053,-6.608184338,4.272856712
944,1.55965447565e+18,-9.706446648,-9.963983536,-4.605181217
945,1.55965447571e+18,-3.133430004,-4.260105133,-9.98801899
946,1.55965447577e+18,-1.081550121,-0.8671617508,8.731422424
947,1.55965447583e+18,14.18036175,-6.117677689,-17.87792587
948,1.55965447589e+18,14.57417488,-9.813230515,-14.70423889
949,1.55965447595e+18,2.77986002,-10.66388607,3.758241177
950,1.55965447601e+18,-11.23880768,-29.97843742,3.582299232
951,1.55965447607e+18,-22.77589798,-8.562417984,-0.06244850159
952,1.55965447613e+18,-4.328232765,-2.947265625,0.4488358498
953,1.55965447619e+18,4.142437935,3.427031517,2.328912735
954,1.55965447625e+18,4.362176895,6.136012077,-1.515336514
955,1.55965447631e+18,-2.712315083,2.693863392,0.1069841385
956,1.55965447637e+18,-16.20595932,-3.087054253,2.850128174
957,1.55965447643e+18,-10.61343193,-6.757813454,-1.031459808
958,1.55965447649e+18,-6.127543449,-9.088902473,-3.071736336
959,1.55965447655e+18,-1.351098061,-7.938160896,-3.637304068
960,1.55965447661e+18,-1.893040895,-13.20069695,-7.989292145
961,1.55965447667e+18,6.436425686,-5.376596928,-10.10968018
962,1.55965447673e+18,-0.833537221,-8.56964016,-13.84270287
963,1.55965447679e+18,4.995186329,-7.27915287,-3.202608585
964,1.55965447685e+18,-5.773684502,-22.83277702,4.459526062
965,1.55965447691e+18,-20.23997879,-24.81220245,5.10990715
966,1.55965447697e+18,-4.52589941,6.089512825,2.072160244
967,1.55965447703e+18,1.949475765,5.535731792,3.409613609
968,1.55965447709e+18,0.4885334969,3.729818344,2.983014107
969,1.55965447715e+18,-10.19573975,-6.584278107,-0.2559366226
970,1.55965447721e+18,-11.70135403,-5.166893482,-4.4134202
971,1.55965447727e+18,-0.7087206841,-1.874619007,-7.707360744
972,1.55965447733e+18,-3.59442234,-9.808643341,-8.344791412
973,1.55965447739e+18,20.52454948,0.4479460716,-24.43693161
974,1.55965447745e+18,6.40140295,-12.01116943,-8.544372559
975,1.55965447751e+18,0.6173858643,-9.016956329,15.02300072
976,1.55965447757e+18,-22.13079834,-28.87109947,8.582993507
977,1.55965447763e+18,-10.53483868,-4.509427071,3.958659887
978,1.55965447769e+18,-0.4508428574,0.5387198925,3.446587086
979,1.55965447775e+18,0.5180587769,7.005008698,1.065041184
980,1.55965447781e+18,1.590323448,8.664041519,0.09140658379
981,1.55965447787e+18,-3.939770699,1.901885986,-2.2094028
982,1.55965447793e+18,-13.66315079,-8.46641922,0.3449912071
983,1.55965447799e+18,-7.829162121,-9.82142067,-3.388261318
984,1.55965447805e+18,1.377458572,-7.894334793,-6.534593105
985,1.55965447811e+18,6.809257507,-7.841192245,-5.083188534
986,1.55965447817e+18,6.947631836,-6.995506287,-11.93925858
987,1.55965447823e+18,4.910745621,-8.464230537,12.3252182
988,1.55965447829e+18,4.282083988,-6.837754726,-4.884758472
989,1.55965447835e+18,-14.34273529,-32.06148529,-3.524726391
990,1.55965447841e+18,-0.7208275795,-5.703289509,6.042084694
991,1.55965447847e+18,-2.755589008,-1.540375471,9.211616516
992,1.55965447853e+18,-2.579669952,5.111532211,4.173077583
993,1.55965447859e+18,1.020580292,5.524367332,-0.9099712372
994,1.55965447865e+18,-0.7834911346,0.9533081055,0.3531179428
995,1.55965447871e+18,-6.459820271,0.2898341417,0.2214765549
996,1.55965447877e+18,-10.63480377,-3.326454163,-5.794677258
997,1.55965447883e+18,1.413593769,-4.066152573,-10.1432457
998,1.55965447889e+18,-1.295156479,-11.04751587,-10.39070702
999,1.55965447895e+18,8.45968914,-3.037441492,-14.02016068
1000,1.55965447901e+18,10.61116123,-5.816043854,-10.17509556
1001,1.55965447907e+18,3.34141922,-7.488877773,11.1581974
1002,1.55965447913e+18,-30.3786087,-39.47924423,10.5626173
1003,1.55965447919e+18,3.947345257,-8.038402557,11.32639694
1004,1.55965447925e+18,4.259094238,2.406956434,7.83912468
1005,1.55965447931e+18,2.59952879,3.407390118,6.280394554
1006,1.55965447937e+18,3.072906971,4.959801197,2.940305233
1007,1.55965447943e+18,-6.746812344,3.387668848,0.4036846161
1008,1.55965447949e+18,-15.85255909,-6.895449638,-9.503651619
1009,1.55965447955e+18,-5.047099113,-1.911088467,-3.188280344
1010,1.55965447961e+18,0.3984479904,-2.835618973,-4.77973938
1011,1.55965447967e+18,3.576041698,-9.345808029,-17.96099472
1012,1.55965447973e+18,11.80952835,-3.989742994,-23.95064926
1013,1.55965447979e+18,8.388101578,-9.976163864,-4.425899982
1014,1.55965447985e+18,-16.75768661,-25.16221619,7.204329491
1015,1.55965447991e+18,-18.52613068,-25.81739426,9.904933929
1016,1.55965447997e+18,-3.577793598,-10.95317268,10.56555176
1017,1.55965448003e+18,-9.827675819,-3.093144894,-0.9818608761
1018,1.55965448009e+18,-2.325190544,0.5351331234,-0.1051237583
1019,1.55965448015e+18,6.265479565,1.775348902,-2.875517845
1020,1.55965448021e+18,7.198604584,-3.297158241,4.270482063
1021,1.55965448027e+18,-11.25752258,-7.362820625,-2.812687159
1022,1.55965448033e+18,-12.49307823,-11.15384102,10.89533043
1023,1.55965448039e+18,-4.864315033,-1.282114983,-8.334816933
1024,1.55965448045e+18,5.907112122,3.813843727,-12.63528156
1025,1.55965448051e+18,7.628612041,-9.573287964,-15.8227129
1026,1.55965448057e+18,7.74400425,-12.73442841,-9.349396706
1027,1.55965448063e+18,-1.026260614,-8.768613815,5.169168472
1028,1.55965448069e+18,-7.635255337,-29.68816185,-1.921409607
1029,1.55965448075e+18,-12.20930672,-27.63477516,7.428122044
1030,1.55965448081e+18,-4.523412704,-8.967067719,1.185281754
1031,1.55965448087e+18,-4.686839581,-5.323377132,-0.6491558552
1032,1.55965448093e+18,0.1339974403,0.3015813828,-1.971066236
1033,1.55965448099e+18,-2.290808678,0.5943646431,-3.232288599
1034,1.55965448105e+18,-1.277326107,-1.065772057,-1.575696707
1035,1.55965448111e+18,-8.243988991,-2.004402161,7.439245701
1036,1.55965448117e+18,-15.98475552,-7.443459988,-5.422348022
1037,1.55965448123e+18,-5.886805534,-10.14441204,-2.47058773
1038,1.55965448129e+18,-0.4958879948,-7.289050102,-4.762839794
1039,1.55965448135e+18,6.536094666,-10.80426979,-12.2626667
1040,1.55965448141e+18,4.933641434,-12.85945797,-10.05359364
1041,1.55965448147e+18,-1.668838263,-12.77354145,14.64319611
1042,1.55965448153e+18,-16.41364098,-32.64974594,5.447931767
1043,1.55965448159e+18,-21.89891815,-18.09594727,1.873544693
1044,1.55965448165e+18,-7.35212326,3.07820034,0.8037507534
1045,1.55965448171e+18,-0.1999554634,3.24062109,-1.413515568
1046,1.55965448177e+18,-1.114619255,1.106944561,2.482796192
1047,1.55965448183e+18,-4.470118046,-4.928916454,1.048331738
1048,1.55965448189e+18,-15.83720875,-9.371184349,-1.518327475
1049,1.55965448195e+18,-14.50670719,-8.530917168,-0.4967126846
1050,1.55965448201e+18,-3.012953758,-3.905014038,4.44217062
1051,1.55965448207e+18,10.6147604,-6.450230598,-29.95082855
1052,1.55965448213e+18,5.246534348,-11.02067184,-14.41247749
1053,1.55965448219e+18,-8.277873993,-15.54824829,-3.698846817
1054,1.55965448225e+18,-5.119865417,-19.82305908,7.722542286
1055,1.55965448231e+18,-18.99533844,-34.11865234,18.09970665
1056,1.55965448237e+18,-10.30681992,-0.1803750992,-3.603265524
1057,1.55965448243e+18,-4.748237133,-5.406384945,0.02466058731
1058,1.55965448249e+18,3.334118366,-2.75184679,-0.6133565903
1059,1.55965448255e+18,2.440063,-4.433527946,-2.491512299
1060,1.55965448261e+18,-3.122519255,-6.647679329,-0.4611644745
1061,1.55965448267e+18,-8.996275902,-4.119456291,-0.3064928055
1062,1.55965448273e+18,-8.294864655,-0.5899710655,0.7217445374
1063,1.55965448279e+18,-9.360358238,-1.070447445,2.029209614
1064,1.55965448285e+18,11.01590729,-2.472654343,-16.22540283
1065,1.55965448291e+18,3.759186745,-8.133325577,-17.89261818
1066,1.55965448297e+18,-0.5366818905,-11.03744125,0.9806680679
1067,1.55965448303e+18,-2.550890207,-25.80870819,5.13694191
1068,1.55965448309e+18,-12.55931854,-23.00917625,3.538276196
1069,1.55965448315e+18,-12.79837418,-9.070415497,0.330783844
1070,1.55965448321e+18,-3.147258282,-4.222276688,2.775106907
1071,1.55965448327e+18,0.06290054321,-0.1899466515,-0.9770386219
1072,1.55965448333e+18,4.586472511,-0.7734851837,-0.770014286
1073,1.55965448339e+18,1.115416527,1.773354053,0.9568805695
1074,1.55965448345e+18,-9.221523285,-4.434149265,-4.491306305
1075,1.55965448351e+18,-14.91122055,-8.249108315,-0.8935091496
1076,1.55965448357e+18,-5.936372757,-6.401992321,4.378304958
1077,1.55965448363e+18,-0.5382788181,-3.875054836,1.277003288
1078,1.55965448369e+18,11.12343121,-9.178215027,-22.27781868
1079,1.55965448375e+18,9.106057167,-11.67202473,-18.11928749
1080,1.55965448381e+18,0.9470925927,-7.885209084,1.294572353
1081,1.55965448387e+18,-8.380321503,-41.23838806,-1.081398964
1082,1.55965448393e+18,-9.831336021,-30.47627068,7.944483757
1083,1.55965448399e+18,-6.168571472,-3.112460852,-2.341488838
1084,1.55965448405e+18,0.1792178154,1.010251522,-3.777789354
1085,1.55965448411e+18,4.628186703,-0.04668998718,-0.3125014305
1086,1.55965448417e+18,4.439870358,-1.939604521,2.554813385
1087,1.55965448423e+18,-11.98033619,-7.513428211,-0.5320682526
1088,1.55965448429e+18,-14.7169838,-3.399505615,-4.521493912
1089,1.55965448435e+18,-0.09420669079,5.315401077,-0.9205203056
1090,1.55965448441e+18,11.40119648,-4.954459667,-24.01569176
1091,1.55965448447e+18,0.645375073,-10.73293972,-8.38465786
1092,1.55965448453e+18,0.266073525,-7.723669052,2.028292656
1093,1.55965448459e+18,-16.44389534,-37.58699036,-0.1737656593
1094,1.55965448465e+18,-14.23170471,-11.85762501,1.179263592
1095,1.55965448471e+18,-5.851032734,-12.10680294,1.237910748
1096,1.55965448477e+18,-0.5393033028,-2.915307522,-2.138745546
1097,1.55965448483e+18,3.007155895,0.3017909527,-3.529607773
1098,1.55965448489e+18,3.66593504,-0.4716000557,-0.9182004929
1099,1.55965448495e+18,-9.923602104,-1.539497852,-1.09533
1100,1.55965448501e+18,-12.6582098,-9.213127136,-2.253701925
1101,1.55965448507e+18,-6.765005112,-6.522451401,-0.567088604
1102,1.55965448513e+18,1.915377617,-12.24244404,-7.888221264
1103,1.55965448519e+18,11.10137177,-0.4969143867,-8.831852913
1104,1.55965448525e+18,9.035427094,-6.621331692,-18.32906723
1105,1.55965448531e+18,-2.451911688,-8.849414825,3.43274498
1106,1.55965448537e+18,-3.045498371,-43.4123764,4.558534622
1107,1.55965448543e+18,-6.974410057,-20.27331924,5.065363884
1108,1.55965448549e+18,-4.525717258,-5.946092606,-1.128089905
1109,1.55965448555e+18,-0.1326522827,-0.3648853302,0.8066773415
1110,1.55965448561e+18,1.972856522,1.575524092,-4.258208275
1111,1.55965448567e+18,0.1276116371,-4.866738319,-4.706886292
1112,1.55965448573e+18,-3.771427155,-8.906322479,-4.129041195
1113,1.55965448579e+18,-4.207739353,-7.756365776,-4.930551529
1114,1.55965448585e+18,-4.067263603,10.87365913,0.04045295715
1115,1.55965448591e+18,16.66773033,7.973021984,-19.16575623
1116,1.55965448597e+18,9.163894653,-1.224556446,-9.613100052
1117,1.55965448603e+18,-5.610407352,-27.68836021,-0.6355667114
1118,1.55965448609e+18,-0.6751255989,-21.37977982,1.531417847
1119,1.55965448615e+18,0.7998948097,-10.27470684,3.437010765
1120,1.55965448621e+18,-3.483222485,-7.674453735,5.740406036
1121,1.55965448627e+18,-4.882257938,-2.028357506,-0.2696995735
1122,1.55965448633e+18,0.8077864647,-1.280822515,-4.245819569
1123,1.55965448639e+18,5.027609348,0.6272718906,-1.361813068
1124,1.55965448645e+18,3.045829296,-2.232105732,-0.7708616257
1125,1.55965448651e+18,2.335591793,-4.634333611,-1.555556774
1126,1.55965448657e+18,-6.742345333,-10.90886497,-4.883510113
1127,1.55965448663e+18,6.676681519,11.36188507,-12.60782146
1128,1.55965448669e+18,9.865139008,-5.789558411,-6.431483746
1129,1.55965448675e+18,3.550738573,-20.54831314,1.495809555
1130,1.55965448681e+18,2.96832633,-8.829433441,1.108561039
1131,1.55965448687e+18,1.409224987,-13.25618362,6.699150085
1132,1.55965448693e+18,-5.023612976,-10.44828129,6.627023697
1133,1.55965448699e+18,-4.379405022,-2.88822031,3.18750906
1134,1.55965448705e+18,0.990799427,4.906865597,-2.290845156
1135,1.55965448711e+18,7.273343086,3.742633343,1.914118767
1136,1.55965448717e+18,3.846700668,-6.1557827,1.828132153
1137,1.55965448723e+18,-0.4784426689,-9.662084579,-3.916466475
1138,1.55965448729e+18,-9.610139847,-8.004217148,-4.515212059
1139,1.55965448735e+18,3.622503996,6.058027744,-6.025720119
1140,1.55965448741e+18,7.197805405,0.1133871078,-12.66759586
1141,1.55965448747e+18,8.906944275,-3.792303085,-12.27529716
1142,1.55965448753e+18,4.526716232,-4.942627907,-0.7236385345
1143,1.55965448759e+18,-0.07599401474,-28.55504227,7.110787868
1144,1.55965448765e+18,-1.222630501,-19.51690865,-0.8880476952
1145,1.55965448771e+18,-6.822332382,-13.03158379,-1.440888166
1146,1.55965448777e+18,-6.011832237,-10.13324547,3.416495323
1147,1.55965448783e+18,3.58759594,0.4377940893,-5.651556015
1148,1.55965448789e+18,7.48669529,2.992685318,-7.933454037
1149,1.55965448795e+18,4.729878426,-8.633876801,-8.495461464
1150,1.55965448801e+18,-8.721541405,-5.945884705,0.181417942
1151,1.55965448807e+18,6.284917355,-2.99784112,-21.78961372
1152,1.55965448813e+18,5.808242798,5.370112419,-17.74330521
1153,1.55965448819e+18,1.00360024,-6.600596428,-19.94193459
1154,1.55965448825e+18,0.1377191842,-15.16510201,-4.758126259
1155,1.55965448831e+18,1.511713028,-41.46172333,15.61183071
1156,1.55965448837e+18,-2.214780331,-6.812181473,-6.830881119
1157,1.55965448843e+18,-7.39559412,-20.88857269,-9.181137085
1158,1.55965448849e+18,-8.875024796,-16.73175049,-0.1151704788
1159,1.55965448855e+18,-4.36004591,-1.836834908,-3.064896584
1160,1.55965448861e+18,1.58054781,7.517030239,-0.7801685333
1161,1.55965448867e+18,11.68935871,-0.7246413231,-9.730343819
1162,1.55965448873e+18,-1.653894901,-7.043101311,-8.012840271
1163,1.55965448879e+18,-5.804429054,-3.187186718,-14.32028484
1164,1.55965448885e+18,-4.933006763,0.4033594131,4.654090881
1165,1.55965448891e+18,2.402415037,-1.49649334,-5.707406044
1166,1.55965448897e+18,5.102515697,0.1071779728,-11.57771015
1167,1.55965448903e+18,4.470732689,-10.06707001,-8.762763023
1168,1.55965448909e+18,-13.86690044,-35.83072662,10.23249912
1169,1.55965448915e+18,-1.467284203,-0.5387997627,-7.763680935
1170,1.55965448921e+18,-7.321094513,-11.10391426,4.232983112
1171,1.55965448927e+18,-14.17873383,-9.445353508,-1.007660389
1172,1.55965448933e+18,-7.01695776,-3.053774357,-5.44357872
1173,1.55965448939e+18,-0.4762325287,0.5726076365,-7.094644547
1174,1.55965448945e+18,5.987573624,1.862972021,-11.62164021
1175,1.55965448951e+18,5.47878027,-3.399985075,-6.767140388
1176,1.55965448957e+18,-0.7331337929,-4.648055077,-3.302151203
1177,1.55965448963e+18,-6.11374712,-12.1105051,9.787951469
1178,1.55965448969e+18,6.432823181,3.32578969,-28.93556213
1179,1.55965448975e+18,0.8519129753,-2.996729374,-5.631279945
1180,1.55965448981e+18,-11.12752914,-23.85298157,-8.312765121
1181,1.55965448987e+18,3.033983946,-7.952410698,1.574791908
1182,1.55965448993e+18,2.82191205,-0.6547875404,8.267929077
1183,1.55965448999e+18,-4.91456604,-12.20158005,-0.1751384735
1184,1.55965449005e+18,-15.94119835,-6.063020229,-1.461392403
1185,1.55965449011e+18,-12.6612339,-5.389404297,-1.694014549
1186,1.55965449017e+18,2.427587748,2.007453203,-1.845485687
1187,1.55965449023e+18,10.88691998,2.68016243,-10.5190897
1188,1.55965449029e+18,2.254914761,-4.036477089,-6.618403435
1189,1.55965449035e+18,-8.672616959,-2.461850643,-14.37707615
1190,1.55965449041e+18,0.5799646378,-5.002775669,8.060839653
1191,1.55965449047e+18,3.581812382,10.16503334,-24.44387054
1192,1.55965449053e+18,2.727563858,-3.79620719,-8.733586311
1193,1.55965449059e+18,6.627782345,-1.906270504,-7.002447128
1194,1.55965449065e+18,3.529101372,-12.71908855,4.360527039
1195,1.55965449071e+18,-3.67218399,-24.31518555,8.061491013
1196,1.55965449077e+18,-4.797510147,-9.969518661,-0.09692239761
1197,1.55965449083e+18,-3.547282696,-11.63858509,1.75378561
1198,1.55965449089e+18,-8.658466339,-6.431016445,3.991402149
1199,1.55965449095e+18,-4.893062592,-0.4959450662,0.06738805771
1200,1.55965449101e+18,1.408214092,0.7897605896,-0.6366829872
1201,1.55965449107e+18,3.2202847,-2.749557018,-3.40141964
1202,1.55965449113e+18,-4.501070023,-6.553792953,-5.88475275
1203,1.55965449119e+18,-2.283902884,-4.52776432,-5.201303482
1204,1.55965449125e+18,-1.782310724,-1.303064346,-9.062469482
1205,1.55965449131e+18,14.37619305,0.5212903023,-12.88855743
1206,1.55965449137e+18,8.905125618,-3.782872677,-16.07522583
1207,1.55965449143e+18,0.5217213631,-5.753371716,-3.540405273
1208,1.55965449149e+18,-2.866972923,-18.14686966,-4.427117348
1209,1.55965449155e+18,-7.175525665,-27.32569504,13.33659744
1210,1.55965449161e+18,-8.433612823,-17.52760124,5.427988052
1211,1.55965449167e+18,-8.908754349,-8.541693687,3.904239178
1212,1.55965449173e+18,-4.605583191,0.3011475801,-3.971179008
1213,1.55965449179e+18,4.775608063,3.060542583,-1.304516554
1214,1.55965449185e+18,8.14306736,-5.426103592,-8.24886322
1215,1.55965449191e+18,1.239828467,-9.02736187,-2.470426083
1216,1.55965449197e+18,-3.767359972,6.998518467,-2.489618301
1217,1.55965449203e+18,-7.211728096,-0.7666697502,2.874295712
1218,1.55965449209e+18,0.5702285767,-3.456614017,-8.230974197
1219,1.55965449215e+18,13.12031746,-3.265031338,-20.45018578
1220,1.55965449221e+18,6.044868469,-14.84767151,-13.33532715
1221,1.55965449227e+18,5.776597977,-13.71397114,4.712482452
1222,1.55965449233e+18,-3.294626236,-28.3762188,-1.696118832
1223,1.55965449239e+18,-31.87150574,-30.01156998,3.08625555
1224,1.55965449245e+18,-12.14012051,-5.661436558,2.200427294
1225,1.55965449251e+18,-0.8545703888,-0.3636801243,2.927597761
1226,1.55965449257e+18,2.403204441,2.486577272,-1.413527369
1227,1.55965449263e+18,3.270647049,4.568352222,-1.125769258
1228,1.55965449269e+18,-0.8855257034,0.4303555489,2.005683661
1229,1.55965449275e+18,-11.71912956,-5.777770042,6.234654427
1230,1.55965449281e+18,-13.46648598,-9.013233185,2.511442661
1231,1.55965449287e+18,-1.903285146,-1.314238548,-0.322270155
1232,1.55965449293e+18,0.2907485962,-10.98132133,9.150537491
1233,1.55965449299e+18,13.01860237,-16.6074276,-19.49706459
1234,1.55965449305e+18,12.02392864,-14.74911499,-17.53561211
1235,1.55965449311e+18,0.4838881493,-16.73587418,12.9913826
1236,1.55965449317e+18,-21.88206863,-48.55674362,10.17916584
1237,1.55965449323e+18,-5.796075821,-6.000862122,6.462324619
1238,1.55965449329e+18,-7.881827354,-3.614431381,3.47925806
1239,1.55965449335e+18,-2.512651443,3.278891087,1.575843573
1240,1.55965449341e+18,1.332234383,3.146343708,3.846511841
1241,1.55965449347e+18,-1.587011814,-4.201673031,1.670501709
1242,1.55965449353e+18,-4.122015476,-6.087580681,0.29078722
1243,1.55965449359e+18,-2.866142273,-1.665386677,1.753252983
1244,1.55965449365e+18,-7.695173264,-2.003693581,-9.14589119
1245,1.55965449371e+18,11.68035603,-5.88539505,-26.91631699
1246,1.55965449377e+18,6.350727081,-15.97557163,-27.00131989
1247,1.55965449383e+18,11.81526756,-8.426864624,-2.830487251
1248,1.55965449389e+18,-7.25301218,-43.07186508,4.160353661
1249,1.55965449395e+18,-9.176746368,-29.9380722,12.97732925
1250,1.55965449401e+18,-4.107104301,-4.24753952,0.3990006447
1251,1.55965449407e+18,-1.831149101,4.972912788,0.1786994934
1252,1.55965449413e+18,4.853935242,4.814818859,3.247743607
1253,1.55965449419e+18,6.54349184,1.260617375,6.134485722
1254,1.55965449425e+18,-0.7163009644,-2.06449008,4.825927734
1255,1.55965449431e+18,-10.34081936,-6.362637997,-2.353526831
1256,1.55965449437e+18,-9.450511932,-2.247577667,-5.615888596
1257,1.55965449443e+18,-1.723254919,-6.437871933,1.741733551
1258,1.55965449449e+18,7.145108223,-9.256875992,-20.17456436
1259,1.55965449455e+18,13.4433527,-14.47158813,-12.6376133
1260,1.55965449461e+18,3.129960537,-11.57562828,-4.246362686
1261,1.55965449467e+18,-2.627260685,-21.19937134,13.93858528
1262,1.55965449473e+18,-18.95735359,-26.88123512,9.465719223
1263,1.55965449479e+18,-7.014235497,2.099171162,2.022404194
1264,1.55965449485e+18,-1.951864243,2.419370174,1.102671623
1265,1.55965449491e+18,-2.495806694,6.180430889,1.709443092
1266,1.55965449497e+18,1.433439732,-0.8960243464,0.2346992493
1267,1.55965449503e+18,-6.112642288,-3.906520605,6.013476849
1268,1.55965449509e+18,-8.661289215,-8.74101162,-0.02201795578
1269,1.55965449515e+18,-16.79130745,-5.701158524,-0.933621645
1270,1.55965449521e+18,6.635917664,-5.129333496,-24.94859886
1271,1.55965449527e+18,14.47975445,-11.132267,-17.12574005
1272,1.55965449533e+18,4.853506088,-5.673602104,-3.881923914
1273,1.55965449539e+18,6.052121162,-18.01443291,4.340538025
1274,1.55965449545e+18,-8.117324829,-29.56914902,14.77709961
1275,1.55965449551e+18,-2.453487873,-11.6818819,5.739097595
1276,1.55965449557e+18,-3.44416523,-2.625894547,2.139238358
1277,1.55965449563e+18,-0.9828176498,4.022852898,0.003123283386
1278,1.55965449569e+18,5.242226601,1.057896852,4.581197739
1279,1.55965449575e+18,-3.063979149,-0.8193788528,1.668409824
1280,1.55965449581e+18,-10.8713789,-6.748307228,-2.025199413
1281,1.55965449587e+18,-4.566635609,-5.628781796,-0.02650022507
1282,1.55965449593e+18,4.155549526,-7.885363579,-12.16577911
1283,1.55965449599e+18,-5.317921638,-7.308400631,-1.357972622
1284,1.55965449605e+18,5.598884106,-14.38929939,-14.20115662
1285,1.55965449611e+18,5.344024658,-11.81288433,-9.246711731
1286,1.55965449617e+18,-12.80257225,-32.78284073,-0.4791989326
1287,1.55965449623e+18,-23.58000183,-5.492950439,-4.7767663
1288,1.55965449629e+18,-8.175712585,-2.957494736,1.355572939
1289,1.55965449635e+18,-3.36318779,3.968153477,1.504911184
1290,1.55965449641e+18,1.064078808,4.698698997,-2.193151236
1291,1.55965449647e+18,3.470478058,0.9698652029,2.37496376
1292,1.55965449653e+18,-5.568633556,-3.799253702,-0.02065896988
1293,1.55965449659e+18,-15.36776447,-5.602861404,-7.266737938
1294,1.55965449665e+18,-8.045677185,-5.943968773,3.604622364
1295,1.55965449671e+18,9.841667175,-5.655434608,-23.13670158
1296,1.55965449677e+18,14.83221149,-13.49849224,-18.8854599
1297,1.55965449683e+18,9.627206802,-7.272816181,-12.03008461
1298,1.55965449689e+18,-13.91444111,-30.8132534,2.030978203
1299,1.55965449695e+18,-15.7938118,-21.44651413,14.59500599
1300,1.55965449701e+18,-8.140324593,-5.330378532,5.660868168
1301,1.55965449707e+18,-7.153274536,0.631729722,2.537639141
1302,1.55965449713e+18,-2.555757999,4.640951633,-0.06120586395
1303,1.55965449719e+18,3.128469944,1.981544256,0.7977986336
1304,1.55965449725e+18,6.065488338,1.025254488,3.025846004
1305,1.55965449731e+18,0.1267175674,-1.558691025,3.440635681
1306,1.55965449737e+18,-17.14147186,-6.569248676,-10.17672634
1307,1.55965449743e+18,-2.890960693,-4.879425526,-10.33289719
1308,1.55965449749e+18,2.772080898,-6.109377384,-13.70736885
1309,1.55965449755e+18,14.77644539,-7.977515221,-25.34998894
1310,1.55965449761e+18,12.93796158,-8.694476128,-5.663107872
1311,1.55965449767e+18,3.648788214,-24.89487648,-0.401181221
1312,1.55965449773e+18,-16.07253075,-28.20799446,3.885516644
1313,1.55965449779e+18,-2.665420532,-3.680393696,8.662179947
1314,1.55965449785e+18,-6.0780406,2.649817705,1.77674818
1315,1.55965449791e+18,-3.869566917,7.619305134,0.6385960579
1316,1.55965449797e+18,3.63864851,5.136970997,0.9308547974
1317,1.55965449803e+18,-3.478792667,0.5648748875,-2.651623487
1318,1.55965449809e+18,-8.993060112,-9.457111359,-8.377819061
1319,1.55965449815e+18,-1.348712444,-1.881932259,-11.20422935
1320,1.55965449821e+18,7.237166405,3.344584942,3.674595833
1321,1.55965449827e+18,15.83441353,-5.711794853,-19.88710785
1322,1.55965449833e+18,12.12848759,-2.03135705,-19.82503319
1323,1.55965449839e+18,2.422455311,-3.65130806,-5.233142853
1324,1.55965449845e+18,-16.71839523,-42.18667984,-1.808356762
1325,1.55965449851e+18,-14.42397404,-28.21157646,5.965648651
1326,1.55965449857e+18,0.04252624512,-4.348909855,3.06169796
1327,1.55965449863e+18,-4.001556873,5.598043442,-1.667992592
1328,1.55965449869e+18,-1.10175848,2.785019398,-2.631129742
1329,1.55965449875e+18,6.206412315,-2.074099064,2.223556519
1330,1.55965449881e+18,6.868159294,2.829956055,6.838615417
1331,1.55965449887e+18,-9.086489677,-10.91165924,-4.080504417
1332,1.55965449893e+18,-21.73064804,-9.702362061,11.09837246
1333,1.55965449899e+18,0.05728888512,-5.458051682,-15.70937157
1334,1.55965449905e+18,11.8167038,-5.839054108,-12.26532745
1335,1.55965449911e+18,7.228569984,-12.74167347,-14.15400028
1336,1.55965449917e+18,1.885626316,-12.28840065,9.428303719
1337,1.55965449923e+18,-14.06948853,-22.79083824,-5.818856239
1338,1.55965449929e+18,-18.1872673,-17.24811745,11.57549286
1339,1.55965449935e+18,-2.095441818,-2.923300266,7.582456589
1340,1.55965449941e+18,-3.131361008,2.120574474,1.770103455
1341,1.55965449947e+18,3.292536736,7.119809628,1.797021627
1342,1.55965449953e+18,-1.431541443,5.12651825,0.6154303551
1343,1.55965449959e+18,-18.00744438,-1.294668198,-4.670090199
1344,1.55965449965e+18,-12.85689354,-7.780739307,-4.900988102
1345,1.55965449971e+18,-7.365703583,-5.969620705,-5.982391357
1346,1.55965449977e+18,-1.219563723,-7.072668076,-9.539123535
1347,1.55965449983e+18,-2.36893177,-16.35154343,-6.029510498
1348,1.55965449989e+18,4.101853848,-5.350012779,-22.46566772
1349,1.55965449995e+18,5.56333971,-12.70040894,-7.213291168
1350,1.55965450001e+18,-0.8347774744,-8.87720871,1.083906651
1351,1.55965450007e+18,-13.64147186,-19.44821358,5.270429611
1352,1.55965450013e+18,-16.74537659,-15.44052219,13.55954552
1353,1.55965450019e+18,-5.977535248,0.873192668,6.575751305
1354,1.55965450025e+18,-1.414917946,5.989692211,5.081796646
1355,1.55965450031e+18,-5.070226669,5.913047791,6.101335049
1356,1.55965450037e+18,-13.83202171,0.7201678753,-3.062995911
1357,1.55965450043e+18,-15.99656487,-7.297214508,-0.8204593658
1358,1.55965450049e+18,-12.19008255,-11.24436855,-10.60355949
1359,1.55965450055e+18,-3.621800423,-6.855688095,9.438692093
1360,1.55965450061e+18,9.322025299,-4.358792782,-25.28102684
1361,1.55965450067e+18,10.63648224,-2.564849854,-9.291172028
1362,1.55965450073e+18,-6.95194006,-7.581779003,-4.657532215
1363,1.55965450079e+18,-8.48957634,-10.77524185,1.494013786
1364,1.55965450085e+18,-27.14553261,-15.6028223,9.300880432
1365,1.55965450091e+18,-6.697031021,1.040996552,-3.362554073
1366,1.55965450097e+18,2.659919739,5.570746899,-4.706950188
1367,1.55965450103e+18,2.216384888,4.316054821,-0.7310218811
1368,1.55965450109e+18,-8.444511414,2.365742922,-5.404582977
1369,1.55965450115e+18,-17.22757912,-2.390725851,-2.547347069
1370,1.55965450121e+18,-14.59266281,-6.519480705,-1.39631319
1371,1.55965450127e+18,-6.637561321,0.2926983833,-4.652750969
1372,1.55965450133e+18,2.239691496,2.468625546,-19.9402523
1373,1.55965450139e+18,10.02430916,-2.469200134,-24.79167366
1374,1.55965450145e+18,1.553703308,2.153163433,-18.15318298
1375,1.55965450151e+18,-10.51063061,-8.791909218,13.79426956
1376,1.55965450157e+18,-14.09194565,-25.35846138,-4.155456543
1377,1.55965450163e+18,-21.775774,-9.103553772,-2.019874096
1378,1.55965450169e+18,-3.572611809,2.047660112,-1.657821178
1379,1.55965450175e+18,2.09692955,4.305933952,-6.68635273
1380,1.55965450181e+18,0.1830606461,4.66404438,-4.367209911
1381,1.55965450187e+18,-12.36088848,-0.05331850052,0.2493038177
1382,1.55965450193e+18,-16.24604607,-7.324892998,6.199647903
1383,1.55965450199e+18,-12.07800484,-5.87643671,-8.807508469
1384,1.55965450205e+18,-4.009377956,-3.854394913,-11.89883327
1385,1.55965450211e+18,-1.113879085,-11.92990303,-7.645175457
1386,1.55965450217e+18,7.829847813,-2.151221991,-20.19386673
1387,1.55965450223e+18,9.549704552,-0.3249359131,-18.33921814
1388,1.55965450229e+18,-6.925341606,-7.125770092,9.989323616
1389,1.55965450235e+18,-17.22756386,-41.70605469,0.6102266312
1390,1.55965450241e+18,-6.659482002,-20.88578606,0.3085727692
1391,1.55965450247e+18,4.348731995,5.240625858,-3.481568336
1392,1.55965450253e+18,-3.077903271,4.856053829,-3.695670128
1393,1.55965450259e+18,2.500758648,0.203761816,0.6867303848
1394,1.55965450265e+18,-4.477910995,-6.145012856,7.660891533
1395,1.55965450271e+18,-14.90526772,-7.412570953,-8.169484138
1396,1.55965450277e+18,-6.635721207,-8.327992439,-3.67398572
1397,1.55965450283e+18,6.163435936,-4.690032482,-14.79910088
1398,1.55965450289e+18,15.57772064,-4.806430817,-18.23212814
1399,1.55965450295e+18,7.993898869,-6.040719509,-12.14584637
1400,1.55965450301e+18,-5.164421558,-12.96109867,12.56565857
1401,1.55965450307e+18,-17.9251709,-45.61116409,7.203586578
1402,1.55965450313e+18,-9.510292053,-14.09815025,0.3970894814
1403,1.55965450319e+18,-4.871962547,-6.649818897,-4.674728394
1404,1.55965450325e+18,1.464206696,-0.5050179958,-2.023156643
1405,1.55965450331e+18,2.822518349,-0.09583282471,-0.7025170326
1406,1.55965450337e+18,-0.2140552998,-1.803010464,4.457336426
1407,1.55965450343e+18,-12.49501419,-7.707240105,4.894271851
1408,1.55965450349e+18,-14.3973465,-7.393963814,0.4176683426
1409,1.55965450355e+18,-15.80425739,-5.135468483,-3.606449127
1410,1.55965450361e+18,-0.6048542261,-1.899184227,-14.60172462
1411,1.55965450367e+18,8.591362,-14.17513084,-20.44063377
1412,1.55965450373e+18,10.45509815,-0.7741861343,-10.62860298
1413,1.55965450379e+18,-8.146728516,-12.83281898,17.37490463
1414,1.55965450385e+18,-27.66489029,-49.8506279,8.919934273
1415,1.55965450391e+18,0.1223311424,-11.46976471,2.803437233
1416,1.55965450397e+18,-2.044570923,0.004725456238,-1.397554398
1417,1.55965450403e+18,1.405458927,0.7529430389,-0.4650478363
1418,1.55965450409e+18,2.077219486,-2.741583109,-0.5547027588
1419,1.55965450415e+18,-9.00235939,-2.476009846,-6.747755527
1420,1.55965450421e+18,-9.72141552,-11.38882637,-9.082250595
1421,1.55965450427e+18,-7.258677483,-8.391516685,-5.454983711
1422,1.55965450433e+18,0.5368068218,1.587767601,-4.726932049
1423,1.55965450439e+18,14.64764595,-7.043763161,-10.69855309
1424,1.55965450445e+18,14.78657532,-7.083611488,-8.090342522
1425,1.55965450451e+18,-2.786041737,-12.76432323,14.17219543
1426,1.55965450457e+18,-12.77502632,-31.8803215,2.536985874
1427,1.55965450463e+18,-17.48783684,-13.03209496,-6.040367126
1428,1.55965450469e+18,-5.578186512,-7.289766788,-2.562620401
1429,1.55965450475e+18,0.5092639923,-0.8893840313,0.9756278992
1430,1.55965450481e+18,2.466113567,5.993481636,-0.07230138779
1431,1.55965450487e+18,2.013776541,0.718972683,2.705938339
1432,1.55965450493e+18,-8.111831665,-5.305915833,1.033762455
1433,1.55965450499e+18,-13.09298992,-10.84149742,-1.671404839
1434,1.55965450505e+18,-10.90052605,-9.994045258,-2.064029455
1435,1.55965450511e+18,2.072593451,-7.530502796,-11.86931038
1436,1.55965450517e+18,1.49211216,-6.149915695,-9.605051041
1437,1.55965450523e+18,17.49146843,-0.8308501244,-24.58999825
1438,1.55965450529e+18,7.814659119,-6.797639847,-1.83056879
1439,1.55965450535e+18,-19.46582413,-61.43219757,-4.45561409
1440,1.55965450541e+18,-8.17337513,-21.03385925,0.9206514359
1441,1.55965450547e+18,1.79995501,-2.763710022,1.744820595
1442,1.55965450553e+18,-2.170189381,-0.860676527,-3.015378475
1443,1.55965450559e+18,2.806174517,2.855302095,-3.895799875
1444,1.55965450565e+18,-0.6739792824,1.114811897,-0.516515255
1445,1.55965450571e+18,-7.942827225,-7.912534714,-3.825018406
1446,1.55965450577e+18,-8.95925808,-3.363985062,6.334985256
1447,1.55965450583e+18,8.794445038,-3.5294981,-25.55651474
1448,1.55965450589e+18,15.47380066,1.259532452,-16.03773117
1449,1.55965450595e+18,5.535357475,-9.531181335,-1.075828075
1450,1.55965450601e+18,-9.347492218,-32.99480057,2.05820322
1451,1.55965450607e+18,1.031198025,-20.79372025,4.371612549
1452,1.55965450613e+18,-5.747921944,-16.7882328,1.653026581
1453,1.55965450619e+18,-8.099103928,-6.668728352,-1.832145214
1454,1.55965450625e+18,-1.73596096,2.325354099,-3.186047316
1455,1.55965450631e+18,3.771259308,3.897163391,-3.113096952
1456,1.55965450637e+18,3.424999714,-0.04853057861,-4.831625462
1457,1.55965450643e+18,-8.014042854,-9.812952995,0.6104335785
1458,1.55965450649e+18,-6.994596481,-8.801289558,-3.485863447
1459,1.55965450655e+18,1.289555311,-3.027658463,-1.767015934
1460,1.55965450661e+18,9.238321304,2.894955635,-11.72258759
1461,1.55965450667e+18,-1.582562208,-7.851855278,-7.943745136
1462,1.55965450673e+18,4.439722061,-9.552434921,-6.901342869
1463,1.55965450679e+18,-1.898376226,-28.9287529,11.19792652
1464,1.55965450685e+18,-7.091782093,-17.70256042,3.486004829
1465,1.55965450691e+18,-5.294701576,-8.461672783,2.716948986
1466,1.55965450697e+18,-0.5696310997,2.23029542,-3.223064184
1467,1.55965450703e+18,3.350800514,3.903800249,-1.892838478
1468,1.55965450709e+18,4.82139492,-1.263586044,-2.996095896
1469,1.55965450715e+18,0.4032568932,-8.547661781,-5.431743622
1470,1.55965450721e+18,-1.583138943,-0.9204316139,-7.929870605
1471,1.55965450727e+18,1.542204857,3.742728233,-8.117542267
1472,1.55965450733e+18,7.26531601,-2.089199781,0.8533406258
1473,1.55965450739e+18,11.69537735,0.9094264507,-12.3711071
1474,1.55965450745e+18,10.03769302,-0.05579990149,-15.63458729
1475,1.55965450751e+18,7.782325268,-4.348290443,-1.003144264
1476,1.55965450757e+18,-6.175835609,-50.41176224,4.307881832
1477,1.55965450763e+18,-3.330975056,-19.02297211,-2.645598888
1478,1.55965450769e+18,-0.7721567154,-5.553762436,-0.5640573502
1479,1.55965450775e+18,3.977107286,1.025423408,-2.816719532
1480,1.55965450781e+18,4.502952576,7.080246449,-5.208586693
1481,1.55965450787e+18,5.666919231,1.751365423,-3.009894609
1482,1.55965450793e+18,-0.4350485802,-6.735754013,-1.822906971
1483,1.55965450799e+18,-24.74819946,-16.90363693,8.22248745
1484,1.55965450805e+18,14.89484501,4.656695843,-11.96568298
1485,1.55965450811e+18,13.66162682,7.674177647,-18.35472488
1486,1.55965450817e+18,-0.4368634224,-4.631854534,-1.376169682
1487,1.55965450823e+18,-3.005386829,-38.22984314,2.555647373
1488,1.55965450829e+18,1.636562347,-14.02568626,-0.4680738449
1489,1.55965450835e+18,6.276623249,-21.63353348,-5.479335785
1490,1.55965450841e+18,2.879974604,-14.31516171,2.296070099
1491,1.55965450847e+18,0.78860569,-5.960254669,0.1523137093
1492,1.55965450853e+18,-4.412151814,12.47237778,-4.398682117
1493,1.55965450859e+18,2.759120941,2.471376419,-5.819688797
1494,1.55965450865e+18,1.662299871,-4.992522717,-5.102155685
1495,1.55965450871e+18,-1.10074091,-6.209191799,-4.024291039
1496,1.55965450877e+18,-4.17216444,-9.146757126,-7.102192879
1497,1.55965450883e+18,6.370088577,-4.817343235,-9.652784348
1498,1.55965450889e+18,-2.300851345,4.174842834,-0.8294863701
1499,1.55965450895e+18,-4.340194702,-6.681128502,-13.43585587
1500,1.55965450901e+18,0.755634129,-16.48171806,-0.3843698502
1501,1.55965450907e+18,-3.050230503,-19.39413071,1.117887974
1502,1.55965450913e+18,-5.845179558,-18.25569916,-0.721218586
1503,1.55965450919e+18,-6.669005871,-9.444384575,-1.929222584
1504,1.55965450925e+18,-3.804572582,3.258329868,-0.9205331802
1505,1.55965450931e+18,3.526182175,9.706450462,-2.117922783
1506,1.55965450937e+18,4.65266943,4.257572174,-3.856357098
1507,1.55965450943e+18,-12.4021883,-9.494995117,-10.52685547
1508,1.55965450949e+18,-10.05298996,-17.53310394,16.19050407
1509,1.55965450955e+18,1.148750544,-0.1799054146,-11.78686714
1510,1.55965450961e+18,17.05181694,4.659979343,-9.96650219
1511,1.55965450967e+18,-4.254190445,-6.403811455,-10.53285885
1512,1.55965450972e+18,-5.315694332,-7.96233511,-11.929142
1513,1.55965450978e+18,-5.477193356,-20.55813789,6.522774696
1514,1.55965450984e+18,-6.403553009,-22.45178223,7.659195423
1515,1.5596545099e+18,-10.8883419,-9.555653572,2.220824718
1516,1.55965450996e+18,-10.51419067,1.062366247,4.190153122
1517,1.55965451002e+18,-0.9192686081,2.804053068,-5.579051018
1518,1.55965451008e+18,5.201901913,3.894330978,-3.774067879
1519,1.55965451014e+18,4.709480286,-0.1970087588,-5.075976849
1520,1.5596545102e+18,-3.543303967,2.200109482,-2.857125282
1521,1.55965451026e+18,-8.687287331,-3.829365015,-11.88656425
1522,1.55965451032e+18,-0.4457628727,0.07571029663,-10.49532318
1523,1.55965451038e+18,9.696382523,1.310258389,-10.05992031
1524,1.55965451044e+18,15.81565857,6.875367165,-18.46472549
1525,1.5596545105e+18,4.797800064,4.540891171,-12.11593533
1526,1.55965451056e+18,-17.53874397,-44.52405548,7.538782597
1527,1.55965451062e+18,-3.495296478,-26.73713684,-2.98877573
1528,1.55965451068e+18,-1.404560328,-13.50918388,-1.697331429
1529,1.55965451074e+18,-3.340569019,3.061920404,-5.028356552
1530,1.5596545108e+18,-5.514446259,2.427703381,-4.731937885
1531,1.55965451086e+18,4.080798149,5.495961189,-3.63572073
1532,1.55965451092e+18,4.639465809,1.704743624,-9.017196655
1533,1.55965451098e+18,0.6967411041,4.125225544,-4.780781746
1534,1.55965451104e+18,-17.11146736,-3.933671713,-6.829506397
1535,1.5596545111e+18,-2.498419762,2.255440235,-3.250577927
1536,1.55965451116e+18,9.565119743,4.49809742,-15.41040707
1537,1.55965451122e+18,5.908008575,3.081749201,-14.32253551
1538,1.55965451128e+18,4.297530174,-1.523409724,-4.603641033
1539,1.55965451134e+18,-2.391103268,-10.74278831,1.065011024
1540,1.5596545114e+18,-10.69486523,-29.9170723,10.16306782
1541,1.55965451146e+18,-6.572241783,-9.802778244,3.91521883
1542,1.55965451152e+18,-11.25221157,-6.514890194,1.847899914
1543,1.55965451158e+18,-4.004365444,-0.4098807573,-1.41511488
1544,1.55965451164e+18,1.339701176,5.800625801,-7.669424534
1545,1.5596545117e+18,6.478369713,0.3779718876,-5.527104855
1546,1.55965451176e+18,3.839759588,-2.515880108,-5.774784088
1547,1.55965451182e+18,-3.320297003,-3.477699757,-3.246670723
1548,1.55965451188e+18,-9.036821365,0.6464905739,1.230242729
1549,1.55965451194e+18,12.23684692,20.99919128,-15.05064964
1550,1.559654512e+18,2.183189869,-1.858666539,-8.742242813
1551,1.55965451206e+18,-6.61151886,-14.19837379,4.623035908
1552,1.55965451212e+18,-0.01497650146,-21.28739548,5.86163044
1553,1.55965451218e+18,6.052751064,-4.497009754,2.228916168
1554,1.55965451224e+18,-3.282927036,-6.394488335,1.554035664
1555,1.5596545123e+18,-13.26620674,-11.68094254,-0.4692749977
1556,1.55965451236e+18,-8.690397263,-2.742133856,-0.8886535168
1557,1.55965451242e+18,2.899972439,8.417359352,-4.098312378
1558,1.55965451248e+18,11.73247147,6.901873589,-1.22938633
1559,1.55965451254e+18,1.355656385,-1.711761713,-2.973564863
1560,1.5596545126e+18,-9.083368301,-8.969682693,-4.107130527
1561,1.55965451266e+18,-3.385877132,-9.337122917,-7.936369419
1562,1.55965451272e+18,2.799167871,-5.231860161,-15.54656792
1563,1.55965451278e+18,8.610416412,15.86724377,-4.270138264
1564,1.55965451284e+18,6.026418686,-16.04747772,-6.869361877
1565,1.5596545129e+18,-6.133228302,-25.99827957,3.187073946
1566,1.55965451296e+18,4.382025242,-8.87228775,7.241796017
1567,1.55965451302e+18,-2.993890762,-14.84051514,9.463499069
1568,1.55965451308e+18,-11.43310833,-9.597924232,5.486443043
1569,1.55965451314e+18,-2.888993263,-2.793709755,-2.018069506
1570,1.5596545132e+18,11.81377792,1.256712317,-1.858922005
1571,1.55965451326e+18,16.7002182,2.709550142,1.149997234
1572,1.55965451332e+18,5.301112652,-1.146331787,-3.551827908
1573,1.55965451338e+18,-11.02840805,-4.286307335,-2.468553543
1574,1.55965451344e+18,-5.904945374,-7.233056545,3.112596035
1575,1.5596545135e+18,12.33659172,-9.424766541,-18.70661354
1576,1.55965451356e+18,12.1868782,-3.045435905,-2.934850693
1577,1.55965451362e+18,1.434261322,-17.27634048,-0.871645391
1578,1.55965451368e+18,5.013461113,-27.76200867,17.69459152
1579,1.55965451374e+18,8.81481266,-9.534860611,10.78382874
1580,1.5596545138e+18,1.772301674,-11.81928158,10.91490936
1581,1.55965451386e+18,-0.979306221,-14.53806973,11.14586163
1582,1.55965451392e+18,0.659702301,-2.302280664,0.265406847
1583,1.55965451398e+18,6.407954216,1.195402145,2.429689407
1584,1.55965451404e+18,12.39924908,-2.032696247,1.378052235
1585,1.5596545141e+18,6.989882469,-3.864398241,-1.226461768
1586,1.55965451416e+18,-3.365217209,-2.603483915,3.986221075
1587,1.55965451422e+18,9.034207344,9.143686295,-1.766692519
1588,1.55965451428e+18,11.29579353,-6.332808495,-5.203692913
1589,1.55965451434e+18,3.973187447,-10.95778275,0.8976068497
1590,1.5596545144e+18,11.42786026,-18.52022743,7.111785889
1591,1.55965451446e+18,3.684023619,-16.29241371,6.844052792
1592,1.55965451452e+18,-0.1637487411,-18.37252808,-0.6805714369
1593,1.55965451458e+18,0.8645963669,-21.04947281,8.020077705
1594,1.55965451464e+18,1.384676933,-7.142335892,1.182190776
1595,1.5596545147e+18,6.72872448,1.928523779,-0.4542994499
1596,1.55965451476e+18,10.83203602,-0.7601008415,-2.449099064
1597,1.55965451482e+18,9.586676598,-2.677473545,-1.71707201
1598,1.55965451488e+18,2.025718212,-5.491557121,-2.069634914
1599,1.55965451494e+18,-7.28731823,-8.446489334,0.6925735474
1600,1.559654515e+18,3.439136505,5.805217743,-2.72337985
1601,1.55965451506e+18,13.56626225,-3.855033159,-5.88832283
1602,1.55965451512e+18,1.864134312,-19.85931015,-3.956069469
1603,1.55965451518e+18,3.961520672,-19.80666351,7.155594826
1604,1.55965451524e+18,5.762341022,-6.734516144,3.177566051
1605,1.5596545153e+18,1.779170036,-16.84045601,4.323654175
1606,1.55965451536e+18,-1.325942039,-14.83900928,5.006310463
1607,1.55965451542e+18,1.244030952,-0.5313893557,1.353541493
1608,1.55965451548e+18,5.161326408,-0.2472603321,0.1533868313
1609,1.55965451554e+18,5.589101791,-5.295345306,-4.535554886
1610,1.5596545156e+18,6.059232712,0.6476960182,-1.625830412
1611,1.55965451566e+18,1.567099094,-0.891535759,-0.2796943188
1612,1.55965451572e+18,-5.218903542,-3.356997967,3.855575562
1613,1.55965451578e+18,20.58664513,-0.3166584969,-16.10333633
1614,1.55965451584e+18,10.53761768,-4.175663948,-8.73114109
1615,1.5596545159e+18,7.147132874,-24.576437,-6.859078407
1616,1.55965451596e+18,-0.5548686981,-26.92595863,5.180444241
1617,1.55965451602e+18,4.929775715,-12.82713509,-1.23623085
1618,1.55965451608e+18,-3.553620338,-18.95080376,0.468817234
1619,1.55965451614e+18,-3.361280441,-11.47661304,2.449306965
1620,1.5596545162e+18,2.246804714,3.496569157,-2.733298779
1621,1.55965451626e+18,3.432824135,-3.415823698,-5.991825581
1622,1.55965451632e+18,8.717669487,-4.502693176,-4.857933998
1623,1.55965451638e+18,9.260084152,-1.48829937,-0.2356500626
1624,1.55965451644e+18,-0.7548017502,-0.9424066544,2.406413078
1625,1.5596545165e+18,2.11422658,-6.101625919,-3.787556648
1626,1.55965451656e+18,14.28273296,-0.503226757,-13.700737
1627,1.55965451662e+18,2.298326969,-10.80344296,-6.983397484
1628,1.55965451668e+18,1.703904867,-26.94862175,-6.854479313
1629,1.55965451674e+18,-4.030912399,-23.14241028,-1.508077621
1630,1.5596545168e+18,3.264256239,-9.556512833,8.352223396
1631,1.55965451686e+18,-4.652903557,-17.6445179,8.29561615
1632,1.55965451692e+18,-0.9778661728,-5.51712656,-0.7101826668
1633,1.55965451698e+18,4.46097374,-0.6864697933,-5.406553745
1634,1.55965451704e+18,6.493154526,4.625513077,-8.993803024
1635,1.5596545171e+18,7.154526234,-2.888349056,-5.118398666
1636,1.55965451716e+18,0.4153232574,-8.550226212,-1.913281441
1637,1.55965451722e+18,-12.34697819,1.029297829,-6.953525543
1638,1.55965451728e+18,19.67708588,7.279910564,-8.905697823
1639,1.55965451734e+18,10.23406696,-2.940134764,0.9424648285
1640,1.5596545174e+18,2.358936787,-22.40114784,-5.714817047
1641,1.55965451746e+18,0.5535321236,-12.09339523,-6.502815247
1642,1.55965451752e+18,6.587217808,-1.366224289,3.022058964
1643,1.55965451758e+18,4.212510109,-20.14403534,2.459470749
1644,1.55965451764e+18,-8.384287834,-17.5186882,4.258918285
1645,1.5596545177e+18,-0.1584377289,-0.1080883741,-1.337994576
1646,1.55965451776e+18,7.160320282,3.369418859,-0.7923855782
1647,1.55965451782e+18,7.008963108,-0.1967976093,-1.905045509
1648,1.55965451788e+18,5.132338524,-1.976115227,-4.741761208
1649,1.55965451794e+18,1.275352955,-9.889352798,-1.772713661
1650,1.559654518e+18,-0.7584562302,0.8296093941,-4.868187428
1651,1.55965451806e+18,15.93925381,3.25989151,-7.62032938
1652,1.55965451812e+18,3.46134758,-5.378316402,-6.71196413
1653,1.55965451818e+18,2.561981916,-18.17283249,-10.87534523
1654,1.55965451824e+18,1.300118208,-22.59653854,6.382726669
1655,1.5596545183e+18,-0.3423507214,-7.986001968,-4.050207615
1656,1.55965451836e+18,-1.013998032,-22.05327225,-2.893466711
1657,1.55965451842e+18,-2.914659977,-15.47530651,2.824629307
1658,1.55965451848e+18,0.4198055267,-6.067221165,-4.225961208
1659,1.55965451854e+18,7.519276142,0.8836455345,-6.751680374
1660,1.5596545186e+18,9.341430664,-2.131831646,-4.94251442
1661,1.55965451866e+18,4.908617973,4.960350037,-5.85126543
1662,1.55965451872e+18,-3.902081251,-6.252052307,12.30971241
1663,1.55965451878e+18,-4.015989304,2.213630199,-5.229284286
1664,1.55965451884e+18,12.82927418,0.8586683273,-16.04973221
1665,1.5596545189e+18,3.730340004,1.266666412,-3.231577873
1666,1.55965451896e+18,6.443644524,-11.87640762,-10.92236233
1667,1.55965451902e+18,-1.598040104,-29.01955795,2.369988918
1668,1.55965451908e+18,0.8686909676,-16.26960182,-2.344631195
1669,1.55965451914e+18,-3.024988651,-16.28964233,-1.737580776
1670,1.5596545192e+18,-5.722111225,-12.65618038,-1.012157917
1671,1.55965451926e+18,0.6197571754,-1.122328401,-4.183519363
1672,1.55965451932e+18,6.969072342,1.051161766,-4.211627007
1673,1.55965451938e+18,9.141325951,-2.712476254,-5.940462589
1674,1.55965451944e+18,8.096423149,0.8033099174,-1.752002716
1675,1.5596545195e+18,-1.084302425,-0.3069953918,2.696352005
1676,1.55965451956e+18,-6.738302231,-1.546561241,-4.718299866
1677,1.55965451962e+18,-0.6937296391,0.2011742592,-1.218864918
1678,1.55965451968e+18,6.701882839,-6.967285156,-7.477693558
1679,1.55965451974e+18,5.666678429,-8.451355934,-7.128966331
1680,1.5596545198e+18,0.4283022881,-18.17765808,-0.1669049263
1681,1.55965451986e+18,1.114782333,-10.4260025,-3.007842541
1682,1.55965451992e+18,-0.3905425072,-14.41783142,8.571925163
1683,1.55965451998e+18,-5.926673889,-10.86219883,1.497261286
1684,1.55965452004e+18,-0.9953660965,2.836935043,-2.730404854
1685,1.5596545201e+18,7.512156963,4.102508068,-2.69783926
1686,1.55965452016e+18,9.074624062,5.371695518,-3.294953108
1687,1.55965452022e+18,0.2479810715,0.9175453186,-1.416104555
1688,1.55965452028e+18,-7.085991383,-4.831758499,0.2353904247
1689,1.55965452034e+18,2.440807581,-16.30662918,-8.172156334
1690,1.5596545204e+18,9.386253357,-15.94679928,-13.51381874
1691,1.55965452046e+18,13.10937691,0.7396024466,-9.644182205
1692,1.55965452052e+18,-17.11914444,-29.37170982,-10.31484032
1693,1.55965452058e+18,18.96935654,-5.055205822,2.239392281
1694,1.55965452064e+18,9.119176865,-22.04883957,8.79173851
1695,1.5596545207e+18,-2.46873045,-16.05230331,2.672405243
1696,1.55965452076e+18,-1.853434563,-1.269674301,7.300794601
1697,1.55965452082e+18,0.5871629715,2.325546741,-0.6696554422
1698,1.55965452088e+18,10.53413105,4.272853374,-1.476564407
1699,1.55965452094e+18,6.799089909,-2.470300674,-8.747505188
1700,1.559654521e+18,0.7220096588,6.279959202,-11.86810684
1701,1.55965452106e+18,-1.843984127,15.9109087,2.250919819
1702,1.55965452112e+18,3.705760479,-2.016317368,-17.76734734
1703,1.55965452118e+18,-5.905700684,-11.96589756,-0.002060890198
1704,1.55965452124e+18,-8.326751709,-13.9357214,-8.2558918
1705,1.5596545213e+18,1.003228903,-15.72975349,8.829482079
1706,1.55965452136e+18,1.570209265,-1.156445026,1.046374321
1707,1.55965452142e+18,-1.561199188,-4.662762642,-0.1666049957
1708,1.55965452148e+18,-11.90098953,-8.33826828,4.451526165
1709,1.55965452154e+18,-12.27583122,-10.53424168,-2.811645746
1710,1.5596545216e+18,-4.84910059,-4.483617783,-7.105567932
1711,1.55965452166e+18,5.575520992,-1.910048723,-10.93432903
1712,1.55965452172e+18,10.8861742,-1.409565926,-7.584785938
1713,1.55965452178e+18,1.226130486,-0.6925816536,-4.469801426
1714,1.55965452184e+18,-8.241500854,3.814031601,-7.836912155
1715,1.5596545219e+18,5.220869541,0.1124186516,-15.34008121
1716,1.55965452196e+18,2.088433027,0.8931269646,-20.03731918
1717,1.55965452202e+18,-11.38385773,-12.67848778,1.075674057
1718,1.55965452208e+18,4.026622772,-15.34148312,-7.311813831
1719,1.55965452214e+18,-0.7447247505,-8.386743546,6.353117943
1720,1.5596545222e+18,1.161528587,0.9261337519,0.8438634872
1721,1.55965452226e+18,-6.664280891,-11.21813297,4.30105257
1722,1.55965452232e+18,-5.967272282,-7.367102146,1.425710678
1723,1.55965452238e+18,-2.537742138,0.02290293574,1.483688831
1724,1.55965452244e+18,0.2501578331,-0.787337482,4.701514721
1725,1.5596545225e+18,2.429380894,-1.344004512,-8.078587532
1726,1.55965452256e+18,-1.579349995,-10.0053072,-13.42420578
1727,1.55965452262e+18,4.96313858,0.7683372498,-17.83959961
1728,1.55965452268e+18,16.01295662,-3.831416368,1.18277359
1729,1.55965452274e+18,1.723527431,-5.495702267,-7.582618713
1730,1.5596545228e+18,-1.866441727,-24.54756355,-0.188890934
1731,1.55965452286e+18,0.5203824043,-19.36899757,3.315634727
1732,1.55965452292e+18,0.3376727104,-1.285423994,2.265798569
1733,1.55965452298e+18,-3.22947216,-9.185610771,4.554156303
1734,1.55965452304e+18,-1.115823746,-7.496479511,6.976415634
1735,1.5596545231e+18,-8.392412186,-7.592330933,-3.611528397
1736,1.55965452316e+18,3.986449003,-2.793536186,-0.52511549
1737,1.55965452322e+18,5.647869587,0.9853448868,-1.973381996
1738,1.55965452328e+18,1.682903051,-13.87729454,15.81254482
1739,1.55965452334e+18,9.310528755,-11.01258945,-19.8863678
1740,1.5596545234e+18,0.6197378635,14.01755333,-29.1882515
1741,1.55965452346e+18,5.614729881,2.825629711,-4.337684631
1742,1.55965452352e+18,-20.20310593,-74.88339233,10.65855122
1743,1.55965452358e+18,-2.353521347,-17.81492615,-4.849386692
1744,1.55965452364e+18,3.386811733,-6.542510033,-3.608264446
1745,1.5596545237e+18,-0.04432010651,-2.411363602,1.552647591
1746,1.55965452376e+18,0.1312561035,-0.155436337,-1.231974602
1747,1.55965452382e+18,-4.462859631,1.752550721,-1.303836823
1748,1.55965452388e+18,-3.085642338,-4.204727173,0.4302697182
1749,1.55965452394e+18,3.533427954,1.054858923,0.8151082993
1750,1.559654524e+18,5.335001469,-0.6371262074,-2.407926083
1751,1.55965452406e+18,2.288211584,-4.881174088,-0.1605806351
1752,1.55965452412e+18,7.663426399,3.593268871,-17.45181656
1753,1.55965452418e+18,-0.3518748283,-12.4688549,-21.81457138
1754,1.55965452424e+18,6.697084904,-7.640406132,-4.10010004
1755,1.5596545243e+18,-7.122863293,-34.57485962,12.85687447
1756,1.55965452436e+18,-5.292133808,-9.027295113,-1.567394495
1757,1.55965452442e+18,0.3273034096,-7.058875561,4.406703949
1758,1.55965452448e+18,3.528208494,-1.819518089,5.240202904
1759,1.55965452454e+18,12.50409698,1.013919473,1.190410137
1760,1.5596545246e+18,3.653698683,-4.239928246,6.524409294
1761,1.55965452466e+18,-2.737418175,-2.420556068,-2.102951527
1762,1.55965452472e+18,6.032862186,11.6792841,-1.777831554
1763,1.55965452478e+18,15.52228546,14.87667656,-26.77917671
1764,1.55965452484e+18,13.73099709,17.83485031,-11.89362526
1765,1.5596545249e+18,-5.478712082,-21.39606667,14.62035179
1766,1.55965452496e+18,-16.25782013,-32.27667618,7.353766918
1767,1.55965452502e+18,-1.317081451,-17.9184742,2.190877438
1768,1.55965452508e+18,2.834416389,-6.804118633,1.546233654
1769,1.55965452514e+18,3.324872494,6.504751205,-1.836613894
1770,1.5596545252e+18,6.969551563,7.308813572,-4.455349922
1771,1.55965452526e+18,7.592437267,8.63533783,-2.939545393
1772,1.55965452532e+18,2.162284851,-1.614379287,-2.619630098
1773,1.55965452538e+18,-10.574646,-16.242136,18.69890022
1774,1.55965452544e+18,17.09511566,-1.865969181,-17.84362221
1775,1.5596545255e+18,-3.156066895,-14.94408321,12.92242622
1776,1.55965452556e+18,7.512609482,-22.18054962,7.147613525
1777,1.55965452562e+18,6.104034901,-0.3093523979,0.2975225449
1778,1.55965452568e+18,-0.1065359116,12.33795738,2.226930618
1779,1.55965452574e+18,-5.888175011,-3.071808577,10.48746681
1780,1.5596545258e+18,-9.714426041,-8.280755043,-2.417294502
1781,1.55965452586e+18,0.8495192528,-9.684511185,-2.032466412
1782,1.55965452592e+18,4.293489456,6.548229694,0.7583708763
1783,1.55965452598e+18,2.96858263,8.746144295,-4.276221275
1784,1.55965452604e+18,5.914445877,-1.700318336,-8.374796867
1785,1.5596545261e+18,3.68828702,-11.60084534,-19.81470108
1786,1.55965452616e+18,4.954187393,-45.59736252,-1.87210083
1787,1.55965452622e+18,6.176508904,-9.78680706,-12.45701408
1788,1.55965452628e+18,5.569517136,-20.29532433,-3.237706184
1789,1.55965452634e+18,-0.6660284996,-14.37605667,12.41110802
1790,1.5596545264e+18,3.353602409,6.248601913,4.443027496
1791,1.55965452646e+18,-10.62868023,2.992705107,2.692232847
1792,1.55965452652e+18,5.883958817,4.843315125,5.25821352
1793,1.55965452658e+18,-7.086108208,-5.14046669,5.176016331
1794,1.55965452664e+18,-4.301596642,-8.925858498,-3.960945129
1795,1.5596545267e+18,0.2659392357,-2.822112799,-6.524044991
1796,1.55965452676e+18,-4.554038525,-2.224511623,-0.1184177399
1797,1.55965452682e+18,23.31099319,13.72436905,-24.05598068
1798,1.55965452688e+18,3.362547874,1.325849771,-0.09019088745
1799,1.55965452694e+18,-9.764839172,-36.96993637,-10.61464024
1800,1.559654527e+18,-1.125166893,-22.20914841,3.442344666
1801,1.55965452706e+18,1.559034824,-8.391156197,-1.945925236
1802,1.55965452712e+18,2.731957436,2.048819304,-1.181545734
1803,1.55965452718e+18,1.248749733,4.874595642,-1.189378262
1804,1.55965452724e+18,3.322256565,3.627434254,-0.5297231674
1805,1.5596545273e+18,1.440110683,-2.836533785,-1.915119648
1806,1.55965452736e+18,-4.101861954,-3.993684292,0.4027638435
1807,1.55965452742e+18,-6.004193783,-4.589924812,-6.347493649
1808,1.55965452748e+18,-0.48097229,-8.046365738,-16.27689362
1809,1.55965452754e+18,16.5074234,-6.452021599,-12.87928772
1810,1.5596545276e+18,13.48601532,3.491380692,-12.93556499
1811,1.55965452766e+18,0.8643889427,-16.5021801,1.042504787
1812,1.55965452772e+18,-0.593515873,-24.14388657,6.940960884
1813,1.55965452778e+18,6.291623116,-21.37335777,3.837470531
1814,1.55965452784e+18,-0.2993984222,-12.30105305,2.321753025
1815,1.5596545279e+18,0.4759168625,-2.65084219,-0.8663892746
1816,1.55965452796e+18,4.699944019,7.795912266,-0.1428425312
1817,1.55965452802e+18,10.13045406,8.223327637,0.3128304482
1818,1.55965452808e+18,1.215579033,-4.309034824,-2.782042503
1819,1.55965452814e+18,-12.7123642,-6.201178551,9.523826599
1820,1.5596545282e+18,-0.06034994125,-1.155404568,-4.091738701
1821,1.55965452826e+18,8.745901108,0.9940700531,-9.880698204
1822,1.55965452832e+18,11.3720274,-1.551298141,-4.43220377
1823,1.55965452838e+18,1.119760513,-13.21089649,-3.697898388
1824,1.55965452844e+18,3.25703001,-14.59669018,-6.781293392
1825,1.5596545285e+18,-1.249795914,-17.53259087,4.241573334
1826,1.55965452856e+18,-3.739161491,-10.85630226,4.229697227
1827,1.55965452862e+18,-6.312814713,-12.52766991,3.817125082
1828,1.55965452868e+18,-0.007151603699,-1.658723593,-0.2296720743
1829,1.55965452874e+18,6.798834801,2.181875706,-2.91785717
1830,1.5596545288e+18,7.278225899,4.679754257,0.3979291916
1831,1.55965452886e+18,0.158015728,-0.3898148537,-0.2342438698
1832,1.55965452892e+18,-1.301855564,-5.158343792,-0.2864217758
1833,1.55965452898e+18,-1.777658463,-7.990792751,-3.909687519
1834,1.55965452904e+18,0.9613976479,-7.383923531,-10.28508854
1835,1.5596545291e+18,12.49382782,-1.620749235,10.75027084
1836,1.55965452916e+18,6.69521904,-6.486461163,-3.741968632
1837,1.55965452922e+18,7.754763603,-24.04417992,5.967979431
1838,1.55965452928e+18,-0.6150050163,-14.27696419,2.91447258
1839,1.55965452934e+18,-2.807836533,-17.06413841,6.830873489
1840,1.5596545294e+18,-6.302988052,-6.263791084,7.571742535
1841,1.55965452946e+18,-2.535335541,-1.465820312,3.226549149
1842,1.55965452952e+18,0.4160022736,9.283870697,1.753577352
1843,1.55965452958e+18,6.222612381,1.705090046,-1.101611614
1844,1.55965452964e+18,-0.2003316879,-3.635502577,-7.541025162
1845,1.5596545297e+18,0.008938312531,-4.852227211,-0.9406423569
1846,1.55965452976e+18,7.791102886,-1.356162071,-4.893924713
1847,1.55965452982e+18,4.919962883,-3.263519526,-4.60189724
1848,1.55965452988e+18,16.36824417,-1.218456984,-19.74612617
1849,1.55965452994e+18,3.106437206,-5.505363941,-7.995937824
1850,1.55965453e+18,-0.8464097977,-24.63311005,6.894917488
1851,1.55965453006e+18,-0.4176821709,-21.22738647,-2.757370234
1852,1.55965453012e+18,-2.815695763,-15.10514832,1.539787292
1853,1.55965453018e+18,-2.283613205,-8.558197975,1.358609915
1854,1.55965453024e+18,1.403224468,-0.9259696603,-0.2526957989
1855,1.5596545303e+18,6.025229931,4.661374569,-1.89439702
1856,1.55965453036e+18,7.385178566,0.7228896618,-1.850938082
1857,1.55965453042e+18,-0.509721756,0.9048390388,-1.016318321
1858,1.55965453048e+18,-4.236132622,2.286879539,2.806494713
1859,1.55965453054e+18,-3.541554451,2.793822289,-0.5295734406
1860,1.5596545306e+18,2.714990139,-6.471434593,-12.68341827
1861,1.55965453066e+18,3.801292896,-8.293152809,-5.29859066
1862,1.55965453072e+18,8.862228394,-5.927182674,-13.93137455
1863,1.55965453078e+18,2.490051508,-17.96952438,4.58015728
1864,1.55965453084e+18,-6.726611137,-31.25489044,8.551451683
1865,1.5596545309e+18,-6.374058723,-14.62345791,1.007515907
1866,1.55965453096e+18,-2.367276669,-8.16617012,4.42066431
1867,1.55965453102e+18,-0.7709560394,1.826911569,2.667671204
1868,1.55965453108e+18,-4.389845848,3.748268127,0.8003659248
1869,1.55965453114e+18,0.5130310059,1.624176502,0.7906198502
1870,1.5596545312e+18,-4.64168787,-2.56431675,-2.018705368
1871,1.55965453126e+18,-13.64068413,-5.733705521,3.994556427
1872,1.55965453132e+18,-10.14122009,-3.530247927,-17.9792099
1873,1.55965453138e+18,2.28014946,-7.315133095,-15.86261368
1874,1.55965453144e+18,14.87859821,-7.520560741,-8.949093819
1875,1.5596545315e+18,0.1704689264,-8.863090515,-16.15509415
1876,1.55965453156e+18,3.466797352,-2.069643974,-8.18433094
1877,1.55965453161e+18,0.1126317382,-15.48379517,7.928984642
1878,1.55965453167e+18,-27.3050251,-50.0412674,3.743850708
1879,1.55965453173e+18,-3.897816658,1.358732462,-8.303442001
1880,1.55965453179e+18,-3.018484592,-1.420129061,1.130810261
1881,1.55965453185e+18,-1.158233166,1.686106205,3.040685177
1882,1.55965453191e+18,0.7737131119,2.284460545,-1.903729439
1883,1.55965453197e+18,-6.71718502,4.210023403,-3.708893299
1884,1.55965453203e+18,-18.63855362,-1.649935722,-1.323604107
1885,1.55965453209e+18,-12.21236134,-4.539621353,2.67803812
1886,1.55965453215e+18,-6.810269833,-7.138367653,-7.286332607
1887,1.55965453221e+18,-3.67038703,-10.30197144,-18.61511803
1888,1.55965453227e+18,2.216381788,-5.444895267,-8.631702423
1889,1.55965453233e+18,-2.218161345,-8.433900833,-16.08633995
1890,1.55965453239e+18,-8.756860733,-7.996180534,9.59703064
1891,1.55965453245e+18,-23.81716156,-37.89447403,13.12251091
1892,1.55965453251e+18,-17.41943741,3.988183975,-6.964099407
1893,1.55965453257e+18,-6.251550674,-2.649196625,1.193367958
1894,1.55965453263e+18,-1.551775932,2.123626232,-3.730872631
1895,1.55965453269e+18,-1.65220356,6.504463196,0.1262273788
1896,1.55965453275e+18,-4.363604069,4.859200478,-1.865746498
1897,1.55965453281e+18,-7.074808121,1.219718456,2.830592632
1898,1.55965453287e+18,-12.2688961,-9.963287354,-5.817797661
1899,1.55965453293e+18,-8.075611115,-11.17554569,-3.426131248
1900,1.55965453299e+18,-8.034061432,-3.18799305,-15.00046349
1901,1.55965453305e+18,4.979109287,-5.113873482,-10.10604
1902,1.55965453311e+18,11.38698387,-4.626572609,-15.26924896
1903,1.55965453317e+18,6.075340271,-12.86607361,-3.457378626
1904,1.55965453323e+18,-10.34322453,-7.21356535,12.47799301
1905,1.55965453329e+18,-18.40125275,-35.80761719,-4.865100861
1906,1.55965453335e+18,-7.173044205,1.404459476,-5.639923573
1907,1.55965453341e+18,0.9535646439,-1.31172204,-0.1595506668
1908,1.55965453347e+18,5.355169773,1.295223236,-0.338599205
1909,1.55965453353e+18,-0.4605865479,8.051091194,-1.346699238
1910,1.55965453359e+18,-16.3188591,1.502820015,0.7239408493
1911,1.55965453365e+18,-20.32364273,-1.164232254,-1.345875263
1912,1.55965453371e+18,-16.23221207,-2.870870113,-12.44479084
1913,1.55965453377e+18,-7.772413731,-6.973451138,-10.45976257
1914,1.55965453383e+18,2.140094757,-15.11101341,-6.987150669
1915,1.55965453389e+18,3.187243462,-5.433760166,-20.89110374
1916,1.55965453395e+18,-1.369508505,-9.18696022,-17.76229858
1917,1.55965453401e+18,-4.186187744,-9.253181458,3.460661888
1918,1.55965453407e+18,-14.58100796,-22.90883255,4.213861465
1919,1.55965453413e+18,-21.19682884,-1.890194416,2.639332771
1920,1.55965453419e+18,-2.468125343,-0.07898497581,-2.790617943
1921,1.55965453425e+18,1.784095764,5.84493494,-1.848910332
1922,1.55965453431e+18,1.04156661,5.823303223,0.5625772476
1923,1.55965453437e+18,-18.26132202,1.572649717,-3.181066036
1924,1.55965453443e+18,-18.84733582,-4.423254967,-4.959787369
1925,1.55965453449e+18,-5.239945412,-5.782836914,-5.329939842
1926,1.55965453455e+18,-0.1840678453,-11.98311901,-6.840094566
1927,1.55965453461e+18,0.04478645325,-8.456185341,-13.19195175
1928,1.55965453467e+18,-0.9681429863,-8.887797356,-4.907416821
1929,1.55965453473e+18,-0.02906298637,-2.061475039,-2.515504837
1930,1.55965453479e+18,2.684579611,-2.340440035,-1.47524786
1931,1.55965453485e+18,-0.03124380112,-0.9052864313,7.657706261
1932,1.55965453491e+18,-27.78377914,-34.77213669,-1.628859043
1933,1.55965453497e+18,-1.751005173,7.525123596,-5.921926975
1934,1.55965453503e+18,0.0640630722,10.77759743,-5.612030506
1935,1.55965453509e+18,6.981918335,4.908886433,0.1128468513
1936,1.55965453515e+18,-12.54279137,-3.197579622,1.727245331
1937,1.55965453521e+18,-15.21014404,-12.43667126,0.5217828751
1938,1.55965453527e+18,-3.270710468,0.5000133514,-3.445151091
1939,1.55965453533e+18,-1.563642502,-5.843065739,-5.682640076
1940,1.55965453539e+18,0.8742108345,-7.239789009,-5.827635765
1941,1.55965453545e+18,1.965014219,-12.53753662,-5.17294693
1942,1.55965453551e+18,6.276549339,-6.893867016,-8.240056992
1943,1.55965453557e+18,13.79576302,1.041702747,-5.259651661
1944,1.55965453563e+18,16.2095623,0.7011218071,-9.346762657
1945,1.55965453569e+18,-13.92587757,-18.66081429,-10.79520416
1946,1.55965453575e+18,-6.225052834,-10.17027569,8.008382797
1947,1.55965453581e+18,0.2313280106,9.818788528,2.442247868
1948,1.55965453587e+18,-3.856904507,2.41971159,4.471837997
1949,1.55965453593e+18,-11.89562416,-6.639225483,2.091841698
1950,1.55965453599e+18,-8.214351654,-4.837634087,-0.3145542145
1951,1.55965453605e+18,-0.5370578766,0.5638768673,-1.422912598
1952,1.55965453611e+18,4.224895954,1.475467205,-4.897623062
1953,1.55965453617e+18,6.353276253,-4.140071869,-0.4697151184
1954,1.55965453623e+18,0.6296806335,-3.508893013,-0.0002093315125
1955,1.55965453629e+18,1.964966774,0.4051971436,-3.035979033
1956,1.55965453635e+18,2.512811184,0.6073465347,-4.418258667
1957,1.55965453641e+18,1.551212311,-7.347890377,-10.22639179
1958,1.55965453647e+18,12.65576172,-2.769739866,-15.71108437
1959,1.55965453653e+18,1.997792006,-6.827205181,-9.928718567
1960,1.55965453659e+18,-4.607748508,-6.986618042,3.564363003
1961,1.55965453665e+18,-9.334326744,-20.79714584,11.23813725
1962,1.55965453671e+18,-10.92984486,-9.135976791,2.737524271
1963,1.55965453677e+18,-5.529982567,-3.297066212,3.829815865
1964,1.55965453683e+18,-4.632062435,3.80142951,2.831335545
1965,1.55965453689e+18,4.394882202,7.222407818,0.09414029121
1966,1.55965453695e+18,-0.907207489,-10.10470486,-3.331052065
1967,1.55965453701e+18,-13.74443436,0.1960923672,-7.016396523
1968,1.55965453707e+18,8.377632141,4.447442055,-9.161580086
1969,1.55965453713e+18,15.68369579,15.90231133,-16.92497635
1970,1.55965453719e+18,8.851397514,22.61083412,-6.50728035
1971,1.55965453725e+18,6.712890625,6.179019928,4.075534821
1972,1.55965453731e+18,-17.05427933,-11.21178722,-12.33910656
1973,1.55965453737e+18,-4.224982738,-23.37759781,-0.5355291367
1974,1.55965453743e+18,5.064845562,-25.58210754,3.234262943
1975,1.55965453749e+18,-0.9344110489,-11.54906464,-3.834009647
1976,1.55965453755e+18,7.286377907,-0.7624819279,-8.079058647
1977,1.55965453761e+18,11.14442825,0.006464004517,-5.311151028
1978,1.55965453767e+18,6.03776741,3.923032999,-6.583987713
1979,1.55965453773e+18,26.30956841,7.051040649,-0.8778581619
1980,1.55965453779e+18,-18.39426994,-15.53793716,58.26817703
1981,1.55965453785e+18,-3.982645035,-14.67764854,0.2485599518
1982,1.55965453791e+18,2.855895281,-16.84567451,-9.017010689
1983,1.55965453797e+18,-2.947108269,-25.26851273,-0.3562273979
1984,1.55965453803e+18,3.928609371,20.02326012,-1.039067745
1985,1.55965453809e+18,-4.555355549,8.550063133,1.847688198
1986,1.55965453815e+18,-7.59128952,-0.7883330584,2.967690945
1987,1.55965453821e+18,-12.72445202,-15.49655819,-7.412500381
1988,1.55965453827e+18,-1.77877903,-6.540611744,-4.556439877
