,Time (s),Linear Acceleration x (m/s^2),Linear Acceleration y (m/s^2),Linear Acceleration z (m/s^2)
0,1.55965502106e+18,-1.89388895,-2.057972193,-4.204912186
1,1.55965502112e+18,-1.795442581,-2.039501905,-3.891320705
2,1.55965502118e+18,-2.345815182,-2.518607378,-4.42628479
3,1.55965502124e+18,-2.680607796,-2.274653673,-5.682616234
4,1.5596550213e+18,-1.413445473,-0.6462004185,-5.450512886
5,1.55965502136e+18,-1.450201035,-0.02394604683,-6.199796677
6,1.55965502142e+18,5.982524872,5.217791557,13.26593018
7,1.55965502147e+18,7.839064598,6.001999378,10.92855453
8,1.55965502153e+18,19.54131508,12.76242256,12.18302155
9,1.55965502159e+18,18.5170517,13.77695274,1.366909981
10,1.55965502165e+18,-13.43744946,-12.70151615,17.33141708
11,1.55965502171e+18,-3.454338312,-17.7434845,-6.683814526
12,1.55965502177e+18,0.143265605,-20.93793106,-3.706466675
13,1.55965502182e+18,5.249890327,-7.010424614,-6.01815176
14,1.55965502188e+18,7.07418251,-2.889393806,-6.07162714
15,1.55965502194e+18,4.814626694,-3.383879662,-3.12458849
16,1.55965502199e+18,6.42210865,-4.08864069,-1.886699677
17,1.55965502204e+18,6.706197739,-4.540270805,-0.5723018646
18,1.5596550221e+18,4.443624973,-3.920427322,-0.3517093658
19,1.55965502215e+18,3.046586514,-4.837771893,0.9949998856
20,1.55965502221e+18,-3.778366089,-9.694432259,2.166749954
21,1.55965502227e+18,-6.421951294,-4.650133133,0.9865298271
22,1.55965502233e+18,-6.228743553,-1.217000723,1.352161884
23,1.55965502238e+18,-4.784083366,2.410662651,1.99242878
24,1.55965502244e+18,-4.592378616,5.275504112,2.175200939
25,1.5596550225e+18,-5.921542168,4.879657745,2.465661049
26,1.55965502256e+18,-5.792552948,3.75723052,1.375652909
27,1.55965502261e+18,-6.78528595,3.386900187,2.240686893
28,1.55965502267e+18,-5.457707405,1.617356658,3.39467144
29,1.55965502273e+18,-5.177473068,-0.7809558511,2.676307201
30,1.55965502279e+18,-3.37082386,-2.266625643,-0.8597952127
31,1.55965502285e+18,2.471204758,-1.453777313,-3.443278551
32,1.55965502291e+18,4.265796661,-4.855185032,-4.149444103
33,1.55965502296e+18,6.071679592,-9.670051575,-3.403079987
34,1.55965502302e+18,3.875492096,-21.53746033,-6.767180443
35,1.55965502307e+18,-2.353313923,-10.51543617,-9.440008163
36,1.55965502313e+18,7.574534416,8.067189217,1.627842426
37,1.55965502319e+18,5.351867676,-2.249099731,6.261903763
38,1.55965502325e+18,2.773373127,3.488851547,12.63635254
39,1.5596550233e+18,5.565936089,6.548449993,14.91151619
40,1.55965502336e+18,9.550463676,9.786848068,16.61129379
41,1.55965502341e+18,15.17308426,12.74526787,13.72654438
42,1.55965502347e+18,18.13642311,11.5825758,3.633640289
43,1.55965502352e+18,-0.7240028977,-6.593864441,8.619815826
44,1.55965502358e+18,-14.46126366,-18.14271927,-16.12158966
45,1.55965502363e+18,-3.600090504,-10.8983717,-6.769918919
46,1.55965502368e+18,-1.810507655,-7.959894657,-6.295625687
47,1.55965502374e+18,2.515749216,-0.4526871443,-8.608338356
48,1.55965502379e+18,3.075078487,1.403797865,-6.985653877
49,1.55965502385e+18,3.039185524,-0.2835900187,-3.097948551
50,1.55965502391e+18,5.228846073,0.2893620133,-1.971893311
51,1.55965502397e+18,2.97291851,0.3563029766,-0.6087064743
52,1.55965502403e+18,2.175440788,-0.2376928329,-0.2954406738
53,1.55965502409e+18,-4.764050007,-3.352711201,3.406816006
54,1.55965502415e+18,-8.584421158,-3.56935215,4.866005898
55,1.5596550242e+18,-10.16261959,0.08919239044,2.506120682
56,1.55965502426e+18,-11.76616096,3.466476917,2.857055187
57,1.55965502431e+18,-13.69621277,5.612381458,2.105364561
58,1.55965502437e+18,-12.9231205,6.695039749,4.697421551
59,1.55965502442e+18,-12.0218153,7.964885235,3.855426788
60,1.55965502448e+18,-10.50232506,7.97365284,1.889650702
61,1.55965502453e+18,-9.718132973,6.500988007,1.956637025
62,1.55965502458e+18,-12.63679123,3.915850401,0.601421237
63,1.55965502464e+18,-6.579189301,2.809471369,1.544469357
64,1.5596550247e+18,-3.259853363,0.6173424721,-3.720211506
65,1.55965502476e+18,4.006608963,-1.492388129,-4.450243473
66,1.55965502482e+18,5.930921555,-3.8961339,-2.223172426
67,1.55965502487e+18,4.7495718,-6.518223763,-1.51832819
68,1.55965502493e+18,4.296536446,-9.131645203,-6.807384491
69,1.55965502499e+18,0.6280298233,-5.469718933,-11.74619579
70,1.55965502505e+18,21.54156113,-11.38458538,37.86016846
71,1.55965502511e+18,-1.075050354,16.016819,12.41689682
72,1.55965502517e+18,-7.188259125,7.606448174,14.2386446
73,1.55965502523e+18,-0.0298871994,9.530684471,16.35320282
74,1.55965502529e+18,2.112255573,11.40017509,17.62874413
75,1.55965502534e+18,4.508183956,10.66342735,18.12934303
76,1.55965502539e+18,8.49516964,10.41805458,18.599823
77,1.55965502544e+18,20.08596039,16.03718376,12.27857971
78,1.5596550255e+18,23.53840065,9.99058342,8.362182617
79,1.55965502555e+18,-17.13920212,-8.872775078,15.63301277
80,1.55965502561e+18,-8.427536011,-5.697005272,-8.160776138
81,1.55965502567e+18,-0.6057345867,-8.331899643,-2.174709797
82,1.55965502573e+18,0.004725456238,3.984955549,-9.960593224
83,1.55965502579e+18,3.139864683,6.758682728,-7.830000877
84,1.55965502585e+18,2.815471649,4.703374386,-3.793909073
85,1.5596550259e+18,4.790267467,3.208467007,-2.123330593
86,1.55965502596e+18,6.067148209,3.413944721,0.6381158829
87,1.55965502601e+18,5.915612221,4.944665432,3.474636078
88,1.55965502607e+18,5.208391666,5.222539425,3.668403625
89,1.55965502612e+18,-0.4168930054,-0.3880414963,5.438471317
90,1.55965502617e+18,-6.797128677,1.587104797,5.626919746
91,1.55965502623e+18,-9.799206734,1.875038147,1.476059675
92,1.55965502628e+18,-8.671470642,6.679680824,4.120991707
93,1.55965502634e+18,-9.465705872,6.154823303,-0.8848468065
94,1.5596550264e+18,-8.456547737,7.696332932,-0.1949121952
95,1.55965502646e+18,-4.011802197,4.986929417,0.7041606903
96,1.55965502651e+18,-1.501726151,5.34643364,1.691853523
97,1.55965502657e+18,-3.116318703,4.135468006,0.9895720482
98,1.55965502663e+18,-4.156801224,3.713487148,-0.4360363483
99,1.55965502668e+18,-3.811641216,3.902848005,-0.4049088955
100,1.55965502673e+18,-6.302126884,5.776769638,-2.726102829
101,1.55965502679e+18,-2.724227905,3.699274302,-1.874372244
102,1.55965502684e+18,1.974001408,0.8976185322,-2.301642179
103,1.5596550269e+18,8.445635796,-4.561215878,-1.461698771
104,1.55965502695e+18,3.773816586,-8.119287491,-2.439007282
105,1.55965502701e+18,-0.5392112732,-4.214748383,-0.9537700415
106,1.55965502706e+18,-1.597775459,-1.106307507,-0.009379565716
107,1.55965502712e+18,-4.091779709,3.375451565,2.199813843
108,1.55965502717e+18,-10.51272583,6.428233147,3.485598803
109,1.55965502723e+18,-3.946904182,5.515834808,2.085755825
110,1.55965502728e+18,-2.074075699,0.4730479717,0.4106011391
111,1.55965502734e+18,0.3040933609,0.257584244,-1.905172348
112,1.55965502739e+18,2.137853622,-2.654081345,-5.214007854
113,1.55965502745e+18,1.875318527,-2.162886381,-3.675754547
114,1.55965502751e+18,0.4103403091,-6.48994875,7.971461296
115,1.55965502756e+18,-2.182636261,1.937613964,-4.009029865
116,1.55965502762e+18,20.32569313,0.2396259308,0.3977513313
117,1.55965502768e+18,10.9968214,2.45586586,-4.940893173
118,1.55965502773e+18,4.071436882,2.5546031,-4.986087799
119,1.55965502779e+18,5.228882313,0.09434604645,-1.232659817
120,1.55965502785e+18,4.347903728,-0.3168735504,2.554947853
121,1.5596550279e+18,4.901537895,-3.804977655,1.739896774
122,1.55965502795e+18,2.711464643,-3.652560711,-0.3963828087
123,1.55965502801e+18,1.579312325,-1.680036068,-2.508193016
124,1.55965502807e+18,1.252383709,-1.028898001,-0.5829539299
125,1.55965502813e+18,0.7966480255,-0.3495638371,-2.9406147
126,1.55965502819e+18,0.3899450302,0.8480350971,-0.8995299339
127,1.55965502825e+18,3.531816483,1.578129053,1.768942833
128,1.5596550283e+18,13.42205524,4.951424599,1.984059334
129,1.55965502836e+18,25.27019119,14.67414474,-5.492677212
130,1.55965502841e+18,13.19294357,1.255415678,-2.011559963
131,1.55965502847e+18,-15.82341194,-12.32963753,15.35511208
132,1.55965502852e+18,-21.45873833,-29.64512634,8.557321548
133,1.55965502858e+18,-6.873943806,-10.24951839,-3.649058104
134,1.55965502864e+18,-2.782774925,-4.352919579,-6.625590324
135,1.5596550287e+18,0.9652719498,0.3158097267,-5.523053169
136,1.55965502876e+18,1.323406696,0.2069356441,-4.6882267
137,1.55965502881e+18,1.844408035,-0.1314166784,-3.466990948
138,1.55965502886e+18,1.653030038,1.127434373,-1.558474541
139,1.55965502892e+18,0.2348150611,-1.79699707,1.887961388
140,1.55965502898e+18,-3.719463825,-5.6684165,1.174586296
141,1.55965502904e+18,-4.463538647,-2.881267548,0.04603862762
142,1.5596550291e+18,-6.587788105,-0.8306698799,-0.9233469963
143,1.55965502916e+18,-5.915773869,2.455397367,-0.384619236
144,1.55965502921e+18,-5.405379295,4.175528526,0.5550179482
145,1.55965502927e+18,-4.904645443,4.974015713,0.3473553658
146,1.55965502932e+18,-4.762365341,3.41750288,-0.0111951828
147,1.55965502938e+18,-4.713703156,0.5423517227,0.9009718895
148,1.55965502944e+18,-1.985383987,0.0600528717,0.8750343323
149,1.5596550295e+18,0.4974441528,0.7479455471,-0.06613111496
150,1.55965502955e+18,0.8383398056,0.08688354492,0.685110569
151,1.55965502961e+18,-0.146985054,0.3937339783,3.469986439
152,1.55965502966e+18,-2.183032036,-0.03083753586,3.953901768
153,1.55965502972e+18,-2.881599426,1.854422569,6.860488892
154,1.55965502977e+18,-7.587360382,-3.590193033,10.07273769
155,1.55965502983e+18,-3.072181702,-5.128377914,5.903367996
156,1.55965502989e+18,1.720282555,-4.403396606,-2.393992186
157,1.55965502995e+18,3.842302799,-5.143805027,-5.9578228
158,1.55965503001e+18,7.526121616,-7.962409973,-3.846574545
159,1.55965503007e+18,6.362776279,-9.09660244,-0.8665537834
160,1.55965503012e+18,-0.4777164459,-14.7473774,-2.254081249
161,1.55965503018e+18,-3.978585243,-16.22140312,-8.540692329
162,1.55965503023e+18,0.2240514755,0.6413369179,-41.29117203
163,1.55965503029e+18,-4.296769142,-2.74951148,-3.039252758
164,1.55965503035e+18,-6.354240417,10.04293823,-7.064416885
165,1.55965503041e+18,-8.670085907,11.00452709,-9.095571518
166,1.55965503047e+18,-3.93297863,9.32669735,-5.45275116
167,1.55965503053e+18,0.8871269226,8.737560272,-0.8181643486
168,1.55965503058e+18,-0.6752872467,4.586509705,-3.083400249
169,1.55965503064e+18,4.26839447,4.41596365,-4.012910843
170,1.5596550307e+18,4.234661102,6.008618832,-2.831825256
171,1.55965503075e+18,-0.3971539736,10.33322525,2.011444569
172,1.5596550308e+18,1.122368574,18.77981567,0.3333954811
173,1.55965503086e+18,-0.4061121941,19.65157509,-7.496308327
174,1.55965503091e+18,-9.257247925,-5.035593033,13.99776077
175,1.55965503097e+18,-24.2672863,-23.81264877,-23.38626671
176,1.55965503102e+18,10.06811428,-27.82515907,12.91601181
177,1.55965503108e+18,-2.073166609,-11.22920418,-8.874250412
178,1.55965503114e+18,7.411598682,1.803512096,-5.116875648
179,1.5596550312e+18,-1.794639587,-2.363307476,-3.348407745
180,1.55965503126e+18,0.7201211452,-2.961540222,-2.711447716
181,1.55965503132e+18,1.912570477,-2.769545555,0.4794425964
182,1.55965503137e+18,1.277680159,-2.297677755,2.437720299
183,1.55965503143e+18,1.140120387,-1.517798662,1.966144562
184,1.55965503149e+18,0.126003027,-1.177972794,0.570939064
185,1.55965503155e+18,-4.251265526,-2.374075413,1.315742016
186,1.55965503161e+18,-7.225919247,-0.9450764656,-1.170902491
187,1.55965503167e+18,-7.09828949,3.631434917,1.134846926
188,1.55965503173e+18,-4.901431084,4.346538067,-1.980386019
189,1.55965503179e+18,-4.924488544,3.937992096,-1.269593954
190,1.55965503184e+18,-3.198475838,2.271175146,-1.428354025
191,1.5596550319e+18,-2.994673252,0.4199752808,-0.8784127235
192,1.55965503196e+18,-2.540412903,-0.8682932854,-0.5825805664
193,1.55965503202e+18,-1.49738121,-0.284678936,1.462573528
194,1.55965503207e+18,-3.592962265,0.06308543682,1.855318069
195,1.55965503213e+18,-3.675451279,2.041659117,1.604646683
196,1.55965503218e+18,-4.074015617,3.038344622,0.08914804459
197,1.55965503224e+18,-3.313986778,8.113958359,-6.245847225
198,1.5596550323e+18,5.911585331,6.960350037,-6.99590683
199,1.55965503236e+18,-10.45913792,-12.59422016,-3.821443796
200,1.55965503242e+18,-4.387412548,-4.256361008,-6.387258053
201,1.55965503248e+18,3.418934584,-1.440282583,-5.346158981
202,1.55965503253e+18,5.426308155,-9.5008564,-5.527861118
203,1.55965503258e+18,1.386037827,-13.16480541,-19.60890579
204,1.55965503263e+18,-2.840345383,-19.66911697,-4.619690418
205,1.55965503269e+18,4.246800423,-2.981352568,-3.524407148
206,1.55965503274e+18,5.014647484,-6.701080799,9.707271576
207,1.5596550328e+18,-7.370454788,-4.664514065,9.392944336
208,1.55965503286e+18,-5.524722099,-6.105895042,15.66062355
209,1.55965503292e+18,-8.360647202,-2.14833951,11.95099258
210,1.55965503297e+18,-3.152230263,-4.012527466,11.34864044
211,1.55965503303e+18,-1.595724106,-1.458760262,6.854552269
212,1.55965503308e+18,0.7738265991,-0.221978426,2.988488197
213,1.55965503314e+18,0.3774824142,1.512894273,0.7733316422
214,1.5596550332e+18,1.659451962,1.002691507,0.5959048271
215,1.55965503326e+18,3.698488474,1.508652568,1.000882149
216,1.55965503331e+18,12.31687832,5.351205826,2.471421242
217,1.55965503337e+18,23.14303017,12.05469131,-0.7541189194
218,1.55965503342e+18,8.698462486,-3.72462368,1.302399635
219,1.55965503348e+18,-22.48256874,-17.57086372,-6.684159279
220,1.55965503353e+18,-8.941057205,-17.52169037,3.195167542
221,1.55965503359e+18,0.01699862815,-5.246478081,-4.89786911
222,1.55965503364e+18,4.897079468,0.4988620281,-6.510886192
223,1.55965503369e+18,3.597213745,1.614585638,-6.713160515
224,1.55965503375e+18,4.685378551,2.103539944,-4.951479435
225,1.5596550338e+18,4.311122417,1.19114852,-2.822728634
226,1.55965503386e+18,3.439470291,0.5733948946,-0.7990579605
227,1.55965503392e+18,2.081758738,-1.29102695,1.081716537
228,1.55965503398e+18,-0.268260479,-1.801849723,-3.099185944
229,1.55965503404e+18,-4.669190884,-3.248494148,-0.6388764381
230,1.5596550341e+18,-4.693737984,-0.3106923103,-1.960199833
231,1.55965503416e+18,-5.512518883,1.862671852,-0.468360424
232,1.55965503421e+18,-4.865711212,3.107901812,0.8213009834
233,1.55965503427e+18,-7.09676218,3.654306173,2.555447578
234,1.55965503432e+18,-9.727711678,3.627050877,4.958395481
235,1.55965503438e+18,-11.77686691,5.721048355,4.911086559
236,1.55965503443e+18,-8.961167336,4.600626945,6.532282829
237,1.55965503449e+18,-3.984332561,3.036821604,4.524065495
238,1.55965503454e+18,-1.335456371,4.89923811,4.887513161
239,1.5596550346e+18,3.90763998,8.495247841,2.295881033
240,1.55965503466e+18,6.050723076,2.032117367,4.410646915
241,1.55965503472e+18,-8.568089485,3.16160059,-2.202293634
242,1.55965503478e+18,-8.283988953,1.9882164,-7.353654861
243,1.55965503484e+18,3.03006506,3.844430923,-3.974737167
244,1.55965503489e+18,7.16911459,-2.690442562,-3.66940093
245,1.55965503494e+18,0.3557424545,-12.30558395,-5.536245346
246,1.559655035e+18,0.1139125824,-20.42928696,-11.92503357
247,1.55965503505e+18,-10.12964725,-11.72470284,-12.06066895
248,1.55965503511e+18,9.021541595,20.75829506,20.70227242
249,1.55965503517e+18,-12.61749554,-4.619838715,7.87357235
250,1.55965503523e+18,-8.908936501,1.944052458,8.360346794
251,1.55965503529e+18,1.369766235,3.186691046,2.28463316
252,1.55965503535e+18,-0.6162824631,3.289147139,9.155225754
253,1.55965503541e+18,2.993833065,1.745669127,2.505057812
254,1.55965503546e+18,4.141963959,3.006878138,-1.24104929
255,1.55965503552e+18,2.648300171,1.818037629,0.1905183792
256,1.55965503557e+18,0.3868741989,2.753058672,0.5155153275
257,1.55965503563e+18,0.02835845947,3.616059303,2.572155952
258,1.55965503569e+18,9.168334961,7.004909515,8.854604721
259,1.55965503574e+18,16.20326424,16.17386436,9.161439896
260,1.55965503579e+18,13.01500988,18.25473213,3.378403664
261,1.55965503585e+18,-25.93389893,-6.645914078,6.683447838
262,1.5596550359e+18,-3.238534927,-23.88362885,-9.828804016
263,1.55965503596e+18,-5.089048862,-19.07905769,-2.8116889
264,1.55965503602e+18,4.120601654,-5.110023975,-9.837874413
265,1.55965503608e+18,5.52520752,0.04035377502,-6.57245636
266,1.55965503614e+18,2.478687525,-3.2468822,-3.281839848
267,1.5596550362e+18,5.776531696,-3.438568592,-1.564120293
268,1.55965503626e+18,4.172054768,-1.100733995,-0.2821016312
269,1.55965503631e+18,1.624329567,-2.843973637,3.060440063
270,1.55965503637e+18,-1.209731102,-7.031332016,4.276904583
271,1.55965503643e+18,-7.475827694,-4.377586365,2.382749557
272,1.55965503649e+18,-11.07769203,-0.5675363541,0.3610010147
273,1.55965503655e+18,-8.91312027,5.267052174,-1.321460485
274,1.55965503661e+18,-7.027897835,8.696318626,-1.304159045
275,1.55965503667e+18,-6.08809185,6.025242805,-1.049737573
276,1.55965503672e+18,-4.598186016,3.828877211,-1.965213656
277,1.55965503677e+18,-4.237898827,1.159237385,-1.56458354
278,1.55965503682e+18,-3.362271309,-1.251871586,-1.628752232
279,1.55965503688e+18,-2.257949829,-2.119668484,-1.291550636
280,1.55965503693e+18,-0.3897533417,-3.247866869,-1.124474525
281,1.55965503699e+18,2.059207916,-2.48840332,-0.362067461
282,1.55965503704e+18,1.377827168,-1.740932941,0.09294223785
283,1.55965503709e+18,1.055503845,0.8205133677,0.3252487183
284,1.55965503715e+18,-2.089182854,1.949340343,1.23930645
285,1.55965503721e+18,-1.968090057,1.508381963,2.050991774
286,1.55965503727e+18,-6.138279915,0.9343400002,4.429931641
287,1.55965503732e+18,-6.730596542,0.4571425915,5.032556534
288,1.55965503738e+18,-1.35278368,0.1885857582,2.791598797
289,1.55965503744e+18,2.723628521,1.327427864,-1.226107597
290,1.5596550375e+18,2.547772408,-1.592982769,-1.589922905
291,1.55965503755e+18,-0.7500207424,-4.489530087,-4.765428066
292,1.55965503761e+18,0.5179746151,-7.883984089,-3.41103673
293,1.55965503767e+18,-3.767157793,-13.37710381,-4.762098789
294,1.55965503773e+18,5.349689484,-8.47119236,-31.95549202
295,1.55965503779e+18,17.61657524,1.718032837,-15.00672913
296,1.55965503785e+18,5.899971485,-3.721450806,-2.585916519
297,1.55965503791e+18,2.810578823,-0.5159826279,-5.10036087
298,1.55965503796e+18,3.532048464,-0.1027984619,-3.02288413
299,1.55965503802e+18,-2.365562916,-1.411551476,-3.354694843
300,1.55965503807e+18,-2.302119255,-0.309094429,-3.879382372
301,1.55965503813e+18,5.110793114,1.16637516,3.294709206
302,1.55965503819e+18,3.362647057,0.3778891563,2.721747398
303,1.55965503825e+18,2.128208637,1.720132351,3.362106323
304,1.5596550383e+18,2.6297369,2.978846073,3.573741913
305,1.55965503836e+18,4.723889351,1.807002544,2.549707413
306,1.55965503841e+18,8.241568565,4.282738686,5.978014946
307,1.55965503847e+18,15.95373535,9.215055466,7.829831123
308,1.55965503852e+18,19.42132187,15.52383041,2.077654839
309,1.55965503858e+18,-0.6340193748,-3.339200497,8.949842453
310,1.55965503864e+18,-6.513701439,-15.42165756,-31.3474102
311,1.5596550387e+18,-4.959227085,-30.67828178,-1.912943363
312,1.55965503875e+18,-1.170471787,-11.56028557,-5.199172974
313,1.5596550388e+18,3.361577988,-3.238569021,-10.01727486
314,1.55965503885e+18,2.421856403,-1.265574932,-5.126382828
315,1.55965503891e+18,1.563417912,-3.330764771,-3.276628017
316,1.55965503896e+18,2.685765505,-4.047971249,-2.005618572
317,1.55965503902e+18,2.029654026,-4.339237213,1.103420258
318,1.55965503907e+18,0.9270727634,-3.688643932,1.446030617
319,1.55965503913e+18,-0.5274682045,-5.697517395,0.2231264114
320,1.55965503918e+18,-6.446687698,-4.950005054,1.308678627
321,1.55965503923e+18,-8.73503685,-3.769050598,-0.6963150501
322,1.55965503929e+18,-9.584115982,0.9045944214,1.315919638
323,1.55965503934e+18,-8.202987671,3.989944458,1.156523466
324,1.5596550394e+18,-9.141004562,6.129586697,-0.1204326153
325,1.55965503946e+18,-7.266930103,6.722330093,-0.4413888454
326,1.55965503952e+18,-4.630029678,5.79485178,-0.1405982971
327,1.55965503957e+18,-3.589061737,3.187089205,-0.1378698349
328,1.55965503963e+18,-6.892967701,-1.679343224,0.3431575298
329,1.55965503969e+18,-6.152750969,-4.106115818,4.391940594
330,1.55965503974e+18,-0.8322582245,-4.599440575,8.472755432
331,1.5596550398e+18,7.162566662,-3.173671246,15.13759518
332,1.55965503986e+18,4.713794708,1.069852591,10.48864174
333,1.55965503991e+18,-0.993888855,-0.5856742859,5.663721085
334,1.55965503997e+18,-1.325425148,-12.17096901,2.340391874
335,1.55965504002e+18,2.465827465,-12.91261482,-3.847439766
336,1.55965504008e+18,8.752029419,-15.49407387,1.238832474
337,1.55965504014e+18,4.383244514,-15.31377029,-6.455929756
338,1.5596550402e+18,27.20298576,-1.539506793,-52.48868179
339,1.55965504025e+18,-10.43984699,-12.50283432,-17.25689316
340,1.55965504031e+18,-0.2128896713,2.948302746,-14.65507793
341,1.55965504037e+18,-13.88194275,-2.095072746,-12.60990524
342,1.55965504043e+18,-13.91755104,0.4682226181,-13.77222157
343,1.55965504048e+18,-16.74053955,1.093676567,-14.43284988
344,1.55965504054e+18,-14.74507141,7.190373421,-8.706163406
345,1.55965504059e+18,-9.976895332,7.442406178,-10.29360199
346,1.55965504065e+18,-2.735524178,7.75239563,-4.051628113
347,1.55965504071e+18,-0.1266775131,6.309096336,-2.833239555
348,1.55965504076e+18,1.721682549,4.791783333,-2.326821327
349,1.55965504081e+18,1.530204296,2.885483027,-1.685935736
350,1.55965504087e+18,1.084737778,1.653684855,-4.181602955
351,1.55965504092e+18,-1.13816309,1.763399363,-1.622106552
352,1.55965504098e+18,0.6855101585,0.699098289,-2.663225412
353,1.55965504103e+18,0.6652879715,1.394532919,0.1177911758
354,1.55965504109e+18,2.791653395,4.337042809,5.383780479
355,1.55965504115e+18,12.84494877,11.09350777,11.87469006
356,1.55965504121e+18,15.15009117,15.36662579,2.163243294
357,1.55965504126e+18,-5.522521496,-9.990008354,5.815995216
358,1.55965504132e+18,-11.67751598,-20.58367157,-11.41961002
359,1.55965504138e+18,1.349092484,-20.86063576,8.739033699
360,1.55965504144e+18,4.319113731,-9.826102257,-5.281017303
361,1.5596550415e+18,6.02388382,-3.483592749,-5.695115089
362,1.55965504156e+18,3.843066692,-4.868374825,-2.241473198
363,1.55965504162e+18,5.939948559,-4.670057774,0.04295635223
364,1.55965504167e+18,5.212491035,-5.346387863,1.230304718
365,1.55965504173e+18,3.609519958,-4.616708755,1.019542694
366,1.55965504178e+18,1.063323498,-5.281702995,2.209422112
367,1.55965504184e+18,-2.912393093,-3.201248884,2.726106167
368,1.5596550419e+18,-7.762290001,-1.857270241,0.1875112057
369,1.55965504196e+18,-6.575450897,3.839909077,3.018759012
370,1.55965504202e+18,-8.360795021,4.543694496,-0.9802571535
371,1.55965504207e+18,-9.493813515,5.043812752,0.4503222704
372,1.55965504212e+18,-8.974862099,4.788078308,0.2411804795
373,1.55965504217e+18,-6.907214165,5.141475677,-0.8252888918
374,1.55965504223e+18,-3.554989338,4.612196922,1.229756832
375,1.55965504228e+18,-1.950697422,4.497125626,1.157265663
376,1.55965504234e+18,-3.18126297,3.565607309,-0.3155363798
377,1.55965504239e+18,-4.138612747,3.189912319,-0.1768679023
378,1.55965504244e+18,-5.268263817,2.13498497,-0.2640267015
379,1.5596550425e+18,-2.269652367,2.187594891,0.9315108061
380,1.55965504255e+18,-2.284166336,0.7269964218,-0.3413673639
381,1.55965504261e+18,2.157763958,0.5849092007,-2.039727449
382,1.55965504267e+18,5.069643021,-0.05207657814,-2.321894884
383,1.55965504273e+18,6.611393929,-1.57266736,-3.087596655
384,1.55965504279e+18,10.07983589,-4.906282902,0.3953278065
385,1.55965504285e+18,5.63874054,-19.40405083,-8.096878052
386,1.55965504291e+18,-4.365320206,-11.61761284,-3.377097607
387,1.55965504296e+18,7.304299355,1.040584683,27.61739159
388,1.55965504302e+18,-20.39479828,-1.599529266,0.34435004
389,1.55965504307e+18,-6.086352348,1.914234042,9.264086723
390,1.55965504313e+18,-13.55351543,4.766644955,4.065275669
391,1.55965504319e+18,-8.560277939,5.949719429,6.147418976
392,1.55965504325e+18,-1.952208519,12.11363888,4.775422573
393,1.5596550433e+18,5.524553299,7.653100967,8.16713047
394,1.55965504336e+18,-0.157125473,7.954394341,5.83276844
395,1.55965504342e+18,-0.5098295212,6.709815025,6.915029049
396,1.55965504348e+18,-0.4004178047,6.199571133,7.747732162
397,1.55965504353e+18,10.77987289,11.55038261,6.422457695
398,1.55965504359e+18,5.749488831,4.375211239,6.825809479
399,1.55965504364e+18,-24.93159103,-12.90349388,9.325161934
400,1.5596550437e+18,-5.783167839,-15.31030464,-1.669342518
401,1.55965504376e+18,0.7001491785,-13.16591835,-2.496520042
402,1.55965504382e+18,3.910860538,-4.602998257,-7.336644173
403,1.55965504387e+18,4.191905975,-1.676083207,-5.721037865
404,1.55965504393e+18,4.522830963,-0.7846491337,-3.703534126
405,1.55965504398e+18,5.098065853,-2.206396103,-1.725541115
406,1.55965504404e+18,4.545105934,-1.826950788,-2.199863434
407,1.5596550441e+18,4.544854164,-3.462985039,-1.368308067
408,1.55965504416e+18,0.6872706413,-6.908509254,-0.3542494774
409,1.55965504421e+18,-5.491155624,-10.49714565,2.72050333
410,1.55965504427e+18,-11.56130219,-5.690361977,-0.5080791116
411,1.55965504432e+18,-12.33869553,0.1750555038,-0.8086101413
412,1.55965504438e+18,-10.789114,4.075834751,0.2285173535
413,1.55965504443e+18,-11.79455948,6.858808517,-0.6500267982
414,1.55965504449e+18,-12.72934723,6.300455093,-2.832924843
415,1.55965504454e+18,-12.17619228,5.689864635,-1.548518419
416,1.5596550446e+18,-9.131684303,4.976051807,-0.7117934823
417,1.55965504465e+18,-5.917467117,4.656673908,0.2961089611
418,1.55965504471e+18,-4.221882343,3.599363327,-0.8071851134
419,1.55965504477e+18,-3.537798405,1.919686794,-0.7854446173
420,1.55965504483e+18,-0.3461103439,0.362528801,-0.1287894547
421,1.55965504489e+18,3.895793915,-0.7041959763,0.02448803186
422,1.55965504494e+18,2.599610329,-3.615400791,-1.020655513
423,1.559655045e+18,4.152113914,-2.732399464,-1.319067359
424,1.55965504505e+18,3.520233631,-2.206293583,0.5151920319
425,1.55965504511e+18,-0.3034658432,-0.2648181915,1.706567168
426,1.55965504517e+18,-5.912912369,2.682641268,2.768328667
427,1.55965504523e+18,-9.177970886,6.746285915,1.690775275
428,1.55965504529e+18,-4.224414825,3.42048955,2.712214947
429,1.55965504535e+18,-3.501268387,3.314484119,-0.3360073864
430,1.55965504541e+18,1.720234871,2.938677549,-3.869686842
431,1.55965504546e+18,9.053525925,2.366243362,-1.660594463
432,1.55965504552e+18,12.32130432,-6.314528465,-2.594800472
433,1.55965504557e+18,-16.74048996,-13.54358768,-10.88774109
434,1.55965504562e+18,-4.779332161,-9.164973259,-11.78758812
435,1.55965504567e+18,-2.668473244,22.75871086,-14.45601463
436,1.55965504573e+18,3.355973244,5.763300896,1.75960815
437,1.55965504579e+18,1.169295788,4.060918808,3.122737885
438,1.55965504585e+18,1.459505558,3.289335966,-2.11153841
439,1.55965504591e+18,10.24756813,1.33515358,-5.401762962
440,1.55965504597e+18,0.6164865494,-5.822303295,2.974143982
441,1.55965504602e+18,0.8572753668,0.8374111652,-1.228085041
442,1.55965504608e+18,1.386513948,-0.07992267609,-0.2703952789
443,1.55965504614e+18,1.230006814,0.5525786877,-0.5754642487
444,1.5596550462e+18,1.994553804,0.5718801022,2.225718498
445,1.55965504626e+18,5.440893173,2.729561329,4.984304428
446,1.55965504632e+18,17.48116684,7.974792957,6.138595581
447,1.55965504637e+18,24.77279663,14.24943542,-3.565867662
448,1.55965504643e+18,-4.537743092,-11.60146523,1.435065746
449,1.55965504648e+18,-15.08757877,-20.57646179,-8.032822609
450,1.55965504654e+18,-5.214012623,-15.03545666,0.7729988098
451,1.5596550466e+18,-1.3348248,-7.067089558,-5.45296669
452,1.55965504666e+18,2.993551731,-0.7080706358,-7.618556976
453,1.55965504671e+18,2.408845663,1.556494951,-6.895496845
454,1.55965504677e+18,3.490940332,-0.3939062357,-4.393579483
455,1.55965504682e+18,4.407697201,-0.7847532034,-3.544840336
456,1.55965504688e+18,3.775071144,0.2506351471,-2.847520351
457,1.55965504694e+18,2.50323534,-1.43168819,-4.36423111
458,1.559655047e+18,-1.009963512,-6.197148323,-0.7965712547
459,1.55965504705e+18,-3.347899437,-7.711398602,-0.4522657394
460,1.55965504711e+18,-6.193078518,-8.554470062,2.544582367
461,1.55965504716e+18,-5.874432564,-4.209574699,2.643119335
462,1.55965504722e+18,-10.65566063,-1.276594162,3.680055141
463,1.55965504727e+18,-12.89696598,0.3336610794,1.941108346
464,1.55965504733e+18,-10.80388737,2.379970074,3.556992531
465,1.55965504739e+18,-7.955123425,2.234835148,4.046597004
466,1.55965504745e+18,-7.933242321,2.108210087,0.5342649221
467,1.55965504751e+18,-12.08181,-1.569543839,-2.404162407
468,1.55965504757e+18,-9.220071793,-3.532817841,1.223617315
469,1.55965504762e+18,-5.164108276,-3.245755672,-0.1882367134
470,1.55965504768e+18,2.082433224,-4.59850502,0.2027699947
471,1.55965504773e+18,6.211583138,-3.255715609,-1.749150276
472,1.55965504779e+18,8.195920944,-3.124424458,-2.047465324
473,1.55965504785e+18,8.999851227,-6.360602856,-4.941932678
474,1.55965504791e+18,5.577843666,-13.60072613,-11.06699181
475,1.55965504796e+18,2.121408939,-9.93967247,-4.73216486
476,1.55965504802e+18,6.994286537,8.050778389,6.959803581
477,1.55965504807e+18,-21.87115097,1.422035933,-6.53085041
478,1.55965504813e+18,-4.808389664,12.47266197,5.452799797
479,1.55965504819e+18,-10.99219894,8.683273315,5.391499996
480,1.55965504825e+18,-8.90372467,9.524831772,4.918124676
481,1.5596550483e+18,-2.79888916,9.84602356,1.833554029
482,1.55965504836e+18,1.783988953,6.147842407,1.166105747
483,1.55965504841e+18,3.945342541,5.10558939,2.656078815
484,1.55965504847e+18,2.342278004,3.548233986,-0.4970502853
485,1.55965504852e+18,2.961873293,3.131181717,2.305130482
486,1.55965504858e+18,3.823234081,5.408102989,5.910729408
487,1.55965504864e+18,10.31106758,10.20386124,4.25772953
488,1.55965504869e+18,16.85016823,16.40479851,-3.326079845
489,1.55965504875e+18,1.944031596,-0.9781525135,0.7004737854
490,1.5596550488e+18,-22.76535416,-13.25600338,-2.718317986
491,1.55965504885e+18,7.327777386,-10.62425518,-14.86787224
492,1.55965504891e+18,-1.093538284,-20.64762306,6.984955788
493,1.55965504897e+18,1.217846155,-0.9650914669,-10.62340641
494,1.55965504903e+18,4.876153946,0.938678503,-7.311541557
495,1.55965504909e+18,1.049517632,-2.298814774,-3.468673706
496,1.55965504915e+18,5.127178192,-2.015433311,-2.32528162
497,1.5596550492e+18,4.619330883,-2.529538631,-0.1271896362
498,1.55965504926e+18,3.137682676,-4.619596481,1.676107407
499,1.55965504931e+18,-0.2340149879,-6.004154205,3.860703468
500,1.55965504937e+18,-3.070583344,-5.523150444,3.184933424
501,1.55965504942e+18,-8.714841843,-5.560426712,3.855160713
502,1.55965504948e+18,-11.01493454,-2.13572979,4.059663773
503,1.55965504954e+18,-12.064744,2.220243454,2.544193268
504,1.5596550496e+18,-11.24157619,5.59318924,1.287567139
505,1.55965504965e+18,-9.505533218,5.416875362,1.136222005
506,1.55965504971e+18,-9.366324425,2.127563,0.6035320759
507,1.55965504977e+18,-7.445748329,-0.008242607117,-0.06008327007
508,1.55965504983e+18,-4.697910309,-1.052779198,-0.3190711737
509,1.55965504989e+18,-2.408822536,-1.338070393,-1.532144904
510,1.55965504995e+18,-1.011330128,-2.285094738,-1.037262678
511,1.55965505001e+18,0.6222076416,-2.532014847,-1.377028346
512,1.55965505007e+18,1.814444542,-2.323075294,-0.602571547
513,1.55965505012e+18,2.570518017,-0.9366340637,0.8422330618
514,1.55965505018e+18,1.419659138,1.0998137,2.35763216
515,1.55965505024e+18,-2.625514984,2.999955893,4.089128017
516,1.5596550503e+18,-1.544854164,3.817762375,5.914753914
517,1.55965505036e+18,0.152721405,1.504281044,6.095294952
518,1.55965505042e+18,-1.199635506,-0.4389123917,1.27912569
519,1.55965505047e+18,1.520801544,-0.8460588455,-1.21950078
520,1.55965505052e+18,4.661325932,-1.229209423,-3.028077126
521,1.55965505057e+18,4.746704578,-4.327352524,-0.0387840271
522,1.55965505063e+18,2.214934826,-14.32215214,0.2854511738
523,1.55965505069e+18,-0.2109260559,-16.48876572,-13.59834671
524,1.55965505075e+18,0.7638139725,4.9046278,-50.35473633
525,1.5596550508e+18,2.71491766,6.32746315,-9.933081627
526,1.55965505086e+18,-6.565275192,8.68918705,-16.25003433
527,1.55965505091e+18,-1.341771126,8.63723278,-7.747873306
528,1.55965505097e+18,-2.056527138,11.04658413,-7.308074951
529,1.55965505102e+18,-3.835139275,10.08306313,-4.579089165
530,1.55965505108e+18,-2.601053238,7.988015652,-4.346896172
531,1.55965505114e+18,0.8088512421,4.816009998,-8.118367195
532,1.5596550512e+18,10.88110924,0.8126346469,-0.6234264374
533,1.55965505126e+18,2.025120735,3.146559238,2.003439426
534,1.55965505132e+18,-0.1092400551,2.23551774,-2.522554874
535,1.55965505137e+18,2.38641119,-1.463867664,1.742841721
536,1.55965505143e+18,-0.3816390038,1.407678604,-2.100578308
537,1.55965505148e+18,3.655405283,2.441150188,0.007449150085
538,1.55965505154e+18,2.143154383,0.8585674763,-0.6141443253
539,1.5596550516e+18,1.650814414,0.7228125334,-0.01346302032
540,1.55965505166e+18,3.966782093,2.917027473,4.430898666
541,1.55965505171e+18,10.40750599,6.219517708,3.289168358
542,1.55965505177e+18,24.26405334,12.97499084,-6.149180412
543,1.55965505182e+18,3.458510399,-4.298599243,-3.4560256
544,1.55965505188e+18,-15.15110397,-15.45560074,3.794089317
545,1.55965505194e+18,-9.031936646,-12.67625618,-2.354991913
546,1.55965505199e+18,-4.966842175,-10.2509737,-1.719573975
547,1.55965505204e+18,-0.5992581844,-2.220051765,-6.910437584
548,1.5596550521e+18,1.292646646,0.5435298681,-6.279310703
549,1.55965505215e+18,1.71880579,-1.166645527,-3.029688358
550,1.55965505221e+18,3.664327145,-1.138087273,-4.173909187
551,1.55965505227e+18,3.857830524,-0.8156745434,-2.819182396
552,1.55965505233e+18,3.998873711,-0.334559679,-3.570850849
553,1.55965505239e+18,-1.97902441,-6.041118622,0.03755140305
554,1.55965505244e+18,-5.068501949,-6.431272507,1.15621233
555,1.55965505249e+18,-10.14314747,-5.570926666,3.925657511
556,1.55965505254e+18,-9.943593979,-0.9262523651,3.190784693
557,1.5596550526e+18,-11.71304226,3.596282005,0.383923769
558,1.55965505266e+18,-10.45511627,7.139760017,-0.0501074791
559,1.55965505272e+18,-9.15444088,6.472690582,-1.227355599
560,1.55965505278e+18,-8.207267761,3.944966316,-1.24704349
561,1.55965505284e+18,-5.115402699,2.430117607,-1.223749757
562,1.5596550529e+18,-5.711605549,-1.74050951,0.1587126255
563,1.55965505295e+18,-3.643155098,-2.311456203,0.5137898922
564,1.55965505301e+18,-0.2082567215,-0.9766263962,1.055980444
565,1.55965505306e+18,1.192276478,0.5953192711,1.35676384
566,1.55965505312e+18,-2.006919861,1.837398887,1.929270387
567,1.55965505317e+18,-4.414246559,2.088000774,-1.376932979
568,1.55965505322e+18,-1.91116333,3.335790157,-1.291305423
569,1.55965505328e+18,-1.619735718,1.276721239,-1.6577878
570,1.55965505333e+18,3.873363018,0.1553618908,-1.645123363
571,1.55965505339e+18,5.756827354,-2.978061676,-2.257097483
572,1.55965505345e+18,6.127369404,-7.101868153,-4.513856411
573,1.55965505351e+18,7.059468269,-11.00362206,-5.784846306
574,1.55965505357e+18,1.966502666,-12.71926689,-10.06084633
575,1.55965505363e+18,0.3555383682,-10.2951889,8.64804554
576,1.55965505369e+18,-3.626011848,15.01315308,13.66256618
577,1.55965505375e+18,-10.0613451,3.284246445,7.676100254
578,1.55965505381e+18,-4.303196907,3.461218596,10.40149403
579,1.55965505386e+18,-5.783073425,4.866744041,4.615728378
580,1.55965505392e+18,-1.217104912,5.415341377,3.506775856
581,1.55965505398e+18,3.528581142,3.723907948,7.015218735
582,1.55965505404e+18,-1.064387321,3.165684938,1.472999096
583,1.5596550541e+18,3.47993803,1.441184521,-3.974923134
584,1.55965505416e+18,1.816894054,0.60273844,0.3918948174
585,1.55965505422e+18,1.730331659,1.413612604,-0.9533309937
586,1.55965505427e+18,3.552947044,2.067868948,2.875653267
587,1.55965505432e+18,4.028365135,3.823382616,1.433040619
588,1.55965505438e+18,9.115804672,10.03608036,3.74180603
589,1.55965505444e+18,19.16785622,17.63715744,-3.405716419
590,1.5596550545e+18,-0.6107577085,-4.865420818,5.342198372
591,1.55965505455e+18,-25.08769989,-20.84379578,-9.151033401
592,1.55965505461e+18,-0.6013799906,-20.71408844,1.55200386
593,1.55965505466e+18,-3.620694637,-13.2336216,-9.059924126
594,1.55965505472e+18,7.101316452,-2.105136871,-7.780265331
595,1.55965505477e+18,6.275267601,1.744722605,-4.573519707
596,1.55965505483e+18,6.80735302,-2.933294535,-5.056994438
597,1.55965505488e+18,5.807645798,-4.385868549,-3.419837952
598,1.55965505494e+18,2.749967337,-7.392878532,-1.386940479
599,1.559655055e+18,-1.032371044,-10.18981361,2.827358246
600,1.55965505505e+18,-4.736785889,-12.67021847,4.197328091
601,1.55965505511e+18,-9.349163055,-8.847910881,5.762422562
602,1.55965505517e+18,-11.74126816,-2.149507523,4.154096603
603,1.55965505522e+18,-12.86118889,2.614515305,3.018590689
604,1.55965505528e+18,-12.5298748,3.274627686,3.223865032
605,1.55965505534e+18,-10.4621191,1.749423504,3.11887455
606,1.5596550554e+18,-9.478604317,0.2975559235,1.690833569
607,1.55965505546e+18,-8.825515747,-2.432606697,0.6633777618
608,1.55965505552e+18,-5.398300171,-2.022801399,1.708538651
609,1.55965505557e+18,-1.810789108,-1.721898079,2.563236713
610,1.55965505563e+18,-0.1423420906,-1.058889389,2.300978422
611,1.55965505569e+18,-0.6966261864,-0.7773828506,-1.090128422
612,1.55965505575e+18,0.8224077225,-2.177227497,-1.692394257
613,1.5596550558e+18,4.082586765,-1.660973549,-1.087185502
614,1.55965505586e+18,6.376762867,-2.647861004,0.3202626705
615,1.55965505591e+18,5.586128235,-1.187507153,1.435014009
616,1.55965505597e+18,2.783313751,0.0210185051,1.109962463
617,1.55965505602e+18,-2.332279205,3.900743723,-0.451120019
618,1.55965505608e+18,-9.427192688,7.530831814,-2.112661123
619,1.55965505614e+18,-6.712960243,5.538686275,0.5464296341
620,1.5596550562e+18,-3.022191048,5.663071632,-1.165901303
621,1.55965505626e+18,-0.1843776703,4.513016224,-2.664248228
622,1.55965505632e+18,-0.06072044373,1.086236835,-2.861795664
623,1.55965505637e+18,1.794992447,-0.5996138453,-3.178438187
624,1.55965505643e+18,-1.462471962,-5.360106945,-2.641415834
625,1.55965505649e+18,-0.05221366882,-9.074559212,-0.8748623133
626,1.55965505655e+18,5.054314613,-30.07745552,13.0511322
627,1.55965505661e+18,-2.357067108,20.60002899,-12.24699116
628,1.55965505667e+18,5.904761314,3.386005163,-3.708412647
629,1.55965505672e+18,6.082570553,5.871274948,-3.674649477
630,1.55965505677e+18,3.693617582,4.539231777,-5.737913132
631,1.55965505682e+18,7.594149113,2.991814613,1.437879086
632,1.55965505688e+18,5.659130573,0.6592669487,2.134150505
633,1.55965505694e+18,5.4677248,2.467761993,-0.03583812714
634,1.559655057e+18,5.991466999,4.383750439,0.003687858582
635,1.55965505705e+18,7.512647152,5.019523144,-4.150375366
636,1.55965505711e+18,11.80480194,12.10337543,-14.48245525
637,1.55965505716e+18,9.736058235,1.586136341,-6.288420677
638,1.55965505722e+18,-26.53326988,-17.85494614,-5.092128754
639,1.55965505727e+18,3.781562805,-29.43285942,-12.48400307
640,1.55965505733e+18,0.6481533051,-26.96169662,-1.931930065
641,1.55965505739e+18,4.878936291,-2.136960506,-3.566589355
642,1.55965505745e+18,5.222079277,-0.721990943,-5.404215813
643,1.55965505751e+18,-1.313216686,-2.471775532,-2.379941463
644,1.55965505757e+18,2.06867671,-4.539836884,1.536421776
645,1.55965505762e+18,4.08404398,-2.958255768,3.660673141
646,1.55965505768e+18,2.206002951,-2.738154411,4.440903664
647,1.55965505773e+18,-0.2972874641,-1.837872982,1.674208164
648,1.55965505779e+18,-3.841366768,0.3232483864,-0.5921106339
649,1.55965505785e+18,-4.145859718,1.998044014,-1.107413292
650,1.55965505791e+18,-4.297244549,1.84750843,-1.430053234
651,1.55965505797e+18,-3.745290756,1.307317734,-1.221460342
652,1.55965505803e+18,-3.606020451,0.7529668808,-1.318427324
653,1.55965505808e+18,-3.48268795,0.0253071785,-1.894451857
654,1.55965505814e+18,-3.027318001,-0.2826581001,-1.658612132
655,1.5596550582e+18,-0.3328971863,0.3860187531,-1.194741488
656,1.55965505826e+18,0.8767690659,-1.164688587,0.305044651
657,1.55965505831e+18,2.156881332,-1.349945784,0.7001457214
658,1.55965505837e+18,2.948312759,-0.8209457397,1.63070035
659,1.55965505843e+18,1.954916954,-0.09009814262,1.710845947
660,1.55965505849e+18,0.5270681381,0.5377967358,1.109031677
661,1.55965505855e+18,-1.055620193,-0.2625236511,-0.5057457685
662,1.55965505861e+18,-1.0599823,-0.9741051197,-0.9436854124
663,1.55965505867e+18,0.6076040268,-0.5217623711,-0.1825922728
664,1.55965505872e+18,1.005472183,0.2207520008,-1.278998137
665,1.55965505877e+18,2.012701035,0.9932227135,-1.290262103
666,1.55965505883e+18,1.041229248,-0.8017692566,-0.6765404344
667,1.55965505888e+18,0.3699922562,-2.442920446,-2.231539965
668,1.55965505894e+18,1.24515152,-1.356571913,-1.650328875
669,1.559655059e+18,1.1564188,-0.5097916126,-1.364413381
670,1.55965505906e+18,-2.064725876,0.2430665493,-1.020801067
671,1.55965505911e+18,-4.306078911,2.78414011,0.7512537241
672,1.55965505917e+18,-3.939326286,4.515623569,-0.4681634307
673,1.55965505922e+18,-5.388836861,2.289083242,1.132578611
674,1.55965505927e+18,-4.04847908,0.02674031258,0.6323674917
675,1.55965505932e+18,-1.832838058,-2.689112186,-0.7886865139
676,1.55965505938e+18,-2.82704258,-7.001168728,-2.930327177
677,1.55965505944e+18,6.959515572,-9.292611122,-10.28198433
678,1.5596550595e+18,9.38998127,-3.356897593,6.136987686
679,1.55965505955e+18,-5.705327988,19.92410278,-19.25069809
680,1.55965505961e+18,-0.2471637726,5.22924614,-0.1935024261
681,1.55965505966e+18,7.588710785,3.651396036,-1.243774414
682,1.55965505972e+18,6.860381126,2.625125647,-1.294671535
683,1.55965505977e+18,5.599154472,3.47007966,0.5971679688
684,1.55965505983e+18,5.48982811,2.469645977,1.322484016
685,1.55965505989e+18,6.820662975,6.655299664,2.448041916
686,1.55965505995e+18,18.96512604,17.93564034,3.670298576
687,1.55965506001e+18,14.65052891,12.23435116,2.119065762
688,1.55965506006e+18,-13.81924915,-11.62652016,18.62866211
689,1.55965506012e+18,-9.712744713,-26.58393478,1.323501587
690,1.55965506018e+18,-2.884399891,-19.09549141,-4.082652569
691,1.55965506023e+18,1.303120494,-9.017621994,-6.537840843
692,1.55965506029e+18,3.475314617,-0.4560379982,-6.421737194
693,1.55965506035e+18,2.481680632,-3.013678551,-3.269917965
694,1.55965506041e+18,4.624876499,-1.291276693,-2.415122509
695,1.55965506046e+18,4.407377243,-0.2536962032,-0.936413765
696,1.55965506052e+18,2.982764006,-1.792675734,0.002063751221
697,1.55965506057e+18,-1.51595068,-5.692708492,1.108550072
698,1.55965506063e+18,-6.942511559,-4.407090664,-0.1522173882
699,1.55965506068e+18,-8.462317467,-1.632447958,-1.865580201
700,1.55965506074e+18,-8.075354576,3.14551425,-1.204759121
701,1.55965506079e+18,-7.994430065,4.503695488,-1.745955229
702,1.55965506085e+18,-4.913146019,5.3869524,-1.19418025
703,1.5596550609e+18,-3.03782177,4.457290173,-1.334484696
704,1.55965506095e+18,-3.040396214,2.820681572,-1.704362631
705,1.55965506101e+18,-3.173073769,0.1713244915,-2.682935715
706,1.55965506107e+18,-1.630007744,-0.7933719158,-1.751255393
707,1.55965506113e+18,0.3809766769,-0.2310122252,-0.6126775742
708,1.55965506118e+18,-1.994626045,0.4915653467,1.178675294
709,1.55965506124e+18,-5.977767944,2.152849674,2.919189453
710,1.55965506129e+18,-6.246580124,0.5598829985,3.281565666
711,1.55965506135e+18,-2.189208984,-0.3121945858,1.154671431
712,1.55965506141e+18,-1.115306854,-1.67895937,-1.908817768
713,1.55965506147e+18,1.811365128,-1.514624119,-1.106663942
714,1.55965506153e+18,4.071488857,-2.510413647,-1.996749401
715,1.55965506159e+18,5.084947109,-4.625410557,-2.796141863
716,1.55965506165e+18,5.542030811,-7.971673965,-3.74050355
717,1.5596550617e+18,0.9392118454,-15.38316345,-7.267700195
718,1.55965506176e+18,0.4306631088,-9.157581329,-10.40862846
719,1.55965506181e+18,1.843692303,-11.45048332,7.437621593
720,1.55965506187e+18,9.957018852,5.954615593,9.025794029
721,1.55965506193e+18,-3.596274376,6.220416546,9.36019516
722,1.55965506198e+18,0.4243597984,7.056944847,7.958917618
723,1.55965506204e+18,5.304267883,5.724381924,7.17804575
724,1.5596550621e+18,3.929737568,4.785937309,5.765521049
725,1.55965506215e+18,4.207092285,3.930733919,3.615702629
726,1.55965506221e+18,1.976923227,3.895100832,7.249853134
727,1.55965506227e+18,9.398123741,7.546989918,4.318651199
728,1.55965506233e+18,21.09374237,12.8185873,-6.729508877
729,1.55965506239e+18,3.490675926,-5.518325329,-0.9872965813
730,1.55965506245e+18,-22.05252266,-13.13377476,-15.58527374
731,1.55965506251e+18,-1.982032299,-13.35010719,0.2880601883
732,1.55965506256e+18,-2.966041088,-7.843326569,-1.365528107
733,1.55965506262e+18,1.431172132,-0.003689497709,-6.69912672
734,1.55965506268e+18,1.223463297,1.540960073,-5.192002773
735,1.55965506274e+18,3.984087944,1.022044301,-3.964364052
736,1.5596550628e+18,4.862530708,0.479426384,-2.71997118
737,1.55965506286e+18,3.727171421,-0.07365560532,-2.603123188
738,1.55965506291e+18,0.9582469463,-3.879188061,-0.02210521698
739,1.55965506297e+18,-1.407778978,-6.004663944,0.2173876762
740,1.55965506302e+18,-4.936887741,-8.981894493,2.433809757
741,1.55965506307e+18,-7.070204258,-7.604848862,4.048047543
742,1.55965506313e+18,-9.730861664,-4.473481178,3.89555645
743,1.55965506319e+18,-13.2153616,-2.506940842,3.232470512
744,1.55965506325e+18,-13.94254494,1.560013771,3.47137475
745,1.5596550633e+18,-12.71909046,1.422458649,4.93505621
746,1.55965506336e+18,-12.09754276,-1.495326042,6.088865757
747,1.55965506341e+18,-11.90991402,-0.2311916351,4.758384705
748,1.55965506347e+18,-12.82911396,0.5727357864,1.552177548
749,1.55965506352e+18,-10.86612988,0.5823287964,0.9087750912
750,1.55965506358e+18,-11.85069466,-4.098749161,0.04544222355
751,1.55965506364e+18,-8.102426529,-0.5320215225,-5.710704327
752,1.5596550637e+18,0.4380645752,0.123500824,-2.9161098
753,1.55965506376e+18,5.337557793,-0.354075551,-1.369664788
754,1.55965506381e+18,8.646035194,-0.2831008434,-1.021094084
755,1.55965506387e+18,10.30278587,-3.6694417,-0.2338271141
756,1.55965506393e+18,7.32933712,-11.94525051,1.411385298
757,1.55965506398e+18,4.990806103,-7.59950161,-5.86090517
758,1.55965506404e+18,-2.059789658,-11.21586227,-14.34532833
759,1.5596550641e+18,5.795575142,23.8151474,39.55234528
760,1.55965506415e+18,-22.05889893,5.56908226,-0.7570648193
761,1.55965506421e+18,-12.16773415,8.162525177,5.973340511
762,1.55965506427e+18,-12.29899216,9.674589157,4.205733776
763,1.55965506432e+18,-8.875677109,10.39471722,7.801136971
764,1.55965506438e+18,-4.266796112,11.67448902,3.844677448
765,1.55965506443e+18,-2.095604897,10.6700449,5.853004456
766,1.55965506449e+18,3.496747017,8.945567131,5.389647484
767,1.55965506454e+18,-1.654918194,8.352302551,3.73486352
768,1.5596550646e+18,1.448592186,6.055747032,4.743814945
769,1.55965506465e+18,3.971043825,6.687984467,4.188732624
770,1.55965506471e+18,12.72643471,14.98363781,5.938808441
771,1.55965506477e+18,13.71076202,10.70222282,-1.121245384
772,1.55965506483e+18,-21.41769791,-7.227264881,6.569831848
773,1.55965506489e+18,4.008850574,-12.8088932,-13.9312706
774,1.55965506495e+18,0.5942604542,-20.48447227,-2.380072594
775,1.55965506501e+18,1.467482567,-0.9954038858,-9.503715515
776,1.55965506506e+18,5.109722137,4.610030651,-10.19254494
777,1.55965506512e+18,1.299697876,0.2971069217,-5.220506668
778,1.55965506518e+18,5.101396561,-0.2395943403,-3.835573673
779,1.55965506524e+18,2.888553619,-2.351885319,-2.831361771
780,1.55965506529e+18,2.226424217,-2.522515297,-2.804339886
781,1.55965506535e+18,0.56660676,-4.875121117,-2.075968266
782,1.5596550654e+18,-3.391691446,-9.426149368,-0.6211462021
783,1.55965506546e+18,-6.25263834,-10.13217163,7.491302013
784,1.55965506552e+18,-9.05785656,-8.052136421,7.688245773
785,1.55965506558e+18,-11.5761528,-1.609575272,3.512613773
786,1.55965506564e+18,-13.28359604,0.2326812744,-0.1280579269
787,1.5596550657e+18,-18.54396057,1.356647491,-4.35464716
788,1.55965506575e+18,-19.71777153,0.363576889,-3.653060913
789,1.5596550658e+18,-18.97237396,1.111865044,-3.628855228
790,1.55965506586e+18,-17.06624222,0.8271150589,-2.853804111
791,1.55965506591e+18,-13.39989948,-0.3705272675,-1.985770226
792,1.55965506597e+18,-12.08141041,-3.684501648,-2.430058956
793,1.55965506603e+18,-8.25210762,-4.071259499,-1.583654284
794,1.55965506609e+18,-0.4216241837,-2.401545525,-1.239329338
795,1.55965506614e+18,5.578248501,0.7982418537,-0.7739261985
796,1.5596550662e+18,8.728134155,2.554664373,-0.6091228724
797,1.55965506626e+18,8.21145916,1.785044193,-1.893177629
798,1.55965506632e+18,7.99808979,-2.533501625,-0.7271077037
799,1.55965506637e+18,7.565125465,-12.47484589,1.595466614
800,1.55965506643e+18,-3.508245468,-4.636995316,-24.84564209
801,1.55965506649e+18,8.550839424,47.39829254,13.00225258
802,1.55965506655e+18,-5.312706947,14.9525938,-3.110608578
803,1.55965506661e+18,-4.341771126,14.42234993,7.33178997
804,1.55965506667e+18,-10.45121479,15.29601288,6.895026684
805,1.55965506672e+18,-5.380628586,13.43325996,8.675416946
806,1.55965506677e+18,-2.427371979,10.75323296,4.440930843
807,1.55965506682e+18,2.986460686,8.512636185,-0.2809560299
808,1.55965506688e+18,9.451924324,6.04868269,-7.338471889
809,1.55965506693e+18,8.669956207,7.260609627,5.1695714
810,1.55965506699e+18,3.02666378,4.852625847,4.382414818
811,1.55965506704e+18,8.098509789,5.215401173,4.218507767
812,1.5596550671e+18,13.15994167,7.827793598,5.532670021
813,1.55965506715e+18,11.78398705,11.73834705,1.07384491
814,1.55965506721e+18,7.485026836,9.302166939,-6.464924812
815,1.55965506727e+18,-17.06396866,-6.600018978,2.804940224
816,1.55965506733e+18,6.149293423,-13.54275036,-19.22398758
817,1.55965506739e+18,-2.125620604,-21.83252716,3.470395088
818,1.55965506744e+18,-0.04599070549,-0.07299432158,-9.396687508
819,1.5596550675e+18,4.47947216,2.778759718,-8.62140274
820,1.55965506755e+18,1.217331886,-0.6537808776,-2.38630867
821,1.5596550676e+18,3.139594078,-2.209348679,-3.161007404
822,1.55965506766e+18,7.507619381,-0.472137928,-0.235209465
823,1.55965506772e+18,5.550253391,-1.046956539,0.3625993729
824,1.55965506778e+18,-2.977025032,-8.074427605,2.531077385
825,1.55965506784e+18,-8.970834732,-7.991159439,7.116900444
826,1.5596550679e+18,-13.86091137,-3.752057076,5.339755058
827,1.55965506795e+18,-12.9710083,2.37701273,1.510000944
828,1.55965506801e+18,-11.7286005,7.366137505,1.218660951
829,1.55965506807e+18,-9.526714325,8.210300446,0.5056077242
830,1.55965506813e+18,-6.289161682,6.48716259,-0.3985887766
831,1.55965506819e+18,-5.161583424,3.551653385,-0.8081977367
832,1.55965506824e+18,-7.466926098,-0.230278492,-1.712112904
833,1.55965506829e+18,-6.448734283,-2.319357872,-1.892663002
834,1.55965506835e+18,-4.288593292,-3.410955906,-0.8703690767
835,1.55965506841e+18,0.8901772499,-1.626971722,0.5059974194
836,1.55965506847e+18,1.826821327,-1.267009974,2.439737558
837,1.55965506853e+18,1.522175789,-0.679962635,2.460685492
838,1.55965506859e+18,1.828661442,0.09159708023,2.764401674
839,1.55965506864e+18,2.733087063,2.677516699,2.27887392
840,1.55965506869e+18,0.4296150208,3.0297966,3.926039457
841,1.55965506874e+18,-2.931790352,3.360615253,3.012697458
842,1.55965506879e+18,1.933055878,4.104897499,1.891370058
843,1.55965506885e+18,4.737892151,2.646261454,-1.077017307
844,1.55965506891e+18,6.289916992,0.8556745052,-3.469583273
845,1.55965506897e+18,5.548715591,-0.08347511292,-4.156524658
846,1.55965506903e+18,3.817290783,-4.538824081,1.105426908
847,1.55965506909e+18,5.641652584,-6.895383835,-3.306030989
848,1.55965506915e+18,7.640118599,-8.456995964,-5.811225891
849,1.5596550692e+18,7.192071915,-14.21788883,-11.92884922
850,1.55965506926e+18,-0.1788988113,-17.2905941,-12.70561314
851,1.55965506931e+18,0.1514215469,0.09654116631,8.930656433
852,1.55965506937e+18,-21.61810875,12.21829987,-10.50486374
853,1.55965506942e+18,3.35921216,5.910563946,4.342788219
854,1.55965506948e+18,-22.3745079,-7.959843636,6.577593327
855,1.55965506953e+18,-10.87105274,0.1475276947,-3.750095367
856,1.55965506958e+18,-3.306830406,-4.444519997,-2.259214401
857,1.55965506964e+18,-4.435209274,-0.2473011017,0.9991832972
858,1.5596550697e+18,-8.801431656,-1.398598194,-0.5304307938
859,1.55965506975e+18,-2.900771141,1.318168163,1.605139971
860,1.55965506981e+18,-0.2261762619,2.423485279,2.218326569
861,1.55965506987e+18,1.605824471,1.853781819,2.57115078
862,1.55965506993e+18,1.179250717,2.820394754,0.4528031349
863,1.55965506999e+18,3.287762642,3.333598137,-1.998549938
864,1.55965507004e+18,1.592288971,3.27402997,-2.498346806
865,1.5596550701e+18,0.7508010864,3.110104084,-6.078043938
866,1.55965507016e+18,2.945984602,3.036688805,1.207941055
867,1.55965507021e+18,-0.261282444,1.948466182,0.1370539665
868,1.55965507027e+18,1.360271215,1.84879756,1.466355324
869,1.55965507033e+18,3.406718731,2.942663908,4.123994827
870,1.55965507039e+18,7.342012405,6.577861786,4.776008606
871,1.55965507044e+18,14.55965328,11.35630608,6.880331993
872,1.5596550705e+18,12.47582054,9.517113686,-1.539093971
873,1.55965507055e+18,-10.19814301,-10.30625725,13.50525951
874,1.55965507061e+18,-2.449372768,-16.13663864,-12.62408161
875,1.55965507067e+18,-4.024610519,-20.51997948,-3.182167053
876,1.55965507072e+18,1.288789868,-7.309635162,-8.415465355
877,1.55965507077e+18,1.931463122,-1.792681932,-9.912547112
878,1.55965507082e+18,2.607946396,-4.163995266,-5.995450974
879,1.55965507088e+18,4.253780842,-3.018905401,-3.657565117
880,1.55965507094e+18,4.249276161,0.3961504698,-1.437218666
881,1.55965507099e+18,2.418171644,1.59609139,2.35160923
882,1.55965507105e+18,-2.641845226,-1.386368275,4.815209389
883,1.55965507111e+18,-8.150810242,1.202098012,1.748196125
884,1.55965507117e+18,-6.43507576,2.791403055,4.825129509
885,1.55965507123e+18,-1.245636463,2.632999897,6.372344017
886,1.55965507128e+18,-0.8768839836,1.282229424,4.727301121
887,1.55965507134e+18,0.332464695,3.413908958,2.705783367
888,1.5596550714e+18,-0.3076848984,3.599663496,0.6437907219
889,1.55965507146e+18,-0.8722901344,3.876881599,0.05805444717
890,1.55965507152e+18,-2.57977581,0.2805838585,-0.08481168747
891,1.55965507158e+18,-2.083764076,2.092149973,1.495285988
892,1.55965507164e+18,-0.8951759338,0.1814258695,2.716299534
893,1.55965507169e+18,-2.023400307,1.28346014,0.6546230316
894,1.55965507175e+18,-1.530926704,5.091322899,-2.721213341
895,1.55965507181e+18,-0.1720275879,5.480338097,-3.577562809
896,1.55965507187e+18,1.899006367,4.255650043,-2.176303864
897,1.55965507192e+18,3.283932447,0.1435198784,0.3778338432
898,1.55965507198e+18,0.8969745636,-4.545847416,-2.872822762
899,1.55965507203e+18,3.383734941,-5.714985847,-5.680228233
900,1.55965507208e+18,5.111790657,-7.434688568,-4.675726414
901,1.55965507214e+18,-0.7298326492,-14.20036125,-1.521165371
902,1.5596550722e+18,2.885212898,-5.003201485,-4.839962006
903,1.55965507225e+18,3.797092438,-16.01178169,-69.89434052
904,1.55965507231e+18,3.84153223,17.36094666,-2.845914602
905,1.55965507236e+18,3.220666409,10.73591137,15.43234444
906,1.55965507242e+18,-0.6215991974,6.91631794,10.52459526
907,1.55965507248e+18,0.4642848969,5.323732376,6.659950733
908,1.55965507253e+18,3.957630157,3.168054104,4.086550713
909,1.55965507259e+18,3.345037937,2.077666998,-0.7163486481
910,1.55965507265e+18,1.799423933,2.547307491,-1.065142632
911,1.5596550727e+18,4.240265369,2.280773163,-0.3846330643
912,1.55965507276e+18,3.15602088,1.552553654,2.970116615
913,1.55965507281e+18,4.200951099,3.485407352,5.432621002
914,1.55965507286e+18,8.500761032,7.761314392,6.026195526
915,1.55965507292e+18,20.83494568,15.15085602,3.986714363
916,1.55965507298e+18,5.557139397,0.6286530495,3.674378395
917,1.55965507304e+18,-20.30679703,-26.6620903,-19.01385117
918,1.5596550731e+18,-4.352058411,-21.53904343,1.93210125
919,1.55965507316e+18,-0.4631739855,-12.17797279,-6.651255608
920,1.55965507322e+18,4.856632233,-0.4384498596,-7.707458496
921,1.55965507328e+18,2.075318575,-2.19560957,-3.021931171
922,1.55965507333e+18,6.089653015,-0.8353769779,-2.678995132
923,1.55965507339e+18,3.878996849,-1.729815245,-1.910002232
924,1.55965507345e+18,1.467440367,-3.217511177,-2.459952354
925,1.55965507351e+18,-2.941328049,-6.157449722,1.91836834
926,1.55965507357e+18,-5.745133877,-6.395926476,4.344946861
927,1.55965507362e+18,-6.424516678,-3.336732388,2.291126251
928,1.55965507368e+18,-6.788900375,0.8967380524,0.3918309212
929,1.55965507374e+18,-7.139358997,3.916531324,-0.8455350399
930,1.55965507379e+18,-5.35065794,5.316258907,-0.6572730541
931,1.55965507385e+18,-5.038354874,3.503236532,0.1726882458
932,1.55965507391e+18,-5.00737524,1.413518906,-0.2775263786
933,1.55965507396e+18,-2.894005299,1.114590645,-0.1947145462
934,1.55965507402e+18,-2.894749641,0.01403665543,0.6489505768
935,1.55965507408e+18,-2.138053894,1.114006281,2.472977638
936,1.55965507414e+18,-3.4930439,3.239071369,0.626647234
937,1.55965507419e+18,-3.455456734,1.717834234,0.03834295273
938,1.55965507425e+18,-0.95225811,0.7749164701,-1.177764654
939,1.5596550743e+18,0.8155937195,0.5894021988,1.472420454
940,1.55965507436e+18,0.2473297119,-0.6632516384,-1.588051796
941,1.55965507442e+18,-1.012515545,-0.8407828808,0.4708838463
942,1.55965507448e+18,-0.2663197517,-1.928592682,-1.110366821
943,1.55965507454e+18,-1.434830189,-4.683984756,-0.9226078987
944,1.5596550746e+18,3.277571678,-6.424521446,-3.674688101
945,1.55965507465e+18,3.252123594,-13.4234333,-9.833639145
946,1.55965507471e+18,-0.05026769638,-27.20981979,-35.83485794
947,1.55965507477e+18,21.63450813,22.20523453,-21.67407227
948,1.55965507483e+18,10.03326988,1.823115587,8.921683311
949,1.55965507489e+18,0.4141850471,3.697390556,2.702513695
950,1.55965507495e+18,4.966042042,4.386708736,6.529817104
951,1.55965507501e+18,0.5710778236,5.561856747,3.433289051
952,1.55965507506e+18,2.802433252,3.934648991,3.492548943
953,1.55965507512e+18,2.942667007,2.841396093,1.575518608
954,1.55965507518e+18,3.665664673,3.292878151,4.015349388
955,1.55965507523e+18,3.863278627,3.524691105,5.039461136
956,1.55965507529e+18,10.06186295,5.533450127,6.558122635
957,1.55965507535e+18,22.93336105,14.87693977,0.07447910309
958,1.55965507541e+18,1.167129993,-4.519334316,1.013813496
959,1.55965507546e+18,-24.06389618,-19.63994598,14.06582832
960,1.55965507551e+18,-11.15243721,-18.99093246,-6.837178707
961,1.55965507557e+18,-2.571813107,-14.53245449,-1.803949356
962,1.55965507563e+18,2.507489681,-4.402820587,-6.840005875
963,1.55965507569e+18,2.51473999,-2.310451508,-5.520656586
964,1.55965507575e+18,2.938695908,-3.191254139,-1.732036591
965,1.5596550758e+18,3.279721022,-2.274301767,-0.9661440849
966,1.55965507586e+18,2.19216013,-2.496440649,-1.296902657
967,1.55965507591e+18,-0.3787307739,-1.96238637,3.332153797
968,1.55965507597e+18,-2.422223091,-1.842653036,3.56747961
969,1.55965507602e+18,-5.984492779,-0.9801468849,3.064162254
970,1.55965507608e+18,-5.607216358,2.618408442,1.62946701
971,1.55965507614e+18,-7.059987545,4.706243992,1.451558828
972,1.55965507619e+18,-8.183012009,5.06444931,0.01561117172
973,1.55965507625e+18,-8.072302818,4.954211235,-0.6526203156
974,1.5596550763e+18,-6.358006477,5.034189224,-1.404945254
975,1.55965507635e+18,-4.270769119,4.324246407,-1.266256809
976,1.55965507641e+18,-2.897318363,3.006172657,-1.903456926
977,1.55965507646e+18,-1.817650795,1.995995998,-1.47804594
978,1.55965507652e+18,-0.3539543152,1.247447252,-1.209532499
979,1.55965507658e+18,-1.116163254,1.748606205,-0.4677546024
980,1.55965507664e+18,-1.818856239,3.242312431,0.01828765869
981,1.5596550767e+18,-3.523164749,3.426385403,1.900691032
982,1.55965507676e+18,-1.706355095,2.436033249,2.507098675
983,1.55965507682e+18,-3.116828918,0.4954214096,-0.6932987571
984,1.55965507688e+18,0.8148875237,0.3175907135,-2.433979988
985,1.55965507694e+18,2.722712994,1.90384531,-6.372879982
986,1.55965507699e+18,5.942360878,-0.113301754,-3.774777889
987,1.55965507704e+18,7.683914185,-1.927918434,-1.600416422
988,1.5596550771e+18,3.368552208,-11.35189629,-1.683897734
989,1.55965507715e+18,4.741514206,-17.80234337,-4.713953018
990,1.55965507721e+18,-5.028594017,-27.28944206,15.26506233
991,1.55965507727e+18,1.400263309,14.75488091,1.776841998
992,1.55965507733e+18,-3.506688118,-3.00455761,20.34320831
993,1.55965507739e+18,-10.1451273,-0.9970173836,6.000827789
994,1.55965507745e+18,-10.78317451,3.025657177,3.621548176
995,1.55965507751e+18,-5.742037773,2.270016193,6.580834389
996,1.55965507756e+18,-2.052689552,3.678391933,3.559160233
997,1.55965507762e+18,0.6797504425,2.51266098,3.122459412
998,1.55965507768e+18,1.584065437,2.795354843,1.650152922
999,1.55965507773e+18,1.64793396,1.520281196,0.7248263359
1000,1.55965507779e+18,3.54047513,-0.1009669304,5.549183846
1001,1.55965507785e+18,0.6677384377,2.97069788,2.933913708
1002,1.55965507791e+18,5.194909573,3.600304365,3.52213192
1003,1.55965507796e+18,9.440233231,6.566691399,4.432822227
1004,1.55965507802e+18,18.26827621,8.043334961,-1.622084141
1005,1.55965507807e+18,6.875262737,-2.81836772,1.622880936
1006,1.55965507813e+18,-19.11956596,-14.66942215,-7.575667381
1007,1.55965507819e+18,-1.163232327,-14.72810936,-2.804412365
1008,1.55965507825e+18,-1.176203012,-7.931139946,-3.864209652
1009,1.5596550783e+18,3.974823713,0.1244746447,-7.520285606
1010,1.55965507836e+18,3.301623821,0.05370917916,-4.720634937
1011,1.55965507841e+18,4.87643528,-0.1558251381,-1.679829597
1012,1.55965507847e+18,5.3539958,-1.15069294,2.116990089
1013,1.55965507852e+18,3.290663481,-2.337854147,1.26940012
1014,1.55965507858e+18,0.2054123878,-3.610084772,1.557042599
1015,1.55965507864e+18,-4.161664963,-2.590298653,1.711142063
1016,1.5596550787e+18,-6.581492901,-1.504972935,2.692669868
1017,1.55965507876e+18,-7.828653812,1.993757725,2.135209322
1018,1.55965507882e+18,-8.143295288,6.19246769,1.1823349
1019,1.55965507887e+18,-7.96449852,7.475839615,1.275609732
1020,1.55965507893e+18,-6.649163246,5.920892715,0.9885581732
1021,1.55965507899e+18,-4.855475903,3.885935545,0.08166897297
1022,1.55965507905e+18,-3.269389153,1.395060539,0.5663228035
1023,1.55965507911e+18,-3.102924347,0.1369132996,-0.658285439
1024,1.55965507917e+18,-2.882064819,-1.750239372,-0.4777742028
1025,1.55965507922e+18,0.1683721542,-0.7774100304,0.1391744614
1026,1.55965507927e+18,1.724564075,0.3999321461,1.600920916
1027,1.55965507932e+18,1.508388996,1.491619229,2.729180336
1028,1.55965507938e+18,-2.350690842,2.334782362,6.092412949
1029,1.55965507944e+18,-3.986868858,2.672496796,5.111409187
1030,1.5596550795e+18,-3.291725159,1.453838229,2.878376245
1031,1.55965507955e+18,-2.173061371,0.2472817898,0.4731254578
1032,1.55965507961e+18,-0.6332359314,-2.277704716,0.2538895607
1033,1.55965507966e+18,-0.1610894203,-4.529821396,-0.993635416
1034,1.55965507972e+18,4.012079239,-3.3356359,-4.661031246
1035,1.55965507977e+18,6.083014488,-4.936638355,-4.55391264
1036,1.55965507983e+18,4.073077679,-10.17446899,-9.329084396
1037,1.55965507989e+18,-3.139046192,-17.34478569,-13.48147774
1038,1.55965507995e+18,1.19354105,-11.56148338,-39.48082352
1039,1.55965508001e+18,5.681099892,8.565260887,11.01823425
1040,1.55965508007e+18,-10.29182911,12.77333641,-2.972635508
1041,1.55965508012e+18,-0.7067928314,13.00539684,4.046178818
1042,1.55965508018e+18,-7.530687332,10.56195068,2.770535469
1043,1.55965508023e+18,0.5655779839,9.023794174,4.24345541
1044,1.55965508029e+18,0.1942396164,6.719466209,0.9799518585
1045,1.55965508035e+18,1.450639725,4.666986942,0.7528820038
1046,1.55965508041e+18,1.681578636,4.556391239,2.167546272
1047,1.55965508047e+18,-0.04341125488,5.302767754,2.544109344
1048,1.55965508053e+18,4.70280838,8.355825424,1.965447426
1049,1.55965508058e+18,12.5102911,14.72818184,-0.6386566162
1050,1.55965508064e+18,9.73138237,12.66545296,-4.620549202
1051,1.5596550807e+18,-18.11315918,-13.06699181,4.948272705
1052,1.55965508076e+18,-1.22625196,-18.64527512,-12.56882286
1053,1.55965508081e+18,1.957474947,-25.35599518,0.4392299652
1054,1.55965508087e+18,3.782010555,-9.854325294,-2.843451977
1055,1.55965508092e+18,0.05666399002,-10.38281918,-1.705637455
1056,1.55965508098e+18,0.6936426163,-5.571151733,6.220511436
1057,1.55965508103e+18,3.751128674,3.038981438,2.783969402
1058,1.55965508109e+18,11.94632244,4.96308136,-5.522097111
1059,1.55965508114e+18,13.8888998,6.492722988,-8.88832283
1060,1.55965508119e+18,9.482290268,1.397232533,-4.614109039
1061,1.55965508125e+18,-6.323327065,-9.314029694,3.652523518
1062,1.5596550813e+18,-20.53877449,-3.552462578,-1.529068947
1063,1.55965508136e+18,-4.192980289,1.850456238,-3.00344038
1064,1.55965508142e+18,5.998465061,3.145688057,-2.187990665
1065,1.55965508148e+18,7.591846943,2.97822237,-3.833992243
1066,1.55965508154e+18,-2.375222683,-2.64051795,-0.4416298866
1067,1.55965508159e+18,-6.188015461,-3.760622501,-0.9464159012
1068,1.55965508165e+18,-5.050463676,-2.274547338,-0.844271183
1069,1.5596550817e+18,0.7536911964,0.6171100736,-0.3459115028
1070,1.55965508175e+18,1.160249233,2.527051687,-0.321161747
1071,1.55965508181e+18,-3.716890335,1.322865605,1.583452225
1072,1.55965508187e+18,-3.170148849,5.251408577,2.33854413
1073,1.55965508192e+18,-2.87198925,4.410955906,2.103827238
1074,1.55965508198e+18,-2.914904594,2.837182283,0.3707122803
1075,1.55965508204e+18,-2.173559189,1.613127232,-0.3715395927
1076,1.5596550821e+18,-3.1248703,0.335310936,0.2138960361
1077,1.55965508215e+18,-2.477724075,-1.369945765,-0.1143240929
1078,1.55965508221e+18,-2.199436665,-2.290594339,0.6258635521
1079,1.55965508227e+18,-1.764753342,-2.094176531,-1.124106884
1080,1.55965508233e+18,2.681105614,-0.8616271019,-3.347409487
1081,1.55965508239e+18,4.621100426,-0.9243826866,-3.850829363
1082,1.55965508245e+18,5.51048851,-3.912175417,-4.410953522
1083,1.55965508251e+18,4.313073635,-9.737216949,-4.326809883
1084,1.55965508257e+18,-1.768062592,-17.65348816,-6.466771126
1085,1.55965508262e+18,-28.04811859,-81.86928558,33.8365097
1086,1.55965508268e+18,3.737085342,21.69240952,-39.53495407
1087,1.55965508274e+18,-2.10580349,12.43822289,6.933316708
1088,1.5596550828e+18,-8.630953789,9.103899956,7.037331104
1089,1.55965508286e+18,-5.138813019,7.999736309,7.506797791
1090,1.55965508292e+18,-2.453714371,7.822403908,1.383801937
1091,1.55965508297e+18,6.82128334,4.33812809,-3.279587507
1092,1.55965508302e+18,0.8894143105,2.751611233,2.514625549
1093,1.55965508307e+18,3.395667076,1.599328399,1.326559067
1094,1.55965508313e+18,2.541658401,2.187034607,3.594578743
1095,1.55965508319e+18,5.099570751,4.293383598,7.282097816
1096,1.55965508325e+18,12.47838497,12.76910877,2.375443459
1097,1.5596550833e+18,12.40139961,11.91529846,0.9417853355
1098,1.55965508336e+18,-18.73829651,-13.13788605,12.07549
1099,1.55965508341e+18,-7.170788765,-20.0813961,-21.82734489
1100,1.55965508347e+18,0.7784941196,-18.11446381,5.919927597
1101,1.55965508352e+18,-0.0860722065,-8.101416588,-7.849593639
1102,1.55965508358e+18,3.849077702,-1.242320299,-7.61404562
1103,1.55965508364e+18,2.015252113,-2.725882769,-3.826639652
1104,1.5596550837e+18,4.440193176,-2.740436792,-1.933146477
1105,1.55965508376e+18,4.185173988,-2.750724077,-0.1827640533
1106,1.55965508382e+18,3.601861477,-1.787913561,2.389345169
1107,1.55965508387e+18,0.5671825409,-1.250953078,3.810839653
1108,1.55965508393e+18,-2.388319492,0.08696806431,0.6013841629
1109,1.55965508398e+18,-4.701122761,0.7363179922,-0.9410591125
1110,1.55965508404e+18,-4.525745392,3.451923132,-1.287627935
1111,1.5596550841e+18,-5.056616783,4.971072674,-0.9312000275
1112,1.55965508416e+18,-8.136134148,4.606486797,-1.487525225
1113,1.55965508421e+18,-6.341628075,4.228395462,-0.4515724182
1114,1.55965508427e+18,-2.990855217,3.630002499,-0.2357230186
1115,1.55965508432e+18,-3.227649689,2.174265862,-0.1944594383
1116,1.55965508438e+18,-1.631630898,0.5208206177,-0.7280071974
1117,1.55965508444e+18,-0.1830368042,-0.5941290855,0.09425497055
1118,1.55965508449e+18,0.737279892,-1.371272802,-0.3981659412
1119,1.55965508454e+18,0.8326101303,-1.692615509,-0.4712514877
1120,1.55965508459e+18,1.84788084,-0.9286856651,-0.3679893017
1121,1.55965508465e+18,1.775121212,-0.4884996414,-0.1008415222
1122,1.55965508471e+18,1.246320724,-0.05648720264,0.2728259563
1123,1.55965508477e+18,1.595369339,1.108155727,0.02323794365
1124,1.55965508483e+18,0.8828296661,1.901172161,0.5356297493
1125,1.55965508489e+18,-1.839014053,2.184246063,0.8148508072
1126,1.55965508494e+18,-4.731142998,2.146074295,0.09875655174
1127,1.559655085e+18,-1.902104378,3.814347744,1.752180099
1128,1.55965508505e+18,-1.413083076,2.907742023,2.902811527
1129,1.5596550851e+18,-4.884604454,1.007166505,2.207768917
1130,1.55965508516e+18,-3.062376022,-0.0476732254,2.280675173
1131,1.55965508521e+18,-3.564563751,0.5707778931,0.2634992599
1132,1.55965508527e+18,-3.149951458,1.348227978,-0.6622667313
1133,1.55965508533e+18,1.082046032,0.6266117096,-1.367325783
1134,1.55965508539e+18,2.408394098,-0.9788417816,-1.203012466
1135,1.55965508544e+18,0.2166845798,-3.582722664,-3.339337587
1136,1.5596550855e+18,3.660900593,-9.472119331,-2.113763094
1137,1.55965508555e+18,0.426409483,-19.98870468,-3.397271156
1138,1.55965508561e+18,-3.167402744,-12.95123672,-13.55605316
1139,1.55965508567e+18,12.56906891,44.16605377,-0.7366220951
1140,1.55965508572e+18,17.05316162,2.837589741,5.98624897
1141,1.55965508577e+18,-0.9886217117,8.504473686,-2.421206474
1142,1.55965508582e+18,-0.3703103065,7.685027599,1.399151802
1143,1.55965508588e+18,6.747220993,5.989707947,4.657959461
1144,1.55965508594e+18,3.148996353,3.949014664,2.223604679
1145,1.55965508599e+18,4.233980179,3.799880028,1.608414173
1146,1.55965508605e+18,3.598896503,3.041720867,0.323050499
1147,1.55965508611e+18,4.396460533,2.718949795,-0.005662918091
1148,1.55965508616e+18,4.3960495,2.287127495,-0.2283573151
1149,1.55965508622e+18,0.4803960323,3.988108158,4.038553238
1150,1.55965508627e+18,1.614985228,5.049656868,5.947435379
1151,1.55965508633e+18,11.54362392,12.03898239,7.413450241
1152,1.55965508639e+18,11.00724983,9.406222343,4.182621479
1153,1.55965508645e+18,-23.2032299,-17.92970276,19.07736778
1154,1.55965508651e+18,-2.622571468,-13.86302757,-14.91023445
1155,1.55965508657e+18,1.223715782,-19.7496357,7.371417522
1156,1.55965508663e+18,0.674526155,-6.992228985,-4.730383873
1157,1.55965508668e+18,1.311788797,-2.403931379,-8.802625656
1158,1.55965508673e+18,2.153414249,-2.364280701,-3.997349024
1159,1.55965508678e+18,3.300449371,-2.047538519,-2.502812386
1160,1.55965508684e+18,4.240948677,-1.598313332,-1.402922153
1161,1.5596550869e+18,2.107986689,-1.513315678,-0.429224968
1162,1.55965508696e+18,1.030738115,-1.244402528,0.01635169983
1163,1.55965508702e+18,-4.807123184,-7.027018547,0.3640460968
1164,1.55965508707e+18,-6.382665634,-2.870045185,0.9207305908
1165,1.55965508712e+18,-4.558933258,0.9097695351,0.7276530266
1166,1.55965508717e+18,-5.471545219,3.32704711,2.288918495
1167,1.55965508723e+18,-4.81280899,8.252633095,6.749150753
1168,1.55965508728e+18,-7.895437241,4.161592484,2.461994648
1169,1.55965508734e+18,-5.184113503,6.148589134,1.314134717
1170,1.55965508739e+18,-1.784831047,2.371096849,0.8029296398
1171,1.55965508745e+18,-0.9807424545,0.2011640072,0.7011585236
1172,1.55965508751e+18,-0.5033340454,-0.1761927605,-1.286559105
1173,1.55965508757e+18,0.1642341614,-0.177205801,-1.330665946
1174,1.55965508762e+18,1.290682793,-0.09635806084,-1.409377694
1175,1.55965508768e+18,1.189295769,-0.8505671024,-0.1489760876
1176,1.55965508774e+18,2.719727516,0.1979113221,0.6567788124
1177,1.5596550878e+18,2.586981297,2.164690733,3.049454689
1178,1.55965508786e+18,0.7506685257,2.061333895,3.925278902
1179,1.55965508792e+18,-2.101452827,1.669428349,1.919810534
1180,1.55965508797e+18,-1.569238663,1.343140721,1.387208223
1181,1.55965508802e+18,-1.3315382,1.637695074,1.567126513
1182,1.55965508807e+18,-2.717105865,2.315581083,1.549840689
1183,1.55965508813e+18,-3.501822472,1.129493237,0.0241612196
1184,1.55965508819e+18,-0.4242582321,1.546565056,0.08799338341
1185,1.55965508825e+18,1.574250698,1.234899998,-0.1803429127
1186,1.5596550883e+18,2.313350201,2.60934782,-0.9064731598
1187,1.55965508836e+18,3.992648602,1.524829388,-0.1610109806
1188,1.55965508841e+18,4.526301861,0.8302111626,-0.1546771526
1189,1.55965508847e+18,3.101634979,-1.042292595,-1.530183434
1190,1.55965508852e+18,4.828074455,-1.581820011,-0.9287096262
1191,1.55965508858e+18,5.005741119,-7.304929256,-4.147316933
1192,1.55965508864e+18,2.315206528,-14.6154213,-2.993759632
1193,1.5596550887e+18,1.711664677,-16.64314651,-7.097905159
1194,1.55965508876e+18,7.198833942,-16.61455154,1.569762826
1195,1.55965508882e+18,-14.13962078,3.199564695,-14.26878929
1196,1.55965508887e+18,-7.456127167,1.668542981,3.116730452
1197,1.55965508892e+18,-16.92377281,7.164076805,-9.317256927
1198,1.55965508897e+18,-11.42357254,5.798965454,-1.623312473
1199,1.55965508903e+18,-9.456543922,8.508323669,-2.66440177
1200,1.55965508909e+18,-6.288911819,8.530906677,3.972043037
1201,1.55965508915e+18,-4.084851265,3.676292896,-0.3867206573
1202,1.55965508921e+18,0.8755702972,-1.112310648,-4.025222778
1203,1.55965508927e+18,3.677625656,-0.7270200849,-10.43971729
1204,1.55965508932e+18,21.51136971,-3.068022251,-18.59994888
1205,1.55965508938e+18,-3.121780634,-4.975818634,9.31400013
1206,1.55965508944e+18,-5.0086689,0.5297914743,-0.3677186966
1207,1.5596550895e+18,2.463236809,1.756922722,5.503787041
1208,1.55965508955e+18,5.18328476,3.498714685,4.156954765
1209,1.55965508961e+18,12.87831306,10.21916294,4.149269104
1210,1.55965508966e+18,17.18402863,15.8037138,-8.465149879
1211,1.55965508972e+18,-18.42917061,-7.327742577,12.94261551
1212,1.55965508977e+18,-5.775369167,-18.03054619,-23.93634033
1213,1.55965508983e+18,2.675182581,-20.8495388,3.510135651
1214,1.55965508989e+18,-0.5619379282,-7.787248611,-10.21468735
1215,1.55965508995e+18,3.022017002,0.3357645273,-8.581647873
1216,1.55965509001e+18,0.545296669,-2.674451351,-3.46785593
1217,1.55965509006e+18,3.19081974,-1.630563736,-0.7839736938
1218,1.55965509012e+18,3.940898895,-2.308288574,1.415319443
1219,1.55965509018e+18,1.298933506,-1.09052062,0.6324677467
1220,1.55965509024e+18,-4.010326385,-2.952964306,1.453391552
1221,1.5596550903e+18,-9.62998867,0.1366324425,-2.727448702
1222,1.55965509036e+18,-9.629346848,8.399637222,-3.91150713
1223,1.55965509042e+18,-7.165091991,9.194313049,-1.69944644
1224,1.55965509048e+18,-6.20891571,6.949249744,-3.124339104
1225,1.55965509054e+18,-4.634681702,3.523622036,-0.7326248884
1226,1.55965509059e+18,-4.220316887,0.8428273201,-2.672181845
1227,1.55965509065e+18,-1.936683655,0.1542840004,-2.967496395
1228,1.55965509071e+18,-0.9139194489,0.001495838165,-2.23527813
1229,1.55965509077e+18,-0.9305334091,-0.5136573315,-1.761116743
1230,1.55965509082e+18,-0.5897855759,-0.3403162956,0.5232344866
1231,1.55965509088e+18,0.02805233002,-0.2003641129,1.941257954
1232,1.55965509094e+18,-0.5798196793,0.2357845306,2.885514498
1233,1.55965509099e+18,0.7787027359,1.9252882,2.249092579
1234,1.55965509105e+18,2.037052631,3.988243818,3.766545773
1235,1.55965509111e+18,1.04432869,4.467301369,3.336301088
1236,1.55965509117e+18,-0.9226140976,2.028420925,2.389289141
1237,1.55965509123e+18,-5.849770546,-0.03091692924,0.8288741112
1238,1.55965509128e+18,-1.018409252,0.4508924484,1.348073006
1239,1.55965509134e+18,-2.659136295,1.047856331,-0.9838142395
1240,1.55965509139e+18,0.05991792679,3.859632015,-3.072501659
1241,1.55965509145e+18,-1.690600395,0.004180431366,-3.180056572
1242,1.55965509151e+18,-0.4295270443,-5.368665218,-3.523547888
1243,1.55965509157e+18,-2.427114725,-14.94236755,-3.927791119
1244,1.55965509163e+18,3.698523283,2.801849842,-24.79684067
1245,1.55965509169e+18,32.26663589,-0.3430361748,7.459412098
1246,1.55965509175e+18,-2.225566149,-1.203093052,-7.243893623
1247,1.5596550918e+18,1.601737022,-1.430801392,-1.535127163
1248,1.55965509186e+18,4.133770943,-2.145756245,-0.3818717003
1249,1.55965509192e+18,2.289352417,0.7681465149,-1.020409107
1250,1.55965509198e+18,3.436699629,0.1099777222,0.006014347076
1251,1.55965509204e+18,1.877444267,0.05659484863,1.343611717
1252,1.5596550921e+18,1.752417803,1.067405224,2.217160225
1253,1.55965509215e+18,3.285954475,2.32572031,2.997963905
1254,1.55965509221e+18,4.515060425,2.036890984,3.656216621
1255,1.55965509227e+18,4.008759022,1.863624096,2.301154137
1256,1.55965509233e+18,4.581861496,2.693668365,4.548019409
1257,1.55965509239e+18,13.5799427,10.08425236,6.265616417
1258,1.55965509245e+18,25.06998062,16.68484879,-3.199062824
1259,1.55965509251e+18,-12.41082764,-12.58066177,15.46269035
1260,1.55965509256e+18,-14.81705475,-34.45158386,-6.953503609
1261,1.55965509262e+18,-4.44579792,-19.17984581,-0.5823378563
1262,1.55965509268e+18,1.792497993,-10.52233315,-7.432732105
1263,1.55965509273e+18,2.880191565,-2.612327099,-6.858801365
1264,1.55965509279e+18,1.810912609,-3.947191,-3.206793785
1265,1.55965509285e+18,2.034751654,-3.828097105,-2.286849022
1266,1.55965509291e+18,0.2534196377,-3.010288477,-1.872872829
1267,1.55965509297e+18,-1.752708435,-4.005365372,1.03482914
1268,1.55965509303e+18,-6.826525688,-3.308361769,0.2348108292
1269,1.55965509308e+18,-8.307991028,-1.850325108,-0.164295435
1270,1.55965509314e+18,-7.374569893,1.692352295,1.240732431
1271,1.5596550932e+18,-6.985891819,4.132519722,0.7270839214
1272,1.55965509325e+18,-6.238902569,4.920271397,-0.6707655787
1273,1.5596550933e+18,-4.956704617,5.663060188,-0.8873564601
1274,1.55965509336e+18,-2.999734402,3.839384556,-1.033582449
1275,1.55965509341e+18,-1.5388937,2.54487896,-1.770993233
1276,1.55965509347e+18,-1.541300774,0.6023945808,-1.821167469
1277,1.55965509352e+18,-2.148731232,-1.071599245,-2.212848186
1278,1.55965509358e+18,-1.80465126,-2.502682924,-1.972472787
1279,1.55965509363e+18,-0.01828765869,-2.26029253,-1.829032063
1280,1.55965509369e+18,1.497683525,-1.680085778,-0.6899101734
1281,1.55965509375e+18,2.089466572,0.02426832914,-0.3110793829
1282,1.5596550938e+18,2.34823513,0.9142431021,1.206694722
1283,1.55965509385e+18,1.865305424,1.335561275,1.679074645
1284,1.55965509391e+18,1.109465599,2.030830383,1.906587124
1285,1.55965509396e+18,-0.02061843872,1.85004282,1.882798314
1286,1.55965509402e+18,-0.3390188217,2.195342541,1.891395092
1287,1.55965509408e+18,-1.211834908,2.243471146,1.075034022
1288,1.55965509414e+18,-2.223752022,2.880292416,0.7864800692
1289,1.55965509419e+18,-5.548219681,2.123965263,4.067126274
1290,1.55965509425e+18,-6.751728058,1.110235095,2.936893463
1291,1.5596550943e+18,-6.940807343,-1.446826935,1.25745821
1292,1.55965509436e+18,-1.262148857,-0.4960756302,0.04012012482
1293,1.55965509442e+18,-1.601538181,1.512198925,-2.681735754
1294,1.55965509448e+18,-0.1198711395,-3.21387887,-2.320548773
1295,1.55965509454e+18,1.885733843,-5.203990936,-5.449710846
1296,1.5596550946e+18,5.70189476,-10.39418793,-2.228967428
1297,1.55965509465e+18,0.04861044884,-23.77900505,-1.913934231
1298,1.55965509471e+18,-9.794569016,-47.30691528,-44.58080673
1299,1.55965509477e+18,13.33793259,13.58903694,-13.90711784
1300,1.55965509483e+18,11.10485935,9.657123566,1.501859188
1301,1.55965509489e+18,0.536056757,5.483786106,1.697512627
1302,1.55965509494e+18,1.106966019,3.954523087,6.637751579
1303,1.559655095e+18,0.6389737129,4.440049648,4.849376678
1304,1.55965509505e+18,1.355905533,3.526015997,1.760064602
1305,1.5596550951e+18,1.209117413,3.456083536,1.71777916
1306,1.55965509515e+18,0.4755432606,2.340235233,1.10539341
1307,1.55965509521e+18,1.58220768,0.8066778183,-0.5561981201
1308,1.55965509527e+18,2.300562859,-0.4282202721,-1.323859692
1309,1.55965509533e+18,1.843070745,0.3385818005,-1.733423233
1310,1.55965509539e+18,2.259971142,-0.2404239178,-1.228937149
1311,1.55965509545e+18,1.003569841,0.3790795803,-0.4281139374
1312,1.55965509551e+18,0.1419224143,1.24966383,1.244708061
1313,1.55965509556e+18,1.792306542,1.66335845,3.124818802
1314,1.55965509562e+18,3.957434654,2.865110874,6.999417305
1315,1.55965509567e+18,12.15390682,7.442487717,8.238880157
1316,1.55965509573e+18,16.23431778,13.54220295,-5.140373707
1317,1.55965509579e+18,-3.377671242,-10.52364922,4.730529308
1318,1.55965509585e+18,-13.41060448,-19.92297173,-17.52669716
1319,1.5596550959e+18,-3.129323006,-26.85100746,2.935196877
1320,1.55965509596e+18,0.5284615755,-9.520498276,-6.788176537
1321,1.55965509602e+18,1.541381121,-4.050236702,-5.112705231
1322,1.55965509608e+18,3.150279999,-2.506370544,-2.35480547
1323,1.55965509614e+18,2.984549522,-1.527745366,-1.488999367
1324,1.5596550962e+18,1.426835775,-1.753625512,-1.035293102
1325,1.55965509626e+18,-0.1897540092,-2.184457541,-0.5686182976
1326,1.55965509632e+18,-4.650138855,-3.855003595,2.538095474
1327,1.55965509637e+18,-6.201081276,-2.233291388,4.971846581
1328,1.55965509643e+18,-6.932564259,2.291445971,5.072590828
1329,1.55965509649e+18,-10.25806713,4.905934334,3.278027296
1330,1.55965509655e+18,-4.895333767,9.558718681,1.977078915
1331,1.55965509661e+18,-2.116195679,5.606476307,0.5010099411
1332,1.55965509667e+18,-3.68694973,4.043644428,-0.4148126841
1333,1.55965509672e+18,-3.696577072,2.312469721,-1.779347181
1334,1.55965509677e+18,-2.629003525,0.9455554485,-1.940923095
1335,1.55965509682e+18,-1.293665886,-0.1205089092,-2.079729795
1336,1.55965509688e+18,-1.153308868,-0.9835003614,-1.950100899
1337,1.55965509694e+18,0.7023220062,-1.26967454,-1.406286836
1338,1.55965509699e+18,1.689504623,-0.6873168945,-0.1133744717
1339,1.55965509704e+18,1.509961128,-0.5453188419,2.152878284
1340,1.5596550971e+18,2.707486153,1.13300097,2.809340477
1341,1.55965509715e+18,2.073189735,1.801611066,4.148515224
1342,1.55965509721e+18,-0.06900501251,3.116638184,2.41196394
1343,1.55965509727e+18,-2.420300484,4.02623558,1.688387394
1344,1.55965509732e+18,-3.810020447,3.204967976,0.4027116299
1345,1.55965509738e+18,-2.91719532,3.765475273,-0.2248671055
1346,1.55965509744e+18,-0.5853967667,1.60166049,-2.016622066
1347,1.5596550975e+18,4.304900169,2.337522984,1.687428713
1348,1.55965509755e+18,-0.9366831779,-0.7422065735,-3.426199436
1349,1.55965509761e+18,-2.538263321,-1.152466297,-5.380414963
1350,1.55965509767e+18,9.773677826,0.1616716385,-4.774128914
1351,1.55965509773e+18,12.84872437,-8.112406731,-2.308648109
1352,1.55965509779e+18,1.66170311,-20.48487282,-10.19848251
1353,1.55965509785e+18,-24.25162315,-44.79720688,14.8990984
1354,1.55965509791e+18,11.06077099,23.1483593,3.750579357
1355,1.55965509797e+18,-20.90357399,-7.047624111,18.02195358
1356,1.55965509802e+18,-16.0496254,11.81845284,3.963757515
1357,1.55965509807e+18,-7.476961136,6.089769363,1.166178226
1358,1.55965509813e+18,-6.676736832,5.915462494,3.917003632
1359,1.55965509819e+18,0.8810939789,3.511802673,2.451528549
1360,1.55965509825e+18,3.928479671,2.418895006,-1.204369783
1361,1.5596550983e+18,4.547012806,1.164649367,0.2405128479
1362,1.55965509836e+18,4.264149189,0.3458904028,-2.209307194
1363,1.55965509841e+18,2.896018267,0.6952548027,-0.2392063141
1364,1.55965509847e+18,1.372392416,1.241261721,1.562311172
1365,1.55965509852e+18,4.180949211,3.857526779,5.070563316
1366,1.55965509858e+18,15.51206398,8.399881363,6.124457359
1367,1.55965509864e+18,19.69864273,10.06358051,0.1544103622
1368,1.5596550987e+18,-9.455891609,-13.36464405,5.123167992
1369,1.55965509876e+18,-8.084497452,-14.76249981,-17.21093369
1370,1.55965509882e+18,-0.03764796257,-13.3147049,-0.2156515121
1371,1.55965509887e+18,0.9361029267,-3.894719124,-5.381446838
1372,1.55965509893e+18,1.818016768,0.8708887696,-6.845000267
1373,1.55965509899e+18,1.76505816,0.2656583488,-3.600598335
1374,1.55965509905e+18,3.135725498,-0.2773600817,-0.8691987991
1375,1.55965509911e+18,1.871968031,-0.6293320656,0.8626928329
1376,1.55965509917e+18,-0.8918557167,-1.110180855,2.816979408
1377,1.55965509922e+18,-2.721019268,-1.717133999,4.469937801
1378,1.55965509927e+18,-5.3121171,-0.6358075142,2.320288897
1379,1.55965509932e+18,-8.353121758,1.198353767,3.995019436
1380,1.55965509938e+18,-8.721624374,11.25047779,19.84863663
1381,1.55965509944e+18,-4.341690063,5.184894562,0.3822894692
1382,1.55965509949e+18,-5.123418808,8.4389534,1.525703907
1383,1.55965509954e+18,-1.825551987,3.00629282,0.1469392776
1384,1.5596550996e+18,-3.806295872,1.122165203,-0.1449980736
1385,1.55965509965e+18,-1.887871742,0.005222797394,-1.646692634
1386,1.55965509971e+18,-1.080815315,-0.450496912,-1.669781685
1387,1.55965509977e+18,0.7916593552,0.01482319832,-1.71387434
1388,1.55965509983e+18,1.566879272,0.7279495001,-0.7052328587
1389,1.55965509989e+18,1.404664993,1.247425795,0.06798291206
1390,1.55965509995e+18,1.873533726,1.573101759,1.354236245
1391,1.55965510001e+18,2.564815521,1.870347142,2.370441437
1392,1.55965510007e+18,0.9111127853,1.873533964,2.963995457
1393,1.55965510012e+18,-1.39944458,1.517386913,2.16887188
1394,1.55965510018e+18,-0.6333503723,2.147141933,2.651907921
1395,1.55965510024e+18,-1.233324051,2.465269089,1.768656611
1396,1.5596551003e+18,-1.376993179,2.747340918,1.610865235
1397,1.55965510036e+18,-4.305588722,3.339247227,0.03773748875
1398,1.55965510042e+18,-5.893712044,2.03354311,1.445233345
1399,1.55965510047e+18,-6.043189049,0.8416638374,4.085496902
1400,1.55965510052e+18,-3.174119949,-0.3823833466,3.68528533
1401,1.55965510057e+18,-2.666439533,-1.245797634,5.374321938
1402,1.55965510063e+18,2.341962337,-1.831402302,-0.4557347298
1403,1.55965510069e+18,0.997443676,-8.240996361,-3.903164387
1404,1.55965510075e+18,0.06777763367,-13.99244118,-2.888673544
1405,1.5596551008e+18,2.286481857,-14.95831108,-2.532307625
1406,1.55965510086e+18,5.713214874,-11.69672775,-13.02668476
1407,1.55965510091e+18,-3.92698288,-14.87732792,-30.49982834
1408,1.55965510097e+18,2.804498672,2.569536686,-9.468156815
1409,1.55965510102e+18,-10.36092854,11.44254398,-17.2206192
1410,1.55965510108e+18,1.12033844,15.40769291,-4.447672367
1411,1.55965510114e+18,-4.4096632,13.81708717,-2.765377045
1412,1.5596551012e+18,1.817809582,11.13877773,2.125216484
1413,1.55965510126e+18,3.055930614,9.835680962,-1.409557343
1414,1.55965510132e+18,3.075239897,7.475364685,-1.581811905
1415,1.55965510137e+18,3.045934916,6.428197384,-2.579647541
1416,1.55965510143e+18,5.441615105,3.746607065,-1.043952942
1417,1.55965510149e+18,1.65341723,4.505659103,-0.6226663589
1418,1.55965510155e+18,1.859206438,5.693120003,0.7974309921
1419,1.55965510161e+18,4.21155405,8.316612244,-1.701130867
1420,1.55965510167e+18,13.6631918,17.14988708,-8.5831604
1421,1.55965510172e+18,5.348813057,12.52345085,-4.299290657
1422,1.55965510177e+18,-26.19471741,-8.817929268,10.48282814
1423,1.55965510182e+18,-6.774148941,-14.94453049,-23.87008858
1424,1.55965510188e+18,2.240509033,-26.18265724,6.835655212
1425,1.55965510194e+18,1.300718546,-9.435871124,-5.283641338
1426,1.559655102e+18,3.202707052,-0.6105530262,-7.526842117
1427,1.55965510205e+18,2.092172623,-2.892875195,-2.685008049
1428,1.55965510211e+18,3.377630472,-3.803087234,0.5785493851
1429,1.55965510216e+18,2.618132114,-3.993029356,1.215070724
1430,1.55965510222e+18,0.6963572502,-2.38760376,1.994522572
1431,1.55965510227e+18,-1.25869894,-3.863275766,1.801392078
1432,1.55965510233e+18,-2.224142551,-3.06703043,4.087547302
1433,1.55965510239e+18,-5.188354492,-1.110753536,2.701979876
1434,1.55965510245e+18,-7.237304688,3.353639364,1.472146392
1435,1.55965510251e+18,-5.177722931,4.132792473,0.463496685
1436,1.55965510257e+18,-5.12865448,6.344090939,0.4150409102
1437,1.55965510263e+18,-2.564388275,2.228097916,0.009892344475
1438,1.55965510269e+18,-1.11924839,-0.5163345337,0.5174434185
1439,1.55965510274e+18,-0.6713008881,-3.559117794,-0.554517746
1440,1.5596551028e+18,-0.007888793945,-2.694166183,-1.425348282
1441,1.55965510286e+18,-0.8092002869,-2.311021805,-0.6741515398
1442,1.55965510291e+18,-0.2834758759,-0.1218636036,-0.002535760403
1443,1.55965510296e+18,0.1972761154,-0.3677592278,0.424990952
1444,1.55965510302e+18,0.5745420456,2.449411392,1.735379696
1445,1.55965510307e+18,0.06168937683,3.87040782,1.457440376
1446,1.55965510313e+18,-1.798112869,4.525602341,1.791096926
1447,1.55965510319e+18,-2.203374863,3.932441235,1.998702645
1448,1.55965510325e+18,-3.445587158,2.061803341,1.046629906
1449,1.5596551033e+18,0.1465950012,2.580568075,0.006591796875
1450,1.55965510336e+18,4.776784897,1.791142941,-0.06608057022
1451,1.55965510341e+18,4.955574989,0.4962964058,0.6180033684
1452,1.55965510347e+18,2.723600388,-1.346915245,-3.662026882
1453,1.55965510352e+18,2.27190733,-3.049487114,-1.014537334
1454,1.55965510358e+18,4.620132923,-4.731194019,-3.785093784
1455,1.55965510364e+18,1.232949734,-11.02357101,-3.509747028
1456,1.55965510369e+18,-5.686178207,-20.28953362,-10.24376297
1457,1.55965510375e+18,-1.415756226,-14.70756721,-69.63262939
1458,1.5596551038e+18,6.021290779,51.79600906,16.0380249
1459,1.55965510386e+18,-3.828953743,9.904802322,3.622570753
1460,1.55965510392e+18,-1.635875702,7.356004715,6.520758629
1461,1.55965510398e+18,-3.438252449,7.700383186,-0.5085878372
1462,1.55965510404e+18,13.89937019,2.487606525,-1.586582184
1463,1.55965510409e+18,0.1859898567,2.777688503,-0.7190589905
1464,1.55965510415e+18,1.866878986,3.038993359,2.536683083
1465,1.5596551042e+18,1.437442303,2.617872715,2.166684628
1466,1.55965510426e+18,0.1883926392,2.277919292,3.43894577
1467,1.55965510431e+18,5.039270401,4.654975891,4.999567032
1468,1.55965510437e+18,14.97551346,12.30900764,6.141564369
1469,1.55965510442e+18,21.83344269,9.481613159,2.39816761
1470,1.55965510448e+18,-16.6592865,-14.48404503,14.77817249
1471,1.55965510453e+18,-6.00698328,-17.3788929,-15.66428089
1472,1.55965510458e+18,0.2671163082,-22.88527107,1.256053925
1473,1.55965510464e+18,0.7752034664,-7.698016644,-7.776954651
1474,1.5596551047e+18,2.663553715,-1.769564033,-8.231263161
1475,1.55965510475e+18,2.269002438,-1.532847762,-5.187087059
1476,1.55965510481e+18,3.422044277,-3.107516289,-1.784635544
1477,1.55965510487e+18,3.324427605,-3.367416859,0.7055845261
1478,1.55965510493e+18,1.626654625,-0.8471071124,1.345946312
1479,1.55965510499e+18,0.8477525711,-1.730439663,-0.3381824493
1480,1.55965510505e+18,-2.374450684,-1.921958208,1.777020454
1481,1.5596551051e+18,-4.370781898,-1.602492332,1.776088238
1482,1.55965510516e+18,-5.932284355,0.1867904663,1.25853157
1483,1.55965510521e+18,-5.818870068,2.899043322,0.7699110508
1484,1.55965510527e+18,-4.642493248,4.877917767,0.5576025248
1485,1.55965510533e+18,-3.968426704,4.813072681,0.6180016994
1486,1.55965510539e+18,-3.120680809,2.723193169,0.6409921646
1487,1.55965510545e+18,-1.683578491,0.9051380157,0.1196246147
1488,1.55965510551e+18,-1.439705849,-0.784835577,-0.8001887798
1489,1.55965510556e+18,-1.551990509,-1.900918007,-1.558531523
1490,1.55965510562e+18,0.4332141876,-2.090102196,-1.968825817
1491,1.55965510568e+18,2.345169067,-1.529093504,-1.686965108
1492,1.55965510573e+18,2.459633827,-1.507534623,-1.766782641
1493,1.55965510579e+18,2.525882721,-0.8025332689,-0.7957789898
1494,1.55965510585e+18,1.453093529,-0.1928265095,-0.08849859238
1495,1.5596551059e+18,0.3389453888,0.198461771,1.012167692
1496,1.55965510596e+18,-0.9280462265,1.744434118,1.370423794
1497,1.55965510602e+18,-2.362576485,2.50933075,2.589771509
1498,1.55965510608e+18,-4.033873558,4.135079384,4.751502991
1499,1.55965510614e+18,-6.700572014,3.785334349,5.706490517
1500,1.5596551062e+18,-3.211433411,3.442647219,6.18310833
1501,1.55965510626e+18,-8.062226295,1.065088511,-0.3301205635
1502,1.55965510632e+18,-3.350949287,0.01392030716,-5.01827383
1503,1.55965510637e+18,-0.3618197441,0.4876580238,-6.227203369
1504,1.55965510643e+18,4.05405426,-1.639553547,-3.996324778
1505,1.55965510649e+18,5.147279263,-5.506883621,-3.279084682
1506,1.55965510655e+18,8.693040848,-13.97266293,-1.173069477
1507,1.55965510661e+18,0.3183789253,-17.44165802,-8.626866341
1508,1.55965510667e+18,-6.071273327,-45.58720779,-52.06481934
1509,1.55965510672e+18,14.37728882,28.85059547,-35.06125641
1510,1.55965510677e+18,0.7920808792,13.41801262,6.114659309
1511,1.55965510682e+18,-5.822879791,9.437319756,-1.433012128
1512,1.55965510688e+18,7.195611954,9.488190651,7.408592701
1513,1.55965510694e+18,3.695656776,6.074647427,4.32942009
1514,1.559655107e+18,3.898995399,6.084717274,1.169072628
1515,1.55965510705e+18,2.379576206,4.271392822,1.288734436
1516,1.55965510711e+18,3.401265144,3.885448933,1.852118492
1517,1.55965510716e+18,4.293449402,3.90399313,2.622946739
1518,1.55965510722e+18,4.40182066,5.911653042,3.493370056
1519,1.55965510727e+18,9.920283318,10.97364044,4.140987396
1520,1.55965510733e+18,21.40901375,18.15238762,-7.687900066
1521,1.55965510739e+18,0.1378085613,-6.693928242,-2.937023163
1522,1.55965510745e+18,-26.52348137,-23.56410217,-27.4094429
1523,1.55965510751e+18,-3.452905178,-21.27269363,5.181707382
1524,1.55965510757e+18,2.557817936,-8.909322739,-5.961954117
1525,1.55965510762e+18,1.887827277,-3.850894928,-6.683021545
1526,1.55965510768e+18,3.120584488,-2.756323576,-3.627469063
1527,1.55965510774e+18,4.793119907,-1.957239747,-0.6189241409
1528,1.5596551078e+18,2.615275383,-2.363250017,0.4107198715
1529,1.55965510786e+18,0.7427556515,-3.107274532,-0.1472616196
1530,1.55965510792e+18,-2.874537945,-3.731639385,1.726831436
1531,1.55965510798e+18,-4.776526928,-2.872179985,0.811384201
1532,1.55965510804e+18,-5.365466595,-1.49131155,1.689801931
1533,1.55965510809e+18,-4.618102551,1.624863625,1.430366039
1534,1.55965510815e+18,-4.316629887,2.949834585,1.250776052
1535,1.55965510821e+18,-2.927982807,4.343517303,0.2450973988
1536,1.55965510827e+18,-3.837568283,3.040147781,-0.5092654228
1537,1.55965510832e+18,-3.750859737,1.046863079,-0.6547384262
1538,1.55965510838e+18,-2.255215645,0.004468917847,-0.8131434917
1539,1.55965510844e+18,-1.945219994,-1.402376652,-2.05520916
1540,1.55965510849e+18,-1.703368187,-1.415286779,-1.904406786
1541,1.55965510855e+18,1.032846451,-0.4581354856,-1.146028519
1542,1.55965510861e+18,2.197520733,0.3605027795,-0.4523642063
1543,1.55965510867e+18,2.483622551,1.1855371,0.4783148766
1544,1.55965510873e+18,1.201849937,1.695826769,1.524073124
1545,1.55965510878e+18,-0.6169776917,1.967713594,3.157866716
1546,1.55965510883e+18,-1.601465225,2.125864506,2.758918762
1547,1.55965510889e+18,-3.969984055,2.526134014,0.3597633839
1548,1.55965510895e+18,-3.012857437,2.764194012,1.493998051
1549,1.55965510901e+18,-4.095758438,0.4242413044,0.1786103249
1550,1.55965510907e+18,-3.493589401,-0.9625678062,-0.4494068623
1551,1.55965510913e+18,-1.888496399,-0.9514417648,0.02918076515
1552,1.55965510918e+18,-0.971282959,-0.4143385887,-0.1183300018
1553,1.55965510924e+18,2.284338474,-1.211585045,-2.749328136
1554,1.5596551093e+18,4.092512608,-5.039777756,-3.754663467
1555,1.55965510936e+18,0.3322939873,-16.98774338,-1.423861504
1556,1.55965510942e+18,-1.319990635,-13.01984978,-7.227848053
1557,1.55965510948e+18,5.408216,-12.70447922,-28.23291397
1558,1.55965510953e+18,14.5162344,16.4671154,-22.43376732
1559,1.55965510958e+18,4.897786617,10.46780014,-1.175683498
1560,1.55965510964e+18,-2.646576881,8.193613052,-6.713459015
1561,1.5596551097e+18,4.479076385,9.359197617,2.033396721
1562,1.55965510976e+18,4.998924732,5.966302872,-0.8756875992
1563,1.55965510982e+18,2.388788939,4.979628563,-0.6331653595
1564,1.55965510988e+18,2.386013031,5.691926956,0.1819453239
1565,1.55965510994e+18,3.587461472,4.577233791,-0.240067482
1566,1.55965511e+18,3.740814924,5.405418396,0.6123919487
1567,1.55965511005e+18,3.810730934,9.44953537,1.987579346
1568,1.55965511011e+18,5.58868885,14.51363564,-3.6936903
1569,1.55965511017e+18,10.8608551,18.56729126,-6.530461311
1570,1.55965511022e+18,-4.563079834,-1.634628773,5.447517395
1571,1.55965511028e+18,-22.17799377,-19.4928112,-32.78224182
1572,1.55965511034e+18,2.438600063,-23.71954727,3.805545807
1573,1.5596551104e+18,1.680043221,-10.33313942,-5.473459244
1574,1.55965511045e+18,6.139820099,-1.580144644,-3.510055542
1575,1.55965511051e+18,2.460994244,-3.451651812,-2.102921486
1576,1.55965511056e+18,4.126785278,-3.780064344,-0.233309269
1577,1.55965511062e+18,3.64585495,-3.062894821,0.9764156342
1578,1.55965511067e+18,2.564270258,-2.98397541,-0.006094932556
1579,1.55965511073e+18,0.4194307327,-3.07055378,2.258841515
1580,1.55965511079e+18,-2.647616863,-2.899569035,5.022148132
1581,1.55965511085e+18,-5.299094677,-1.847976685,2.703233242
1582,1.5596551109e+18,-6.727873325,0.261220932,1.403263211
1583,1.55965511095e+18,-6.860356808,2.961608648,-0.1067088842
1584,1.559655111e+18,-6.155433178,4.610086441,-0.4682895243
1585,1.55965511106e+18,-5.656264305,4.006095409,-0.8257894516
1586,1.55965511112e+18,-4.471360683,4.311833858,-0.9324058294
1587,1.55965511118e+18,-3.144254684,2.866489649,-1.279842257
1588,1.55965511124e+18,-2.67093277,0.6480646133,-1.172326565
1589,1.5596551113e+18,-1.2616539,-1.20831728,-0.8576208353
1590,1.55965511135e+18,0.2603263855,-2.063585997,-0.6952736378
1591,1.55965511141e+18,1.280491352,-2.877230883,-0.3413137197
1592,1.55965511146e+18,2.065550804,-2.410179377,-0.09938502312
1593,1.55965511152e+18,2.743263721,-1.381132126,0.7346662283
1594,1.55965511158e+18,2.021559715,-0.5026396513,1.814811587
1595,1.55965511164e+18,1.723544121,0.806034565,2.545336723
1596,1.55965511169e+18,1.0378685,1.437193871,2.37065196
1597,1.55965511175e+18,0.04197025299,1.394971013,0.8951815367
1598,1.5596551118e+18,-1.602519035,1.575062037,0.8760358095
1599,1.55965511185e+18,-1.830210686,2.384662151,-0.03878474236
1600,1.5596551119e+18,-2.027336121,2.750484467,1.239555955
1601,1.55965511196e+18,-5.358311653,3.553820848,-0.5535879135
1602,1.55965511202e+18,0.8704509735,2.594049931,-0.394080162
1603,1.55965511207e+18,3.909399986,4.14940691,0.792935133
1604,1.55965511213e+18,3.256642818,1.590684414,-1.846888542
1605,1.55965511219e+18,4.413771152,-1.57838583,-2.796215057
1606,1.55965511224e+18,5.039689541,-4.304280758,-1.140280366
1607,1.55965511229e+18,4.839104176,-14.35100555,6.06344223
1608,1.55965511235e+18,-0.8972473145,-15.25805473,-8.282331467
1609,1.55965511241e+18,-19.90910721,-79.6832962,32.71570587
1610,1.55965511247e+18,-5.811591148,20.88207245,-35.72528458
1611,1.55965511252e+18,-8.43146801,6.907277584,1.503216624
1612,1.55965511258e+18,-5.848215103,7.728627205,0.2326227427
1613,1.55965511264e+18,-3.579285622,7.342060566,-0.1918622404
1614,1.5596551127e+18,-4.962856293,6.886662006,1.739179969
1615,1.55965511275e+18,-3.219309807,5.912227631,-1.759120941
1616,1.55965511281e+18,2.934992313,4.071258068,-4.466993332
1617,1.55965511287e+18,11.78943634,0.8119347095,-1.458162308
1618,1.55965511292e+18,1.203477859,1.4801476,0.7123470306
1619,1.55965511297e+18,-0.2286510468,1.781060576,-0.4798388481
1620,1.55965511303e+18,0.4595825672,1.726143599,-0.07849311829
1621,1.55965511308e+18,1.123023272,1.94131279,-0.0828962326
1622,1.55965511314e+18,3.119156837,5.160470009,3.689125061
1623,1.5596551132e+18,7.033308029,7.885532379,4.122204781
1624,1.55965511326e+18,15.9168005,12.59900475,-4.908512115
1625,1.55965511331e+18,6.974647522,1.385808945,0.3591585159
1626,1.55965511337e+18,-23.99198341,-10.08947182,4.376752853
1627,1.55965511342e+18,3.098558664,-7.102198601,-23.97046852
1628,1.55965511348e+18,1.866043091,-17.99240112,5.914833069
1629,1.55965511353e+18,-2.470574379,-7.154639244,-5.409671307
1630,1.55965511359e+18,1.469936967,-0.5104465485,-7.99373436
1631,1.55965511365e+18,0.2372891903,-1.359191179,-3.392579079
1632,1.55965511371e+18,2.784003973,-1.477380753,-1.336213112
1633,1.55965511377e+18,3.476768017,-1.730347157,1.15634346
1634,1.55965511383e+18,1.704022169,-2.49196291,1.735017776
1635,1.55965511389e+18,-3.356152534,-5.49249649,4.690982342
1636,1.55965511395e+18,-7.520710945,-4.077497482,3.073803186
1637,1.559655114e+18,-9.666172028,1.087841988,0.5094029903
1638,1.55965511406e+18,-9.122119904,5.587215424,0.6859659553
1639,1.55965511412e+18,-7.419397354,5.105730057,2.392858267
1640,1.55965511418e+18,-6.229152679,7.218505383,-0.1085970402
1641,1.55965511424e+18,-4.932781696,2.753493309,-0.5684579611
1642,1.5596551143e+18,-6.03426075,0.2220339775,-0.9435743093
1643,1.55965511436e+18,-4.316290379,-0.7913293839,-1.541821837
1644,1.55965511442e+18,-1.536383629,-0.6658940315,-1.32935226
1645,1.55965511448e+18,0.8178725243,-0.8494114876,-1.513630867
1646,1.55965511453e+18,1.483911991,-0.9847524166,-1.178475857
1647,1.55965511458e+18,2.312268257,-0.7426645756,-1.115363121
1648,1.55965511464e+18,2.721066952,-0.1590704918,-0.6923753023
1649,1.5596551147e+18,2.162798882,0.2630195618,0.767764926
1650,1.55965511476e+18,1.571434975,1.367698193,1.520355225
1651,1.55965511482e+18,0.4334383011,2.537555695,2.360783339
1652,1.55965511488e+18,0.08502006531,3.802140474,1.258713603
1653,1.55965511494e+18,-0.9370422363,3.088466167,0.7705467939
1654,1.559655115e+18,-3.467046738,2.141496181,0.02600759268
1655,1.55965511505e+18,-3.95190239,2.40047574,0.7111914158
1656,1.55965511511e+18,-2.341327667,3.403776646,1.209795237
1657,1.55965511517e+18,-2.437262535,1.862110376,0.1010932922
1658,1.55965511523e+18,-0.2184200287,1.34542799,-0.2736492157
1659,1.55965511529e+18,1.697443008,0.7754826546,-0.5929934978
1660,1.55965511535e+18,3.638670444,-0.329375267,-1.407661915
1661,1.5596551154e+18,4.151427746,-3.303930998,-3.765653849
1662,1.55965511545e+18,2.255620718,-10.11606216,-1.201402187
1663,1.55965511551e+18,-0.05471801758,-14.15358925,-5.493862629
1664,1.55965511556e+18,-1.632212162,-9.287494659,-9.172720909
1665,1.55965511562e+18,9.148496628,26.76269531,8.604879379
1666,1.55965511567e+18,6.682418823,6.554252625,0.5581049919
1667,1.55965511573e+18,3.440019131,9.085643768,5.248250961
1668,1.55965511579e+18,2.444509983,7.831544399,4.371570587
1669,1.55965511585e+18,1.56653595,6.642831802,2.141805649
1670,1.5596551159e+18,2.601072788,5.266834259,0.9244365692
1671,1.55965511596e+18,3.23755455,3.564509869,0.9205341339
1672,1.55965511601e+18,1.872017384,2.453197241,1.088647842
1673,1.55965511607e+18,3.50675416,2.007042408,-0.1417789459
1674,1.55965511613e+18,2.724903345,2.889504433,1.114050865
1675,1.55965511619e+18,7.065592766,6.022613525,4.363163948
1676,1.55965511625e+18,18.21130371,16.67949867,-1.663898468
1677,1.5596551163e+18,13.36522007,8.568283081,3.739114761
1678,1.55965511635e+18,-18.75421906,-17.66690826,15.42049217
1679,1.55965511641e+18,-12.68484688,-18.16926384,-6.862631321
1680,1.55965511646e+18,-5.769163132,-16.57165146,-4.556072712
1681,1.55965511652e+18,2.076819181,-7.715521812,-4.79752636
1682,1.55965511658e+18,2.878715038,-2.641306639,-4.144100666
1683,1.55965511664e+18,3.331188202,-1.243542552,-2.31732893
1684,1.5596551167e+18,3.153579712,-0.4947768152,-1.617889404
1685,1.55965511676e+18,1.141725302,-2.000959873,-0.05629348755
1686,1.55965511682e+18,-0.2507247925,-2.177881241,1.75578022
1687,1.55965511688e+18,-2.709066868,-3.374282837,3.865131855
1688,1.55965511694e+18,-4.395329952,-1.163312435,1.728022575
1689,1.559655117e+18,-6.581251144,1.113625526,-0.01384425163
1690,1.55965511705e+18,-6.624025345,4.004597664,-1.030528069
1691,1.55965511711e+18,-6.910157681,5.328300476,-1.533442855
1692,1.55965511716e+18,-5.701554298,4.963004589,-1.036028743
1693,1.55965511722e+18,-3.93666935,3.44003582,-1.466005087
1694,1.55965511727e+18,-3.119728088,1.676867247,-1.399226308
1695,1.55965511733e+18,-2.250443459,0.143371582,-2.089249372
1696,1.55965511739e+18,-1.96554184,-1.826172113,-1.84111619
1697,1.55965511745e+18,-1.743373871,-2.962962151,-1.26595521
1698,1.55965511751e+18,-0.4026269913,-3.617967129,0.6973981857
1699,1.55965511756e+18,1.789076805,-2.580070019,1.518316507
1700,1.55965511762e+18,3.580571651,-0.566033721,3.616625309
1701,1.55965511768e+18,2.681930065,1.389111042,3.569854021
1702,1.55965511774e+18,0.8163995743,2.589599133,1.303560734
1703,1.5596551178e+18,0.3453245163,2.612075329,1.278957367
1704,1.55965511786e+18,3.38093853,2.876597166,-0.4535627365
1705,1.55965511792e+18,8.858231544,2.66968751,-0.6694960594
1706,1.55965511797e+18,7.670197964,-1.964215159,-2.91811347
1707,1.55965511803e+18,-1.496598244,-8.019887924,-7.900667191
1708,1.55965511808e+18,-0.8934516907,-13.604352,-8.934358597
1709,1.55965511814e+18,0.4338722229,-15.06859303,-5.154932022
1710,1.5596551182e+18,5.310810089,-49.24552536,63.78547668
1711,1.55965511826e+18,-3.47654438,30.33333397,-15.54830647
1712,1.55965511831e+18,-8.632663727,-0.4274078608,2.895563364
1713,1.55965511837e+18,-11.65863323,5.721697807,-0.8617457151
1714,1.55965511842e+18,-7.373370171,4.987466335,-0.6521730423
1715,1.55965511848e+18,-6.142416954,4.738449097,-0.2971608937
1716,1.55965511854e+18,-3.031995773,3.975264788,0.8552094698
1717,1.5596551186e+18,-2.523910522,3.248227119,-0.205838263
1718,1.55965511866e+18,1.285990715,1.647055149,-3.286496401
1719,1.55965511872e+18,2.607918739,0.8578516841,-2.68953681
1720,1.55965511877e+18,4.054163933,0.9098688364,-3.270903587
1721,1.55965511883e+18,1.504088879,0.4292812347,-0.554371357
1722,1.55965511889e+18,0.8595113754,-0.04129290581,-1.017246246
1723,1.55965511895e+18,0.2937784195,0.3484725952,-0.7821302414
1724,1.559655119e+18,0.3968417645,1.312402725,-1.778493404
1725,1.55965511906e+18,1.941937447,1.447153091,-1.737849236
1726,1.55965511912e+18,2.694280624,1.81677413,0.5015802383
1727,1.55965511918e+18,5.302401066,4.05410862,4.202282906
1728,1.55965511924e+18,14.35431099,9.63190937,8.718515396
1729,1.5596551193e+18,19.79796791,11.97976017,1.989264488
1730,1.55965511936e+18,-12.80348778,-11.81577682,13.065588
1731,1.55965511942e+18,-7.782093048,-19.71282578,-15.02169037
1732,1.55965511948e+18,-3.238101721,-17.87234116,-0.6861104965
1733,1.55965511954e+18,0.1460376978,-6.707499027,-6.243110657
1734,1.5596551196e+18,2.075212479,-0.8097321391,-6.781166077
1735,1.55965511965e+18,1.379901648,-1.709637642,-5.000039101
1736,1.5596551197e+18,4.307828903,-1.548412085,-2.436309338
1737,1.55965511975e+18,4.22028923,-1.005136251,0.5641136169
1738,1.55965511981e+18,2.756649494,-1.367376804,1.240060806
1739,1.55965511987e+18,-2.067617893,-4.04182291,3.489123821
1740,1.55965511993e+18,-4.051539898,-1.370218754,4.408296108
1741,1.55965511999e+18,-5.268175125,0.2443194389,3.439319372
1742,1.55965512004e+18,-3.985989571,3.236751318,3.3697083
1743,1.5596551201e+18,-4.841967106,3.729607344,0.3180596828
1744,1.55965512016e+18,-3.844460964,4.826144695,-0.7585680485
1745,1.55965512021e+18,-3.031596661,4.07476759,-1.208913565
1746,1.55965512027e+18,-2.114712238,2.48960042,-1.472923279
1747,1.55965512033e+18,-2.001984596,0.317337513,-2.004726171
1748,1.55965512039e+18,-0.04765987396,-0.6268556118,-1.588196278
1749,1.55965512044e+18,-0.1783742905,-1.812392712,-1.319278717
1750,1.5596551205e+18,0.2820558548,-1.006676555,0.7429718971
1751,1.55965512055e+18,-0.1579008102,0.006405174732,1.774439573
1752,1.55965512061e+18,-1.579898834,2.249910355,2.192935467
1753,1.55965512067e+18,-2.886919022,3.923392057,4.449906349
1754,1.55965512073e+18,-1.77277565,1.991760254,7.974571228
1755,1.55965512079e+18,-0.3246145248,0.6670023203,7.351590157
1756,1.55965512085e+18,0.2824230194,-0.4018497467,3.488329887
1757,1.5596551209e+18,2.253042221,-0.2425260544,-0.8118882179
1758,1.55965512096e+18,2.717799187,-2.438670635,-4.482568264
1759,1.55965512101e+18,3.919832945,-4.561621189,-5.404495239
1760,1.55965512107e+18,7.214206219,-7.915563583,-3.4232862
1761,1.55965512112e+18,4.206050396,-11.23405933,-2.881555796
1762,1.55965512118e+18,5.656599998,-12.04066658,-3.699357271
1763,1.55965512124e+18,-15.63282394,-62.5018425,42.82477951
1764,1.5596551213e+18,-3.652845383,21.46348763,-17.22575951
1765,1.55965512135e+18,-10.48903751,0.0397785902,-2.967415094
1766,1.55965512141e+18,-14.8449297,12.30182743,-9.733171463
1767,1.55965512146e+18,-9.9656353,12.03126526,-6.718020439
1768,1.55965512152e+18,-7.354740143,10.61210728,-3.297380924
1769,1.55965512158e+18,-1.606369019,8.840210915,-0.8152217865
1770,1.55965512164e+18,0.5447187424,5.14753437,-3.697494268
1771,1.55965512169e+18,2.879141331,2.684768915,-3.49316287
1772,1.55965512175e+18,8.00381279,1.975709438,-5.855286598
1773,1.5596551218e+18,2.257557631,2.879933357,-1.018209457
1774,1.55965512186e+18,3.793531418,4.555533409,1.515654564
1775,1.55965512192e+18,4.268603802,8.669795036,1.854720116
1776,1.55965512198e+18,11.63076019,16.41230202,-7.294284344
1777,1.55965512204e+18,5.569843292,5.679413795,-0.9723858833
1778,1.55965512209e+18,-21.85318756,-11.007658,2.24447155
1779,1.55965512215e+18,-5.176742077,-39.52724838,-3.235161304
1780,1.5596551222e+18,1.760624409,-25.36708641,-4.753580093
1781,1.55965512225e+18,4.867540359,-9.881344795,-5.904444695
1782,1.55965512231e+18,5.327976704,-5.705347538,-4.453343868
1783,1.55965512236e+18,5.224766731,0.3123188019,-2.902700424
1784,1.55965512242e+18,3.998800755,-4.777736664,0.7872037888
1785,1.55965512248e+18,4.656873226,-4.95394516,4.998370171
1786,1.55965512253e+18,2.556433439,-4.326310635,4.758893967
1787,1.55965512259e+18,-2.452558517,-4.491550922,4.6523633
1788,1.55965512265e+18,-5.226249218,0.03076171875,3.357593298
1789,1.55965512271e+18,-6.544059753,1.954390049,3.246051311
1790,1.55965512276e+18,-5.476324558,3.99671483,1.393075585
1791,1.55965512282e+18,-4.167196274,3.380561113,1.539550543
1792,1.55965512288e+18,-2.930531502,2.523595333,0.2385787964
1793,1.55965512294e+18,-5.096791267,0.2226810455,-0.1737604141
1794,1.559655123e+18,-3.372024536,0.4414010048,-1.394356847
1795,1.55965512306e+18,-3.063216209,-0.2007184029,-0.5928254128
1796,1.55965512312e+18,-3.8306427,2.265786648,0.1182456017
1797,1.55965512317e+18,-2.546405792,3.171665907,-1.039795876
1798,1.55965512323e+18,-3.344454765,2.38665843,-1.978645086
1799,1.55965512329e+18,1.237087727,3.109497309,-1.288943768
1800,1.55965512335e+18,4.338994026,0.6510872841,-4.476239681
1801,1.55965512341e+18,4.806447029,-5.259090424,-3.833882093
1802,1.55965512347e+18,7.759279728,-7.669247627,-6.378831863
1803,1.55965512352e+18,8.913128853,-14.84535789,-13.53816795
1804,1.55965512358e+18,3.684121609,-17.97344398,-10.53430557
1805,1.55965512364e+18,-0.2564582825,-12.07262611,10.20083904
1806,1.5596551237e+18,-2.579332352,-9.329170227,9.393888474
1807,1.55965512376e+18,-16.97809029,-6.070456982,5.033565998
1808,1.55965512382e+18,-12.64501667,-5.803703785,8.523625374
1809,1.55965512387e+18,-12.64011478,-2.670739651,6.194773674
1810,1.55965512393e+18,-10.3510828,-1.177542686,6.852003098
1811,1.55965512398e+18,-6.039521217,0.2605766058,6.689250946
1812,1.55965512404e+18,-1.319161415,-0.5253800154,3.246971846
1813,1.5596551241e+18,3.720335484,0.0762513876,-0.8895081282
1814,1.55965512416e+18,3.446552277,0.001864403486,-0.9022808075
1815,1.55965512421e+18,-0.7496681213,-0.6138811111,-0.9239163399
1816,1.55965512427e+18,1.736841202,-0.02641046047,0.4280166626
1817,1.55965512432e+18,0.9986133575,1.287138581,1.938128471
1818,1.55965512438e+18,6.815066814,7.141031265,1.026450157
1819,1.55965512444e+18,19.22073936,9.298664093,-2.174888134
1820,1.5596551245e+18,13.47794628,1.215948343,-0.2656316757
1821,1.55965512455e+18,-23.8693924,-12.93337631,20.80220604
1822,1.55965512461e+18,-2.467006922,-12.36153316,-9.923169136
1823,1.55965512467e+18,-1.772545218,-10.26614189,-2.001696587
1824,1.55965512473e+18,1.31947577,-1.631513596,-7.22932148
1825,1.55965512478e+18,0.8860782385,2.066510439,-8.625231743
1826,1.55965512484e+18,0.7729439735,0.4119914472,-4.544041157
1827,1.55965512489e+18,1.434663296,0.1495929062,-3.154999733
1828,1.55965512495e+18,-1.343272209,-1.388203144,-0.4115586281
1829,1.55965512501e+18,-6.791207314,-0.3215353489,3.414366007
1830,1.55965512506e+18,-8.846417427,-0.860268116,0.5408385992
1831,1.55965512512e+18,-8.710276604,4.159843922,2.139448643
1832,1.55965512518e+18,-8.606313705,7.612579823,2.993394613
1833,1.55965512524e+18,-9.264814377,8.649479866,0.1704420447
1834,1.5596551253e+18,-5.610933304,9.19164753,2.72084713
1835,1.55965512536e+18,-4.9795084,4.347507477,2.784324646
1836,1.55965512542e+18,-6.686578274,2.536373377,0.5572430491
1837,1.55965512547e+18,-4.226332664,1.649689436,1.330684423
1838,1.55965512552e+18,-1.213981628,2.169585228,0.3485324979
1839,1.55965512557e+18,-0.7730350494,1.386497855,2.417810678
1840,1.55965512563e+18,-1.288454056,2.903525114,5.268084526
1841,1.55965512569e+18,-6.011599541,2.355777502,2.297629356
1842,1.55965512575e+18,0.03396129608,0.9374271631,-1.68266058
1843,1.5596551258e+18,6.595629215,0.5482926369,-2.413009882
1844,1.55965512585e+18,13.02158165,2.651515007,-2.403599024
1845,1.5596551259e+18,12.08477592,-1.44703877,-2.308763981
1846,1.55965512596e+18,6.929653168,-5.777510643,0.485438168
1847,1.55965512601e+18,4.183602333,-11.70734787,-1.165183306
1848,1.55965512607e+18,1.147872448,-15.97677517,-7.441214561
1849,1.55965512613e+18,5.671326637,3.785485744,-13.42147446
1850,1.55965512619e+18,-27.89758301,-4.863652229,-11.39010048
1851,1.55965512625e+18,-8.821452141,1.843812466,-2.173011065
1852,1.5596551263e+18,-18.58269501,2.210824966,-4.583597183
1853,1.55965512636e+18,-10.8941803,5.135597706,-3.064319134
1854,1.55965512642e+18,-8.843669891,6.640855789,-1.135792494
1855,1.55965512648e+18,-5.232262135,6.890660286,0.2234559059
1856,1.55965512654e+18,-3.75796032,5.61720562,1.873344183
1857,1.5596551266e+18,-0.5396585464,2.308676004,3.245069265
1858,1.55965512666e+18,4.282017231,0.1057967544,0.382679671
1859,1.55965512671e+18,2.242900372,0.2755643129,-3.768380165
1860,1.55965512677e+18,9.000253677,-0.1768288612,-2.115448713
1861,1.55965512682e+18,5.294676781,1.873488426,-4.176650524
1862,1.55965512688e+18,2.031140566,2.682749271,-0.8800520897
1863,1.55965512694e+18,7.512392998,0.06729054451,5.496883392
1864,1.559655127e+18,3.389302254,5.017554283,4.542476654
1865,1.55965512705e+18,10.03827953,8.505910873,5.448878288
1866,1.55965512711e+18,18.2691803,14.86340618,0.9884004593
1867,1.55965512716e+18,12.79982853,-3.550895452,5.030784607
1868,1.55965512722e+18,-15.0148735,-15.47588921,-14.4794569
1869,1.55965512727e+18,-3.028264046,-30.43725777,6.633469582
1870,1.55965512733e+18,-0.586815238,-7.376647472,-6.988137245
1871,1.55965512739e+18,4.019676208,-4.959366322,-6.639370918
1872,1.55965512745e+18,5.362142563,1.855222464,-7.230219841
1873,1.55965512751e+18,4.49033165,-1.807641268,-1.616688251
1874,1.55965512757e+18,7.008535385,-1.568914056,0.5943813324
1875,1.55965512762e+18,4.816329956,-1.707421303,2.283540726
1876,1.55965512768e+18,-0.1419415474,-3.718786716,2.020884037
1877,1.55965512773e+18,-3.318527222,-2.264260769,3.664844513
1878,1.55965512779e+18,-4.920842171,0.3562374115,1.342947721
1879,1.55965512785e+18,-6.445000172,2.284374237,0.5595469475
1880,1.55965512791e+18,-9.58829689,4.179720879,0.08493542671
1881,1.55965512797e+18,-7.94739151,5.845270157,-0.2255266905
1882,1.55965512803e+18,-5.818732738,4.421383858,-0.5930470228
1883,1.55965512808e+18,-4.073732853,2.207287788,0.02618253231
1884,1.55965512814e+18,-2.117990971,0.1397008896,-0.1328374147
1885,1.5596551282e+18,-1.56264782,-1.7015872,-0.8441592455
1886,1.55965512826e+18,-1.446825981,-3.197209597,-1.33661449
1887,1.55965512831e+18,-0.7167549133,-2.886725903,-1.156549454
1888,1.55965512837e+18,1.167358398,-1.691316843,-0.4233253002
1889,1.55965512842e+18,3.219377518,0.7363152504,-0.02249658108
1890,1.55965512848e+18,4.161263466,2.288716316,1.563798428
1891,1.55965512854e+18,4.196424484,3.758972168,1.266479254
1892,1.5596551286e+18,1.213398933,3.120913029,2.388878822
1893,1.55965512866e+18,-1.686834335,1.396718264,1.279387593
1894,1.55965512872e+18,-1.881505013,1.147414684,0.4323889017
1895,1.55965512877e+18,-0.5898447037,2.323203802,1.099184513
1896,1.55965512883e+18,-1.090149879,3.703301907,0.5091860294
1897,1.55965512889e+18,-6.094781876,2.636106014,-0.9068353176
1898,1.55965512895e+18,-3.758156776,1.883369684,0.5217280388
1899,1.55965512901e+18,-2.576005936,0.6747362614,-0.1125164032
1900,1.55965512907e+18,-1.713130951,-0.9233231544,-2.493849754
1901,1.55965512913e+18,0.8964595795,-1.059148312,-2.399097443
1902,1.55965512918e+18,3.007413864,-0.5339202881,-2.245886087
1903,1.55965512923e+18,2.658182621,-1.382810116,-2.012125492
1904,1.55965512929e+18,-2.485990524,-4.902467728,-3.235748768
1905,1.55965512934e+18,-2.341421127,-5.743700027,-2.541409492
1906,1.5596551294e+18,-1.424288273,-6.711317539,-2.910441399
1907,1.55965512946e+18,0.3479657173,-6.189203262,-4.204752922
1908,1.55965512952e+18,-24.17421913,-6.614967346,13.50386429
1909,1.55965512957e+18,24.39935493,-2.247466564,-13.5909338
1910,1.55965512963e+18,14.04465294,-1.88033247,-6.094142914
1911,1.55965512969e+18,-0.6198579073,-8.665182114,-6.849923134
1912,1.55965512974e+18,5.412102699,-4.021488667,-2.281435251
1913,1.5596551298e+18,7.004642487,-4.521574974,-0.1180939674
1914,1.55965512986e+18,2.287670851,-2.35955286,-2.114370823
1915,1.55965512992e+18,0.4945392609,-1.296133041,2.020865917
1916,1.55965512998e+18,3.135321617,1.988271236,4.095018387
1917,1.55965513003e+18,3.558317423,1.798112869,0.6113786697
1918,1.55965513008e+18,2.881806135,1.264893532,0.3743743896
1919,1.55965513014e+18,3.523834229,1.952023745,0.9111852646
1920,1.5596551302e+18,7.428976059,4.364444733,1.949306488
1921,1.55965513025e+18,17.43068504,7.457506657,1.09609127
1922,1.55965513031e+18,25.10315704,13.86785793,-1.996743679
1923,1.55965513037e+18,-4.04253912,-8.908781052,8.490550995
1924,1.55965513043e+18,-15.87505245,-33.56253052,-3.514077663
1925,1.55965513049e+18,-9.109923363,-15.00968933,-2.303341866
1926,1.55965513055e+18,-0.4424419403,-7.492060661,-5.853179932
1927,1.55965513061e+18,1.272023559,-4.342161655,-5.668091297
1928,1.55965513067e+18,1.877485871,-2.249040127,-4.299687386
1929,1.55965513073e+18,2.188130856,-2.38130331,-1.253502369
1930,1.55965513078e+18,1.975678205,-1.854190111,-1.017580032
1931,1.55965513083e+18,2.040662527,-1.822445512,-0.5470066071
1932,1.55965513089e+18,-0.4372062683,-3.215578079,1.008165359
1933,1.55965513095e+18,-4.114315987,-5.12859726,0.4286193848
1934,1.55965513101e+18,-7.370751381,-2.371883154,0.240067482
1935,1.55965513107e+18,-6.645069122,2.265884638,0.6761620045
1936,1.55965513113e+18,-5.946453094,4.164871216,0.1719017029
1937,1.55965513119e+18,-5.163523197,4.202500343,0.5856382847
1938,1.55965513125e+18,-3.211903572,2.42480135,-0.2221975327
1939,1.5596551313e+18,-4.360346794,0.121155262,-1.037758589
1940,1.55965513136e+18,-2.543776989,-0.07007741928,-0.7184844017
1941,1.55965513142e+18,-1.715659142,-0.1987080574,-1.007858753
1942,1.55965513147e+18,-1.690927505,-1.09015131,-0.8540446758
1943,1.55965513153e+18,-1.831323624,-2.022631645,-0.6884819269
1944,1.55965513159e+18,-0.4573841095,-2.261789322,-0.3334382772
1945,1.55965513165e+18,0.4007835388,-2.199947357,0.1089344025
1946,1.5596551317e+18,1.23749733,-1.763834357,-0.2998843193
1947,1.55965513176e+18,1.025965691,-0.3383183777,0.7442581654
1948,1.55965513182e+18,-0.7908029556,0.9356615543,1.426668644
1949,1.55965513188e+18,-0.1164169312,1.645644188,1.075798512
1950,1.55965513194e+18,2.115706921,0.974868536,-0.8276665211
1951,1.559655132e+18,2.614200115,1.460409403,-1.342811346
1952,1.55965513205e+18,4.884216309,2.139662266,-2.519693851
1953,1.55965513211e+18,7.977114677,0.6066989899,-2.887523174
1954,1.55965513216e+18,8.132526398,-8.767800331,0.5184435844
1955,1.55965513222e+18,3.505260944,-21.84105873,-8.040082932
1956,1.55965513227e+18,-9.55158329,-15.20908546,-31.84326744
1957,1.55965513233e+18,3.746576786,43.81064606,16.76349068
1958,1.55965513239e+18,-9.521828651,11.6823349,2.168530226
1959,1.55965513245e+18,-11.5375452,9.300699234,-0.4558308125
1960,1.55965513251e+18,-3.554514885,9.369656563,0.1392617226
1961,1.55965513256e+18,-3.47712326,6.827218533,3.971362829
1962,1.55965513262e+18,-0.2206363678,7.208858013,-0.9051632881
1963,1.55965513268e+18,4.444017887,4.656782627,-2.675536871
1964,1.55965513273e+18,5.868494511,3.263787508,-2.519370317
1965,1.55965513279e+18,3.582087994,3.641468525,-4.454304695
1966,1.55965513285e+18,5.780102253,3.922636032,-3.548707724
1967,1.5596551329e+18,11.15041447,7.479635715,-11.53042221
1968,1.55965513295e+18,16.50224113,5.353666306,-2.681756735
1969,1.55965513301e+18,-6.294195175,-6.502072334,-2.29658556
1970,1.55965513307e+18,-9.525018692,-23.81666946,-15.62573719
1971,1.55965513312e+18,3.690137625,-25.74946594,10.87295151
1972,1.55965513317e+18,-1.737992764,-13.77374268,-3.265890121
1973,1.55965513323e+18,4.689023972,-1.6567837,-4.467031956
1974,1.55965513329e+18,0.7198867798,-4.765463829,-2.457030773
1975,1.55965513335e+18,1.35661459,-5.114816189,-0.6394743919
1976,1.5596551334e+18,1.328470945,-6.830913544,-0.3151316643
1977,1.55965513346e+18,0.4229121208,-4.430375099,1.831430435
1978,1.55965513351e+18,-0.02535438538,-1.561760902,0.2429041862
1979,1.55965513357e+18,-3.390235424,-0.2855319977,-0.6928720474
1980,1.55965513363e+18,-4.426575661,2.567615747,-1.549516439
1981,1.55965513369e+18,-5.089853287,3.879755259,1.483927488
1982,1.55965513375e+18,-2.498733044,4.303092003,-1.225416183
1983,1.55965513381e+18,-3.044177055,3.100716114,-2.235037804
1984,1.55965513386e+18,-2.045981407,1.225318432,-2.560274601
1985,1.55965513392e+18,-2.77081871,-0.3251867294,-2.740328312
1986,1.55965513397e+18,-2.670604706,-1.905272007,-2.821010113
1987,1.55965513403e+18,0.2942552567,-1.659691811,-2.298299313
1988,1.55965513409e+18,1.828078747,-1.401001692,-1.4777143
1989,1.55965513415e+18,2.130856991,-1.33484304,-1.079920888
1990,1.5596551342e+18,2.170982838,-0.8081477284,-0.3154441714
1991,1.55965513426e+18,1.875237465,-0.5792145729,0.3024821877
1992,1.55965513432e+18,1.984327793,-0.2119695097,0.4754702449
1993,1.55965513438e+18,0.7796278,-0.6774155498,0.6767087579
1994,1.55965513444e+18,0.8173017502,-0.3385781646,1.202469468
