,Time (s),Linear Acceleration x (m/s^2),Linear Acceleration y (m/s^2),Linear Acceleration z (m/s^2)
0,1.55965592406e+18,9.677607536,8.049687386,8.694854736
1,1.55965592412e+18,9.670546532,7.181698799,7.168007851
2,1.55965592418e+18,9.381293297,6.187523842,5.7326231
3,1.55965592424e+18,7.295031548,3.459717035,2.669112682
4,1.5596559243e+18,3.170752287,0.8098435402,1.039604187
5,1.55965592436e+18,0.4454232156,-0.2098875046,1.149787903
6,1.55965592442e+18,1.77456665,0.3584532738,-1.000574589
7,1.55965592448e+18,1.81099999,-0.07859277725,-1.173246384
8,1.55965592454e+18,1.564740539,-0.3192920685,-0.676838398
9,1.5596559246e+18,0.3407047987,-0.8477759361,-2.322183132
10,1.55965592466e+18,0.9016110897,-1.863949299,-3.703576803
11,1.55965592472e+18,2.895653963,-2.041442394,-2.369577408
12,1.55965592478e+18,2.967927933,-1.468341351,-1.655319691
13,1.55965592484e+18,2.124755383,0.289899826,-1.218836308
14,1.5596559249e+18,1.39581871,-0.4090328217,-0.249320507
15,1.55965592496e+18,0.4836540222,-1.450881481,0.8507900238
16,1.55965592502e+18,-0.9056749344,-2.320928097,-0.1255083084
17,1.55965592508e+18,1.359772205,-2.615941525,0.5523195267
18,1.55965592514e+18,-0.05341339111,-2.436214685,0.7720370293
19,1.5596559252e+18,2.380375385,-2.538054228,2.087318897
20,1.55965592526e+18,0.4444932938,-0.9033353329,-0.4222726822
21,1.55965592532e+18,-0.08750534058,-0.2123532295,-0.2644052505
22,1.55965592538e+18,0.4894652367,0.5873317719,-1.564680576
23,1.55965592544e+18,-0.6157522202,1.464467764,-1.998744488
24,1.5596559255e+18,2.691473961,-1.71714592,0.6404819489
25,1.55965592556e+18,1.421837568,-0.9441571236,-0.2053217888
26,1.55965592562e+18,2.716938257,-0.4273638725,0.5551919937
27,1.55965592568e+18,0.2524645329,1.56293869,-0.1046409607
28,1.55965592574e+18,0.102050066,0.7839221954,-0.02644014359
29,1.5596559258e+18,-0.358168602,1.494749069,-1.147601128
30,1.55965592586e+18,0.3382608891,-0.09530639648,-0.4285564423
31,1.55965592592e+18,-0.753131032,0.5321569443,-1.827741861
32,1.55965592598e+18,-0.3613711596,4.398281097,-0.2025170326
33,1.55965592604e+18,-0.7821639776,2.078509331,-1.792818308
34,1.5596559261e+18,-0.8523733616,-1.702864647,-2.060257673
35,1.55965592616e+18,-0.4036438465,0.3632740974,-0.5238895416
36,1.55965592622e+18,-0.7245016098,0.7955698967,0.06149625778
37,1.55965592628e+18,-0.2280833721,-0.5638203621,0.09468126297
38,1.55965592634e+18,0.6023511887,-1.751625061,-0.5382218361
39,1.5596559264e+18,1.250741482,-2.149459362,-1.097447395
40,1.55965592646e+18,3.63116312,-4.383073807,0.8917913437
41,1.55965592652e+18,5.971673489,-6.240359306,-1.175747156
42,1.55965592658e+18,4.922227859,-2.098657608,3.221579552
43,1.55965592664e+18,6.258998394,-7.319226265,5.951759815
44,1.5596559267e+18,7.432090759,-6.314337254,6.162765026
45,1.55965592676e+18,-0.7221078873,-4.423930168,2.822267056
46,1.55965592682e+18,-3.705312252,-3.917822123,1.736563206
47,1.55965592688e+18,-1.193853855,-1.527106762,-0.7738289833
48,1.55965592694e+18,-0.9791750908,0.4567329884,-1.128513336
49,1.559655927e+18,0.3988714218,1.3498559,-2.567984104
50,1.55965592706e+18,-0.5574092865,1.419615746,-3.485143661
51,1.55965592712e+18,-0.20140481,1.330412865,-3.574239731
52,1.55965592718e+18,-0.2530026436,1.732735872,-4.366577625
53,1.55965592724e+18,1.315468669,1.785407305,-4.54229784
54,1.5596559273e+18,1.479277492,1.506176949,-3.774961948
55,1.55965592736e+18,-1.124512434,3.048648357,-1.895198822
56,1.55965592742e+18,-2.10329175,4.116412163,0.6189746857
57,1.55965592747e+18,-1.143590689,1.760830641,1.482006073
58,1.55965592753e+18,0.9241891503,1.346344948,-3.148394585
59,1.55965592759e+18,1.34084928,1.221591949,-3.550704002
60,1.55965592765e+18,1.218573809,2.033951998,-3.506629467
61,1.55965592771e+18,0.6105797291,1.827439427,-2.185093403
62,1.55965592777e+18,1.10600853,2.218681335,-3.496859074
63,1.55965592783e+18,3.161235094,-0.9026582241,-2.990622044
64,1.55965592789e+18,-2.03971529,2.492428064,-7.399641991
65,1.55965592795e+18,-2.096223116,1.445240259,-7.625449181
66,1.55965592801e+18,3.221604586,-17.3784256,2.107660294
67,1.55965592807e+18,6.279884338,-7.055232525,0.5715122223
68,1.55965592813e+18,-1.629901052,-7.189184189,2.654429436
69,1.55965592819e+18,6.737627506,-5.366736412,4.553216934
70,1.55965592825e+18,5.306981087,-4.35675478,5.523025036
71,1.55965592831e+18,4.011138916,0.2498078346,4.700725079
72,1.55965592837e+18,-0.3091917038,1.195244789,0.04537630081
73,1.55965592843e+18,-2.274927616,3.864531279,-2.610780716
74,1.55965592849e+18,-0.5188512802,2.922295094,-1.225666523
75,1.55965592855e+18,-0.1755390167,-2.055362463,-2.69385004
76,1.55965592861e+18,-4.375260353,-2.768450499,-4.117723465
77,1.55965592867e+18,-9.613780975,-2.092476845,-11.88876247
78,1.55965592873e+18,3.187620163,-11.24190903,-6.580410004
79,1.55965592879e+18,-5.485547543,-7.175029755,-8.881108284
80,1.55965592885e+18,0.8970973492,3.65879631,0.6510653496
81,1.55965592891e+18,4.814287663,-0.7370276451,1.410123348
82,1.55965592897e+18,-2.074297428,-1.934835911,2.960370541
83,1.55965592903e+18,9.217226028,-0.5903248787,9.759296417
84,1.55965592909e+18,7.6591959,-3.46995306,6.370519638
85,1.55965592915e+18,2.520993233,-0.1442008018,3.952841282
86,1.55965592921e+18,-3.244112968,2.268625975,0.4053649902
87,1.55965592927e+18,-5.642776489,3.961103439,-4.064077377
88,1.55965592933e+18,-3.290736198,2.753597736,-10.15429115
89,1.55965592939e+18,-1.537658215,1.911553741,-2.688806772
90,1.55965592945e+18,-4.629442692,0.04176068306,-4.392963409
91,1.55965592951e+18,3.171349049,-11.27011871,6.861798763
92,1.55965592957e+18,3.798036098,-6.126410484,7.20361805
93,1.55965592963e+18,5.889622688,-3.518179893,6.448957443
94,1.55965592969e+18,1.468196392,4.727740288,4.08904171
95,1.55965592975e+18,0.8305702209,2.690969944,0.5356311798
96,1.55965592981e+18,0.3967547417,0.5851354599,-0.450937748
97,1.55965592987e+18,1.660318851,-0.005730628967,-0.3865003586
98,1.55965592993e+18,2.968824387,1.091341376,-1.836926937
99,1.55965592999e+18,2.766077995,1.077573061,-1.871957541
100,1.55965593005e+18,-0.2345328331,-0.01451098919,-2.327215672
101,1.55965593011e+18,-3.807112694,-0.4185011387,-2.11680603
102,1.55965593017e+18,-9.648939133,0.2865250111,-6.751439571
103,1.55965593023e+18,-13.36236191,4.772360325,-9.833906174
104,1.55965593029e+18,9.591444969,-16.26601982,6.519984722
105,1.55965593035e+18,-12.2443924,-4.256903648,-10.70569611
106,1.55965593041e+18,3.333981991,-7.116256714,0.3576145172
107,1.55965593047e+18,1.316581249,-1.307912827,2.906359911
108,1.55965593053e+18,1.499798775,-3.112174988,2.599794865
109,1.55965593059e+18,3.846438885,0.5817317963,2.792202473
110,1.55965593065e+18,-0.1933345795,4.83584404,3.416956663
111,1.55965593071e+18,-1.592983246,7.256474495,1.043628693
112,1.55965593077e+18,-1.798336506,2.079202175,0.2516126633
113,1.55965593083e+18,-3.732698917,1.592729926,-2.313623905
114,1.55965593089e+18,-2.548402786,1.686052799,-4.621540546
115,1.55965593095e+18,-4.961929798,-1.209621906,-8.605434418
116,1.55965593101e+18,1.811517715,-7.804394722,3.874484539
117,1.55965593107e+18,-3.616381407,-13.94152641,-3.945314407
118,1.55965593113e+18,3.857026577,-0.3538551331,1.244478703
119,1.55965593119e+18,0.2420487404,1.362863541,-0.02157402039
120,1.55965593125e+18,0.3125419617,-0.5469202995,-0.8133769035
121,1.55965593131e+18,4.018041134,-4.094877243,-0.2534837723
122,1.55965593137e+18,1.899064541,-0.4504313469,-0.4728066921
123,1.55965593143e+18,-0.3092317581,0.2750263214,-1.136860609
124,1.55965593149e+18,0.7410311699,2.537147045,-0.6020498276
125,1.55965593155e+18,-7.18520546,0.9724593163,-3.639554501
126,1.55965593161e+18,-8.759086609,9.294739723,-8.544992447
127,1.55965593167e+18,-3.917176723,-0.8002996445,-0.1996088028
128,1.55965593173e+18,8.340116501,-3.885574818,5.385299683
129,1.55965593179e+18,1.607265949,-8.223342896,-0.8964115381
130,1.55965593185e+18,4.789637089,-1.433134079,1.382655382
131,1.55965593191e+18,3.285794258,-3.400325775,1.833245277
132,1.55965593197e+18,0.9900212288,-1.488063812,0.6991007328
133,1.55965593203e+18,2.304477215,-2.13242054,0.6455497742
134,1.55965593209e+18,2.401904583,0.1241383553,-0.9726319313
135,1.55965593215e+18,0.1644802094,0.4005932808,-2.834569931
136,1.55965593221e+18,-2.376491547,-0.9736962318,-1.23748827
137,1.55965593227e+18,-15.09291077,6.698145866,-10.49677277
138,1.55965593233e+18,-9.663410187,7.968481064,-6.598369598
139,1.55965593239e+18,6.620667458,-17.76296616,5.717577934
140,1.55965593245e+18,2.728644848,-14.0495472,-3.116801023
141,1.55965593251e+18,5.566099167,-0.823220253,5.026262283
142,1.55965593257e+18,3.756510258,-1.129867554,3.028162479
143,1.55965593263e+18,5.327987671,0.5475702286,2.731995106
144,1.55965593269e+18,0.5904452801,3.991328478,0.8585586548
145,1.55965593275e+18,-2.142022133,5.331198215,-0.4236660004
146,1.55965593281e+18,-2.739996672,1.106852293,-4.61495018
147,1.55965593287e+18,-6.692853451,-1.195350409,-10.2903986
148,1.55965593293e+18,0.2605934143,-7.76690197,-12.55864811
149,1.55965593299e+18,-5.660168648,0.0784330368,-5.877216339
150,1.55965593305e+18,8.676750183,-5.383301735,1.880200386
151,1.55965593311e+18,7.215970039,-4.540398598,-1.715875626
152,1.55965593317e+18,6.857872963,-2.23682785,3.781312704
153,1.55965593323e+18,3.727370739,0.332567215,0.2870087624
154,1.55965593329e+18,6.851897717,-1.224843979,1.152132034
155,1.55965593335e+18,5.416648388,-2.657375813,-2.655715227
156,1.55965593341e+18,2.85355854,2.37122941,-2.561853647
157,1.55965593347e+18,-2.463280916,5.598015785,-3.390878677
158,1.55965593353e+18,-4.965449333,-0.2634060383,-3.4057374
159,1.55965593359e+18,-11.74966812,-2.632390499,-9.158210754
160,1.55965593365e+18,4.904110909,-1.966932774,-3.607984543
161,1.55965593371e+18,1.273391962,-4.189266205,2.979195595
162,1.55965593377e+18,-1.243119597,-10.26886368,1.56436491
163,1.55965593383e+18,10.18689919,-0.7838163376,4.169723988
164,1.55965593389e+18,7.289783478,-0.5422849655,6.672737122
165,1.55965593395e+18,4.90060854,-2.116179466,2.521659613
166,1.55965593401e+18,5.532236099,-0.5632305145,1.578595161
167,1.55965593407e+18,2.319557428,0.2711334229,-0.5089325905
168,1.55965593413e+18,-2.810008764,-2.232871056,-4.422339916
169,1.55965593419e+18,-3.16536355,-1.157276869,-4.862285614
170,1.55965593425e+18,-4.233687401,1.028285027,2.499499798
171,1.55965593431e+18,-13.70451927,11.3204422,-10.26573467
172,1.55965593437e+18,-1.304054737,-0.1564359665,-3.219676733
173,1.55965593443e+18,14.39238834,-10.33948326,3.344165325
174,1.55965593449e+18,8.419143677,-4.255072594,-0.1774988174
175,1.55965593455e+18,6.309925079,0.6369056702,2.472961903
176,1.55965593461e+18,3.757378101,0.5763988495,0.5676436424
177,1.55965593467e+18,4.304081917,-1.571966171,1.434185982
178,1.55965593473e+18,0.8056735992,-0.6790614128,0.1735329628
179,1.55965593479e+18,-2.157022476,3.278066635,-0.9372262955
180,1.55965593485e+18,-1.953743696,5.510642052,-6.747592449
181,1.55965593491e+18,1.638058186,5.417181015,-4.163317204
182,1.55965593496e+18,-4.642731667,-0.7604031563,-6.430352211
183,1.55965593502e+18,-7.955514908,3.774353981,-5.739957809
184,1.55965593508e+18,1.849112511,-2.86648798,1.594415665
185,1.55965593514e+18,3.100244999,-5.885383606,3.946342945
186,1.5596559352e+18,6.627047062,-6.126239777,-1.370476484
187,1.55965593526e+18,4.969317436,-0.836766243,5.339800835
188,1.55965593532e+18,3.276459694,-0.889087677,1.601687431
189,1.55965593538e+18,2.899940491,-1.340994835,0.3158597946
190,1.55965593544e+18,2.212368488,-0.1530489922,-1.828078747
191,1.5596559355e+18,-1.161772251,2.815674782,-1.208032608
192,1.55965593556e+18,-0.5973424911,-0.1841831207,-3.353198767
193,1.55965593562e+18,-2.987889767,-3.215584755,-4.440768242
194,1.55965593568e+18,-10.41976452,1.56047678,-4.110984802
195,1.55965593574e+18,-4.565195084,0.09640169144,-1.844599485
196,1.5596559358e+18,-0.8703160286,-10.59552956,11.60645485
197,1.55965593586e+18,9.902923584,-10.672822,1.542429924
198,1.55965593592e+18,-0.6036673784,-1.326572418,4.150267601
199,1.55965593598e+18,6.317508698,-0.4791564941,5.581608772
200,1.55965593604e+18,2.121080637,-1.366150856,1.868093967
201,1.5596559361e+18,4.014110088,-1.766786575,2.054837704
202,1.55965593616e+18,2.663829803,2.157357454,-0.5721888542
203,1.55965593622e+18,-1.314276695,0.8113772869,-3.37245369
204,1.55965593628e+18,-4.728936195,-0.4725301266,-5.308853149
205,1.55965593634e+18,-9.448032379,-0.9082529545,-9.213220596
206,1.5596559364e+18,-9.308343887,-0.5330939293,-4.642065525
207,1.55965593646e+18,-4.358968735,0.3168621063,1.240173817
208,1.55965593652e+18,3.713139057,-11.72159958,6.958590508
209,1.55965593658e+18,4.55066967,-6.865149498,1.883594871
210,1.55965593664e+18,4.077757835,-1.077320099,4.440556526
211,1.5596559367e+18,1.632434845,0.8783226013,2.679344893
212,1.55965593676e+18,3.468036175,-1.156075478,1.956254959
213,1.55965593682e+18,1.353810787,-1.911427021,-0.218893528
214,1.55965593688e+18,-1.060106754,-0.5035638809,-1.693904877
215,1.55965593694e+18,-5.799356461,2.749944687,-3.820987701
216,1.559655937e+18,-5.717372894,4.117724419,-1.775926113
217,1.55965593706e+18,2.814191818,3.384798527,-3.316543818
218,1.55965593712e+18,-6.497116089,8.018400192,-1.256752968
219,1.55965593718e+18,10.31447029,-5.937140465,7.120441914
220,1.55965593724e+18,1.339361429,-11.61191654,-3.924901962
221,1.5596559373e+18,4.351736069,-0.1162567139,1.213821888
222,1.55965593736e+18,0.8645420074,-0.2281532288,0.9163188934
223,1.55965593742e+18,0.9375433922,-0.8732275963,0.5298054218
224,1.55965593748e+18,0.06057786942,0.1381917,0.2465903759
225,1.55965593754e+18,-2.298796892,0.1289801598,-1.673844337
226,1.5596559376e+18,-4.683092594,2.535629272,-2.119719982
227,1.55965593766e+18,7.374090672,0.02775192261,-3.552609921
228,1.55965593772e+18,-9.772155762,11.3976059,-0.9099783897
229,1.55965593778e+18,2.331621647,-1.896144867,6.14473629
230,1.55965593784e+18,3.737790823,-5.873218536,-3.28276968
231,1.5596559379e+18,5.695855141,-2.46556282,1.76959002
232,1.55965593796e+18,2.446065426,-1.870537758,1.531202316
233,1.55965593802e+18,-0.278796196,-2.011835098,0.09282922745
234,1.55965593808e+18,1.366381168,-0.9317817688,-0.3048980236
235,1.55965593814e+18,0.1568889618,0.5236411095,-3.796441317
236,1.5596559382e+18,-0.7841625214,3.787075996,-2.398339272
237,1.55965593826e+18,-2.067269325,4.121887207,-0.2312631607
238,1.55965593832e+18,-6.066772938,3.704383612,3.601350784
239,1.55965593838e+18,-2.513087749,5.416584969,0.5263547897
240,1.55965593844e+18,2.661842585,-2.314428329,2.633691788
241,1.5596559385e+18,-1.032560229,-9.55913353,-5.207326889
242,1.55965593856e+18,3.842673779,-0.3162975311,1.463755488
243,1.55965593862e+18,0.08550667763,-3.499137878,-0.7243373394
244,1.55965593868e+18,-2.087054968,-3.717654228,-1.117043376
245,1.55965593874e+18,-0.7244229317,-2.183115005,0.1257855892
246,1.5596559388e+18,-0.9866595268,0.9719405174,-0.4147450924
247,1.55965593886e+18,-3.539035559,3.653362751,-1.269620419
248,1.55965593892e+18,-6.642560959,5.912230968,-3.456169367
249,1.55965593898e+18,-8.3177948,9.352107048,-6.244799614
250,1.55965593904e+18,8.665399551,-5.703245163,9.909385681
251,1.5596559391e+18,-2.824239969,-8.369022369,-2.982600689
252,1.55965593916e+18,6.858820915,1.036009789,2.043055058
253,1.55965593922e+18,1.221865654,-3.518555641,-1.394177914
254,1.55965593928e+18,1.963731289,-4.202937126,-1.488485217
255,1.55965593934e+18,1.44447279,0.07736158371,-1.528360367
256,1.5596559394e+18,-1.094839096,4.616862297,-2.063837528
257,1.55965593946e+18,-3.053147554,7.159560204,0.8235359192
258,1.55965593952e+18,-4.3328619,6.918268204,-1.793863058
259,1.55965593958e+18,-5.777432442,7.389464378,2.145124435
260,1.55965593964e+18,-5.737873077,12.44174957,-9.837335587
261,1.5596559397e+18,4.476646423,-12.58911896,8.353145599
262,1.55965593976e+18,-6.424923897,-10.74072456,-4.197669029
263,1.55965593982e+18,5.347303391,-2.095731735,2.991652966
264,1.55965593988e+18,1.102382421,-1.845864296,1.224058867
265,1.55965593994e+18,1.616299152,-0.602824688,1.098993301
266,1.55965594e+18,2.759278774,-0.294005394,1.630074024
267,1.55965594006e+18,-0.07177495956,1.850200176,1.136894703
268,1.55965594012e+18,-3.374146938,1.716578007,-0.5758900642
269,1.55965594018e+18,-6.205869675,1.178604722,-4.357855797
270,1.55965594024e+18,-6.857263088,3.83049798,-6.754244804
271,1.5596559403e+18,-5.6669631,3.873274803,-4.503413677
272,1.55965594036e+18,4.190070152,-6.049463749,4.571698666
273,1.55965594042e+18,3.872481108,-5.211584091,0.004819631577
274,1.55965594048e+18,7.198866367,-2.805287361,3.851433992
275,1.55965594054e+18,4.256271362,0.2675876617,3.21732688
276,1.5596559406e+18,1.848381996,-0.5361461639,0.7964448929
277,1.55965594066e+18,1.632098675,-1.176080704,0.04756879807
278,1.55965594072e+18,0.1151881218,-1.3719697,-1.358316898
279,1.55965594078e+18,-2.240891933,-0.1660494804,-2.129221201
280,1.55965594084e+18,-6.23504734,2.100349426,-6.453376293
281,1.5596559409e+18,-12.52128983,4.03805685,-2.749342918
282,1.55965594096e+18,-10.78437996,8.749393463,-6.744569778
283,1.55965594102e+18,12.52782249,-8.81880188,11.42464638
284,1.55965594108e+18,-4.069327354,-14.04083729,-3.134283781
285,1.55965594114e+18,6.055911541,-2.411108971,3.356563568
286,1.5596559412e+18,1.405599117,0.7697043419,0.7737972736
287,1.55965594126e+18,1.691437721,0.009141921997,0.8756420612
288,1.55965594132e+18,2.309757233,-1.326655388,0.4772219658
289,1.55965594138e+18,-0.7316431999,2.555607557,0.121445179
290,1.55965594144e+18,-5.403697014,4.891161919,-2.499900579
291,1.5596559415e+18,-4.412726402,-1.845582962,-3.416394234
292,1.55965594156e+18,-7.357308388,-2.995261908,-8.074132919
293,1.55965594162e+18,-8.339522362,0.7775056362,-4.215654373
294,1.55965594168e+18,4.480683804,-3.709571362,3.668326378
295,1.55965594174e+18,6.178214073,-5.454116821,5.476632595
296,1.5596559418e+18,5.804437637,-4.671049118,1.565193653
297,1.55965594186e+18,5.595594883,0.5694875717,3.453443527
298,1.55965594192e+18,2.001483917,0.4917273521,0.8237428665
299,1.55965594198e+18,4.315746784,-0.3030643463,2.549672127
300,1.55965594204e+18,0.8177599907,1.048147678,1.078668594
301,1.5596559421e+18,-0.9944729805,2.055245399,-2.429567575
302,1.55965594216e+18,-4.726961136,-0.07260560989,-4.917264462
303,1.55965594222e+18,-2.439723253,-8.380637169,-0.3432168961
304,1.55965594228e+18,-16.52788353,8.705028534,-6.444735527
305,1.55965594234e+18,8.69827652,-10.68569088,8.146396637
306,1.5596559424e+18,-0.3540120125,-8.068444252,-2.630712032
307,1.55965594246e+18,2.231828213,-2.532816887,6.459026337
308,1.55965594252e+18,1.746068716,-0.8374681473,4.203174591
309,1.55965594258e+18,1.849183798,-0.08220481873,1.97194767
310,1.55965594264e+18,0.6453447342,-0.5104722977,-0.278046608
311,1.5596559427e+18,-2.188713312,-0.7962870598,-2.42096138
312,1.55965594276e+18,-1.242044449,1.046323299,-5.230323315
313,1.55965594282e+18,-3.042678833,4.704060555,-5.228089809
314,1.55965594288e+18,-5.17188406,6.685569286,1.943991661
315,1.55965594294e+18,-6.056913376,4.737218857,-5.042417049
316,1.559655943e+18,-0.9095833302,-1.471745968,3.348471642
317,1.55965594306e+18,2.597003222,-8.265084267,-3.223532915
318,1.55965594312e+18,11.15513229,-2.877493858,7.395583153
319,1.55965594318e+18,2.791880369,1.090312958,4.367191315
320,1.55965594324e+18,1.40004921,-0.945400238,3.28605485
321,1.5596559433e+18,3.333052635,-1.689171791,2.098485947
322,1.55965594336e+18,0.2070202827,-1.149455547,0.2374558449
323,1.55965594342e+18,-2.928653717,0.7973687649,-3.176707506
324,1.55965594348e+18,-5.430232525,0.4544439316,-4.458114624
325,1.55965594354e+18,-9.388328552,0.9335997105,-7.792653084
326,1.5596559436e+18,3.714624405,4.103849411,-9.393024445
327,1.55965594366e+18,-3.297474861,0.3633942604,-0.7708015442
328,1.55965594372e+18,2.203197718,-1.776519775,1.791765451
329,1.55965594378e+18,11.13199711,-6.992384911,5.9727211
330,1.55965594384e+18,6.153076649,-0.750462532,5.739182472
331,1.5596559439e+18,5.079713821,0.2118396759,3.269947052
332,1.55965594396e+18,4.676842213,-1.761616707,0.2955436707
333,1.55965594402e+18,4.642241955,-3.140663624,1.237767696
334,1.55965594408e+18,-1.717673302,1.992552519,-2.738374472
335,1.55965594414e+18,-6.214590073,3.41490221,-7.052009106
336,1.5596559442e+18,-4.895035744,0.3119778633,-8.443278313
337,1.55965594426e+18,-12.29100037,2.424560547,-14.866642
338,1.55965594432e+18,-4.759840012,13.27147484,-11.12690544
339,1.55965594438e+18,5.365149498,-13.09226513,9.437570572
340,1.55965594444e+18,6.742421627,-5.470047951,3.134036303
341,1.5596559445e+18,3.589058399,-2.160405159,4.827810287
342,1.55965594456e+18,2.355497122,-1.330347061,2.228568792
343,1.55965594462e+18,1.865997791,-0.7237615585,0.5955049992
344,1.55965594468e+18,1.340398788,0.9108295441,0.1337871552
345,1.55965594474e+18,-0.3521871567,6.513857841,1.319673538
346,1.5596559448e+18,2.539184093,4.763373852,0.3947501183
347,1.55965594486e+18,0.6151447296,1.205526233,-2.064466
348,1.55965594492e+18,-11.48018265,2.452095509,-8.199048042
349,1.55965594498e+18,-3.583838463,3.928647518,-5.638632298
350,1.55965594504e+18,-2.939647675,0.1865963936,0.8781971931
351,1.5596559451e+18,6.306576252,-16.10510635,7.87912178
352,1.55965594516e+18,-1.559852004,-7.183485985,-2.753147364
353,1.55965594522e+18,2.605136395,-2.221689224,3.455118656
354,1.55965594528e+18,1.793570518,-0.7658176422,1.97707653
355,1.55965594534e+18,2.726089001,0.4603257179,1.122689486
356,1.5596559454e+18,-0.1092381477,3.263682365,1.675599813
357,1.55965594546e+18,0.4349250793,3.360995293,-0.2618098259
358,1.55965594552e+18,-1.756957054,4.264050484,-1.451078653
359,1.55965594558e+18,-5.283540726,0.5098662376,-1.49239254
360,1.55965594564e+18,-7.810643673,1.772285461,-3.109948635
361,1.5596559457e+18,-5.622625351,-3.084793091,-4.333605766
362,1.55965594576e+18,1.432529926,-6.992867947,7.273617744
363,1.55965594582e+18,-1.151518583,-10.58322334,-3.626708746
364,1.55965594588e+18,4.790147781,-1.634462357,3.729237318
365,1.55965594594e+18,3.017748594,1.282053947,3.5116961
366,1.559655946e+18,1.918362617,-2.276729584,2.0901649
367,1.55965594606e+18,2.902524471,-1.106696606,0.1918997765
368,1.55965594612e+18,0.01301860809,-2.469440937,-0.4570486546
369,1.55965594618e+18,-3.918156147,-1.160208702,-3.678756237
370,1.55965594624e+18,-5.553358078,0.8883631229,-5.850393295
371,1.5596559463e+18,-0.2933945656,1.292265892,-5.448387623
372,1.55965594636e+18,-8.387892723,3.525755405,-8.101985931
373,1.55965594642e+18,2.343878269,-5.5976758,1.096123219
374,1.55965594648e+18,0.8176312447,-6.575714111,0.4243495464
375,1.55965594654e+18,5.318455696,-2.362609863,5.126616478
376,1.5596559466e+18,5.876534462,0.3005456924,6.254001617
377,1.55965594666e+18,2.247461319,-0.5737257004,1.809152603
378,1.55965594672e+18,4.910878658,-0.5345439911,1.329718113
379,1.55965594678e+18,1.564092159,0.5191569328,-1.126798391
380,1.55965594684e+18,-0.9577431679,1.965236187,-3.09507513
381,1.5596559469e+18,-4.138325691,0.75304389,-4.339486122
382,1.55965594696e+18,-17.15255737,5.021694183,-8.613790512
383,1.55965594702e+18,-9.962553024,16.98861122,-7.50248909
384,1.55965594708e+18,4.711087227,-16.14393044,9.12032795
385,1.55965594714e+18,-0.729126811,-9.623981476,-1.890313387
386,1.5596559472e+18,0.6587793827,-2.904670715,6.507838249
387,1.55965594726e+18,-0.2397053242,-1.481945038,3.515938044
388,1.55965594732e+18,0.4096326828,-0.2480635643,0.9829850197
389,1.55965594738e+18,1.92987299,2.14262867,0.2212872505
390,1.55965594744e+18,0.6320762634,1.354402542,-2.641868114
391,1.5596559475e+18,-3.912154675,2.601813316,-2.679848194
392,1.55965594756e+18,-2.510737181,3.53518796,-3.171264887
393,1.55965594762e+18,-4.315755844,5.240458012,-4.760681152
394,1.55965594768e+18,-6.557590008,5.492845535,-3.668159962
395,1.55965594774e+18,5.734021664,-7.238519669,8.571146965
396,1.5596559478e+18,-3.022404671,-12.18229485,-4.472968102
397,1.55965594786e+18,3.623421669,-2.307774544,4.541821003
398,1.55965594792e+18,-1.056245565,-1.179888725,2.006573915
399,1.55965594798e+18,0.7988185883,0.5892910957,0.8992152214
400,1.55965594804e+18,1.166509151,-0.01465415955,-0.401863575
401,1.5596559481e+18,-1.027288914,3.256805182,-2.735185146
402,1.55965594816e+18,-2.498012781,3.788791895,-2.632859707
403,1.55965594822e+18,12.0869379,-9.057649612,-4.476613522
404,1.55965594828e+18,-12.96007633,18.42602921,-9.462734222
405,1.55965594834e+18,6.204903603,-6.704652786,4.517153263
406,1.5596559484e+18,-5.845881462,-11.8439846,-1.498018384
407,1.55965594846e+18,2.913960695,-5.477511406,5.294795513
408,1.55965594852e+18,-1.313070416,-1.367099762,2.780796289
409,1.55965594858e+18,0.08905529976,0.1252298355,1.462206841
410,1.55965594864e+18,2.001921177,0.6282916069,0.5339784622
411,1.5596559487e+18,0.04834270477,3.633438349,-0.1824388504
412,1.55965594876e+18,1.692919731,5.75025034,-0.3419523239
413,1.55965594882e+18,-0.8066091537,2.420038939,-3.415439606
414,1.55965594888e+18,-5.721293449,-1.836220264,-8.286985397
415,1.55965594894e+18,-11.73967743,0.1700007915,-8.609462738
416,1.559655949e+18,0.9307603836,-13.29213333,6.554418564
417,1.55965594906e+18,3.416957855,-3.02798748,0.873814106
418,1.55965594912e+18,6.452209949,-2.845129967,3.412042379
419,1.55965594918e+18,3.627193928,-3.193514824,7.310390472
420,1.55965594924e+18,5.890066147,-2.648648262,4.739361763
421,1.5596559493e+18,3.093290806,-2.131655216,0.2526717186
422,1.55965594936e+18,-0.6006093025,0.09005022049,-0.3205242157
423,1.55965594942e+18,-0.7930388451,3.592522383,-1.208954096
424,1.55965594948e+18,-1.612857819,2.484109879,-4.257088661
425,1.55965594954e+18,4.186080933,-5.363461494,0.5788354874
426,1.5596559496e+18,-7.646861076,-1.728552341,-6.977406502
427,1.55965594966e+18,-9.894964218,2.410680294,-5.852677345
428,1.55965594972e+18,0.01184940338,-3.629310608,3.96407795
429,1.55965594978e+18,6.607394695,-2.910950661,7.962875366
430,1.55965594984e+18,-0.4197883606,-7.983393669,-0.5759791732
431,1.5596559499e+18,3.707808971,-2.905823708,4.052920818
432,1.55965594996e+18,2.251877546,-0.5813312531,2.388683319
433,1.55965595002e+18,3.589199543,-0.913602829,2.702059269
434,1.55965595008e+18,1.20796442,1.859783173,2.498712301
435,1.55965595014e+18,0.008853435516,2.450365543,2.738754511
436,1.5596559502e+18,-1.33641243,4.141069412,1.065257549
437,1.55965595026e+18,-1.429166317,1.28564477,-4.591750622
438,1.55965595032e+18,-9.966627121,2.421119928,-7.752579689
439,1.55965595038e+18,-6.208257198,3.25165844,-5.924693108
440,1.55965595044e+18,5.054896832,-8.22647953,9.29418087
441,1.5596559505e+18,-3.616373062,-9.13380146,-7.568363667
442,1.55965595056e+18,3.598693132,-1.08520031,5.422993183
443,1.55965595062e+18,3.50859642,-2.183751106,3.893621922
444,1.55965595068e+18,1.38913393,-1.287179947,2.241465569
445,1.55965595074e+18,3.152422428,0.7431783676,1.840603828
446,1.5596559508e+18,0.22423172,3.610088348,0.1052126884
447,1.55965595086e+18,0.3599596024,3.497429848,-1.750984192
448,1.55965595092e+18,-0.8717179298,-0.3985242844,-5.734724998
449,1.55965595098e+18,-2.574088097,-5.372350693,-5.438242912
450,1.55965595104e+18,-8.953941345,-1.653053284,-8.996578217
451,1.5596559511e+18,-9.938182831,0.947463274,-3.79576683
452,1.55965595116e+18,-0.6171250343,-2.858784676,5.134903908
453,1.55965595122e+18,4.221419334,-8.209729195,6.091265678
454,1.55965595128e+18,8.107301712,-1.115502357,7.871302605
455,1.55965595134e+18,3.858234406,-1.168335915,6.189090729
456,1.5596559514e+18,1.833424568,-0.507935524,4.435687542
457,1.55965595146e+18,3.887170792,-0.4261631966,3.27906394
458,1.55965595152e+18,-0.08719062805,-1.911816597,1.074723244
459,1.55965595158e+18,-3.14623642,-3.29733181,-0.4789881706
460,1.55965595164e+18,-6.55908823,0.3145740032,-3.71169138
461,1.5596559517e+18,-5.299010754,5.912706375,-6.092816353
462,1.55965595176e+18,-3.214398146,4.422231674,-6.652407169
463,1.55965595182e+18,-2.615940809,3.531932354,1.726228714
464,1.55965595188e+18,4.973143578,-7.040416718,6.321557045
465,1.55965595194e+18,3.253755808,-8.857852936,-0.9697115421
466,1.559655952e+18,7.796713829,0.07669067383,6.555634022
467,1.55965595206e+18,2.391958475,1.037147045,2.240413189
468,1.55965595212e+18,5.487029552,-2.666645527,2.688721895
469,1.55965595218e+18,3.201693535,0.301551342,-0.3180799484
470,1.55965595224e+18,0.234518528,6.458405495,-0.95068717
471,1.5596559523e+18,-2.596701622,-0.3686907291,-2.437884331
472,1.55965595236e+18,-5.184817314,-6.554839134,-3.685517073
473,1.55965595242e+18,-6.522162437,-6.370883942,-2.376170158
474,1.55965595248e+18,-15.44254684,6.330530643,-11.80384254
475,1.55965595254e+18,-2.418960333,-5.724738598,1.176152706
476,1.5596559526e+18,6.619385719,-7.468564987,4.861138344
477,1.55965595266e+18,3.623318195,-5.111796379,1.236063242
478,1.55965595272e+18,6.233510017,0.3916473389,5.577745914
479,1.55965595278e+18,4.615944862,0.5471391678,3.108500481
480,1.55965595284e+18,5.467347145,-0.02660560608,3.540066481
481,1.5596559529e+18,5.684016705,-1.358262539,2.058298588
482,1.55965595296e+18,-1.407471657,2.029963493,0.07668113708
483,1.55965595302e+18,-4.673378944,3.998898029,-2.720136404
484,1.55965595308e+18,-3.668663025,0.8170856237,-4.614207268
485,1.55965595314e+18,-5.438978195,-0.06693649292,-8.084119797
486,1.5596559532e+18,-10.97454453,5.68364048,2.203951836
487,1.55965595326e+18,-4.787412643,1.723060608,2.440545559
488,1.55965595332e+18,9.017907143,-6.659031868,7.21760273
489,1.55965595338e+18,2.352780581,-6.302351952,1.414669633
490,1.55965595344e+18,5.43595171,-0.8302516937,4.295658112
491,1.5596559535e+18,4.898130417,0.9442162514,3.946969748
492,1.55965595356e+18,5.194498539,0.07571649551,1.822396278
493,1.55965595362e+18,2.043026924,-0.4557142258,1.328654289
494,1.55965595368e+18,-2.135607719,1.593415976,-0.3561103344
495,1.55965595374e+18,-2.075034142,-0.7051479816,0.01780176163
496,1.5596559538e+18,-4.544743538,-0.8138051033,-5.375614643
497,1.55965595386e+18,-8.125511169,2.041531563,-9.295617104
498,1.55965595392e+18,-4.444103718,-4.819429398,-5.811169147
499,1.55965595398e+18,-0.966366291,-3.635460377,5.48636198
500,1.55965595404e+18,7.223657608,-4.993265152,3.135340691
501,1.5596559541e+18,7.240305901,-2.063353539,3.800780296
502,1.55965595416e+18,7.095664024,1.562469006,5.250109673
503,1.55965595422e+18,3.020689487,0.1599168777,1.83578229
504,1.55965595428e+18,3.418407917,-1.604566097,0.139115572
505,1.55965595434e+18,1.175278187,-0.2452607155,-0.882329464
506,1.5596559544e+18,-0.06241750717,-0.5653610229,-2.96029377
507,1.55965595446e+18,-5.163263321,2.153266907,-5.640444279
508,1.55965595452e+18,-6.073683739,3.029272556,1.038063049
509,1.55965595458e+18,-7.672863483,5.264266014,-4.103610516
510,1.55965595464e+18,-6.972895145,2.951214552,-1.800953388
511,1.5596559547e+18,3.474339008,-5.90140152,10.0186758
512,1.55965595476e+18,-2.091882944,-8.468455315,-3.710149765
513,1.55965595482e+18,8.327298164,-1.632767677,5.570872307
514,1.55965595488e+18,3.926894903,-0.2102956772,3.47527051
515,1.55965595494e+18,1.647508144,-1.123752594,0.9881002903
516,1.559655955e+18,-0.7903857231,-0.7440867424,0.7681407928
517,1.55965595506e+18,-1.840261459,3.61516881,1.370452404
518,1.55965595512e+18,-0.453979969,4.427107334,-0.4093112946
519,1.55965595518e+18,-2.612208366,1.172268867,-3.357235193
520,1.55965595524e+18,-1.879747868,0.05382227898,-4.460251331
521,1.5596559553e+18,-6.787436008,0.4712481499,-6.013056278
522,1.55965595536e+18,-1.376575947,0.9223942757,-1.879120588
523,1.55965595542e+18,-1.815298796,-6.05665493,5.973515511
524,1.55965595548e+18,9.317302704,-8.728732109,6.73826313
525,1.55965595554e+18,5.976015091,-0.5361042023,7.747860909
526,1.5596559556e+18,4.893103123,0.8231859207,2.674107075
527,1.55965595566e+18,4.492466927,-0.1790895462,0.6633245945
528,1.55965595572e+18,3.376971245,0.003262519836,-0.5587105751
529,1.55965595578e+18,-0.5130772591,0.1965265274,-3.184756756
530,1.55965595584e+18,-2.30341959,0.8340933323,-3.351370335
531,1.5596559559e+18,-3.683573246,0.87073946,-3.196844578
532,1.55965595596e+18,-6.214383125,0.8174595833,-4.05845356
533,1.55965595602e+18,-7.615930557,2.444859505,-2.068707943
534,1.55965595608e+18,1.49496603,-5.569743633,2.278083324
535,1.55965595614e+18,-1.525260925,-1.013576508,5.51265955
536,1.5596559562e+18,-2.288158178,-5.827356339,3.308472633
537,1.55965595626e+18,2.095176697,-3.139325142,7.40531826
538,1.55965595632e+18,2.018801689,-0.4245033264,2.620172501
539,1.55965595638e+18,1.374811411,-1.658178329,0.5920855999
540,1.55965595644e+18,1.772337437,-2.250151634,1.25867033
541,1.5596559565e+18,1.038978577,-1.58770752,-2.080456972
542,1.55965595656e+18,-1.092852116,2.210751057,-4.90943718
543,1.55965595662e+18,-5.133924007,2.934267759,-6.34502697
544,1.55965595668e+18,-6.566221714,4.939764977,-2.813789845
545,1.55965595674e+18,-6.321813583,5.187797546,7.775085449
546,1.5596559568e+18,10.29534531,-3.153934479,17.50345993
547,1.55965595686e+18,4.041611671,-15.42670918,-3.892900944
548,1.55965595692e+18,-2.801989317,-4.167614937,0.9896315932
549,1.55965595698e+18,3.91792655,-1.165930748,5.924804688
550,1.55965595704e+18,3.130461216,-0.4205293655,3.042803049
551,1.5596559571e+18,2.353838444,-0.4315037727,1.198655367
552,1.55965595716e+18,-1.654531479,-3.043357849,-1.38031745
553,1.55965595722e+18,-5.076163292,0.7173416615,-2.343611956
554,1.55965595728e+18,-4.351952553,3.863970757,-4.809693336
555,1.55965595734e+18,-2.359767437,2.930493593,-6.258781433
556,1.5596559574e+18,-9.395635605,5.607414246,-5.788926125
557,1.55965595746e+18,0.8957638741,-7.776916981,9.938434601
558,1.55965595752e+18,0.1774086952,-13.11282349,1.42039752
559,1.55965595758e+18,4.031636715,-1.849317551,5.087985039
560,1.55965595764e+18,2.124255419,0.05356407166,4.478951454
561,1.5596559577e+18,1.812838078,0.1616392136,2.077610731
562,1.55965595776e+18,3.598158836,-0.8615589142,1.315318108
563,1.55965595782e+18,1.177195549,-1.556260109,-1.644025326
564,1.55965595788e+18,-1.526604176,-1.06898737,-2.523126602
565,1.55965595794e+18,-6.018094063,-0.1808655262,-0.9546728134
566,1.559655958e+18,-7.047894955,3.590690136,-5.657572746
567,1.55965595806e+18,-7.383896828,8.02214241,-7.003081322
568,1.55965595812e+18,-2.072464228,1.096288204,2.114652157
569,1.55965595818e+18,4.342178345,-9.531504631,5.405869484
570,1.55965595824e+18,-2.898761272,-8.046796799,0.2343760729
571,1.5596559583e+18,8.410905838,-0.1409473419,1.511611104
572,1.55965595836e+18,1.858606577,-1.800077438,3.528300285
573,1.55965595842e+18,1.904781342,-0.03123188019,2.102622271
574,1.55965595848e+18,5.248616695,-0.3978209496,1.909843683
575,1.55965595854e+18,-1.470549107,-0.8151631355,-1.464465857
576,1.5596559586e+18,-2.353974819,-0.9707052708,-2.951388359
577,1.55965595866e+18,-6.039320946,3.566799402,-6.698892117
578,1.55965595872e+18,-10.94348526,6.321893692,-14.68597698
579,1.55965595878e+18,3.229894161,-4.106792927,1.753031731
580,1.55965595884e+18,-0.3572559357,-7.084359169,1.422085047
581,1.5596559589e+18,8.843313217,-10.64523411,1.942205429
582,1.55965595896e+18,1.036627412,-0.6811714172,2.848521233
583,1.55965595902e+18,5.650026798,-1.108208656,4.111248493
584,1.55965595908e+18,4.272841454,-1.152198792,2.671843767
585,1.55965595914e+18,3.360445499,-0.4568762779,1.722150326
586,1.5596559592e+18,0.01531267166,1.41884613,-0.9188475609
587,1.55965595926e+18,-1.610946655,3.328545332,-0.9068732262
588,1.55965595932e+18,-2.641078234,0.2725932598,-3.447862864
589,1.55965595938e+18,-4.04726696,-1.731077433,-6.64819479
590,1.55965595944e+18,-7.33381176,1.51229167,-6.57580471
591,1.5596559595e+18,-5.568425179,0.09178447723,-1.540308475
592,1.55965595956e+18,1.195653915,-4.67917347,6.148564816
593,1.55965595962e+18,1.478218555,-11.15599632,2.35112977
594,1.55965595968e+18,6.327671051,-2.535557747,9.037054062
595,1.55965595974e+18,4.499903679,-0.2977848053,4.495400429
596,1.5596559598e+18,4.096776009,-1.082302094,2.164666653
597,1.55965595986e+18,3.128527641,-0.002032756805,0.3487801552
598,1.55965595992e+18,-1.799291611,1.091151714,-0.1114349365
599,1.55965595998e+18,-2.980900288,2.575819492,0.07847070694
600,1.55965596004e+18,-2.315331459,0.5468513966,-0.4568610191
601,1.5596559601e+18,-1.498390198,-0.07852244377,-5.824083805
602,1.55965596016e+18,-11.22221375,3.932109833,-8.399345398
603,1.55965596022e+18,-2.64658165,0.6555936337,-0.8145804405
604,1.55965596028e+18,2.923994541,-3.708664417,6.417899609
605,1.55965596034e+18,9.067445755,-8.164335251,6.061543941
606,1.5596559604e+18,6.482580185,0.06763267517,3.881670475
607,1.55965596046e+18,4.228365898,0.3253517151,3.074625969
608,1.55965596052e+18,3.642148018,-0.6782417297,0.9933233261
609,1.55965596058e+18,2.66254425,-0.6635847092,0.03470635414
610,1.55965596064e+18,0.9557285309,-0.4155397415,-1.743216276
611,1.5596559607e+18,-1.248260498,1.656019568,-2.779792309
612,1.55965596076e+18,-5.992743492,1.804129601,-4.447591782
613,1.55965596082e+18,-7.4651618,4.341520309,1.15301466
614,1.55965596088e+18,-11.81555748,11.49252224,-9.903104782
615,1.55965596094e+18,-1.113328934,-2.506385803,5.141971111
616,1.559655961e+18,4.000400543,-15.30634117,3.574008703
617,1.55965596106e+18,9.568822861,-4.468977928,7.510266304
618,1.55965596112e+18,1.531904936,0.1751384735,6.577618599
619,1.55965596118e+18,2.403947353,0.1504769325,4.020807266
620,1.55965596124e+18,3.075765133,-1.061072826,0.4773533344
621,1.5596559613e+18,0.3592305183,0.714659214,-0.5416631699
622,1.55965596136e+18,-2.881376266,1.179181576,-0.4308176041
623,1.55965596142e+18,-4.205302238,1.805262804,-4.55459547
624,1.55965596148e+18,-2.379570007,0.1419352293,-6.647465229
625,1.55965596154e+18,1.604071617,-2.120956421,-3.636005402
626,1.5596559616e+18,-9.231085777,7.822310448,-8.53622818
627,1.55965596166e+18,-5.326303959,2.946610928,-1.67094636
628,1.55965596172e+18,11.04823971,-13.64844036,-0.5378367901
629,1.55965596178e+18,3.968473911,-1.685503006,5.791082382
630,1.55965596184e+18,2.406198978,0.4464960098,6.593475342
631,1.5596559619e+18,1.799001217,0.3300065994,2.279379129
632,1.55965596196e+18,4.325082779,0.5540862083,1.948151588
633,1.55965596202e+18,0.5250167847,-0.06502866745,0.5731091499
634,1.55965596208e+18,-0.4385385513,1.408166885,-0.8186879158
635,1.55965596214e+18,-1.644251823,1.14406848,-3.595692396
636,1.5596559622e+18,-6.241337299,3.821341991,-6.085601807
637,1.55965596226e+18,-7.968687534,2.385793686,-6.694892406
638,1.55965596232e+18,-3.721862316,6.084535122,-7.377399921
639,1.55965596238e+18,-0.01314353943,-5.143724918,5.277435303
640,1.55965596244e+18,4.648983955,-9.790101051,1.635164618
641,1.5596559625e+18,8.808351517,-2.607039452,6.031172752
642,1.55965596256e+18,6.52428484,-0.5726556778,5.480747223
643,1.55965596262e+18,4.373702526,-0.2896327972,2.384783745
644,1.55965596268e+18,5.86231184,0.3521866798,0.00107550621
645,1.55965596274e+18,1.836807251,-0.6842579842,-1.323951721
646,1.5596559628e+18,0.09221124649,-2.860190868,-3.311695814
647,1.55965596286e+18,-4.006090641,-1.102875948,-5.113156796
648,1.55965596292e+18,-16.62116051,4.689172745,-6.533094883
649,1.55965596298e+18,-12.74829292,12.66793728,-7.574361801
650,1.55965596304e+18,2.562029839,-1.305390835,5.093744278
651,1.5596559631e+18,-0.1494038105,-12.95972729,4.059109688
652,1.55965596316e+18,6.894853592,-3.620773315,3.737886667
653,1.55965596322e+18,4.329719067,-2.038510323,2.056647778
654,1.55965596328e+18,-0.9131615162,-0.7965316772,1.693895698
655,1.55965596334e+18,4.475944042,0.9739265442,2.164485216
656,1.5596559634e+18,2.185590267,-0.3069286346,0.7509176731
657,1.55965596346e+18,-0.8135032654,3.086084366,-3.230417728
658,1.55965596352e+18,0.1758008003,5.682365417,-4.170202255
659,1.55965596358e+18,-0.00741481781,12.4287014,2.840381384
660,1.55965596364e+18,-3.810350895,4.577571392,-2.003756285
661,1.5596559637e+18,-4.007270336,-6.749011517,-3.110556602
662,1.55965596376e+18,-11.93063927,-0.4162876606,-6.829294205
663,1.55965596382e+18,4.203133583,-6.021072865,3.96817112
664,1.55965596388e+18,-1.32322526,-13.71245861,-4.010505199
665,1.55965596394e+18,5.36092329,-2.036592484,4.96694231
666,1.559655964e+18,1.332774639,-1.453798294,2.884684563
667,1.55965596406e+18,2.009606838,-1.960859299,3.376149416
668,1.55965596412e+18,2.279713154,0.3547978401,3.888861418
669,1.55965596418e+18,1.060126305,0.4302172661,2.483550072
670,1.55965596424e+18,-0.5977883339,1.570858479,-0.8389282227
671,1.5596559643e+18,-2.82154417,0.5993888378,-4.890655041
672,1.55965596436e+18,-0.4383707047,-1.043779492,-2.832069159
673,1.55965596442e+18,-11.49861813,-0.525595665,-8.842775345
674,1.55965596448e+18,-10.10090542,0.5613406897,-7.263186932
675,1.55965596454e+18,-1.840668678,-3.289581299,1.057217598
676,1.5596559646e+18,9.531646729,-15.17831421,1.876631379
677,1.55965596465e+18,8.130577087,-3.942630768,3.245440483
678,1.55965596471e+18,4.84044075,-1.488698006,5.710911751
679,1.55965596477e+18,0.4764199257,-0.0009422302246,2.624585629
680,1.55965596483e+18,2.810522556,-1.54163456,1.842904806
681,1.55965596489e+18,2.950913906,-1.028654099,-0.1225280762
682,1.55965596495e+18,2.636215687,0.5492043495,-1.093978643
683,1.55965596501e+18,-3.024451733,0.6928300858,-1.508956671
684,1.55965596507e+18,1.601426125,-1.740327358,-0.2938971519
685,1.55965596513e+18,-9.98593235,1.413453102,-6.183987617
686,1.55965596519e+18,-13.44007778,3.768009663,-8.637964249
687,1.55965596525e+18,-5.902680397,0.04890155792,-0.8040418625
688,1.55965596531e+18,11.35783768,-13.04839706,7.378561974
689,1.55965596537e+18,2.960768223,-5.902003288,4.354564667
690,1.55965596543e+18,5.152957439,-0.1952610016,7.481675625
691,1.55965596549e+18,2.041187763,1.07020998,4.238173008
692,1.55965596555e+18,2.592140198,-2.125715256,3.038057089
693,1.55965596561e+18,0.7868776321,-1.23049736,0.6405410767
694,1.55965596567e+18,-2.513716221,-1.043896198,-1.798505545
695,1.55965596573e+18,-3.578608036,0.9748983383,-2.241904974
696,1.55965596579e+18,-5.738102913,3.712482452,-5.185986042
697,1.55965596585e+18,6.183431149,7.47607851,-3.954013109
698,1.55965596591e+18,-13.35031891,7.39746666,-7.83082056
699,1.55965596597e+18,4.699834347,-14.35567188,13.17179585
700,1.55965596603e+18,0.453299284,-11.91464043,-2.37875843
701,1.55965596609e+18,5.552191734,-2.295438766,2.247247219
702,1.55965596615e+18,3.68544364,0.2318811417,1.910760522
703,1.55965596621e+18,4.566203117,-0.06186199188,2.322512627
704,1.55965596627e+18,2.79019928,1.238621235,0.9781320095
705,1.55965596633e+18,-1.16438055,1.073218822,-0.08323907852
706,1.55965596639e+18,-3.47273922,1.467052937,-0.9223663807
707,1.55965596645e+18,-4.554008961,1.595175266,-2.154245615
708,1.55965596651e+18,-9.412585258,1.988441944,-9.940658569
709,1.55965596657e+18,-10.8238945,4.157213211,-6.391217709
710,1.55965596663e+18,-4.024564266,-3.875034809,0.9984126091
711,1.55965596669e+18,11.2702713,-14.1652422,3.942293882
712,1.55965596675e+18,10.14761353,-4.710076332,6.923388958
713,1.55965596681e+18,5.09943676,-0.133181572,5.122013092
714,1.55965596687e+18,3.63811636,-0.08047485352,2.747839928
715,1.55965596693e+18,3.701346874,0.8522973061,1.268636465
716,1.55965596699e+18,3.001907349,0.5939626694,1.246762753
717,1.55965596705e+18,-0.1240134239,1.906885624,-1.798452139
718,1.55965596711e+18,-4.73668766,1.841216564,-4.073120594
719,1.55965596717e+18,-6.56574297,-0.9322738647,-5.087228298
720,1.55965596723e+18,-9.733528137,0.8899111748,-5.650048256
721,1.55965596729e+18,-5.171193123,-0.8450398445,-3.617342472
722,1.55965596735e+18,-1.142099857,-3.098623276,4.532919884
723,1.55965596741e+18,-0.8785712719,-5.717701912,-2.874515772
724,1.55965596747e+18,9.665607452,-2.103093147,6.508965492
725,1.55965596753e+18,5.97410965,0.7284240723,4.256258965
726,1.55965596759e+18,3.228305101,-0.4684114456,2.7725389
727,1.55965596765e+18,3.236390114,-0.6699209213,2.291670084
728,1.55965596771e+18,-0.3125023842,0.6432442665,1.525008678
729,1.55965596777e+18,-2.754266739,1.83528471,-0.4941616058
730,1.55965596783e+18,-3.02183485,1.18094337,-4.696208954
731,1.55965596789e+18,-3.55391407,-0.1507635117,-7.399353981
732,1.55965596795e+18,-3.30133462,1.733715892,-7.918546677
733,1.55965596801e+18,-7.597847939,4.834071159,-4.395394325
734,1.55965596807e+18,4.360332012,-10.18665123,8.970367432
735,1.55965596813e+18,-0.5525317192,-7.050123215,-1.523869753
736,1.55965596819e+18,7.481669426,-1.640295982,6.02558136
737,1.55965596825e+18,4.556534767,-0.3000707626,4.286770821
738,1.55965596831e+18,3.809208393,-2.335305214,2.577241659
739,1.55965596837e+18,1.260741711,-0.477660656,-0.7052562237
740,1.55965596843e+18,-2.090770721,-1.784831524,-3.494996548
741,1.55965596849e+18,-4.83600235,2.961484432,-4.463189125
742,1.55965596855e+18,-5.506203651,4.825706482,-2.758584499
743,1.55965596861e+18,4.901526928,5.666221142,-5.584650993
744,1.55965596867e+18,-10.80505371,8.429890633,-4.873086452
745,1.55965596873e+18,2.342071533,-4.971732616,6.892389774
746,1.55965596879e+18,3.666965961,-10.36550522,-0.2868685722
747,1.55965596885e+18,6.455280781,-1.889188766,4.938934326
748,1.55965596891e+18,4.015137672,0.5853738785,4.989994049
749,1.55965596897e+18,2.948777199,-0.3798704147,3.146282673
750,1.55965596903e+18,3.051216602,-0.1031560898,2.165304661
751,1.55965596909e+18,0.5536718369,1.751744986,-0.1164913177
752,1.55965596915e+18,-2.76262641,2.993191242,-0.7161607742
753,1.55965596921e+18,-4.703444004,-0.6143574715,-5.394960403
754,1.55965596927e+18,2.225490093,-2.00784111,-2.708004475
755,1.55965596933e+18,-10.04999256,4.743771076,-10.43097115
756,1.55965596939e+18,-4.11106205,0.9225687981,-0.4652285576
757,1.55965596945e+18,12.42752266,-4.436721802,5.722545624
758,1.55965596951e+18,7.557715893,-6.329512596,4.328398705
759,1.55965596957e+18,7.209844589,-0.9411067963,6.89000988
760,1.55965596963e+18,2.451892614,-0.2457990646,3.675776243
761,1.55965596969e+18,4.462315083,-1.720137596,2.604057074
762,1.55965596975e+18,1.456892967,-0.4903469086,0.5391492844
763,1.55965596981e+18,-1.397632599,-0.2210483551,-0.4121842384
764,1.55965596987e+18,-4.011738777,1.591650724,-3.304837465
765,1.55965596993e+18,-7.1409235,3.746710777,-6.269435406
766,1.55965596999e+18,0.7882914543,4.158967972,-2.806692839
767,1.55965597005e+18,-11.13579273,13.35561275,-6.865938663
768,1.55965597011e+18,4.228145123,-7.074672699,7.955004215
769,1.55965597017e+18,1.096092939,-12.8504591,-2.55328536
770,1.55965597023e+18,7.322306633,-3.145159721,4.997572422
771,1.55965597028e+18,2.88066864,0.3027992249,2.466957808
772,1.55965597034e+18,3.676862717,1.112847805,3.530508757
773,1.5596559704e+18,3.604795456,0.3975214958,1.680637598
774,1.55965597046e+18,-1.102937222,-0.6942648888,-1.361275196
775,1.55965597052e+18,-3.817551374,3.240746498,-1.414622307
776,1.55965597058e+18,-4.722774506,3.253723621,-7.641422749
777,1.55965597064e+18,-1.813165188,4.091184616,-6.385157108
778,1.5596559707e+18,-9.718574524,9.750885963,-3.711151361
779,1.55965597076e+18,5.508893013,-5.891593933,5.905617237
780,1.55965597082e+18,4.694488049,-8.681939125,0.9054477215
781,1.55965597088e+18,5.788973808,-0.7445240021,5.213778973
782,1.55965597094e+18,4.386079788,0.2842168808,2.899330616
783,1.559655971e+18,4.620759487,-0.7950773239,1.627889395
784,1.55965597106e+18,4.560652256,-0.4055109024,-0.4525325298
785,1.55965597112e+18,0.9953446388,-1.290820122,-2.945815086
786,1.55965597118e+18,-1.031013012,-1.009485245,-4.335634708
787,1.55965597124e+18,-5.309729576,0.2277648449,-1.878834248
788,1.5596559713e+18,-15.9401083,16.0937767,-13.68354225
789,1.55965597136e+18,-4.389863014,3.168892622,-0.9635617733
790,1.55965597142e+18,9.013595581,-13.95053101,4.06516552
791,1.55965597148e+18,6.145174026,-5.170771599,0.8858324289
792,1.55965597154e+18,7.78413105,-0.4013433456,2.709148884
793,1.5596559716e+18,2.957686186,1.685378075,0.9184041023
794,1.55965597166e+18,3.322705269,0.6160731316,1.267562866
795,1.55965597172e+18,-0.7453813553,0.7635173798,-0.5701677799
796,1.55965597178e+18,-1.405022144,1.395451784,0.03829956055
797,1.55965597184e+18,-3.887275219,3.569749832,-0.946577549
798,1.5596559719e+18,-5.197849751,5.394219875,0.6833791733
799,1.55965597196e+18,-11.98841953,4.260601997,-5.670164108
800,1.55965597202e+18,-0.8833041191,-9.141036987,5.993413925
801,1.55965597208e+18,-1.848963976,-10.4414978,5.182360172
802,1.55965597214e+18,5.412431717,-3.501481056,3.716269493
803,1.5596559722e+18,6.417201996,-0.6939315796,3.723991394
804,1.55965597226e+18,3.126445293,-0.2308721542,2.111730576
805,1.55965597232e+18,2.497200489,-0.2510619164,0.4217026234
806,1.55965597238e+18,0.6995196342,-0.159268856,-1.114164591
807,1.55965597244e+18,-4.629549026,2.683973312,-2.065604448
808,1.5596559725e+18,-6.709062576,1.327494144,-2.450732946
809,1.55965597256e+18,-1.391424179,-3.698408127,2.711099625
810,1.55965597262e+18,-9.535655975,9.207612038,-7.834602356
811,1.55965597268e+18,4.145767689,-7.468379974,5.010308266
812,1.55965597274e+18,2.483941793,-5.260848999,0.03175640106
813,1.5596559728e+18,5.662347794,-1.457297325,4.654387951
814,1.55965597286e+18,5.255468369,-0.3087120056,3.762749434
815,1.55965597292e+18,1.526485443,-0.8874254227,1.792900562
816,1.55965597298e+18,2.148718834,-1.490351677,1.689987183
817,1.55965597304e+18,3.53735733,-4.149280071,1.663182259
818,1.5596559731e+18,-3.899517775,1.850414753,-6.681296349
819,1.55965597316e+18,-5.938669682,3.053143024,-6.794730186
820,1.55965597322e+18,-3.585519314,-2.029751539,-7.754896641
821,1.55965597328e+18,-10.86897182,10.36335564,-6.779191017
822,1.55965597334e+18,4.159016609,-8.942957878,8.846952438
823,1.5596559734e+18,0.2335867882,-11.92638493,2.216056347
824,1.55965597346e+18,4.454219341,-2.330711365,4.452537537
825,1.55965597352e+18,4.252628326,-1.239052773,2.755274773
826,1.55965597358e+18,1.05540514,-0.8500986099,0.2465071678
827,1.55965597364e+18,4.275454521,-0.5468993187,1.429022312
828,1.5596559737e+18,-0.3199424744,0.4114894867,-1.571904659
829,1.55965597376e+18,-1.544998646,4.141339302,-3.884721518
830,1.55965597382e+18,-2.852174282,6.546693802,-4.069067001
831,1.55965597388e+18,-4.842683315,6.341379166,-4.40504837
832,1.55965597394e+18,-14.0141964,5.923455238,6.881528854
833,1.559655974e+18,-2.527605057,3.469379425,6.147242069
834,1.55965597406e+18,7.415802479,-7.93721962,5.668425083
835,1.55965597412e+18,-0.12362957,-6.774382591,-1.659635901
836,1.55965597418e+18,4.366312981,-1.908632278,3.600450039
837,1.55965597424e+18,1.220780373,-1.093660355,1.290931225
838,1.5596559743e+18,2.613911152,-0.3614811897,1.867993832
839,1.55965597436e+18,1.245868206,0.6256093979,0.1718130112
840,1.55965597442e+18,-1.304672718,3.034987926,-1.801796436
841,1.55965597448e+18,-3.411869049,2.526084423,-3.098086357
842,1.55965597454e+18,-4.754062653,1.878304601,-4.310299873
843,1.5596559746e+18,-9.161396027,3.83683753,-4.404012203
844,1.55965597466e+18,3.953356266,-1.751667976,-3.373559475
845,1.55965597472e+18,-1.007201195,-4.651673317,8.728570938
846,1.55965597478e+18,6.809648037,-8.381308556,0.8909213543
847,1.55965597484e+18,3.700887442,-1.595819473,1.006815195
848,1.5596559749e+18,3.545619011,0.193769455,2.257517099
849,1.55965597496e+18,3.032307148,-0.6872229576,1.748474121
850,1.55965597502e+18,2.7867589,0.2606048584,1.850514412
851,1.55965597508e+18,-1.46390295,-0.3947572708,-0.9779090881
852,1.55965597514e+18,-3.952158451,0.8533871174,-1.491495371
853,1.5596559752e+18,-6.70986414,2.912865877,-5.703995705
854,1.55965597526e+18,-8.490139961,4.998497486,-9.105960846
855,1.55965597532e+18,0.7513065338,-4.212852478,-1.428114891
856,1.55965597538e+18,-4.119196415,-1.563348293,1.054368496
857,1.55965597544e+18,3.395912409,-10.49707699,3.391185522
858,1.5596559755e+18,10.5696125,-3.445168495,3.305706024
859,1.55965597556e+18,3.066268921,-1.510964394,4.471307755
860,1.55965597562e+18,5.670876503,0.448887825,3.100370884
861,1.55965597568e+18,4.372041225,-0.4040751457,0.9004383087
862,1.55965597574e+18,-0.1968431473,-1.960294247,-1.398011208
863,1.5596559758e+18,-4.310823441,-1.46399498,-2.603981972
864,1.55965597586e+18,-3.700554609,-0.7301397324,-5.778860092
865,1.55965597592e+18,-4.367759228,1.280878305,-4.949885368
866,1.55965597598e+18,-10.03372002,10.67749596,-5.856440544
867,1.55965597604e+18,0.9965395927,-2.225331783,8.626752853
868,1.5596559761e+18,7.311974049,-4.477231026,3.199598312
869,1.55965597616e+18,6.033744812,-3.134969711,3.028652906
870,1.55965597622e+18,6.116910458,-0.1611585617,3.178637266
871,1.55965597628e+18,1.96868515,-1.537102699,1.451628923
872,1.55965597634e+18,3.023894787,-1.154047012,0.4061183929
873,1.5596559764e+18,-0.841553688,-1.047766209,-1.098638535
874,1.55965597646e+18,-5.05591774,1.903346062,-2.673578739
875,1.55965597652e+18,-4.850406647,1.987411261,-3.585674286
876,1.55965597658e+18,-8.656349182,6.223915577,-10.02722359
877,1.55965597664e+18,-4.039335251,8.616595268,-7.262404919
878,1.5596559767e+18,3.161737442,-8.954110146,8.407833099
879,1.55965597676e+18,0.08189249039,-6.404229164,-6.107994556
880,1.55965597682e+18,8.555880547,-1.0443573,6.178469181
881,1.55965597688e+18,4.530797005,1.16256237,3.143056393
882,1.55965597694e+18,2.934889317,-0.07017421722,2.141811609
883,1.559655977e+18,2.557700157,-1.204887867,0.1002447605
884,1.55965597706e+18,1.54099369,-4.858652592,-2.664712667
885,1.55965597712e+18,-3.56760788,1.086402416,-5.573046684
886,1.55965597718e+18,-3.652304888,4.144971848,-5.831616879
887,1.55965597724e+18,7.178145409,3.360239029,2.170382977
888,1.5596559773e+18,-11.63496876,12.10088634,-10.79074574
889,1.55965597736e+18,4.175919056,-8.26428318,5.760813713
890,1.55965597742e+18,4.571672916,-9.381230354,3.332907438
891,1.55965597748e+18,5.037548065,-1.71208477,3.686730385
892,1.55965597754e+18,5.364737034,-1.296732903,4.132263184
893,1.5596559776e+18,1.984694242,-0.2690639496,2.338130236
894,1.55965597766e+18,5.536145687,0.2022829056,2.53894949
895,1.55965597772e+18,0.4542183876,0.172911644,-0.6717605591
896,1.55965597778e+18,0.2624645233,2.207786322,-2.427575827
897,1.55965597784e+18,-0.6242318153,1.369137049,-2.972251415
898,1.5596559779e+18,-13.30390739,7.67655611,-8.101611137
899,1.55965597796e+18,-7.008262157,-2.947421551,0.2305002213
900,1.55965597802e+18,-1.425652504,-3.889062881,6.911047459
901,1.55965597808e+18,3.247000217,-12.55591869,4.443857193
902,1.55965597814e+18,7.061288834,-3.641776085,4.805080891
903,1.5596559782e+18,0.2599482536,-0.5211019516,2.853840351
904,1.55965597826e+18,1.638763428,-0.6650600433,0.7988014221
905,1.55965597832e+18,2.084729195,0.5324249268,0.3395643234
906,1.55965597838e+18,0.5065383911,2.434099197,1.97030592
907,1.55965597844e+18,-3.003100395,4.433466434,1.235463142
908,1.5596559785e+18,-2.437217712,4.000823975,-1.553651094
909,1.55965597856e+18,-4.554175377,0.6431362629,-7.31672287
910,1.55965597862e+18,-8.564126968,1.439903498,-3.369112492
911,1.55965597868e+18,-6.894314766,1.373902798,-1.284040689
912,1.55965597874e+18,7.467123032,-7.293719292,2.83343339
913,1.5596559788e+18,2.714842796,-5.257056236,-1.84340775
914,1.55965597886e+18,5.734877586,-1.792324066,5.823116302
915,1.55965597892e+18,3.175293684,-0.03556346893,3.330185175
916,1.55965597898e+18,4.937498093,-0.8992934227,2.601715565
917,1.55965597904e+18,1.536855221,0.4118733406,0.8077306747
918,1.5596559791e+18,-2.49578619,1.521673441,0.02791166306
919,1.55965597916e+18,-2.884237289,2.681592226,-2.649759054
920,1.55965597922e+18,-3.414493084,0.9891395569,-8.26404953
921,1.55965597928e+18,-4.700974464,-2.080278635,-5.808013439
922,1.55965597934e+18,-6.634886742,1.787000895,-3.510837555
923,1.5596559794e+18,6.437525272,-3.912239552,3.417483807
924,1.55965597946e+18,-2.695040941,-4.592760086,-4.535686493
925,1.55965597952e+18,5.49754715,-0.7180185318,4.797774315
926,1.55965597958e+18,4.292848587,-0.2974996567,4.086016655
927,1.55965597964e+18,2.39927721,-1.180364609,2.367892981
928,1.5596559797e+18,4.49780798,-2.993766785,3.101539373
929,1.55965597976e+18,-0.9598288536,-0.005890846252,2.818983793
930,1.55965597982e+18,-4.222998142,2.97038269,-1.160380363
931,1.55965597988e+18,-5.530448914,0.26168859,-5.195946693
932,1.55965597994e+18,-1.741438389,-3.540522575,-1.355733871
933,1.55965598e+18,-8.021490097,1.93838191,-7.825411797
934,1.55965598006e+18,-3.034352779,1.991252899,0.5678281784
935,1.55965598012e+18,5.284935474,-6.038551331,2.882139921
936,1.55965598018e+18,5.971672535,-5.252737045,-0.4897358418
937,1.55965598024e+18,6.736320496,-0.8938837051,3.579043388
938,1.5596559803e+18,0.8962135315,0.4893631935,1.795908928
939,1.55965598036e+18,4.801572323,-0.9366021156,1.830363274
940,1.55965598042e+18,1.824465275,1.665405273,1.314306498
941,1.55965598048e+18,1.560481548,3.314892769,-1.313629866
942,1.55965598054e+18,1.241529465,-0.3383080959,-6.274812222
943,1.5596559806e+18,-12.84469414,2.686954737,-8.00756073
944,1.55965598066e+18,-20.4557457,0.6478390694,-1.869365692
945,1.55965598072e+18,-5.129629612,-4.665356636,2.15329361
946,1.55965598078e+18,2.15003109,-21.40166092,7.52720356
947,1.55965598084e+18,8.737161636,-5.028589249,2.344100952
948,1.5596559809e+18,1.174701691,-2.442276955,4.792414665
949,1.55965598096e+18,5.960903645,-1.315856934,3.135690451
950,1.55965598102e+18,3.289510727,-1.20072794,-1.940323114
951,1.55965598108e+18,1.029644012,2.026069164,-2.266436577
952,1.55965598114e+18,-2.098808765,5.435198784,-2.878990173
953,1.5596559812e+18,-3.961244106,4.839468956,-1.790742874
954,1.55965598126e+18,-6.401517391,2.961261511,-3.813460112
955,1.55965598132e+18,-7.964714527,4.707079887,1.578346968
956,1.55965598138e+18,-2.505008459,-3.281423569,6.028686047
957,1.55965598144e+18,6.892366409,-5.087687492,0.6332235336
958,1.5596559815e+18,2.193927288,-9.286327362,-2.82368803
959,1.55965598156e+18,7.03615427,-1.609648705,4.452658653
960,1.55965598162e+18,4.495955467,-1.022670746,2.059178114
961,1.55965598168e+18,3.220840931,-0.6530303955,1.497779846
962,1.55965598174e+18,-0.01214504242,0.8019599915,0.1936984062
963,1.5596559818e+18,-3.35894084,1.744578362,0.1705408096
964,1.55965598186e+18,-3.317600727,2.402926683,-0.3984389305
965,1.55965598192e+18,-5.366592407,2.737176418,-4.028200626
966,1.55965598198e+18,-6.753901005,1.192540646,-2.3802917
967,1.55965598204e+18,-5.36474514,4.716192245,-4.81302166
968,1.5596559821e+18,9.082698822,-12.93514252,11.5240593
969,1.55965598216e+18,-8.976975441,-13.37711334,-3.329082012
970,1.55965598222e+18,4.660188675,-5.684414864,3.163327456
971,1.55965598228e+18,2.930182219,-2.319935799,1.478767872
972,1.55965598234e+18,2.087696075,-0.6647510529,0.6369018555
973,1.5596559824e+18,2.661662102,0.9685845375,1.202895164
974,1.55965598246e+18,0.8029699326,1.671243668,-0.1078295708
975,1.55965598252e+18,-3.895036221,3.403244972,-7.501103878
976,1.55965598258e+18,-5.639415264,4.902957916,-2.486145735
977,1.55965598264e+18,-8.272633553,10.02351952,-10.58588696
978,1.5596559827e+18,0.7688059807,-3.353836536,4.000898361
979,1.55965598276e+18,3.27997613,-8.393252373,0.9581637383
980,1.55965598282e+18,10.50590706,-4.763280869,0.003192901611
981,1.55965598288e+18,4.269309521,-1.574485779,3.279876947
982,1.55965598294e+18,0.4569785595,-1.412243843,1.124557257
983,1.559655983e+18,2.157678604,-1.54733181,-0.6339828968
984,1.55965598306e+18,0.301463604,0.06925630569,-0.415304184
985,1.55965598312e+18,0.02809000015,1.982775211,-0.6623501778
986,1.55965598318e+18,-0.4249386787,0.6554207802,-0.976392746
987,1.55965598324e+18,-2.903877735,0.6301827431,-4.447443962
988,1.5596559833e+18,-10.872159,4.179798603,-7.216135502
989,1.55965598336e+18,-8.606369019,4.358595848,-8.670427322
990,1.55965598342e+18,1.567297935,-4.691959381,5.35124588
991,1.55965598348e+18,9.314080238,-5.584873199,-2.174731731
992,1.55965598354e+18,8.065393448,-2.169980049,4.519342899
993,1.5596559836e+18,5.451534271,-1.261683464,3.313338757
994,1.55965598366e+18,1.459574223,-1.903388023,0.9881350994
995,1.55965598372e+18,3.697370529,-0.6688871384,2.927947998
996,1.55965598378e+18,-1.58611536,0.5332665443,-0.7340970039
997,1.55965598384e+18,-1.247615814,0.3298687935,-3.092948675
998,1.5596559839e+18,-2.856579781,2.589091301,-4.994504929
999,1.55965598396e+18,-0.8041863441,5.641877174,0.2836737633
1000,1.55965598402e+18,-9.321855545,6.979401588,-7.094822884
1001,1.55965598408e+18,-6.102196217,1.921374083,-1.898051977
1002,1.55965598414e+18,4.282027721,-5.348392487,1.994665623
1003,1.5596559842e+18,6.876371384,-12.6542244,3.772254944
1004,1.55965598426e+18,6.583654881,-2.20542717,3.849677563
1005,1.55965598432e+18,5.261320591,-0.2524747849,3.771429777
1006,1.55965598438e+18,4.688166618,-0.09003734589,4.134252071
1007,1.55965598444e+18,3.505845547,0.2018404007,1.854875565
1008,1.5596559845e+18,1.74785471,0.7818236351,-2.136075258
1009,1.55965598456e+18,-1.850569248,1.146535873,-4.161821365
1010,1.55965598462e+18,-4.317055225,3.023997784,-4.282494068
1011,1.55965598468e+18,-4.800974846,0.2888250351,-3.587317705
1012,1.55965598474e+18,-6.135191917,-2.451726198,1.60394907
1013,1.5596559848e+18,-12.51411057,0.6785674095,-5.450080872
1014,1.55965598486e+18,3.198756218,-8.096072197,7.02631855
1015,1.55965598492e+18,2.762027025,-10.52189255,1.514686108
1016,1.55965598498e+18,3.804424763,-2.686414719,4.716296196
1017,1.55965598504e+18,3.601944923,-2.090795517,3.775105953
1018,1.5596559851e+18,5.0526371,-0.086124897,2.878695726
1019,1.55965598516e+18,2.938519955,-0.4673271179,2.30676651
1020,1.55965598522e+18,1.584272861,5.699701309,2.052459955
1021,1.55965598528e+18,-1.695803642,4.664540291,-0.8779008389
1022,1.55965598534e+18,-3.662912369,0.6527553797,-3.519970417
1023,1.5596559854e+18,-3.714150429,0.4468848407,-2.427537918
1024,1.55965598546e+18,-11.74398613,2.086711884,-6.967232704
1025,1.55965598552e+18,-7.764741421,0.3911414146,-3.009484053
1026,1.55965598558e+18,5.828025818,-9.034358025,5.104619026
1027,1.55965598564e+18,5.310263634,-10.04260349,2.301060677
1028,1.5596559857e+18,9.038677216,-2.62351799,7.975118637
1029,1.55965598576e+18,4.404135704,0.01770782471,3.391795158
1030,1.55965598582e+18,2.833174706,-1.774277687,2.298789501
1031,1.55965598588e+18,0.7288284302,0.4437484741,2.316567659
1032,1.55965598594e+18,-3.594943285,-0.4441766739,1.036012173
1033,1.559655986e+18,-4.617157936,-0.5359976292,-2.503551722
1034,1.55965598606e+18,-4.857100487,0.07923483849,-5.171319962
1035,1.55965598612e+18,2.477456093,0.03876233101,-3.526803493
1036,1.55965598618e+18,-8.706014633,5.848021507,-8.122450829
1037,1.55965598624e+18,-0.4975986481,-2.166689396,3.322531223
1038,1.5596559863e+18,7.53310442,-10.82485485,1.935817957
1039,1.55965598636e+18,2.876849413,-0.3844308853,7.060444832
1040,1.55965598642e+18,7.966418266,0.6563587189,8.246873856
1041,1.55965598648e+18,4.287261486,0.643740654,4.229123116
1042,1.55965598654e+18,5.426384926,0.2740650177,1.179047346
1043,1.5596559866e+18,1.593252659,0.1288676262,1.056002617
1044,1.55965598666e+18,-1.810913086,4.262931347,-1.13459301
1045,1.55965598672e+18,-2.550544739,4.592161179,-1.684494495
1046,1.55965598678e+18,-4.980409622,1.599277258,-6.692930222
1047,1.55965598684e+18,-1.40570879,-0.5685799122,-5.219091415
1048,1.5596559869e+18,-8.441868782,3.576039314,-6.724434853
1049,1.55965598696e+18,-0.02904176712,-4.471767902,5.098754406
1050,1.55965598702e+18,3.304970026,-8.255620003,3.694905758
1051,1.55965598708e+18,7.626711845,-1.646152496,7.57544136
1052,1.55965598714e+18,3.487538576,0.6609640121,6.47567749
1053,1.5596559872e+18,3.751856804,-0.1201610565,5.347450256
1054,1.55965598726e+18,4.366278172,-1.289717674,2.47605443
1055,1.55965598732e+18,0.4312825203,-0.6122760773,-1.281502247
1056,1.55965598738e+18,-3.672283888,-8.384186745,-2.394934416
1057,1.55965598744e+18,-3.831290722,-2.543908119,-6.547181129
1058,1.5596559875e+18,4.593371391,7.73945713,0.6455893517
1059,1.55965598756e+18,-16.40855408,13.44215393,-11.55085659
1060,1.55965598762e+18,-9.531097412,5.944252968,-0.9105539322
1061,1.55965598768e+18,15.91238594,-21.9541893,8.754776001
1062,1.55965598774e+18,5.152348995,-6.363816261,2.195420742
1063,1.5596559878e+18,6.692674637,-0.4734449387,4.469449997
1064,1.55965598786e+18,2.043629646,0.1387939453,1.413676977
1065,1.55965598792e+18,1.979867935,-2.124983788,1.728112698
1066,1.55965598798e+18,1.465649605,-2.510975838,0.6597671509
1067,1.55965598804e+18,-3.495833397,-0.9580664635,-0.5381023884
1068,1.5596559881e+18,-6.214834213,3.595970631,-1.873894215
1069,1.55965598816e+18,-5.327812195,3.703333855,-6.283334732
1070,1.55965598822e+18,-0.2277679443,2.049388409,-5.845967293
1071,1.55965598828e+18,-11.5685482,5.779240608,-5.758592129
1072,1.55965598834e+18,5.07020998,-7.93054533,8.750107765
1073,1.5596559884e+18,0.7396233082,-12.0261488,-0.2176978588
1074,1.55965598846e+18,8.397436142,-2.141657829,4.704914093
1075,1.55965598852e+18,0.6134524345,-0.8111305237,1.640921235
1076,1.55965598858e+18,4.698042393,-1.168459415,1.703990221
1077,1.55965598864e+18,3.374437809,2.137172222,1.012206078
1078,1.5596559887e+18,-0.3593621254,4.591086864,-0.9204685688
1079,1.55965598876e+18,-4.222888947,1.248203039,-2.386876345
1080,1.55965598882e+18,-6.832066536,-0.6064647436,-2.269681692
1081,1.55965598888e+18,-12.05675411,3.854025602,-8.802303314
1082,1.55965598894e+18,-9.53601265,2.024916887,-0.1104011536
1083,1.559655989e+18,2.632331848,-10.05948448,7.435682774
1084,1.55965598906e+18,10.17511749,-7.737472534,5.198951244
1085,1.55965598912e+18,1.689786434,-2.989701271,0.3583613634
1086,1.55965598918e+18,3.28567028,0.6948070526,4.548110485
1087,1.55965598924e+18,4.595151901,0.01288986206,2.525913954
1088,1.5596559893e+18,3.061147213,-0.3233628273,0.2483747005
1089,1.55965598936e+18,1.079760551,-0.234597683,2.053184032
1090,1.55965598942e+18,-5.446121216,-0.8917896748,-1.50606966
1091,1.55965598948e+18,-9.154058456,2.054574728,-6.338095188
1092,1.55965598954e+18,-4.806925774,1.488751769,-7.158036232
1093,1.5596559896e+18,-0.4581408501,1.428274512,-0.5291762352
1094,1.55965598966e+18,-7.393307686,7.400956631,-3.819182158
1095,1.55965598972e+18,5.453532696,-9.811062813,7.576328278
1096,1.55965598978e+18,7.119049072,-4.630396843,3.784185648
1097,1.55965598984e+18,4.936701298,-2.395593643,4.750313759
1098,1.5596559899e+18,0.8831448555,-0.6897058487,1.97432971
1099,1.55965598996e+18,3.499791145,-0.5385661125,2.969666958
1100,1.55965599002e+18,2.485815525,0.3441505432,1.573442936
1101,1.55965599008e+18,-0.8959264755,0.2045941353,-0.9873692989
1102,1.55965599014e+18,-2.09469223,2.775716305,-4.041474342
1103,1.5596559902e+18,-4.717122078,2.411379337,-5.146773815
1104,1.55965599026e+18,-17.5683918,7.104282856,0.1162214279
1105,1.55965599032e+18,-3.488965511,11.97086334,-6.589015007
1106,1.55965599038e+18,6.970615387,-17.05721283,9.844173431
1107,1.55965599044e+18,4.849113464,-7.660754204,3.042877197
1108,1.5596559905e+18,2.120424747,-2.809259415,5.923342705
1109,1.55965599056e+18,2.35722208,0.1209192276,3.980450869
1110,1.55965599062e+18,2.82263422,-0.4090456963,0.9790344238
1111,1.55965599068e+18,1.538259983,-0.4509558678,-0.6244673729
1112,1.55965599074e+18,-1.277387142,3.399848938,-0.7234156132
1113,1.5596559908e+18,-5.239104271,4.539326668,-4.841694355
1114,1.55965599086e+18,-5.859212875,-1.614032507,-6.281618118
1115,1.55965599092e+18,-14.00333214,-0.6063873768,-0.8568291664
1116,1.55965599098e+18,-9.575156212,-3.555698872,0.5091400146
1117,1.55965599104e+18,3.197312832,-9.074874878,7.244501114
1118,1.5596559911e+18,8.493964195,-10.76638794,6.281515121
1119,1.55965599116e+18,7.849057674,-0.7875785828,5.537501335
1120,1.55965599122e+18,4.364187717,1.289671421,3.325294018
1121,1.55965599128e+18,5.323559284,-0.9157652855,2.49639082
1122,1.55965599134e+18,2.042444229,-0.2771806717,0.1672444344
1123,1.5596559914e+18,2.715834618,-1.406999588,-3.292308807
1124,1.55965599146e+18,-4.45850563,0.8332726955,-6.63088274
1125,1.55965599152e+18,-5.492646694,1.213983774,-6.428731441
1126,1.55965599158e+18,-3.936398745,0.279487133,-7.162729263
1127,1.55965599164e+18,-11.38271332,1.725216627,-3.897434711
1128,1.5596559917e+18,2.303852558,0.05580329895,5.23681736
1129,1.55965599176e+18,2.673427582,-12.2045269,1.876735687
1130,1.55965599182e+18,7.732154369,-2.216276169,6.330040932
1131,1.55965599188e+18,2.519899368,0.2423257828,4.285366058
1132,1.55965599194e+18,3.191234589,-1.607711792,3.688468218
1133,1.559655992e+18,1.739542961,-1.735471725,1.130505323
1134,1.55965599206e+18,-0.6584534645,-0.0005493164062,-2.412637949
1135,1.55965599212e+18,-3.988065243,1.585301876,-3.683499575
1136,1.55965599218e+18,-3.761571407,3.765064716,-2.34597826
1137,1.55965599224e+18,-9.59723568,1.475003719,-4.039113998
1138,1.5596559923e+18,-11.6204834,8.976862907,-4.676462173
1139,1.55965599236e+18,-1.666719913,1.39061594,1.289971352
1140,1.55965599242e+18,11.43076706,-13.04300117,9.187952042
1141,1.55965599248e+18,8.602989197,-4.461392403,4.988797665
1142,1.55965599254e+18,2.915906906,-0.5481033325,3.209250689
1143,1.5596559926e+18,0.3763403893,0.02764225006,1.545233011
1144,1.55965599266e+18,3.534767151,-0.9410977364,1.910778046
1145,1.55965599272e+18,-0.2466335297,1.306295395,1.111739159
1146,1.55965599278e+18,-2.643789768,5.153877735,0.2686533928
1147,1.55965599284e+18,-4.20768261,2.333148241,-3.843122005
1148,1.5596559929e+18,1.283835411,0.9961562157,0.3453297615
1149,1.55965599296e+18,-11.49356461,2.412620306,-5.568425655
1150,1.55965599302e+18,-2.811372757,-0.2005639076,-0.7619907856
1151,1.55965599308e+18,5.588774681,-1.941926956,4.877910614
1152,1.55965599314e+18,8.218286514,-9.540084839,3.967154503
1153,1.5596559932e+18,5.542407036,-0.4504470825,3.828420401
1154,1.55965599326e+18,3.201625347,-0.80397892,2.956997156
1155,1.55965599332e+18,2.003301144,-1.566234112,0.9772837162
1156,1.55965599338e+18,2.684244156,-1.862966537,-0.5516479015
1157,1.55965599344e+18,-2.563360214,0.9496195316,-2.102106333
1158,1.5596559935e+18,-3.786817551,7.390327454,-2.430585861
1159,1.55965599356e+18,-8.33088398,5.50084734,-3.618265629
1160,1.55965599362e+18,-15.79850197,7.71276474,-9.356840134
1161,1.55965599368e+18,-5.640651703,-0.3026332855,0.3101258278
1162,1.55965599374e+18,2.906457901,-12.93196106,7.840259552
1163,1.5596559938e+18,10.44045448,-10.47754192,3.739315033
1164,1.55965599386e+18,3.942577124,-2.162701607,1.14131093
1165,1.55965599392e+18,2.373959541,-0.2244281769,0.8486762047
1166,1.55965599398e+18,2.952279568,0.8615942001,0.4763605595
1167,1.55965599404e+18,-0.2396497726,-1.067006588,0.5587735176
1168,1.5596559941e+18,-0.7853469849,0.6723759174,-1.485864639
1169,1.55965599416e+18,-4.724442482,2.560809851,-5.40726757
1170,1.55965599422e+18,1.030558586,3.418118,10.23010826
1171,1.55965599428e+18,-15.19929504,12.20563221,-9.794197083
1172,1.55965599434e+18,-0.641851902,-3.236877441,3.186029911
1173,1.5596559944e+18,6.778276443,-9.450201988,2.731381416
1174,1.55965599446e+18,11.07215977,-6.405677795,4.039973736
1175,1.55965599452e+18,5.861302376,-1.400718689,4.464794636
1176,1.55965599458e+18,3.351014137,-1.502948761,2.042813063
1177,1.55965599464e+18,3.297099113,-1.356904984,0.2623934746
1178,1.5596559947e+18,-0.3792471886,1.182879925,0.1934051514
1179,1.55965599476e+18,-0.5878782272,3.399145603,-2.638381958
1180,1.55965599482e+18,-3.139708281,1.64413023,-5.098179817
1181,1.55965599488e+18,-7.998095989,-2.600234985,-5.071519852
1182,1.55965599494e+18,-5.888096809,1.327536821,-2.551217556
1183,1.559655995e+18,-3.431018353,-2.83880043,-1.337506771
1184,1.55965599506e+18,2.026101589,-2.946336746,6.753006458
1185,1.55965599512e+18,1.456949472,-9.866249084,-0.07758641243
1186,1.55965599518e+18,7.857513428,-2.239701271,6.941123009
1187,1.55965599524e+18,5.697882652,-0.236741066,3.057892084
1188,1.5596559953e+18,3.778158188,-1.584740639,1.837521076
1189,1.55965599536e+18,2.887344837,-0.7505254745,1.563141584
1190,1.55965599542e+18,-1.767585278,-2.653008461,-1.989220858
1191,1.55965599548e+18,-5.623897552,-3.474241257,-8.127604485
1192,1.55965599554e+18,-14.10328293,3.605447054,-8.046254158
1193,1.5596559956e+18,10.55943871,-2.817481995,-9.865728378
1194,1.55965599566e+18,-4.994288445,3.77294302,4.135662079
1195,1.55965599572e+18,9.330704689,-22.91546631,5.302221298
1196,1.55965599578e+18,8.116313934,-4.413702965,1.650536537
1197,1.55965599584e+18,3.487953424,0.1772108078,2.082258701
1198,1.5596559959e+18,2.62690258,0.2178726196,1.996219635
1199,1.55965599596e+18,1.746768475,0.3648490906,-0.5116438866
1200,1.55965599602e+18,0.5363135338,3.733085394,-1.386583328
1201,1.55965599608e+18,0.5433039665,5.716551781,-1.568947792
1202,1.55965599614e+18,-4.043221951,0.7398443222,-4.817458153
1203,1.5596559962e+18,-11.07704449,5.724163055,-2.295383453
1204,1.55965599626e+18,-10.67208862,3.063064098,-6.066324711
1205,1.55965599632e+18,5.146335602,-17.31510735,11.82041836
1206,1.55965599638e+18,-1.850811481,-9.896291733,-4.144949913
1207,1.55965599644e+18,3.156415462,-4.221959114,7.194362164
1208,1.5596559965e+18,4.611434937,0.2138643265,2.982933998
1209,1.55965599656e+18,2.017505169,1.307899475,2.253575325
1210,1.55965599662e+18,2.556248665,-0.4607753754,1.722312927
1211,1.55965599668e+18,-2.422801495,-1.322846413,-2.647914886
1212,1.55965599674e+18,-10.21525574,3.164546013,-4.930143356
1213,1.5596559968e+18,-11.73654175,17.60304451,-10.20609283
1214,1.55965599686e+18,0.2386293411,-13.40969467,7.056040764
1215,1.55965599692e+18,1.863805294,-10.71942997,-1.003242731
1216,1.55965599698e+18,7.255295277,2.934104919,5.760369301
1217,1.55965599704e+18,7.511687279,-0.06897640228,5.486240387
1218,1.5596559971e+18,2.979343653,-1.958766937,2.498370171
1219,1.55965599716e+18,3.265445232,-1.586562157,0.6154680252
1220,1.55965599722e+18,0.2878665924,1.460219383,-0.6528856754
1221,1.55965599728e+18,-4.347313881,2.473689079,-4.915617943
1222,1.55965599734e+18,8.222162247,0.7374033928,-1.030859947
1223,1.5596559974e+18,-14.61151505,13.64774704,-13.25266075
1224,1.55965599746e+18,3.413747787,-6.508110046,3.559102297
1225,1.55965599752e+18,4.545153618,-12.21425152,1.507844329
1226,1.55965599758e+18,4.297827244,-3.532459259,7.465016842
1227,1.55965599764e+18,3.13454628,-0.5592775345,4.385864735
1228,1.5596559977e+18,3.93825531,-0.6945981979,2.950081825
1229,1.55965599776e+18,3.200706482,-0.4535427094,2.225387812
1230,1.55965599782e+18,0.1352620125,-0.4262080193,1.51450634
1231,1.55965599788e+18,-2.879110575,1.356851101,-2.171446562
1232,1.55965599794e+18,-12.96582317,7.429169655,-17.082201
1233,1.559655998e+18,-4.058490753,1.446721077,-1.146340132
1234,1.55965599806e+18,1.646434784,-2.867110252,2.397410393
1235,1.55965599812e+18,4.511548042,-10.65734196,4.606831074
1236,1.55965599818e+18,2.299819469,0.0516872406,2.277895927
1237,1.55965599824e+18,6.20556879,-2.217605591,3.654463291
1238,1.5596559983e+18,2.042370558,-2.857588768,1.601209641
1239,1.55965599836e+18,3.474123955,-2.610570908,1.639562368
1240,1.55965599842e+18,1.363848209,-0.8092784882,-0.7989070415
1241,1.55965599848e+18,-1.043438911,1.243980169,-4.092769623
1242,1.55965599854e+18,-4.731962681,2.874348402,-8.780849457
1243,1.5596559986e+18,-18.21488571,8.968968391,-7.59997797
1244,1.55965599866e+18,-7.607391834,19.06422043,-1.473060369
1245,1.55965599872e+18,4.598704815,-27.09806442,7.607723236
1246,1.55965599878e+18,6.485137939,-6.963459969,2.355707407
1247,1.55965599884e+18,2.755095243,-4.312438011,2.001741886
1248,1.5596559989e+18,0.7756447792,0.04133415222,-0.5997960567
1249,1.55965599896e+18,3.727721691,1.332321644,1.870214462
1250,1.55965599902e+18,3.642162323,1.050373077,2.35289526
1251,1.55965599908e+18,3.274498463,-0.9468002319,-1.417270422
1252,1.55965599914e+18,-4.500401497,0.71844697,-3.844488382
1253,1.5596559992e+18,-12.3001194,1.087209582,-11.34420586
1254,1.55965599926e+18,-10.75108719,5.578712463,-9.235019684
1255,1.55965599932e+18,-9.463975906,4.75681448,-9.893998146
1256,1.55965599938e+18,10.16574001,-24.07720566,9.615854263
1257,1.55965599944e+18,8.023487091,-7.040405273,4.365485191
1258,1.5596559995e+18,5.714694023,-0.5169620514,3.979270935
1259,1.55965599956e+18,2.28257513,0.06467914581,1.073842525
1260,1.55965599962e+18,4.679991245,2.125440121,1.219530344
1261,1.55965599968e+18,2.197590828,2.706969261,1.264024258
1262,1.55965599974e+18,1.013274193,4.579651356,-0.3431506157
1263,1.5596559998e+18,-1.221018791,-0.7883586884,-2.825373173
1264,1.55965599986e+18,-11.32330036,4.384900093,-10.93784142
1265,1.55965599992e+18,-9.835662842,1.894740582,-6.191845894
1266,1.55965599998e+18,5.197339535,-3.705790043,3.48019886
1267,1.55965600004e+18,3.901194572,-9.757523537,-0.7555075884
1268,1.5596560001e+18,6.405042171,-0.3192996979,3.694744349
1269,1.55965600016e+18,1.284714699,0.3090291023,3.221415043
1270,1.55965600022e+18,3.832362175,-0.07819414139,2.532403231
1271,1.55965600028e+18,2.261278629,1.378660679,0.4870033264
1272,1.55965600034e+18,-0.1958441734,3.309586763,-1.054797173
1273,1.5596560004e+18,-3.647645473,2.909386635,-2.606004715
1274,1.55965600046e+18,-4.926390648,-0.165143013,-4.845386505
1275,1.55965600052e+18,-10.4484911,-2.352004766,-13.11015892
1276,1.55965600058e+18,0.3391056061,-3.062571526,1.055706978
1277,1.55965600064e+18,-7.047157288,3.794168234,-1.378142357
1278,1.5596560007e+18,9.064519882,-16.35030746,4.657400131
1279,1.55965600076e+18,7.476819992,-2.920516968,3.075888872
1280,1.55965600082e+18,4.566043854,0.6171693802,2.397386074
1281,1.55965600088e+18,5.793977737,-3.033823967,2.129623652
1282,1.55965600094e+18,0.4363408089,1.024194241,-1.502545834
1283,1.559656001e+18,-4.07354784,3.828611612,-2.940932751
1284,1.55965600106e+18,-5.289274693,3.11296463,-4.981267452
1285,1.55965600112e+18,-9.023537636,-3.446758509,-2.637501001
1286,1.55965600118e+18,-1.823224545,-3.322703362,-0.8908338547
1287,1.55965600124e+18,-2.631534815,1.763677597,0.3256616592
1288,1.5596560013e+18,3.099820137,-12.98727417,4.012442589
1289,1.55965600136e+18,5.475115776,-3.350078583,2.544032574
1290,1.55965600142e+18,3.939334869,-1.809532166,3.874577999
1291,1.55965600148e+18,3.971403599,-1.135969162,3.144641638
1292,1.55965600154e+18,0.232465744,-0.5828499794,0.1135890484
1293,1.5596560016e+18,-2.3744874,3.056381941,-1.480560541
1294,1.55965600166e+18,-3.588135719,2.616146564,-4.28746891
1295,1.55965600172e+18,-12.0732851,3.369308949,-10.73889542
1296,1.55965600178e+18,0.2533903122,-12.27681732,-5.716320038
1297,1.55965600184e+18,3.434418678,-7.482278824,3.360381842
1298,1.5596560019e+18,-1.707706809,-8.066483498,-1.486282587
1299,1.55965600196e+18,6.232561588,0.468003273,5.315007687
1300,1.55965600202e+18,4.286281586,-2.167563438,2.853017569
1301,1.55965600208e+18,4.09471035,-2.901447296,2.593174696
1302,1.55965600214e+18,3.241760731,-0.3657841682,1.800388336
1303,1.5596560022e+18,-2.174482346,0.3958024979,-0.1112647057
1304,1.55965600226e+18,-4.286637306,3.462805271,-0.3146362305
1305,1.55965600232e+18,-10.79123211,2.594820738,-10.70485306
1306,1.55965600238e+18,4.597229958,2.460891962,-14.7435627
1307,1.55965600244e+18,-1.926938772,3.005829096,-1.842508554
1308,1.5596560025e+18,3.372157812,-10.21408558,5.440368652
1309,1.55965600256e+18,4.856426239,-3.36258316,1.876973629
1310,1.55965600262e+18,1.214582205,-0.5265731812,3.564297438
1311,1.55965600268e+18,5.104768276,-2.0776968,2.73257494
1312,1.55965600274e+18,5.631890774,-0.3767557144,-0.1851465702
1313,1.5596560028e+18,0.5306606293,-1.398249626,-1.569330692
1314,1.55965600286e+18,-6.743209839,-1.545433521,-5.43065834
1315,1.55965600292e+18,-11.47502327,2.591959476,-8.104935646
1316,1.55965600298e+18,-13.72030067,6.145736217,5.401211739
1317,1.55965600304e+18,-1.35816288,3.542130947,3.781336069
1318,1.5596560031e+18,1.32519722,-0.554807663,-1.381640434
1319,1.55965600316e+18,5.425256729,-5.354793549,-1.20814991
1320,1.55965600322e+18,7.625475883,-0.4014129639,6.455638885
1321,1.55965600328e+18,5.244588852,-0.1633558273,4.243721485
1322,1.55965600334e+18,5.915689945,-1.028869152,2.68634057
1323,1.5596560034e+18,0.9496469498,-0.29367733,-1.084817171
1324,1.55965600346e+18,-0.8807501793,-0.4495401382,-6.867111683
1325,1.55965600352e+18,-7.692721367,2.097959757,-7.539403439
1326,1.55965600358e+18,-12.77215385,1.16627717,-13.894907
1327,1.55965600364e+18,1.401489735,-3.008143902,2.86579752
1328,1.5596560037e+18,-5.000445843,-0.06906986237,-0.9065744877
1329,1.55965600376e+18,6.603246212,-8.433887482,7.643682957
1330,1.55965600382e+18,6.470358849,-2.680125237,9.80532074
1331,1.55965600388e+18,3.85199213,-0.04167842865,5.715584755
1332,1.55965600394e+18,3.322278976,-0.393037796,2.646320343
1333,1.559656004e+18,1.759827614,0.4989733696,0.5999367237
1334,1.55965600406e+18,2.499754906,0.5758209229,-3.431746483
1335,1.55965600412e+18,-6.249242783,0.6616835594,-10.09698296
1336,1.55965600418e+18,-3.377872944,-4.247411251,4.128456593
1337,1.55965600424e+18,-13.28803825,7.374231339,-8.343709946
1338,1.5596560043e+18,8.251887321,-12.65871811,10.11730003
1339,1.55965600436e+18,2.59479332,-10.89845276,4.227790833
1340,1.55965600442e+18,7.352164745,-7.198119164,6.36752224
1341,1.55965600448e+18,3.054824591,-2.305510521,3.765822172
1342,1.55965600454e+18,1.691291094,2.704833031,2.546043396
1343,1.5596560046e+18,-1.955831766,3.470975876,2.67902565
1344,1.55965600466e+18,1.490361691,5.521408081,1.593298435
1345,1.55965600472e+18,0.5293827057,6.973653316,2.911043644
1346,1.55965600478e+18,-7.521672249,9.975531578,-3.813127279
1347,1.55965600484e+18,-3.7507267,6.788269997,-2.030091286
1348,1.5596560049e+18,7.375619888,-4.859692574,4.996578693
1349,1.55965600496e+18,5.214983463,-16.86196136,2.845953703
1350,1.55965600502e+18,6.898179531,-5.443725586,4.083144665
1351,1.55965600508e+18,3.718984365,-3.579008102,0.2213673592
1352,1.55965600514e+18,0.2650375366,-0.1264619827,0.4983801842
1353,1.5596560052e+18,-0.9470405579,2.9107337,-1.048271418
1354,1.55965600526e+18,-4.464337826,1.890446663,-3.359645844
1355,1.55965600532e+18,-10.60803509,4.519396305,-10.51360416
1356,1.55965600538e+18,2.207652569,3.83163166,-5.915646076
1357,1.55965600544e+18,-0.6143205166,-2.463027954,2.867630959
1358,1.5596560055e+18,-7.027594566,-17.48280907,6.525424004
1359,1.55965600556e+18,16.20681953,-0.6223707199,5.886863708
1360,1.55965600562e+18,3.47130394,-2.393117905,1.509058237
1361,1.55965600568e+18,7.181467056,0.9119701385,1.652472019
1362,1.55965600574e+18,2.549751759,6.306852341,-0.8431305885
1363,1.5596560058e+18,-2.490273952,5.396651268,-0.1150720119
1364,1.55965600586e+18,-4.257555962,3.230567217,-14.69923496
1365,1.55965600592e+18,-5.750370979,7.985525131,-4.792161942
1366,1.55965600598e+18,-3.300665855,2.916530609,0.1431703568
1367,1.55965600604e+18,9.817216873,-13.61916256,3.032574654
1368,1.5596560061e+18,4.678064346,-5.302544594,1.404525518
1369,1.55965600616e+18,2.390949249,-3.920604706,0.8108965158
1370,1.55965600622e+18,1.034262657,0.7744369507,2.352271557
1371,1.55965600628e+18,3.00919342,3.008714199,2.116823673
1372,1.55965600634e+18,-0.6693663597,3.199891329,-3.00313592
1373,1.5596560064e+18,-10.11079407,6.478643417,-2.637749672
1374,1.55965600646e+18,-7.155145168,25.74913406,-8.304439545
1375,1.55965600652e+18,3.235060692,-16.76653099,7.925822258
1376,1.55965600658e+18,3.029628038,-13.25296211,-5.887041092
1377,1.55965600664e+18,1.075032473,-4.952527046,1.993816018
1378,1.5596560067e+18,0.9860122204,-3.538123131,-0.4163894057
1379,1.55965600676e+18,1.134558201,1.587452412,-0.4846601486
1380,1.55965600682e+18,1.007527828,3.831817627,0.4435913563
1381,1.55965600688e+18,1.976480961,5.288693905,-0.3722040653
1382,1.55965600694e+18,-4.32357502,5.482756138,-4.230089664
1383,1.559656007e+18,-7.493355274,2.462126732,-3.310461044
1384,1.55965600706e+18,-3.480630636,7.688235283,1.664185047
1385,1.55965600712e+18,-6.759373188,5.117695332,-0.2087476254
1386,1.55965600718e+18,4.751341343,-10.39615345,4.415845394
1387,1.55965600724e+18,-1.725533485,-9.624815941,-2.055170774
1388,1.5596560073e+18,6.341806412,-2.28323555,5.48636198
1389,1.55965600736e+18,3.161908865,-4.834412575,0.6417710781
1390,1.55965600742e+18,2.507030487,-2.819224834,0.07030010223
1391,1.55965600748e+18,1.719608307,-0.2591896057,0.1661581993
1392,1.55965600754e+18,-2.092773438,1.642377138,-1.554356813
1393,1.5596560076e+18,-6.464711189,2.588914394,-2.501338959
1394,1.55965600766e+18,-6.435518742,2.040924788,-6.50282526
1395,1.55965600772e+18,-12.98263359,0.6208693981,-7.960031509
1396,1.55965600778e+18,-7.730867386,-4.367866516,-5.521989822
1397,1.55965600784e+18,-2.248825073,-5.700616837,1.347409725
1398,1.5596560079e+18,9.992414474,-22.74810982,9.167014122
1399,1.55965600796e+18,0.7436406612,-1.122504234,1.220522642
1400,1.55965600802e+18,2.953558207,-3.043119431,5.667610645
1401,1.55965600808e+18,0.6974430084,-1.093749046,3.321717739
1402,1.55965600814e+18,4.397744656,0.6731209755,3.653988123
1403,1.5596560082e+18,0.9763894081,-0.6917295456,-0.1360235214
1404,1.55965600826e+18,-1.419799328,-0.4494972229,-4.956180096
1405,1.55965600832e+18,-7.037719727,2.640348673,-5.293692589
1406,1.55965600838e+18,1.307893276,5.623678207,3.961641312
1407,1.55965600844e+18,-12.5628233,14.57508087,-9.949951172
1408,1.5596560085e+18,-4.23380518,4.237159252,-3.789755344
1409,1.55965600856e+18,5.009676933,-10.39766121,7.614040375
1410,1.55965600862e+18,0.6575086117,-11.76701355,-0.9235233068
1411,1.55965600868e+18,5.756849766,-1.193514824,4.001080513
1412,1.55965600874e+18,1.034780979,-2.392874718,3.374496698
1413,1.5596560088e+18,4.298196316,-3.020419121,2.493281603
1414,1.55965600886e+18,1.100265503,-2.315505028,-0.02281713486
1415,1.55965600892e+18,0.9035654068,3.138524055,-0.1669898033
1416,1.55965600898e+18,0.8411602974,1.629196644,-3.599598646
1417,1.55965600904e+18,-2.880342007,-1.262852073,-4.513271809
1418,1.5596560091e+18,-6.475617409,-1.515109062,-5.890934467
1419,1.55965600916e+18,-13.31374931,1.223963261,-4.588114262
1420,1.55965600922e+18,-7.910219669,-6.426304817,-4.879831791
1421,1.55965600927e+18,2.000682354,-3.57546854,5.734762669
1422,1.55965600933e+18,-1.303219318,-13.10342979,2.328307867
1423,1.55965600939e+18,6.674636364,-3.974388123,5.044960022
1424,1.55965600945e+18,2.499149084,-1.393722534,5.721999168
1425,1.55965600951e+18,3.831738472,-1.96152401,3.968320608
1426,1.55965600957e+18,1.98470211,-0.4776210785,1.967196703
1427,1.55965600963e+18,2.007394791,1.919680595,0.1544997692
1428,1.55965600969e+18,1.14856863,2.742390871,1.128926039
1429,1.55965600975e+18,-3.972649574,8.602082253,0.970041275
1430,1.55965600981e+18,-4.164657593,6.678541183,-3.069436789
1431,1.55965600987e+18,-3.087836266,-1.558703184,-5.644977093
1432,1.55965600993e+18,-9.410477638,-7.96148777,-8.419324875
1433,1.55965600999e+18,-0.3114209175,-2.131279469,-3.542992115
1434,1.55965601005e+18,-0.1623730659,-8.439928055,2.894089699
1435,1.55965601011e+18,6.904451847,-7.0194664,0.384991169
1436,1.55965601017e+18,-0.5361722708,-0.5538892746,3.575343132
1437,1.55965601023e+18,8.981076241,0.4391746521,8.083507538
1438,1.55965601029e+18,4.481493473,-0.06349182129,3.822357893
1439,1.55965601035e+18,4.649220467,-1.851752281,1.769162893
1440,1.55965601041e+18,-0.9701313972,0.3692541122,-1.241627932
1441,1.55965601047e+18,-3.448006153,2.476232529,-0.5541577339
1442,1.55965601053e+18,-4.476088524,2.548696041,-3.59711647
1443,1.55965601059e+18,-6.820505142,-0.9751458168,-8.397111893
1444,1.55965601065e+18,-10.21204567,0.2498297691,-12.09509277
1445,1.55965601071e+18,-1.7889328,-5.554440498,1.864580154
1446,1.55965601077e+18,4.01226759,-4.433236122,8.926362991
1447,1.55965601083e+18,1.288963079,-15.62178612,2.181337595
1448,1.55965601089e+18,0.9590895176,-4.629878998,6.886505604
1449,1.55965601095e+18,5.143996716,-0.4396362305,4.339997768
1450,1.55965601101e+18,3.602996349,-2.584514618,2.809997797
1451,1.55965601107e+18,5.367583752,-1.894389153,1.813498974
1452,1.55965601113e+18,1.276830196,-0.3891100883,0.08508729935
1453,1.55965601119e+18,-2.4114151,1.991930723,-2.036386728
1454,1.55965601125e+18,-10.73781586,1.554520011,-7.390663147
1455,1.55965601131e+18,1.008553982,1.309551239,7.981654644
1456,1.55965601137e+18,-10.62916565,10.09934235,-3.097213745
1457,1.55965601143e+18,7.097629547,-10.72030449,9.33483696
1458,1.55965601149e+18,-3.010551214,-8.557333946,-3.985683441
1459,1.55965601155e+18,4.776458263,-1.211151123,6.084872246
1460,1.55965601161e+18,3.603259563,-2.01223278,3.769199133
1461,1.55965601167e+18,2.80418539,-0.5948143005,2.487503529
1462,1.55965601173e+18,1.98557663,-0.1700463295,1.590486288
1463,1.55965601179e+18,-3.148670673,-0.8691124916,-0.6985321045
1464,1.55965601185e+18,-5.701050282,-1.144767761,-3.954226494
1465,1.55965601191e+18,-1.631180286,3.076075792,-5.382907391
1466,1.55965601197e+18,-10.00261211,24.04895401,-17.11899948
1467,1.55965601203e+18,-4.784568787,-1.937675476,0.6791505814
1468,1.55965601209e+18,8.361755371,-14.15019226,-4.925869942
1469,1.55965601215e+18,-2.085582972,-4.858351707,1.804711819
1470,1.55965601221e+18,1.380753517,-0.07702159882,0.1506202221
1471,1.55965601227e+18,2.375482559,1.531576633,0.4847223759
1472,1.55965601233e+18,2.971143246,2.220944881,-0.880014658
1473,1.55965601239e+18,0.6201796532,-0.7057442665,-3.121755362
1474,1.55965601245e+18,-4.309682846,0.4347014427,-1.998590946
1475,1.55965601251e+18,-4.378307819,5.46774435,-4.258764267
1476,1.55965601257e+18,1.89274025,8.191996574,-7.028153419
1477,1.55965601263e+18,-6.019062519,6.046787262,0.4619913101
1478,1.55965601269e+18,4.800551414,-9.110965729,7.197844505
1479,1.55965601275e+18,3.017340183,-7.059344292,-1.729369879
1480,1.55965601281e+18,0.09759497643,-1.730980873,0.3554096222
1481,1.55965601287e+18,4.166083813,-0.8925142288,2.601602077
1482,1.55965601293e+18,3.622385025,-0.7711229324,1.540910482
1483,1.55965601299e+18,0.412604332,1.529221058,-1.300480127
1484,1.55965601305e+18,-0.9496741295,3.564847231,-1.621800184
1485,1.55965601311e+18,-7.994837761,1.913325071,-4.395029545
1486,1.55965601317e+18,-11.14924908,4.640107155,-1.682978868
1487,1.55965601323e+18,-2.755516291,-10.69479561,7.5601964
1488,1.55965601329e+18,2.361989498,-2.513659477,2.655977488
1489,1.55965601335e+18,2.212632179,-10.18214798,1.539903641
1490,1.55965601341e+18,3.991193771,0.05127239227,4.214873791
1491,1.55965601347e+18,5.264084816,-2.148024559,4.928512573
1492,1.55965601353e+18,2.462690353,-1.92822361,3.685550451
1493,1.55965601359e+18,2.146385193,-1.789242268,0.06332778931
1494,1.55965601365e+18,0.3767075539,1.598299026,-0.1863188744
1495,1.55965601371e+18,1.222259521,3.898754358,-4.788307667
1496,1.55965601377e+18,-2.005367756,1.160103321,-4.703859806
1497,1.55965601383e+18,-6.957112789,-2.57297802,-5.512000084
1498,1.55965601389e+18,-11.07949638,-1.277261019,-7.956653595
1499,1.55965601395e+18,5.339155197,-2.034537554,1.507040024
1500,1.55965601401e+18,-4.641270638,-1.686359882,2.394556522
1501,1.55965601407e+18,5.928708076,-12.31627369,-0.5167747736
1502,1.55965601413e+18,4.42415905,-1.703807831,5.134764671
1503,1.55965601419e+18,4.204226494,-1.71023941,3.698402882
1504,1.55965601425e+18,5.332645893,-2.761998177,3.348292351
1505,1.55965601431e+18,4.648329258,-1.562082291,0.3674619198
1506,1.55965601437e+18,-1.112867355,2.255160809,-2.375413418
1507,1.55965601443e+18,-2.487459183,5.91866827,-5.826843262
1508,1.55965601449e+18,-7.956998348,1.584000349,-7.269381523
1509,1.55965601455e+18,0.5710234642,5.726147175,3.412164688
1510,1.55965601461e+18,-8.959972382,3.945849895,1.0144701
1511,1.55965601467e+18,1.891853333,-7.93351984,10.16024971
1512,1.55965601473e+18,7.878081799,-5.838839531,6.118318081
1513,1.55965601479e+18,3.664062977,-2.366724968,7.17193079
1514,1.55965601485e+18,3.238850117,-1.428101063,4.234387398
1515,1.55965601491e+18,1.558098793,-3.655179501,0.3518064022
1516,1.55965601497e+18,-0.5768823624,1.479313612,-1.523167372
1517,1.55965601503e+18,-3.098562717,2.435560942,-3.902012348
1518,1.55965601509e+18,-5.061097622,0.3454620838,-4.926096916
1519,1.55965601515e+18,-6.59200716,0.07727098465,-0.2823505402
1520,1.55965601521e+18,-9.810982704,1.893719316,-1.630975008
1521,1.55965601527e+18,-0.2781085968,-4.889922142,1.74398756
1522,1.55965601533e+18,-0.6639332771,-9.089162827,7.932157993
1523,1.55965601539e+18,8.730796814,-6.04829216,7.007012367
1524,1.55965601545e+18,4.348040104,-1.448038101,7.573058605
1525,1.55965601551e+18,3.557373047,-0.145236969,4.582784176
1526,1.55965601557e+18,5.317403316,-0.664911747,3.439248562
1527,1.55965601563e+18,1.27616024,-1.219379902,0.8186781406
1528,1.55965601569e+18,-4.745920658,1.400575399,-2.607079268
1529,1.55965601575e+18,-4.841731071,-0.5668792725,-7.26793623
1530,1.55965601581e+18,2.593973637,-2.286861897,9.018113136
1531,1.55965601587e+18,-13.15371799,19.71887779,-9.795870781
1532,1.55965601593e+18,0.03707361221,-17.13856125,4.617111206
1533,1.55965601599e+18,4.33202076,-13.01346397,-1.62938714
1534,1.55965601605e+18,1.062382221,-4.741846085,5.550610542
1535,1.55965601611e+18,1.031262875,-2.227081299,1.827802658
1536,1.55965601617e+18,0.03697633743,1.770392418,3.59910655
1537,1.55965601623e+18,3.437576294,3.945249081,2.782993078
1538,1.55965601629e+18,-0.4056758881,2.782711744,1.330354691
1539,1.55965601635e+18,0.9782304764,4.486736298,-0.3917412758
1540,1.55965601641e+18,-2.883239746,1.723743439,-9.503862381
1541,1.55965601647e+18,-10.91216278,4.490092754,-2.540463686
1542,1.55965601653e+18,-6.790768147,7.669978142,-6.200544357
1543,1.55965601659e+18,8.552310944,-12.85698128,9.995412827
1544,1.55965601665e+18,-1.794126034,-9.9742136,-2.667187214
1545,1.55965601671e+18,2.366248846,-4.387896538,3.985563993
1546,1.55965601677e+18,1.235902786,-3.006327629,2.160995007
1547,1.55965601683e+18,2.890935421,1.661957741,2.223142147
1548,1.55965601689e+18,1.449747086,3.27152276,-0.5216641426
1549,1.55965601695e+18,-4.587758064,0.5122785568,-1.680433273
1550,1.55965601701e+18,-1.267018318,11.17748451,-3.438384056
1551,1.55965601707e+18,1.50706768,4.023241997,-4.358341694
1552,1.55965601713e+18,-9.547438622,-2.233039618,0.3743619919
1553,1.55965601719e+18,-11.30848312,-0.8352174759,-2.886013508
1554,1.55965601725e+18,-3.630468607,-3.009260654,2.59346962
1555,1.55965601731e+18,-0.0008001327515,-7.463750839,-1.779294491
1556,1.55965601737e+18,11.57296658,-2.303596497,3.991294384
1557,1.55965601743e+18,0.8755440712,-1.745563507,-1.103197098
1558,1.55965601749e+18,0.5028567314,-3.259078979,0.01234555244
1559,1.55965601755e+18,1.434203625,-0.2514514923,0.4082987309
1560,1.55965601761e+18,-0.8603024483,1.983823061,0.645652771
1561,1.55965601767e+18,-1.912991524,-0.06704235077,-0.1477193832
1562,1.55965601773e+18,-4.218792915,0.1273171902,-3.470265865
1563,1.55965601779e+18,-11.70703506,5.47479248,-11.37748241
1564,1.55965601785e+18,-14.99581528,-0.8806715012,-3.338955641
1565,1.55965601791e+18,2.13766861,-19.43236542,8.503302574
1566,1.55965601797e+18,2.686166048,-7.742451668,-3.834296465
1567,1.55965601803e+18,1.207068086,-2.638066292,5.798204899
1568,1.55965601809e+18,4.193175793,1.176653862,4.297471046
1569,1.55965601815e+18,4.291267395,-1.440751076,1.729790449
1570,1.55965601821e+18,0.1428132057,0.9766664505,0.05682325363
1571,1.55965601827e+18,-1.172753334,-1.903899193,-4.678821564
1572,1.55965601833e+18,-2.761583328,0.5292277336,-8.332569122
1573,1.55965601839e+18,-10.0983181,0.4731690884,-4.843124866
1574,1.55965601845e+18,-13.38411522,7.54057312,0.8293380737
1575,1.55965601851e+18,-3.52580595,-4.443975925,2.810688972
1576,1.55965601857e+18,14.17116833,-9.46198082,12.11762428
1577,1.55965601863e+18,0.9423902035,-4.997052193,-0.6768551469
1578,1.55965601869e+18,6.966942787,-0.683599472,4.771447182
1579,1.55965601875e+18,3.126558065,0.4638433456,2.970181942
1580,1.55965601881e+18,2.841756344,-0.6147994995,1.99840045
1581,1.55965601887e+18,0.03148937225,2.28036356,2.198253393
1582,1.55965601893e+18,-3.929433107,5.90041399,1.014076233
1583,1.55965601899e+18,-6.74078083,2.105235815,-2.676002026
1584,1.55965601905e+18,-6.802064419,-0.8490240574,-10.60112
1585,1.55965601911e+18,-1.429695129,-10.59805584,0.1962604523
1586,1.55965601917e+18,-1.622005224,-3.017671585,0.1444816589
1587,1.55965601923e+18,1.822205067,-10.76609325,2.02994895
1588,1.55965601929e+18,7.406749725,-1.170679092,4.717020988
1589,1.55965601935e+18,7.161014557,-0.9083938599,3.572994232
1590,1.55965601941e+18,4.075572968,-1.778992653,2.019098997
1591,1.55965601947e+18,4.914904118,1.151340008,-0.2638893127
1592,1.55965601953e+18,3.522111893,2.148648262,-1.21763134
1593,1.55965601959e+18,-1.166588783,4.11522913,-3.190070868
1594,1.55965601965e+18,-9.188570023,0.06746149063,-6.30272007
1595,1.55965601971e+18,-8.956481934,2.407119513,0.9760699272
1596,1.55965601977e+18,-4.341943264,-1.04094696,2.291039467
1597,1.55965601983e+18,-1.16496563,-6.134840965,4.903544903
1598,1.55965601989e+18,8.715967178,-4.031924248,6.29321003
1599,1.55965601995e+18,5.264431,-0.7958307266,8.475289345
1600,1.55965602001e+18,4.208821297,-1.001775742,5.103377819
1601,1.55965602007e+18,4.935342312,-2.038223267,1.81890893
1602,1.55965602013e+18,0.07496166229,0.1721138954,-0.1629312038
1603,1.55965602019e+18,-2.9977355,3.757466316,-3.749316216
1604,1.55965602025e+18,-3.709120989,0.5067658424,-4.551223278
1605,1.55965602031e+18,-9.128025055,-1.119933605,-7.139335632
1606,1.55965602037e+18,-0.5585346222,-4.606479645,-2.64149332
1607,1.55965602043e+18,0.225590229,-3.947916508,3.652542114
1608,1.55965602049e+18,2.856938362,-3.11588192,1.381371021
1609,1.55965602055e+18,13.02604198,-0.2583999634,4.51445961
1610,1.55965602061e+18,6.296244621,0.1767807007,3.849094391
1611,1.55965602067e+18,7.073544502,0.3634777069,2.689889431
1612,1.55965602073e+18,4.368666172,-1.174862862,1.105904102
1613,1.55965602079e+18,0.8367314339,1.019861221,-0.5906510353
1614,1.55965602085e+18,-4.561631203,1.260654926,-4.385420322
1615,1.55965602091e+18,-7.131840229,1.163675547,-7.1901474
1616,1.55965602097e+18,-8.017613411,0.6004266739,0.2864911556
1617,1.55965602103e+18,2.207762241,-6.186035156,-0.4180431366
1618,1.55965602109e+18,4.593055248,-4.607685089,2.784900665
1619,1.55965602115e+18,-3.095206976,-4.546955109,-0.5093696117
1620,1.55965602121e+18,4.248767853,0.5878582001,5.086882591
1621,1.55965602127e+18,5.794099331,-1.725699425,3.867705822
1622,1.55965602133e+18,6.534591675,-2.41704464,1.685636044
1623,1.55965602139e+18,2.658772945,-0.885365963,-0.41669631
1624,1.55965602145e+18,2.307672024,2.029679298,-5.321403503
1625,1.55965602151e+18,-4.14850235,1.17398119,-7.437368393
1626,1.55965602157e+18,-6.109685421,3.194211483,-3.812906265
1627,1.55965602163e+18,-8.850024223,1.58066678,-4.522383213
1628,1.55965602169e+18,-5.4680233,1.65565443,5.179742336
1629,1.55965602175e+18,1.502475023,-2.983636856,11.93831825
1630,1.55965602181e+18,-10.65326881,-12.86463928,-4.741636276
1631,1.55965602187e+18,7.533243179,-1.92927742,2.552721739
1632,1.55965602193e+18,5.518020153,-2.264349937,2.847570181
1633,1.55965602199e+18,2.90695715,-0.4533185959,0.5828483105
1634,1.55965602205e+18,3.159392357,0.7723588943,0.9626071453
1635,1.55965602211e+18,-2.470940828,2.417174339,0.8535208702
1636,1.55965602217e+18,-2.3827703,5.377874374,-2.236384153
1637,1.55965602223e+18,5.06649828,2.905110598,-0.8364906311
1638,1.55965602229e+18,-12.60616398,6.057614326,-5.202979565
1639,1.55965602235e+18,-7.980726242,1.97266984,0.1350755692
1640,1.55965602241e+18,-1.025007248,2.605083942,0.5595574379
1641,1.55965602247e+18,-3.503964424,-15.69126511,1.784305096
1642,1.55965602253e+18,10.0053854,-10.86676216,-1.808662534
1643,1.55965602259e+18,3.435248613,-2.070305824,0.7269320488
1644,1.55965602265e+18,1.958604336,0.503721714,-1.410830975
1645,1.55965602271e+18,2.322933197,2.623852491,-1.436425924
1646,1.55965602277e+18,0.8108830452,4.482956886,-1.507921934
1647,1.55965602283e+18,-0.2840819359,7.168106079,-0.3323898315
1648,1.55965602289e+18,0.03807544708,1.535848022,-4.688819408
1649,1.55965602295e+18,-4.497552872,-4.708562851,-7.812031746
1650,1.55965602301e+18,-5.467379093,-1.316562176,-10.8513279
1651,1.55965602307e+18,-6.324107647,-0.596722126,-1.618043184
1652,1.55965602313e+18,10.04219818,-8.81121254,2.878253937
1653,1.55965602319e+18,1.301152468,-7.732293129,-1.91635859
1654,1.55965602325e+18,4.887936592,-4.218511581,3.355662346
1655,1.55965602331e+18,1.911137581,-1.612931252,0.7871644497
1656,1.55965602337e+18,3.643343925,-2.575617313,0.7411832809
1657,1.55965602343e+18,0.6272802353,-0.213435173,0.2352802753
1658,1.55965602349e+18,-1.341975212,4.461724758,0.0997531414
1659,1.55965602355e+18,-5.174115181,3.613641262,-2.05813098
1660,1.55965602361e+18,-7.142625809,0.8760310411,-5.176527977
1661,1.55965602367e+18,3.327461243,0.2637684345,0.05536460876
1662,1.55965602373e+18,-9.482419968,2.32920599,-7.446538448
1663,1.55965602379e+18,4.195055962,-12.30155659,9.649568558
1664,1.55965602385e+18,-5.721824169,-3.967844963,-2.7271595
1665,1.55965602391e+18,8.062187195,3.202257156,3.836735249
1666,1.55965602397e+18,3.135542631,-1.608057022,3.520947933
1667,1.55965602403e+18,2.100092888,-3.074809074,1.543005705
1668,1.55965602409e+18,2.552807808,-1.522447109,-0.847723484
1669,1.55965602415e+18,0.03381824493,2.203418732,0.622399807
1670,1.55965602421e+18,-1.496798038,4.633083344,3.513137817
1671,1.55965602427e+18,-3.94423151,2.732046127,-2.514948368
1672,1.55965602433e+18,-3.354618073,-6.654007435,-9.844399452
1673,1.55965602439e+18,-10.02279186,-1.585189342,-9.369680405
1674,1.55965602445e+18,-6.667881489,-3.554201603,-5.808162689
1675,1.55965602451e+18,9.612410545,-14.90910625,17.67166901
1676,1.55965602457e+18,-1.704016089,-1.070782661,-4.459474564
1677,1.55965602463e+18,5.242367744,1.095033646,7.321860313
1678,1.55965602469e+18,3.555437565,-2.220377922,4.358140945
1679,1.55965602475e+18,6.630965233,0.04293632507,3.445782423
1680,1.55965602481e+18,1.900125027,2.265342236,1.986613989
1681,1.55965602487e+18,-1.384212017,4.158828735,1.439745903
1682,1.55965602493e+18,-3.813033819,-3.616298199,-3.239221096
1683,1.55965602499e+18,-4.086407661,-3.269533634,-8.401321411
1684,1.55965602505e+18,1.667381287,0.1105976105,-3.805711746
1685,1.55965602511e+18,-10.87073231,9.609407425,-6.268877983
1686,1.55965602517e+18,1.965249777,-15.15342522,13.74705887
1687,1.55965602523e+18,3.012705088,-5.729897499,0.6518908143
1688,1.55965602529e+18,1.165239573,-1.149532318,7.228383541
1689,1.55965602535e+18,6.297621727,-0.5409183502,4.409448624
1690,1.55965602541e+18,2.566270351,-1.119564056,1.385098219
1691,1.55965602547e+18,2.947697639,-0.08359622955,1.166152
1692,1.55965602553e+18,-3.384689331,1.29497385,-0.7229874134
1693,1.55965602559e+18,-5.553160667,3.287836075,-4.468950272
1694,1.55965602565e+18,-9.858003616,5.822773457,-6.129988194
1695,1.55965602571e+18,-3.180126667,-0.6299991608,-6.701729774
1696,1.55965602577e+18,1.79096508,0.6567168236,2.165114403
1697,1.55965602583e+18,2.068002462,-11.76268673,4.220151901
1698,1.55965602589e+18,1.887667537,-0.7517375946,1.029012561
1699,1.55965602595e+18,7.627326488,-0.4858207703,6.471612453
1700,1.55965602601e+18,4.741066933,-1.432971001,4.504783154
1701,1.55965602607e+18,6.602606773,-1.767493248,2.331132174
1702,1.55965602613e+18,0.5426969528,-1.502965927,-1.523488522
1703,1.55965602619e+18,-4.499148369,-1.849474907,-5.669290066
1704,1.55965602625e+18,-4.039908409,-0.3628253937,-2.625596285
1705,1.55965602631e+18,-6.001654148,6.876770973,-2.324177265
1706,1.55965602637e+18,-11.59903622,2.263021469,1.315276861
1707,1.55965602643e+18,-1.683632851,-5.506825447,1.868231773
1708,1.55965602649e+18,0.3485541344,-3.917391777,2.091973066
1709,1.55965602655e+18,-1.773512363,-8.830568314,-1.068856359
1710,1.55965602661e+18,6.874714851,-3.492711067,3.922881603
1711,1.55965602667e+18,5.869866371,-0.9653491974,2.987176895
1712,1.55965602673e+18,4.943985939,0.8089079857,1.932777166
1713,1.55965602679e+18,3.552655697,1.083453655,2.822745085
1714,1.55965602685e+18,1.451477528,2.182344437,1.565891743
1715,1.55965602691e+18,2.533381462,0.4266867638,1.575815916
1716,1.55965602697e+18,-3.278537273,0.5543298721,-2.153059959
1717,1.55965602703e+18,-12.34403324,0.861497879,-8.608167648
1718,1.55965602709e+18,-14.09122658,2.723078728,-8.423055649
1719,1.55965602715e+18,1.673779964,-13.64675808,9.980814934
1720,1.55965602721e+18,1.34871006,-2.776373863,-3.178099632
1721,1.55965602727e+18,14.31408215,-1.954315186,6.329530716
1722,1.55965602733e+18,5.284660339,0.9553422928,5.14249754
1723,1.55965602739e+18,7.251681328,0.1670866013,3.75373292
1724,1.55965602745e+18,5.223015308,0.003749847412,0.7660050392
1725,1.55965602751e+18,7.89952898,1.206656456,0.9542703629
1726,1.55965602757e+18,1.69697094,3.254284382,-4.603973389
1727,1.55965602763e+18,-3.962582111,-0.06552243233,-7.291411877
1728,1.55965602769e+18,-6.862704754,-0.373759985,-5.803508282
1729,1.55965602775e+18,-9.142055511,-1.04322052,-5.072554588
1730,1.55965602781e+18,-9.471914291,0.9782373905,-3.821742535
1731,1.55965602787e+18,1.838522434,-3.757784843,9.338448524
1732,1.55965602793e+18,6.06271553,-10.58945656,6.161481857
1733,1.55965602799e+18,5.346901894,-0.8191690445,7.478340149
1734,1.55965602805e+18,4.368960381,1.358549118,6.727849007
1735,1.55965602811e+18,6.443754196,-0.1708593369,5.337435722
1736,1.55965602817e+18,2.863553047,-2.381424904,1.275051832
1737,1.55965602823e+18,-3.644758463,-2.900487423,-0.8186869621
1738,1.55965602829e+18,-5.684612274,-0.06312417984,-1.431238651
1739,1.55965602835e+18,-4.374098301,5.041118145,1.107093334
1740,1.55965602841e+18,-7.184409142,2.106333733,-5.004155159
1741,1.55965602847e+18,-1.36244154,2.739993095,-1.271221399
1742,1.55965602853e+18,-0.6359972954,-1.264320374,-0.5332696438
1743,1.55965602859e+18,7.617175102,-3.547914505,4.994089127
1744,1.55965602865e+18,9.301157951,-0.8013353348,8.5148592
1745,1.55965602871e+18,3.98514843,0.07899188995,3.541873455
1746,1.55965602877e+18,6.033977509,-0.2779979706,1.839068413
1747,1.55965602883e+18,2.246942997,0.4844837189,-1.061980247
1748,1.55965602889e+18,-0.7779378891,-1.424825191,-5.141052246
1749,1.55965602895e+18,-6.474367142,0.9023933411,-5.788868427
1750,1.55965602901e+18,-8.735679626,2.668738842,-6.018778801
1751,1.55965602907e+18,0.9945559502,-0.5138878822,1.202569008
1752,1.55965602913e+18,-5.280332088,6.41534853,-0.3263499737
1753,1.55965602919e+18,2.602562428,-5.48435688,8.742981911
1754,1.55965602925e+18,0.9749091864,-8.123980522,-0.7876278162
1755,1.55965602931e+18,7.255577087,-2.152607918,3.619368315
1756,1.55965602937e+18,3.516217709,1.068666458,0.9440321922
1757,1.55965602943e+18,4.665277004,1.685023308,1.295597315
1758,1.55965602949e+18,2.169393063,1.91318655,1.073341846
1759,1.55965602955e+18,0.1565823555,1.063896656,-1.179589152
1760,1.55965602961e+18,-12.79016113,5.777219296,-9.910313606
1761,1.55965602967e+18,-7.02512455,-1.488081932,-0.76323843
1762,1.55965602973e+18,-5.394750595,-8.089797974,2.324439526
1763,1.55965602979e+18,4.944889069,-14.1630764,3.074957848
1764,1.55965602985e+18,10.20591831,-3.858103752,5.844707489
1765,1.55965602991e+18,4.526316166,-2.664925575,4.225900173
1766,1.55965602997e+18,5.501817703,-2.339438438,4.32270956
1767,1.55965603003e+18,3.692099571,-0.2164802551,0.3718986511
1768,1.55965603009e+18,-1.189840794,2.813042879,-2.47048068
1769,1.55965603015e+18,-8.799199104,1.831750393,-4.626202106
1770,1.55965603021e+18,-15.05229759,6.991531849,-13.8948307
1771,1.55965603027e+18,-3.529994488,15.94298077,-2.206122398
1772,1.55965603033e+18,5.095179558,-5.663508415,6.169206619
1773,1.55965603039e+18,3.729981422,-7.029513359,-1.960151196
1774,1.55965603045e+18,7.606831551,1.572252274,3.759108067
1775,1.55965603051e+18,5.326338768,-1.297079086,2.240564823
1776,1.55965603057e+18,1.614006281,-0.9314622879,1.12996769
1777,1.55965603063e+18,0.8876385689,-0.5869312286,1.895059824
1778,1.55965603069e+18,-3.951035261,-1.176659107,-0.2328522205
1779,1.55965603075e+18,-9.079989433,5.984858513,-3.188484907
1780,1.55965603081e+18,7.01466465,1.865288734,-2.372401237
1781,1.55965603087e+18,0.4469285011,0.4254846573,3.610094547
1782,1.55965603093e+18,2.253154755,-11.58077908,-0.3231326342
1783,1.55965603099e+18,1.501307964,-3.138870239,3.436382771
1784,1.55965603105e+18,4.753175259,-2.879993439,4.52893734
1785,1.55965603111e+18,5.39538002,-2.852345467,1.008876324
1786,1.55965603117e+18,3.451683998,1.312493324,-4.160613537
1787,1.55965603123e+18,-4.388361454,1.252874374,-5.287912846
1788,1.55965603129e+18,-7.284350395,3.073597431,-3.678016901
1789,1.55965603135e+18,-7.79041338,9.00269413,-5.847136021
1790,1.55965603141e+18,-0.6373319626,2.269771576,20.47577286
1791,1.55965603147e+18,4.258354664,-0.2903137207,5.418204308
1792,1.55965603153e+18,-0.9764137864,-11.24003601,-5.280287743
1793,1.55965603159e+18,2.097155333,2.275247097,2.796073914
1794,1.55965603165e+18,5.69484663,-1.398817062,4.170697689
1795,1.55965603171e+18,1.331337452,-3.082131386,0.3420021534
1796,1.55965603177e+18,2.340906143,1.312556744,1.946000099
1797,1.55965603183e+18,-0.8772416115,3.121192694,0.5209512711
1798,1.55965603189e+18,-1.647631168,3.964348793,-5.749222755
1799,1.55965603195e+18,-8.082742691,0.830268383,-9.103693008
1800,1.55965603201e+18,-1.34305954,-6.931212902,-5.351095676
1801,1.55965603207e+18,-6.11284256,-6.025495052,-0.4636375904
1802,1.55965603213e+18,3.394468546,-10.69124603,1.992863536
1803,1.55965603219e+18,6.022972107,0.2647047043,4.35024929
1804,1.55965603225e+18,4.036776543,-1.632271767,3.472608089
1805,1.55965603231e+18,4.564280987,-0.9743843079,2.375096798
1806,1.55965603237e+18,4.057672024,-0.4287867546,1.718109608
1807,1.55965603243e+18,-1.649518013,1.4563241,-0.3116366863
1808,1.55965603249e+18,-4.35862112,2.676121235,-2.747367382
1809,1.55965603255e+18,-7.213814735,1.885681629,-5.376829624
1810,1.55965603261e+18,-10.15251255,5.267697811,-7.560484886
1811,1.55965603267e+18,0.8557724953,2.57985878,5.629088879
1812,1.55965603273e+18,2.233461618,-6.65159893,0.6037793159
1813,1.55965603279e+18,7.796724319,-2.617842674,0.911711216
1814,1.55965603285e+18,4.598448753,-1.533991814,3.553194761
1815,1.55965603291e+18,0.05288600922,-1.271865845,0.5814688206
1816,1.55965603297e+18,0.6169848442,-0.8129930496,1.142591
1817,1.55965603303e+18,-4.629358768,0.3347444534,-1.290634871
1818,1.55965603309e+18,-7.192628384,0.6965851784,-4.735581398
1819,1.55965603315e+18,17.5175209,2.073391438,-14.72014999
1820,1.55965603321e+18,-9.694957733,8.328315735,-4.46195507
1821,1.55965603327e+18,-2.875608444,-8.953479767,2.600625515
1822,1.55965603333e+18,5.903590202,-4.483685493,0.06877487898
1823,1.55965603339e+18,1.748669982,-1.921559334,1.617045879
1824,1.55965603345e+18,3.223888159,-2.887448311,1.116065979
1825,1.55965603351e+18,0.9438810349,2.634079456,-2.82221508
1826,1.55965603357e+18,0.847342968,2.92385006,-2.576990843
1827,1.55965603363e+18,-2.397075415,5.407826424,-1.294762254
1828,1.55965603369e+18,-13.77222443,9.956897736,-6.882799149
1829,1.55965603375e+18,-5.631618977,15.05138779,-1.228717685
1830,1.55965603381e+18,5.329530716,-8.26318264,6.304708958
1831,1.55965603387e+18,-1.245653391,-9.216411591,-6.540628433
1832,1.55965603393e+18,-2.154602528,-7.458137512,-0.3768516481
1833,1.55965603399e+18,0.6063609123,-2.534445763,-1.132066131
1834,1.55965603405e+18,1.242827415,4.011342525,0.4981728792
1835,1.55965603411e+18,-1.594851971,4.051919937,-0.1848602295
1836,1.55965603417e+18,-6.566419601,3.517577171,-8.827400208
1837,1.55965603423e+18,0.2011318207,2.526640415,-7.506738663
1838,1.55965603429e+18,0.1237516403,0.1036176682,3.673878431
1839,1.55965603435e+18,-1.423151851,-8.275805473,-2.39421916
1840,1.55965603441e+18,7.285477161,0.3739814758,5.167429447
1841,1.55965603447e+18,2.644886494,-1.314538002,1.196295857
1842,1.55965603453e+18,0.0717010498,-2.280851364,-1.118526936
1843,1.55965603459e+18,-0.1077036858,-1.181006432,-2.035137177
1844,1.55965603465e+18,-1.071353436,0.1911249161,-2.987800837
1845,1.55965603471e+18,-5.83118248,1.965033054,-5.45523262
1846,1.55965603477e+18,-7.777962208,6.482581615,-5.124764442
1847,1.55965603483e+18,3.956760406,0.7322654724,5.788478851
1848,1.55965603489e+18,-3.517019033,-6.868998528,-0.1852886677
1849,1.55965603495e+18,9.699016571,-0.4053211212,1.358756781
1850,1.55965603501e+18,2.529014349,-2.647374153,3.401651382
1851,1.55965603507e+18,1.582567692,-2.817853928,1.399583578
1852,1.55965603513e+18,2.265313148,-1.137602806,1.371964455
1853,1.55965603519e+18,0.9001469612,2.601489067,0.3905787468
1854,1.55965603525e+18,-0.3233704567,4.335859776,-4.647212029
1855,1.55965603531e+18,-5.850104332,3.118345737,-7.352539062
1856,1.55965603537e+18,-13.89855194,4.822021008,-10.18924522
1857,1.55965603543e+18,5.460839272,-22.5226326,4.241393089
1858,1.55965603549e+18,-4.784901619,-1.698971748,1.67832756
1859,1.55965603555e+18,7.848500729,-5.101706505,0.7941513062
1860,1.55965603561e+18,1.973950505,-2.087808609,1.957592726
1861,1.55965603567e+18,2.393339634,-1.213284492,2.851164818
1862,1.55965603573e+18,2.075481892,-1.357603073,1.783882141
1863,1.55965603579e+18,2.742014408,-1.954553604,2.795773029
1864,1.55965603585e+18,0.006228923798,-0.4287552834,3.074725628
1865,1.55965603591e+18,-3.181489944,2.605308533,-1.33727932
1866,1.55965603597e+18,-3.452738285,0.4195557833,-8.613388062
1867,1.55965603603e+18,-13.50813007,3.873599052,-7.503443718
1868,1.55965603609e+18,-3.421705246,-3.655417442,-2.973803043
1869,1.55965603615e+18,6.038963795,-10.12795639,5.544678688
1870,1.55965603621e+18,-3.863788128,-5.804584503,-4.041072369
1871,1.55965603627e+18,8.682200432,-1.146290779,5.372790337
1872,1.55965603633e+18,3.233161926,-1.179261208,2.549277306
1873,1.55965603639e+18,2.160891533,0.3777785301,1.94246006
1874,1.55965603645e+18,3.746322632,-0.7709407806,1.611032009
1875,1.55965603651e+18,0.7801785469,-1.351041794,-2.276290655
1876,1.55965603657e+18,-2.071730614,-2.424039125,-2.43565011
1877,1.55965603663e+18,-11.05871105,0.5538880825,-6.698163033
1878,1.55965603669e+18,-5.060028076,5.435480118,11.01765728
1879,1.55965603675e+18,-7.802301407,4.357687473,3.663416386
1880,1.55965603681e+18,7.737009048,-3.690254211,7.857779503
1881,1.55965603687e+18,-0.9890135527,-7.486290932,-2.739997625
1882,1.55965603693e+18,7.721106529,-2.411413193,5.162916183
1883,1.55965603699e+18,2.834729433,0.9269351959,2.290112257
1884,1.55965603705e+18,3.197297096,-2.052074432,1.708991289
1885,1.55965603711e+18,1.621679306,-2.691580772,0.7156572342
1886,1.55965603717e+18,-2.348326206,-0.4565420151,-0.4806690216
1887,1.55965603723e+18,-4.02011776,2.570197582,-2.454845667
1888,1.55965603729e+18,-4.006562233,5.406367302,-4.072342873
1889,1.55965603735e+18,-7.653651237,1.514492035,-4.827219009
1890,1.55965603741e+18,0.5934357643,-2.328286171,-3.544478893
1891,1.55965603747e+18,-0.04048728943,2.04480648,-0.01139688492
1892,1.55965603753e+18,9.218706131,-11.80405807,0.7751541138
1893,1.55965603759e+18,6.224660397,-2.868787766,2.767360687
1894,1.55965603765e+18,5.685797215,0.08147716522,3.469183207
1895,1.55965603771e+18,1.67223525,-0.1493711472,-0.01836514473
1896,1.55965603777e+18,6.322496891,-0.01008224487,2.342388391
1897,1.55965603783e+18,-0.1196122169,0.3453350067,0.955789566
1898,1.55965603789e+18,-4.086017609,1.907958984,0.1439266205
1899,1.55965603795e+18,-6.463058472,1.860268593,-2.825046539
1900,1.55965603801e+18,-5.464512825,1.38190341,-5.636643887
1901,1.55965603807e+18,-11.37372208,0.7583358288,1.572114944
1902,1.55965603813e+18,-0.7354979515,-2.11152029,2.658716202
1903,1.55965603819e+18,5.87455368,-7.022681236,-1.06117487
1904,1.55965603825e+18,6.528112888,-4.04396534,1.065365791
1905,1.55965603831e+18,5.023326874,-1.748638153,5.861887932
1906,1.55965603837e+18,4.240539551,-0.6049509048,5.108065128
1907,1.55965603843e+18,4.360239029,-0.5818586349,3.010499954
1908,1.55965603849e+18,1.088920116,0.007086753845,-0.6713767052
1909,1.55965603855e+18,0.3733386993,-1.578719139,-1.656991482
1910,1.55965603861e+18,-1.819739819,0.3625235558,-5.348521233
1911,1.55965603867e+18,0.07734870911,1.425627947,-0.4494409561
1912,1.55965603873e+18,-10.92054176,5.285357475,-9.279380798
1913,1.55965603879e+18,-2.351340532,-0.2404546738,-0.6783638
1914,1.55965603885e+18,0.9725184441,-1.875683784,6.972033978
1915,1.55965603891e+18,3.074636221,-3.499609947,3.415687561
1916,1.55965603897e+18,7.073838234,-1.225013733,7.243659496
1917,1.55965603903e+18,3.23839426,-1.880993843,6.345637798
1918,1.55965603909e+18,2.753856182,-0.5952224731,4.481434822
1919,1.55965603915e+18,3.548532486,-0.5635104179,1.424994469
1920,1.55965603921e+18,-0.9767084122,-0.9572095871,-4.143191338
1921,1.55965603927e+18,-1.751750946,-0.9354519844,-6.863354206
1922,1.55965603933e+18,-1.66330862,-1.730360508,-8.019260406
1923,1.55965603939e+18,-9.842216492,5.083592892,0.848590374
1924,1.55965603945e+18,-12.75477505,23.86141205,-3.867728233
1925,1.55965603951e+18,-4.308626175,-24.35925484,8.248819351
1926,1.55965603957e+18,13.11095619,-7.0768013,1.915607572
1927,1.55965603963e+18,-0.1681321859,-3.299996376,3.34888649
1928,1.55965603969e+18,1.549340844,-0.1492185593,2.654131413
1929,1.55965603975e+18,2.467677355,-0.3818368912,4.12046051
1930,1.55965603981e+18,2.369294167,-0.3581237793,3.135727167
1931,1.55965603987e+18,2.389098167,1.774736404,1.440481663
1932,1.55965603993e+18,-0.7631349564,2.071213007,-3.31984067
1933,1.55965603999e+18,-4.332975388,1.407924414,-5.454959393
1934,1.55965604005e+18,-5.032103539,3.584428072,-6.961932182
1935,1.55965604011e+18,-7.71249485,5.765243053,-5.502035618
1936,1.55965604017e+18,3.538325787,-6.671761036,7.152587891
1937,1.55965604023e+18,3.161104441,-5.390820503,0.8900969028
1938,1.55965604029e+18,6.905823708,-0.4910306931,3.159783363
1939,1.55965604035e+18,4.843262672,-0.3991680145,3.178720236
1940,1.55965604041e+18,1.933987617,-1.135929108,1.827049971
1941,1.55965604047e+18,1.720322132,-0.240881443,0.8003044128
1942,1.55965604053e+18,-0.06213378906,0.8325786591,0.219271183
1943,1.55965604059e+18,-2.559038162,2.684902191,-0.646821022
1944,1.55965604065e+18,-4.773824692,1.51636529,-4.28179121
1945,1.55965604071e+18,-3.188137054,2.624623537,-1.122563124
1946,1.55965604077e+18,-5.905446053,2.611838579,-1.834739447
1947,1.55965604083e+18,-0.9739809036,-4.262570858,3.988431215
1948,1.55965604089e+18,3.094254971,-4.353601456,2.306955576
1949,1.55965604095e+18,6.053928852,-2.579330444,3.501558065
1950,1.55965604101e+18,5.579909325,-1.182415009,5.244848728
1951,1.55965604107e+18,4.263584137,-0.5872335434,3.709338903
1952,1.55965604113e+18,4.776462078,-1.331129074,2.435759306
1953,1.55965604119e+18,0.5919613838,-1.590957642,0.5679059029
1954,1.55965604125e+18,-4.311865807,-1.683084011,-3.313393831
1955,1.55965604131e+18,-4.679179668,-1.021556854,-6.364383221
1956,1.55965604137e+18,-6.748491764,-0.1677210331,-5.204922676
1957,1.55965604143e+18,-14.26576424,7.323859215,-8.963218689
1958,1.55965604149e+18,-0.8096761703,-8.741903305,9.230609894
1959,1.55965604155e+18,5.010119438,-6.980568886,6.447013855
1960,1.55965604161e+18,4.986400604,-2.283150673,-2.583467722
1961,1.55965604167e+18,3.855172634,-1.987433434,4.909881592
1962,1.55965604173e+18,5.34259367,-1.254455566,3.369886398
1963,1.55965604179e+18,3.503295422,-3.138736725,0.7926211357
1964,1.55965604185e+18,1.197511673,-1.08263731,-0.9817540646
1965,1.55965604191e+18,-0.09261798859,2.903353453,-5.419596195
1966,1.55965604197e+18,-4.507517338,4.118817806,-5.965625286
1967,1.55965604203e+18,-9.871665001,4.922627449,-5.787479401
1968,1.55965604209e+18,-3.345370054,-2.425739765,1.583971024
1969,1.55965604215e+18,-3.560985088,2.848165989,1.392624617
1970,1.55965604221e+18,6.43847084,-12.67165279,6.913764954
1971,1.55965604227e+18,6.226635933,-2.672830582,0.6364963651
1972,1.55965604233e+18,4.961338997,-2.554568291,3.839591503
1973,1.55965604239e+18,-0.6460089684,-1.241909981,2.021216393
1974,1.55965604245e+18,2.254449368,1.025525093,1.950091839
1975,1.55965604251e+18,1.142779827,2.295643806,2.025420189
1976,1.55965604257e+18,1.197518826,2.966264486,1.676133394
1977,1.55965604263e+18,-3.591751575,2.410571575,-2.37959528
1978,1.55965604269e+18,-6.518749237,3.181752682,-3.492227316
1979,1.55965604275e+18,-8.546173096,4.544393539,-3.004678726
1980,1.55965604281e+18,-3.821144342,3.743500233,-2.269001961
1981,1.55965604287e+18,9.657115936,-12.0499239,9.99536705
1982,1.55965604293e+18,3.677028656,-10.16090488,-0.6328158379
1983,1.55965604299e+18,4.569303513,-3.715811729,3.622582912
1984,1.55965604305e+18,-0.7223680019,-1.132779121,-0.6044738293
1985,1.55965604311e+18,1.991816998,0.1658086777,1.415998936
1986,1.55965604317e+18,1.134251118,2.726462126,0.2308185101
1987,1.55965604323e+18,-2.831042767,3.076057911,-1.291944742
1988,1.55965604329e+18,-4.056427002,3.155552387,-2.537734032
1989,1.55965604335e+18,-7.700866222,3.066730976,-1.411543369
1990,1.55965604341e+18,-4.258360863,-2.425562859,-8.463148117
1991,1.55965604347e+18,-4.538727283,1.23040247,2.779182911
1992,1.55965604353e+18,4.887911797,-11.13170528,1.052970886
1993,1.55965604359e+18,10.384202,-3.873437881,3.351219654
