,Time (s),Linear Acceleration x (m/s^2),Linear Acceleration y (m/s^2),Linear Acceleration z (m/s^2)
0,1.55965562306e+18,-1.381830692,-0.5691301823,-0.8929052353
1,1.55965562312e+18,-1.318243027,-0.4228773117,-0.8864197731
2,1.55965562318e+18,-1.209382057,-0.2531242371,-0.8391289711
3,1.55965562324e+18,-1.210445404,-0.1021146774,-0.8906917572
4,1.5596556233e+18,-1.130459309,0.04861974716,-0.8572540283
5,1.55965562336e+18,-1.242420673,0.05585050583,-0.9710402489
6,1.55965562342e+18,0.4535226822,-1.615833044,-0.4488139153
7,1.55965562348e+18,0.2924265862,-1.192009211,-1.385138512
8,1.55965562354e+18,-0.15990448,-1.00941062,-1.252623081
9,1.5596556236e+18,-1.378222942,-0.783701241,-0.6411309242
10,1.55965562366e+18,-0.8248271942,-0.8828703761,0.2518811226
11,1.55965562372e+18,-1.917017937,-1.169694185,-0.2158398628
12,1.55965562378e+18,-0.3752732277,-0.7712766528,0.1811800003
13,1.55965562384e+18,1.106580257,-0.6659594774,-1.060032368
14,1.5596556239e+18,5.141727924,-0.2655735016,-6.093811512
15,1.55965562396e+18,4.343934059,0.0875222683,-5.640164375
16,1.55965562402e+18,1.605856657,-0.1118569374,0.01213741302
17,1.55965562408e+18,-2.573753834,-1.121837497,-1.422036648
18,1.55965562414e+18,0.8755636215,-1.920441985,0.27891922
19,1.5596556242e+18,4.939919472,-1.543548346,4.671070099
20,1.55965562426e+18,7.355490208,0.1778838634,6.353130341
21,1.55965562432e+18,6.961035252,0.4633209705,4.15538311
22,1.55965562438e+18,0.9365291595,-0.7985765934,-1.099034786
23,1.55965562444e+18,-0.4924693108,-1.917788506,-4.27961731
24,1.5596556245e+18,-3.1318326,-2.771741867,-8.600498199
25,1.55965562456e+18,-8.402369499,-2.11781621,-13.42352676
26,1.55965562462e+18,-5.688467979,-4.268029213,-10.2387352
27,1.55965562468e+18,-2.343057871,-3.345252514,-6.363814831
28,1.55965562474e+18,3.010685921,-6.937217712,6.604784012
29,1.5596556248e+18,-3.286937237,-15.19820404,-2.405926704
30,1.55965562486e+18,13.64206219,-8.139035225,9.513050079
31,1.55965562492e+18,3.328890324,-1.360693455,6.617767811
32,1.55965562498e+18,1.093512058,2.326543808,3.393294334
33,1.55965562504e+18,1.399863243,3.049492598,1.711215019
34,1.5596556251e+18,2.162426949,2.924330235,4.187699318
35,1.55965562516e+18,2.290126801,2.632694721,-0.1543841362
36,1.55965562522e+18,-0.1473269463,-2.009424686,-6.512399197
37,1.55965562528e+18,-5.796600819,-3.183337927,-10.60985374
38,1.55965562534e+18,-9.440164566,0.09909427166,2.477458
39,1.5596556254e+18,-10.0664072,5.28744936,-12.18465614
40,1.55965562546e+18,0.8567919731,-13.66475677,7.018595219
41,1.55965562552e+18,11.03111267,-15.85926628,10.02710915
42,1.55965562558e+18,0.707801342,0.5578522682,6.987774849
43,1.55965562564e+18,1.335923672,14.18402863,4.030705452
44,1.5596556257e+18,2.662327766,12.01145744,3.6925807
45,1.55965562576e+18,4.009000301,2.773540497,5.59813261
46,1.55965562582e+18,4.056775093,-9.845182419,2.974770546
47,1.55965562588e+18,1.91380167,-1.064069033,-0.05638504028
48,1.55965562594e+18,5.955626488,-2.787046432,8.612224579
49,1.559655626e+18,-18.2769146,8.4383564,-22.41293716
50,1.55965562606e+18,-11.22353554,2.598588228,-15.50160027
51,1.55965562612e+18,-7.554534912,-12.12175655,11.7990818
52,1.55965562618e+18,7.7739048,-23.39179611,10.28201962
53,1.55965562623e+18,2.60793972,-12.08108521,8.113248825
54,1.55965562629e+18,2.521402359,-3.954821587,9.416707039
55,1.55965562635e+18,-2.648661137,6.924100876,1.418455124
56,1.55965562641e+18,-1.776321411,10.5196209,-1.555700302
57,1.55965562647e+18,1.409694672,5.009299278,-1.658089161
58,1.55965562653e+18,-2.045731544,-14.15666866,1.202094078
59,1.55965562659e+18,-3.068171978,-6.219268322,15.84083271
60,1.55965562665e+18,-20.24662399,18.94245148,-15.27740479
61,1.55965562671e+18,1.132584572,-12.21532249,8.330316544
62,1.55965562677e+18,-3.815886736,-5.970094204,-15.3887558
63,1.55965562683e+18,-5.838302612,3.121729374,-2.294439316
64,1.55965562689e+18,0.9747824669,-9.448719978,2.224478006
65,1.55965562695e+18,1.901284695,-9.773176193,2.938309908
66,1.55965562701e+18,2.643530846,-1.496911049,2.151609898
67,1.55965562707e+18,-2.550755501,10.6300869,3.133676291
68,1.55965562713e+18,-1.638057232,13.47212696,-0.3441207409
69,1.55965562719e+18,-0.9686689377,-0.9614189267,-6.656691551
70,1.55965562725e+18,4.206397057,-19.97820282,0.3982787132
71,1.55965562731e+18,-24.5463829,5.439516544,-10.81055069
72,1.55965562737e+18,4.692085266,-53.64546585,1.578009129
73,1.55965562743e+18,6.533288479,1.569539547,0.467751503
74,1.55965562749e+18,-8.384607315,1.690779686,-5.412688255
75,1.55965562755e+18,-6.341704845,3.87223959,0.440202713
76,1.55965562761e+18,6.517130852,-11.33020973,1.666563511
77,1.55965562767e+18,7.863118172,-5.114448547,1.433043003
78,1.55965562773e+18,3.870547295,3.711470604,-1.442710161
79,1.55965562779e+18,-8.70263958,5.774210453,-5.113425255
80,1.55965562785e+18,-20.63459396,25.33362579,-25.77811623
81,1.55965562791e+18,-10.72865105,1.806044936,-6.17091465
82,1.55965562797e+18,16.23637199,-35.3170929,10.55106926
83,1.55965562803e+18,6.128608227,-23.19685555,-1.516034603
84,1.55965562809e+18,1.315703392,-5.506895065,-0.9743728638
85,1.55965562815e+18,-2.405353546,8.946825027,-0.4098675251
86,1.55965562821e+18,-4.203072071,3.430958509,-2.307491541
87,1.55965562827e+18,2.979760647,-2.221237659,0.04285621643
88,1.55965562833e+18,9.793005943,-3.547373772,0.2891387939
89,1.55965562839e+18,2.084766865,-2.390379906,0.6903591156
90,1.55965562845e+18,-5.126366138,5.097221375,-2.762240648
91,1.55965562851e+18,-8.945034981,3.693820238,-7.338476181
92,1.55965562857e+18,-6.767731667,0.3554251194,-4.478815079
93,1.55965562863e+18,-13.42823315,-7.625591278,-7.17498064
94,1.55965562869e+18,-6.150330544,-17.73226547,3.910224915
95,1.55965562875e+18,-0.8825130463,-29.59515762,-11.47869015
96,1.55965562881e+18,9.304373741,-5.379278183,4.35565424
97,1.55965562887e+18,3.639882565,7.676008224,3.54984808
98,1.55965562893e+18,6.186331749,6.51413393,7.416591644
99,1.55965562899e+18,9.134191513,-14.85193825,2.417739868
100,1.55965562905e+18,3.391506195,-9.72137928,-1.269550323
101,1.55965562911e+18,-2.281914234,-1.91859436,1.218596935
102,1.55965562917e+18,-13.31312561,0.6391597986,-5.829251289
103,1.55965562923e+18,-4.528043747,1.737663984,-4.862691879
104,1.55965562929e+18,10.43206024,-0.4129332304,4.532169819
105,1.55965562935e+18,-18.39356995,3.820007324,-13.40001488
106,1.55965562941e+18,3.048927307,-12.33625984,-0.7742073536
107,1.55965562947e+18,7.301308155,-28.84054756,-0.8791615963
108,1.55965562953e+18,1.116941452,7.189163208,1.127583265
109,1.55965562959e+18,-0.6466965675,2.760382652,3.637359619
110,1.55965562965e+18,-2.666210651,-2.09468317,4.601000786
111,1.55965562971e+18,10.43152428,-8.907205582,4.625640392
112,1.55965562977e+18,4.09055233,-2.518856049,0.04410290718
113,1.55965562983e+18,-0.1244945526,6.142784119,-1.557966352
114,1.55965562989e+18,-7.447737694,6.405841351,-9.207085609
115,1.55965562995e+18,-13.41260147,-0.5452859998,-0.7395865917
116,1.55965563001e+18,-25.77393341,9.171108246,-20.25689125
117,1.55965563007e+18,21.26817322,-30.84454727,8.508995056
118,1.55965563013e+18,10.67262363,-19.32474518,2.453343868
119,1.55965563019e+18,2.662726879,-1.742780685,1.134536982
120,1.55965563025e+18,-5.674385548,6.850251198,-0.07362985611
121,1.55965563031e+18,0.2110476494,-0.9849488735,-0.6832070351
122,1.55965563037e+18,4.304469585,-11.00715351,2.850895405
123,1.55965563043e+18,4.412522793,-9.564138412,0.1715841293
124,1.55965563049e+18,-3.825243235,-0.06577134132,-2.383457184
125,1.55965563055e+18,-8.339053154,-1.60495019,-8.899684906
126,1.55965563061e+18,-9.296050072,-1.233134508,-9.042509079
127,1.55965563067e+18,2.833398342,-4.942768097,-2.671902418
128,1.55965563073e+18,-1.131849766,-6.097728252,2.323499203
129,1.55965563079e+18,0.2131314278,-14.96564674,2.946773052
130,1.55965563085e+18,7.009459019,-12.73857594,-0.01853990555
131,1.55965563091e+18,0.6511797905,8.254347801,2.717062235
132,1.55965563097e+18,-0.722890377,2.241592407,-0.3260843754
133,1.55965563103e+18,-0.2274413109,-7.637484074,-1.408159733
134,1.55965563109e+18,8.350399971,-7.361992836,6.597329617
135,1.55965563115e+18,3.256259918,-3.378281116,1.734466076
136,1.55965563121e+18,-2.45201683,-0.8758128881,-3.15748167
137,1.55965563127e+18,-8.617950439,4.124932289,-8.625292778
138,1.55965563133e+18,-13.20480824,2.90404129,-9.730895996
139,1.55965563139e+18,-5.233116627,-3.299648046,-11.26857281
140,1.55965563145e+18,-2.820193529,-7.021814346,-7.279677868
141,1.55965563151e+18,9.784708023,-29.19043922,4.103680611
142,1.55965563157e+18,5.386518002,-5.787876129,3.249053955
143,1.55965563163e+18,0.2105929852,10.22357178,0.8510701656
144,1.55965563169e+18,-0.3846030235,0.7599344254,-1.252509356
145,1.55965563175e+18,7.185926437,-13.53137207,-1.903236628
146,1.55965563181e+18,5.845779419,-7.043644428,-0.2485127449
147,1.55965563187e+18,3.679693222,0.7167022228,3.994650841
148,1.55965563193e+18,-3.047254562,3.991925716,-1.078102112
149,1.55965563199e+18,-14.13871765,5.033133984,-7.586257458
150,1.55965563205e+18,-6.466790676,-0.1425424814,-20.20619965
151,1.55965563211e+18,13.47738743,-8.77289772,-15.16802883
152,1.55965563217e+18,-4.075581551,-2.13680315,-13.68468475
153,1.55965563223e+18,15.62958908,-19.92209244,6.271086216
154,1.55965563229e+18,-2.829295158,-1.404586315,6.124721527
155,1.55965563235e+18,0.3032975197,7.884780884,2.483906746
156,1.55965563241e+18,4.373842239,-8.437171936,-2.579380035
157,1.55965563247e+18,9.849339485,-8.979374886,-2.415647268
158,1.55965563253e+18,1.374603748,-5.729263783,-0.009054660797
159,1.55965563259e+18,-8.248405457,-4.814743042,0.447042942
160,1.55965563265e+18,-9.515911102,3.792205811,-12.55524826
161,1.55965563271e+18,14.1576376,6.519474983,-8.321080208
162,1.55965563277e+18,-20.15678787,16.38187218,-6.829127312
163,1.55965563283e+18,2.660497665,-5.646057129,-1.215418577
164,1.55965563289e+18,16.78484726,-17.51339722,4.664662361
165,1.55965563295e+18,-0.07176160812,-18.8538208,-17.09922028
166,1.55965563301e+18,7.907562733,4.633933067,1.226169586
167,1.55965563307e+18,1.1102314,3.699934244,-2.639582634
168,1.55965563313e+18,0.1112947464,-9.78797245,-6.353909492
169,1.55965563319e+18,2.798829079,-8.672304153,-6.190159798
170,1.55965563325e+18,-1.663980484,-3.688093662,-6.374861717
171,1.55965563331e+18,-3.733827829,3.892582893,-0.2163643837
172,1.55965563337e+18,-11.25091267,7.069330692,-2.433189869
173,1.55965563343e+18,-8.430127144,8.085594177,-11.2661562
174,1.55965563349e+18,-10.81574726,10.19813728,-15.61622715
175,1.55965563355e+18,20.14073181,-35.27776718,-2.304470539
176,1.55965563361e+18,0.3961143494,-17.01357269,-5.644958973
177,1.55965563367e+18,0.8183107376,-6.772901535,-0.6718945503
178,1.55965563373e+18,-3.030376196,3.236262798,-1.375595093
179,1.55965563379e+18,-1.137813091,0.1305756569,-0.3283076286
180,1.55965563385e+18,4.261813164,-8.526668549,-2.485483646
181,1.55965563391e+18,2.734514236,-1.89137876,0.05689525604
182,1.55965563397e+18,-2.429260731,3.401191235,-5.842144012
183,1.55965563403e+18,-9.98891449,1.246236324,-11.07162476
184,1.55965563409e+18,-15.98988342,9.258831024,-13.34071159
185,1.55965563415e+18,-4.223913193,-28.66358757,28.34887695
186,1.55965563421e+18,11.94097137,-11.20226002,4.159399986
187,1.55965563427e+18,-0.2986044884,-21.75323868,-8.982563019
188,1.55965563433e+18,5.783277512,-8.136559486,-0.006050109863
189,1.55965563439e+18,-2.008971214,6.974975109,1.768535137
190,1.55965563445e+18,4.549469471,-0.7719392776,2.555064678
191,1.55965563451e+18,1.742949486,-8.535954475,-0.7208280563
192,1.55965563457e+18,3.122834206,-10.89274311,-1.526249886
193,1.55965563463e+18,-1.300638199,-5.63349247,-7.051857948
194,1.55965563469e+18,-5.567592621,0.5952703953,-2.799926281
195,1.55965563475e+18,-3.749448299,4.10472393,-7.162039757
196,1.55965563481e+18,-12.21238804,1.196554184,-19.07932854
197,1.55965563487e+18,-9.830788612,-0.706097126,-12.53878307
198,1.55965563493e+18,15.1752739,-47.13430786,-3.27159071
199,1.55965563499e+18,8.647920609,-11.82690144,-1.063907623
200,1.55965563505e+18,-1.779793739,4.186401844,-1.662975788
201,1.55965563511e+18,-3.964183092,2.802443504,-0.1044754982
202,1.55965563517e+18,0.6356754303,-7.010417938,1.874223232
203,1.55965563523e+18,7.027507782,-7.687770844,4.72913599
204,1.55965563529e+18,0.4150056839,-5.401556015,5.924744129
205,1.55965563535e+18,-6.632845879,-4.464705944,-3.424116611
206,1.55965563541e+18,-10.21383953,-2.047497034,-14.09899521
207,1.55965563547e+18,-10.43778706,1.855502605,-4.03958416
208,1.55965563553e+18,-15.83754158,-7.255661964,-10.74352264
209,1.55965563559e+18,6.605390549,-21.05705643,8.277975082
210,1.55965563565e+18,4.13540554,-25.98045349,2.887117863
211,1.55965563571e+18,3.053771019,-2.054538727,8.892349243
212,1.55965563577e+18,-2.085362911,10.48033524,9.487503052
213,1.55965563583e+18,-5.51019001,-0.06239366531,3.871501446
214,1.55965563589e+18,6.505477905,-17.63158607,1.653042436
215,1.55965563595e+18,3.284334183,-9.102567673,-0.2266790867
216,1.55965563601e+18,0.5284042358,-7.258856773,-5.640836716
217,1.55965563607e+18,-13.837677,0.5582649112,-6.768721581
218,1.55965563613e+18,5.757674217,-1.598619461,-9.381297112
219,1.55965563619e+18,-25.95444679,12.83106327,-13.59431076
220,1.55965563625e+18,1.746229172,-24.61674309,0.7650809288
221,1.55965563631e+18,8.266396523,-39.90584564,6.524665833
222,1.55965563637e+18,-3.740077496,-10.55021286,-4.213362694
223,1.55965563643e+18,-4.833266735,6.350973129,2.10946846
224,1.55965563649e+18,-1.432488918,5.34879446,4.67939043
225,1.55965563655e+18,-0.8524098396,-2.494316101,-0.6044932604
226,1.55965563661e+18,10.85852051,-10.02653885,-1.716725707
227,1.55965563667e+18,1.669697762,-7.058691025,-2.483896971
228,1.55965563673e+18,-6.045762062,-0.790430665,-1.628217816
229,1.55965563679e+18,-6.671823502,-4.01603651,4.162228584
230,1.55965563685e+18,-19.10799026,8.11898613,-7.034914017
231,1.55965563691e+18,-16.37204742,-1.714905024,-6.356084347
232,1.55965563697e+18,15.55043411,-31.29201508,6.962529182
233,1.55965563703e+18,-0.1577548981,-19.93118095,-4.090889454
234,1.55965563709e+18,1.529706001,-3.6772542,-3.007557869
235,1.55965563715e+18,-4.641526222,6.811680317,-0.6390523911
236,1.55965563721e+18,-1.735936642,-1.868793964,-1.180380583
237,1.55965563727e+18,10.04066563,-10.06916332,0.3164591789
238,1.55965563733e+18,-0.2991948128,-7.950024605,1.180193424
239,1.55965563739e+18,-3.745053291,0.2542601824,-2.710680008
240,1.55965563745e+18,-7.007187843,4.141138077,-2.900313139
241,1.55965563751e+18,-1.427686691,3.401101351,-2.839254379
242,1.55965563757e+18,-8.021603584,-5.028924942,-7.694499016
243,1.55965563763e+18,-12.13519192,-2.263631821,-7.894636154
244,1.55965563769e+18,2.592505455,-18.63984108,-0.3930711746
245,1.55965563775e+18,9.779447556,-16.76325417,1.172704697
246,1.55965563781e+18,2.824717999,1.479534626,1.392785788
247,1.55965563787e+18,-0.2791180611,6.318645477,0.5126717091
248,1.55965563793e+18,3.354502201,-4.300918579,1.880181074
249,1.55965563799e+18,7.554608822,-9.48459816,4.103901386
250,1.55965563805e+18,0.8470449448,-7.781386852,0.9670863152
251,1.55965563811e+18,-3.494822979,1.537956476,-5.944863319
252,1.55965563817e+18,-8.892620087,5.349180222,-12.34752178
253,1.55965563823e+18,-1.923707485,4.744986057,-7.016515732
254,1.55965563829e+18,-22.28565598,-0.958132565,-6.633428574
255,1.55965563835e+18,-2.564073563,-4.195325851,4.530571938
256,1.55965563841e+18,-2.104688883,-20.43787384,-2.344164848
257,1.55965563847e+18,2.355926275,-15.35198975,0.03920507431
258,1.55965563853e+18,9.348667145,12.45638275,-2.646972656
259,1.55965563859e+18,-1.544161081,2.197357655,-0.1229724884
260,1.55965563865e+18,9.563508034,-18.70243073,4.610063553
261,1.55965563871e+18,6.215892315,-7.000057697,2.41395092
262,1.55965563877e+18,-4.683907986,-3.150686264,-1.321877956
263,1.55965563883e+18,-7.105742931,0.3410805464,-11.09626865
264,1.55965563889e+18,-12.79506493,6.198488235,-11.108881
265,1.55965563895e+18,-22.63513756,11.16428375,-15.22546005
266,1.55965563901e+18,-11.33035183,-1.536822319,-7.809762955
267,1.55965563907e+18,4.770079613,-27.8958931,14.47494125
268,1.55965563913e+18,9.274238586,-8.667833328,2.082760334
269,1.55965563919e+18,5.649008274,4.0641222,5.098004341
270,1.55965563925e+18,-3.700283527,4.794193268,2.511661053
271,1.55965563931e+18,-1.230118752,-2.242903233,0.9369697571
272,1.55965563937e+18,3.277496815,-5.843613625,-0.2273011208
273,1.55965563943e+18,2.106907845,-2.437927246,2.92986846
274,1.55965563949e+18,-2.55407095,0.9060950279,-0.9425158501
275,1.55965563955e+18,-9.599123955,5.105965614,-6.778909683
276,1.55965563961e+18,10.42292404,-0.05855812132,7.534245491
277,1.55965563967e+18,-18.79986954,-0.3023166955,-11.16638565
278,1.55965563973e+18,-8.23738575,-3.158126831,1.760337353
279,1.55965563979e+18,8.543571472,-22.42155457,6.004602432
280,1.55965563985e+18,-5.603561401,-21.15647507,-1.417186022
281,1.55965563991e+18,9.406338692,12.64704704,6.452928543
282,1.55965563997e+18,-5.057109833,-2.880164146,-1.540023088
283,1.55965564003e+18,-1.660815239,-5.681939602,-0.4851632118
284,1.55965564009e+18,2.291162491,-5.04780817,3.560977936
285,1.55965564015e+18,1.136137009,4.310740471,7.780467987
286,1.55965564021e+18,-4.331612587,4.709896088,0.6239676476
287,1.55965564027e+18,-0.5236711502,0.9553315639,-5.107539654
288,1.55965564033e+18,-15.28525066,3.893718481,-12.07336235
289,1.55965564039e+18,-8.985674858,3.925040245,-9.596283913
290,1.55965564045e+18,1.651264429,-14.32486343,4.720529556
291,1.55965564051e+18,7.639898777,-18.05187607,10.19323349
292,1.55965564057e+18,1.586261272,-4.4498353,2.891168594
293,1.55965564063e+18,0.9628243446,4.429555893,3.666880369
294,1.55965564069e+18,3.413094997,2.797072411,1.889992714
295,1.55965564075e+18,2.878231049,-6.472801685,0.6941428185
296,1.55965564081e+18,0.5689592361,-2.935845852,1.827181816
297,1.55965564087e+18,-3.025578737,3.502358437,1.971512318
298,1.55965564093e+18,-5.850891113,0.9302890301,-2.116254807
299,1.55965564099e+18,-9.53008461,-3.637013912,-8.330007553
300,1.55965564105e+18,-17.35898972,6.220210552,-10.94484138
301,1.55965564111e+18,-6.654686928,0.005216836929,-11.11654282
302,1.55965564117e+18,8.455706596,-25.25839424,5.3387537
303,1.55965564123e+18,16.27207375,-14.33164406,1.113437176
304,1.55965564129e+18,0.4803738594,-6.976898193,-3.009323835
305,1.55965564135e+18,-4.297119141,0.6791467667,-3.845071554
306,1.55965564141e+18,4.018118382,1.191646814,-0.1361541748
307,1.55965564147e+18,6.029410839,3.370055676,4.556908607
308,1.55965564153e+18,0.9302997589,4.126288891,-1.969969273
309,1.55965564159e+18,-2.001760483,1.881573319,-6.132910728
310,1.55965564165e+18,0.370657444,-2.321886063,-6.96492815
311,1.55965564171e+18,-30.65089417,11.00780869,-22.98061562
312,1.55965564177e+18,-2.788337708,12.5507822,-16.43052101
313,1.55965564183e+18,9.824045181,-31.89666367,5.824308872
314,1.55965564189e+18,10.94272804,-11.84531212,-5.19700098
315,1.55965564195e+18,-2.808866978,-11.00067139,-3.726828575
316,1.55965564201e+18,-1.598848343,0.7299871445,3.997123003
317,1.55965564207e+18,1.539978981,2.280402422,6.509074211
318,1.55965564213e+18,6.779281616,-7.541277885,0.8742125034
319,1.55965564219e+18,3.077325821,-3.869102478,-4.391665459
320,1.55965564225e+18,2.005862236,-2.181268215,-6.568143845
321,1.55965564231e+18,-11.4120512,-0.4744865894,-2.409554005
322,1.55965564237e+18,-3.458642006,-1.840259552,1.168183327
323,1.55965564243e+18,-16.13475609,5.947751045,-16.31814766
324,1.55965564249e+18,0.3359851837,-14.45777702,-0.5807628632
325,1.55965564255e+18,17.35560608,-31.78552818,12.3743391
326,1.55965564261e+18,8.197932243,-11.23430729,-6.613440037
327,1.55965564267e+18,-9.053311348,2.945793629,-4.389579773
328,1.55965564273e+18,-8.820566177,-1.967876911,-9.087917328
329,1.55965564279e+18,4.800365925,-7.62651825,-2.878944635
330,1.55965564285e+18,4.805553436,-7.627644539,0.8151059151
331,1.55965564291e+18,13.06052208,4.412416935,21.56596756
332,1.55965564297e+18,-36.67360687,16.1354084,-24.4801693
333,1.55965564303e+18,-4.235742569,24.70296288,-6.7791996
334,1.55965564309e+18,1.381477356,-17.27662659,14.09564972
335,1.55965564315e+18,6.386407852,-30.65241814,-4.088619232
336,1.55965564321e+18,-10.06100178,-17.71774292,-10.35511494
337,1.55965564327e+18,-0.5619087219,-9.392501831,-2.164678574
338,1.55965564333e+18,-0.5973834991,3.770885229,2.291009426
339,1.55965564339e+18,3.439583302,-1.137728453,3.140735149
340,1.55965564345e+18,-1.850601673,-12.88699436,1.881539822
341,1.55965564351e+18,-6.282163143,-8.653636932,1.278231144
342,1.55965564357e+18,-7.803704262,-6.150083542,-5.868329525
343,1.55965564363e+18,-5.895387173,7.237071991,-13.59054089
344,1.55965564369e+18,-7.098824501,5.762390137,-11.50465012
345,1.55965564375e+18,-16.07576752,4.377142906,-7.228009224
346,1.55965564381e+18,-7.42795229,-11.9963274,-7.128474236
347,1.55965564387e+18,9.914319992,-42.19227219,5.553164959
348,1.55965564393e+18,-1.712639809,-8.45475769,1.209310532
349,1.55965564399e+18,-0.9544401169,5.031457901,5.469149113
350,1.55965564405e+18,-3.411542892,-1.727254868,2.452599525
351,1.55965564411e+18,-3.090193272,-8.370958328,4.045181274
352,1.55965564417e+18,1.157580376,-6.503532887,2.93983078
353,1.55965564423e+18,-1.109070778,-1.561357975,-0.7793784142
354,1.55965564429e+18,-2.452808857,9.582116127,-6.596395969
355,1.55965564435e+18,-10.55036354,9.519300461,-3.750685453
356,1.55965564441e+18,13.42243004,-2.80432415,9.835018158
357,1.55965564447e+18,-16.94213104,-5.930704594,-10.1093483
358,1.55965564453e+18,5.225273132,-21.57784081,11.48180485
359,1.55965564459e+18,-8.7566576,-22.38716698,-1.781313896
360,1.55965564465e+18,5.393706799,4.042730331,3.340319157
361,1.55965564471e+18,-3.050005913,10.07235718,2.147058487
362,1.55965564477e+18,2.027395725,-5.419846058,2.816465378
363,1.55965564483e+18,5.796966553,-8.438000679,0.8715586662
364,1.55965564489e+18,1.528389931,-8.06109333,-5.283267975
365,1.55965564495e+18,-5.82065773,-3.894467592,-11.05976677
366,1.55965564501e+18,-10.36470413,3.442118406,-11.38426399
367,1.55965564507e+18,-15.29292393,7.088023663,-1.850866795
368,1.55965564513e+18,-26.14201355,-7.096511841,1.60051918
369,1.55965564519e+18,-5.087794304,-21.27835846,4.619680882
370,1.55965564525e+18,1.723892689,-26.9021759,-4.222210884
371,1.55965564531e+18,-0.4827551842,2.820628166,-0.4795825481
372,1.55965564537e+18,-4.009527206,5.716573715,1.002560019
373,1.55965564543e+18,-0.7409543991,-1.876331329,4.306376934
374,1.55965564549e+18,6.340327263,-10.38447571,2.066866159
375,1.55965564555e+18,-0.3386993408,-7.219112396,0.1523094177
376,1.55965564561e+18,-3.700568676,-0.6196775436,-0.6137197018
377,1.55965564567e+18,-10.26309872,10.07607365,-5.460330486
378,1.55965564573e+18,11.95081234,5.263502598,9.805203438
379,1.55965564579e+18,-23.7395668,5.450261116,-14.41417789
380,1.55965564585e+18,-6.658460617,-12.24056625,4.640563965
381,1.55965564591e+18,19.20490265,-36.73888016,-9.159193993
382,1.55965564597e+18,4.911788464,-4.983561993,-1.216153026
383,1.55965564603e+18,2.337020397,7.383590698,0.6350051165
384,1.55965564609e+18,-6.445245266,3.497869253,-4.653137207
385,1.55965564615e+18,-4.412304878,-7.999619961,-1.054386139
386,1.55965564621e+18,2.374330521,-8.447541237,1.33054018
387,1.55965564627e+18,2.918043613,-3.594008207,4.414706707
388,1.55965564633e+18,-2.009290695,8.212881088,-1.237579346
389,1.55965564639e+18,-12.30864143,7.063687325,-7.029258251
390,1.55965564645e+18,16.25946045,-15.87873268,-11.36482334
391,1.55965564651e+18,-26.75901604,3.378644466,-14.12227821
392,1.55965564657e+18,-4.671759605,-14.10641861,4.825380802
393,1.55965564663e+18,11.63836098,-32.31368637,2.678647041
394,1.55965564669e+18,2.656419754,1.936758995,-1.742076874
395,1.55965564675e+18,-6.934739113,1.807934284,-7.145693302
396,1.55965564681e+18,-5.785850048,-5.007117271,-4.508388042
397,1.55965564687e+18,4.894555092,-8.644809723,-0.6466650963
398,1.55965564693e+18,2.51333046,-2.589459896,-1.278504848
399,1.55965564699e+18,-4.985972404,11.51067734,-3.463474274
400,1.55965564705e+18,-14.49637508,31.13073158,5.321780682
401,1.55965564711e+18,-6.37612915,8.307296753,1.125092506
402,1.55965564717e+18,-4.672015667,-14.39600372,-5.128138065
403,1.55965564723e+18,3.993884087,-18.78379631,-4.05427599
404,1.55965564729e+18,-6.34594965,-11.4571476,-2.597053766
405,1.55965564735e+18,-1.23412323,-5.227925301,0.03154659271
406,1.55965564741e+18,-1.902998447,5.797697067,2.678063393
407,1.55965564747e+18,-1.753937721,-8.693695068,4.795569897
408,1.55965564753e+18,-2.193708897,-4.982272148,-1.426244259
409,1.55965564759e+18,-1.896504879,-0.8819570541,-2.841145515
410,1.55965564765e+18,5.061965466,-2.230683327,-0.4525957108
411,1.55965564771e+18,-10.14384079,-1.516744137,-12.50191498
412,1.55965564777e+18,-9.894983292,-2.861854792,-11.81995487
413,1.55965564783e+18,-10.40939331,-6.039093494,-11.26384544
414,1.55965564789e+18,3.361268997,-23.95082283,8.292165756
415,1.55965564795e+18,9.091588974,-19.76705551,2.936890602
416,1.55965564801e+18,7.159417152,1.073101044,4.562680721
417,1.55965564807e+18,0.2874147892,8.495931625,3.741161823
418,1.55965564813e+18,3.111249447,-3.94230032,1.944767952
419,1.55965564819e+18,3.483196259,-0.9412229061,-0.848233223
420,1.55965564825e+18,7.425704002,5.308109283,1.613442898
421,1.55965564831e+18,-0.2109622955,2.732586384,-4.53258419
422,1.55965564837e+18,-6.216296673,3.090696812,-5.372344017
423,1.55965564843e+18,-2.966304302,0.4524354935,-8.219114304
424,1.55965564849e+18,-3.854795933,-10.28179455,-3.346353531
425,1.55965564855e+18,-16.86120796,-6.520465851,-18.10621643
426,1.55965564861e+18,5.047533989,-13.98461914,-0.7651910782
427,1.55965564867e+18,4.978015423,-22.81660843,-1.597487926
428,1.55965564873e+18,18.4828949,1.729832649,4.080935955
429,1.55965564879e+18,5.80493927,6.126351833,2.269208431
430,1.55965564885e+18,5.817440033,-3.550478935,3.513672352
431,1.55965564891e+18,5.511057377,-3.401680231,5.389081001
432,1.55965564897e+18,3.686184883,4.023625851,2.798021317
433,1.55965564903e+18,0.2730517387,2.606344223,-2.559205055
434,1.55965564909e+18,-5.850418568,-1.278667927,-3.395036221
435,1.55965564915e+18,2.346913815,-9.729537964,1.745116234
436,1.55965564921e+18,-17.99565887,3.3998487,-19.39279556
437,1.55965564927e+18,-1.663387299,-0.009634912014,-1.883207798
438,1.55965564933e+18,3.194728136,-19.86927986,-5.897332668
439,1.55965564939e+18,15.38618469,-17.61019325,2.348762512
440,1.55965564945e+18,4.641685009,0.7656855583,-1.007456303
441,1.55965564951e+18,4.20493269,0.4579062462,-3.529684782
442,1.55965564957e+18,5.236926079,-4.577870846,0.9109454155
443,1.55965564963e+18,8.556602478,-5.620096684,-1.037955761
444,1.55965564969e+18,-0.2825231552,-3.079343319,-5.346752167
445,1.55965564975e+18,-11.96362877,-1.214193821,-10.78647232
446,1.55965564981e+18,-22.47626877,14.7286787,-20.09730148
447,1.55965564987e+18,2.020772457,-1.486197472,0.3727798462
448,1.55965564993e+18,3.686952829,-22.8156414,-5.623984814
449,1.55965564999e+18,6.921854496,-15.76404572,-3.81669426
450,1.55965565005e+18,2.355117083,-11.9167881,-6.658094883
451,1.55965565011e+18,0.5008282661,-4.671360493,-4.246446609
452,1.55965565017e+18,0.8151369095,6.253410339,1.091678619
453,1.55965565023e+18,1.608290195,-1.120860577,1.123335838
454,1.55965565029e+18,4.748068333,-4.821914673,3.926905155
455,1.55965565035e+18,5.432032585,-2.734827518,1.263380051
456,1.55965565041e+18,-2.035919666,-2.832383394,-8.731969833
457,1.55965565047e+18,-9.501391411,-0.614734292,-11.19812775
458,1.55965565053e+18,-10.4598217,1.319990993,-8.749148369
459,1.55965565059e+18,-9.889426231,3.510207653,-6.098365784
460,1.55965565065e+18,21.66167831,-6.534183025,-2.564406395
461,1.55965565071e+18,-4.331970215,-21.29764557,-3.698065281
462,1.55965565077e+18,7.042949677,-17.77892303,-4.341520309
463,1.55965565083e+18,-1.289053321,3.073008537,-2.391733885
464,1.55965565089e+18,1.44509697,4.946531773,2.594425201
465,1.55965565095e+18,0.06733322144,-4.150966167,4.471488476
466,1.55965565101e+18,9.615650177,-5.560825348,1.339615345
467,1.55965565107e+18,2.50180912,-3.392655373,0.7263202667
468,1.55965565113e+18,-4.313499928,1.08221364,-2.103014708
469,1.55965565119e+18,-10.31159592,0.1004896164,-6.749500275
470,1.55965565125e+18,4.009062767,-2.964701176,-0.5673725605
471,1.55965565131e+18,-10.23010921,-0.8441171646,-8.343473434
472,1.55965565137e+18,-5.532074928,-4.704839706,-6.834414482
473,1.55965565143e+18,0.8271474838,-13.03941536,4.303137302
474,1.55965565149e+18,9.067489624,-7.577105522,-2.681255341
475,1.55965565155e+18,3.222331047,2.080324173,-4.362854004
476,1.55965565161e+18,2.280495167,3.278908253,0.9105370045
477,1.55965565167e+18,8.857458115,-19.72799683,0.09123516083
478,1.55965565173e+18,6.557590961,-7.335157394,-0.1550154686
479,1.55965565179e+18,1.174232483,-0.8186254501,1.325549126
480,1.55965565185e+18,-5.27824688,6.077407837,-4.162605762
481,1.55965565191e+18,-8.75434494,8.472732544,-10.56598663
482,1.55965565197e+18,-6.928239822,1.697915792,-8.713994026
483,1.55965565203e+18,26.91451836,4.859253883,-9.193446159
484,1.55965565209e+18,-16.40250015,0.4465821385,-5.380195141
485,1.55965565215e+18,5.167645454,-21.21254349,-1.888478279
486,1.55965565221e+18,11.6486702,6.338625908,2.556777
487,1.55965565227e+18,1.939796209,1.109148026,-0.162258625
488,1.55965565233e+18,1.354995251,-8.083190918,3.384746075
489,1.55965565239e+18,6.369239807,-8.804592133,2.477705002
490,1.55965565245e+18,0.6563806534,-4.644089222,-1.400946379
491,1.55965565251e+18,-1.704589367,1.024048805,-4.058998108
492,1.55965565257e+18,-9.808458328,11.0226593,-5.447398663
493,1.55965565263e+18,-0.2683830261,-2.484629393,8.751189232
494,1.55965565269e+18,-21.48244095,12.77533531,-12.16191483
495,1.55965565275e+18,-0.8457736969,-13.09965801,-4.514239311
496,1.55965565281e+18,17.69939804,-27.77508926,1.808574677
497,1.55965565287e+18,9.936146736,0.1112623215,-2.936704636
498,1.55965565293e+18,-0.6776371002,6.503775597,-1.051928759
499,1.55965565299e+18,-1.41434598,3.316502094,1.179314137
500,1.55965565305e+18,1.692142487,-11.64859295,-3.035122395
501,1.55965565311e+18,8.0840168,-9.929533958,3.180686951
502,1.55965565317e+18,-4.308738232,-1.80265069,3.468595982
503,1.55965565323e+18,-9.903632164,5.592543602,-9.300533295
504,1.55965565329e+18,15.3977108,-1.768826008,-5.21981144
505,1.55965565335e+18,-15.69678974,1.906959414,-7.474890232
506,1.55965565341e+18,-11.01903629,-1.638283968,-3.257899284
507,1.55965565347e+18,13.9909544,-16.66165161,4.121275902
508,1.55965565353e+18,4.776782036,-16.90190887,0.243530035
509,1.55965565359e+18,2.347090483,11.36223698,1.444288492
510,1.55965565365e+18,-1.812848568,-1.793954372,2.155004025
511,1.55965565371e+18,-1.90723896,-12.23586655,-2.025178909
512,1.55965565377e+18,3.197754383,-3.761611938,2.798663855
513,1.55965565383e+18,2.869648933,-1.543040037,-4.238942623
514,1.55965565389e+18,-7.596245766,2.863509178,-5.598129272
515,1.55965565395e+18,-14.61496162,8.235156059,24.9005127
516,1.55965565401e+18,-14.29134941,37.34161377,-21.54322433
517,1.55965565407e+18,-0.5213108063,-18.83859253,2.662672997
518,1.55965565413e+18,17.07674217,-29.16854095,4.057451725
519,1.55965565419e+18,-7.108876228,-9.858922958,-10.80436897
520,1.55965565425e+18,-0.6391832829,2.35465765,-1.462750912
521,1.55965565431e+18,-1.114444017,8.630653381,3.598367214
522,1.55965565437e+18,-0.3578882217,-0.5125546455,4.842695236
523,1.55965565443e+18,6.34479332,-2.855437756,0.6140980721
524,1.55965565449e+18,6.883559227,-5.128197193,-5.979636192
525,1.55965565455e+18,-1.431156635,1.244011164,-7.509176731
526,1.55965565461e+18,-7.071668625,2.099659681,-6.431020737
527,1.55965565467e+18,-11.73219681,0.9779597521,-8.678863525
528,1.55965565473e+18,-10.29060936,0.4986299276,-5.276008129
529,1.55965565479e+18,19.63115311,-9.49068737,12.92814636
530,1.55965565485e+18,-3.773130417,-5.924041748,-2.094747543
531,1.55965565491e+18,3.004304409,-11.92647457,-1.756346703
532,1.55965565497e+18,-0.5328602791,8.003615379,1.141017437
533,1.55965565503e+18,-0.1553359032,0.3269109726,4.870301247
534,1.55965565509e+18,-0.5632147789,-14.88632011,-0.5970020294
535,1.55965565515e+18,7.352948189,-6.322792053,4.643455505
536,1.55965565521e+18,1.120807171,-2.089072943,3.659671307
537,1.55965565527e+18,0.5475816727,7.840506554,1.447961807
538,1.55965565533e+18,-5.433359146,7.216627598,-7.968252182
539,1.55965565539e+18,-5.82704258,-4.428580284,-18.33856773
540,1.55965565545e+18,-2.381634235,-8.472698212,2.89574337
541,1.55965565551e+18,-17.10613251,-0.9992744923,-8.961744308
542,1.55965565557e+18,11.05474281,-19.70898056,13.91861057
543,1.55965565563e+18,8.868350983,-6.714382648,1.54082346
544,1.55965565569e+18,-7.33240509,6.373685837,1.941945791
545,1.55965565575e+18,-1.263659954,-1.009583473,4.438727856
546,1.55965565581e+18,4.559859276,-8.236637115,3.576350689
547,1.55965565587e+18,5.217287064,-9.180240631,6.439643383
548,1.55965565593e+18,-3.61867857,-0.1064741611,3.172185183
549,1.55965565599e+18,-4.01322937,10.895504,0.3891479969
550,1.55965565605e+18,-5.914070606,8.473757744,-14.77289295
551,1.55965565611e+18,-14.70133114,9.244433403,-20.24941826
552,1.55965565617e+18,-0.6899852753,1.828569174,-10.27499962
553,1.55965565623e+18,5.102605343,-4.01322937,-6.830430984
554,1.55965565629e+18,7.025789261,-25.19093132,6.558312893
555,1.55965565635e+18,0.6206650734,-8.659189224,-10.21603775
556,1.55965565641e+18,-3.948492289,0.1721167564,-2.54418087
557,1.55965565647e+18,-2.899810314,-5.661705971,0.374666214
558,1.55965565653e+18,-0.8652896881,-7.162005424,-0.8134727478
559,1.55965565659e+18,2.056645393,-1.350590944,2.395999908
560,1.55965565665e+18,4.977976799,1.745212793,-2.072569132
561,1.55965565671e+18,2.604127884,2.832758665,-7.488884449
562,1.55965565677e+18,-3.623297215,4.398705006,-9.017782211
563,1.55965565683e+18,-15.68445396,14.20703506,-3.091856956
564,1.55965565689e+18,-14.352005,10.77966595,-15.06286144
565,1.55965565695e+18,8.995499611,-17.01930428,5.399713516
566,1.55965565701e+18,3.133052349,-36.95395279,-9.294118881
567,1.55965565707e+18,6.742582321,-6.064101696,-0.8039197922
568,1.55965565713e+18,-4.970323563,2.049104214,0.6835551262
569,1.55965565719e+18,-5.068112373,-3.109005928,0.8926180601
570,1.55965565725e+18,1.160971642,-7.178267479,-2.609488487
571,1.55965565731e+18,14.12078381,-2.486400843,-4.633199692
572,1.55965565737e+18,0.1291179657,6.333375931,-3.852651834
573,1.55965565743e+18,-7.823273659,3.725308895,-3.380387306
574,1.55965565749e+18,-13.09573269,5.637420654,-7.039418221
575,1.55965565755e+18,-7.802717686,-11.54417229,15.62616539
576,1.55965565761e+18,-12.32152462,-0.8557394743,-12.07841682
577,1.55965565767e+18,8.196766853,-29.91814804,2.67628336
578,1.55965565773e+18,-0.8103804588,-18.35938072,-7.603655815
579,1.55965565779e+18,3.630711079,-0.6470317841,-0.5277202129
580,1.55965565785e+18,0.5915403366,8.96768856,2.871136904
581,1.55965565791e+18,0.7162208557,-1.912276745,0.8054311275
582,1.55965565797e+18,4.616211414,-12.12978077,-3.783891439
583,1.55965565803e+18,0.02993297577,-8.822191238,-3.277922392
584,1.55965565809e+18,1.996287823,0.5950778723,-1.601583958
585,1.55965565815e+18,-1.126177788,8.483805656,-7.89383173
586,1.55965565821e+18,-12.22144318,1.271039367,-8.569832802
587,1.55965565827e+18,-2.680787086,9.583889961,-16.38202858
588,1.55965565833e+18,0.2287631035,-7.418598652,-7.673956871
589,1.55965565839e+18,15.30866241,-34.6507988,-3.971416712
590,1.55965565845e+18,8.2954216,-8.376018524,-4.882445812
591,1.55965565851e+18,-0.02764749527,4.215419292,-1.088368893
592,1.55965565857e+18,-3.503421307,1.214613914,-2.528513193
593,1.55965565863e+18,-0.6576967239,-5.518470764,-0.9894199371
594,1.55965565869e+18,4.043694973,-4.739747047,1.393331051
595,1.55965565875e+18,0.7556891441,1.605734825,-3.247163773
596,1.55965565881e+18,1.295349598,2.926501274,-2.169524193
597,1.55965565887e+18,-10.45910072,10.09803295,-11.31050491
598,1.55965565893e+18,4.084645271,7.40409565,-18.39139938
599,1.55965565899e+18,-0.2041130066,-11.23967266,-10.64351082
600,1.55965565905e+18,7.370604038,-28.00434494,-0.3158845901
601,1.55965565911e+18,4.193955421,-13.57684708,-2.819269657
602,1.55965565917e+18,-1.518791199,2.454946518,0.1706786156
603,1.55965565923e+18,-0.3917803764,4.809158325,3.534544945
604,1.55965565929e+18,0.4022531509,-4.608699322,4.481426239
605,1.55965565935e+18,8.526272774,-10.98714828,3.146999359
606,1.55965565941e+18,0.2798147202,-7.264482975,-1.492285728
607,1.55965565947e+18,-3.927113533,1.269566536,-4.792234421
608,1.55965565953e+18,-7.187844753,3.855685711,-4.31187582
609,1.55965565959e+18,-10.29925156,0.1893000603,-11.86658859
610,1.55965565965e+18,1.149181366,-12.5315094,-1.79390049
611,1.55965565971e+18,-9.154423714,8.950499535,1.955164433
612,1.55965565977e+18,5.099950314,-22.58839989,-0.0009737014771
613,1.55965565983e+18,1.871312618,-4.554268837,3.206302643
614,1.55965565989e+18,0.00955915451,5.019418716,0.7774169445
615,1.55965565995e+18,-1.42291069,2.918409824,4.492193222
616,1.55965566001e+18,9.72147274,-11.82943439,4.854025841
617,1.55965566007e+18,4.734335899,-9.784837723,-0.8952496052
618,1.55965566013e+18,-3.938685894,-0.05121707916,-5.357676029
619,1.55965566019e+18,-5.043598175,7.001977921,-11.37862968
620,1.55965566025e+18,-10.61848545,4.93477869,-6.663951874
621,1.55965566031e+18,-4.681082249,-0.0966630429,3.818957329
622,1.55965566037e+18,-8.064034462,-12.97628498,0.1787424088
623,1.55965566043e+18,-6.508953094,-8.71267128,2.464846611
624,1.55965566049e+18,1.163999081,-16.04585266,-4.720710754
625,1.55965566055e+18,2.078812599,4.365359306,0.7620551586
626,1.55965566061e+18,-1.044252157,1.725986004,-0.9066510201
627,1.55965566067e+18,4.915390968,-14.15662766,-2.088081598
628,1.55965566073e+18,6.992854118,-8.750851631,1.106056452
629,1.55965566079e+18,1.182647705,-1.11172843,1.931053162
630,1.55965566085e+18,-6.663349152,6.160246372,-2.82118392
631,1.55965566091e+18,-14.31449509,7.233822823,-11.31200218
632,1.55965566097e+18,-2.401783943,2.115189314,-1.886978626
633,1.55965566103e+18,-0.1068763733,-18.34307098,13.29523087
634,1.55965566109e+18,-12.69691563,9.61403656,-3.155214548
635,1.55965566115e+18,9.493860245,-27.40736771,-0.04122066498
636,1.55965566121e+18,6.951388359,-0.1731367111,1.209141254
637,1.55965566127e+18,-4.620418072,2.813397884,-2.647648096
638,1.55965566133e+18,0.8523387909,1.541222572,6.219968796
639,1.55965566139e+18,4.272996902,-6.698972225,3.426225662
640,1.55965566145e+18,2.177110672,-6.183981419,-0.3473958969
641,1.55965566151e+18,-5.636972904,0.5054900646,-0.6734580994
642,1.55965566157e+18,-8.184797287,10.33305836,-10.10388088
643,1.55965566163e+18,-0.8762836456,9.630033493,-3.126758814
644,1.55965566169e+18,-1.800423145,-4.276452541,-1.548175931
645,1.55965566175e+18,6.310315132,-7.774852753,-4.884821892
646,1.55965566181e+18,-3.737361431,-10.36341953,1.566873074
647,1.55965566187e+18,2.247719765,-13.73472023,-3.511142254
648,1.55965566193e+18,0.9624097347,11.98343277,2.000880957
649,1.55965566199e+18,0.8130455017,5.458082199,2.087086439
650,1.55965566205e+18,5.152058125,-7.743841171,3.339436054
651,1.55965566211e+18,9.830613136,-7.875189781,2.327287197
652,1.55965566217e+18,1.409550667,-1.008492947,1.071231604
653,1.55965566223e+18,-7.03252697,3.07700038,2.227331161
654,1.55965566229e+18,-16.54732323,4.287024498,-4.145638943
655,1.55965566235e+18,-8.728445053,2.062695265,-0.5325977802
656,1.55965566241e+18,-0.6623716354,-6.255629539,-8.128913879
657,1.55965566247e+18,0.152015686,-9.303803444,-2.396400452
658,1.55965566253e+18,-5.526832581,-8.597795486,-6.735321999
659,1.55965566259e+18,4.85626936,-2.362736225,7.121294975
660,1.55965566265e+18,-4.632873058,2.029274464,3.766051292
661,1.55965566271e+18,-0.8996891975,3.847774744,5.495223045
662,1.55965566277e+18,7.536756516,-21.87226868,5.459153652
663,1.55965566282e+18,7.634252548,-3.482969761,3.918232918
664,1.55965566288e+18,4.128632545,-1.176633358,-1.618713498
665,1.55965566294e+18,-4.921747208,3.812397003,-2.390151978
666,1.559655663e+18,-13.68100357,10.66902447,-7.580272675
667,1.55965566306e+18,-9.493906021,6.351612568,-9.812846184
668,1.55965566312e+18,-9.073820114,-3.0607903,-1.901779175
669,1.55965566318e+18,19.13884735,-52.21669006,8.771809578
670,1.55965566324e+18,7.746166229,-9.694619179,5.553794384
671,1.5596556633e+18,-23.57743835,-20.1541481,0.7703678608
672,1.55965566336e+18,-2.297421455,10.28655148,-0.0445959568
673,1.55965566342e+18,-4.111214161,-6.937496662,0.4416928291
674,1.55965566348e+18,-1.853358269,-11.33730125,-2.065950394
675,1.55965566354e+18,4.971500397,-8.300033569,6.092577934
676,1.5596556636e+18,3.439304352,3.585942268,0.4817075729
677,1.55965566366e+18,0.7363204956,4.983812332,-3.073172092
678,1.55965566372e+18,-8.520094872,6.743897915,-9.498046875
679,1.55965566378e+18,-6.392816544,6.900231361,-9.467630386
680,1.55965566384e+18,-13.86928558,3.797700405,-10.60586929
681,1.5596556639e+18,5.81546402,-33.49590302,-10.46446419
682,1.55965566396e+18,3.15800333,-19.8264904,0.9285993576
683,1.55965566402e+18,3.840206623,-3.710556507,8.46270752
684,1.55965566408e+18,6.773555756,5.096969128,11.09095669
685,1.55965566414e+18,2.506987572,-1.035414696,-0.4476971626
686,1.5596556642e+18,1.34999752,-4.701310635,-10.5194931
687,1.55965566426e+18,0.4584550858,-5.453736782,-4.670166969
688,1.55965566432e+18,1.690496445,-5.654619217,-5.565880775
689,1.55965566438e+18,8.632586479,-4.084179878,1.577451229
690,1.55965566444e+18,-9.415801048,0.2087227702,-20.3337822
691,1.5596556645e+18,-7.545142174,-2.761223078,-12.12531662
692,1.55965566456e+18,-7.024136066,-2.51582098,-13.13706589
693,1.55965566462e+18,12.2978754,-11.81377125,4.041400433
694,1.55965566468e+18,6.641515732,-20.51442528,8.998603821
695,1.55965566474e+18,0.06240272522,-4.655927658,-2.671411037
696,1.5596556648e+18,-6.37361145,2.38210392,3.956349134
697,1.55965566486e+18,3.340610504,-5.759244919,6.758778572
698,1.55965566492e+18,5.509297371,-6.404335499,-1.817031264
699,1.55965566498e+18,-2.345868587,2.313625336,1.450563192
700,1.55965566504e+18,-2.818291187,-5.024084091,-11.81004715
701,1.5596556651e+18,-6.811227798,6.899499893,-18.99526024
702,1.55965566516e+18,-19.06012726,30.03884888,-6.547170162
703,1.55965566522e+18,-14.17071724,6.001711845,-1.743579865
704,1.55965566528e+18,12.99862194,-40.68959427,-6.22466898
705,1.55965566534e+18,-6.159638405,-18.16235542,-3.985655308
706,1.5596556654e+18,3.309565544,-8.337808609,0.09167122841
707,1.55965566546e+18,-3.655516624,1.125202179,-0.2723722458
708,1.55965566552e+18,-0.508471489,1.877893209,4.304154396
709,1.55965566558e+18,0.9629545212,-5.071798801,3.180422783
710,1.55965566564e+18,2.524881363,-2.687208176,-0.7124876976
711,1.5596556657e+18,0.05710601807,-3.136349678,-6.749556065
712,1.55965566576e+18,-3.850995302,-1.033149362,-10.48450089
713,1.55965566582e+18,-11.26512909,4.059057236,-10.59383488
714,1.55965566588e+18,-5.518567085,-7.298072815,13.98983479
715,1.55965566594e+18,-10.92427158,7.210302353,-8.63980484
716,1.559655666e+18,13.18726254,-37.54524994,-1.080626965
717,1.55965566606e+18,7.015956402,-9.288805008,-3.199177742
718,1.55965566612e+18,-0.6497106552,-2.353874683,-4.843314171
719,1.55965566618e+18,-4.564015865,-0.9900360107,-4.265583992
720,1.55965566624e+18,-1.054929733,-2.778808594,2.003763676
721,1.5596556663e+18,6.202434063,-1.859534979,4.433644772
722,1.55965566636e+18,4.290795803,1.501029491,-2.507254601
723,1.55965566642e+18,-9.881895065,3.265367508,-3.603423834
724,1.55965566648e+18,-27.9160614,26.59547997,-21.73052979
725,1.55965566654e+18,-6.863053799,4.703799725,-5.965516567
726,1.5596556666e+18,11.86899471,-23.23436737,-1.358832359
727,1.55965566666e+18,8.413478851,-23.82031631,0.155154705
728,1.55965566672e+18,2.273636818,-7.326881886,-4.425729752
729,1.55965566678e+18,0.7106232643,7.007257462,0.9856333733
730,1.55965566684e+18,0.4566483498,4.093550682,0.6654887199
731,1.5596556669e+18,-0.8184814453,-3.946715117,2.829293728
732,1.55965566696e+18,-2.598375082,-7.355265617,1.946815014
733,1.55965566702e+18,2.690793514,-11.90220547,-5.169409275
734,1.55965566708e+18,-11.52146721,2.570896149,-9.906788826
735,1.55965566714e+18,-23.31888771,23.62820816,-18.62075806
736,1.5596556672e+18,9.217654228,-20.18060684,8.74037838
737,1.55965566726e+18,5.760366917,-20.11271286,-5.258537292
738,1.55965566732e+18,-6.223635674,-19.96227264,-2.01600647
739,1.55965566738e+18,-5.964691162,-4.623503685,-4.460157871
740,1.55965566744e+18,-1.330451488,6.043532372,2.795698166
741,1.5596556675e+18,0.02046775818,6.057782173,0.7358951569
742,1.55965566756e+18,-0.9077863693,-6.228654385,-8.059925079
743,1.55965566762e+18,0.2701883316,-18.73858261,-7.970358849
744,1.55965566768e+18,-17.69562912,17.93314171,-18.77627182
745,1.55965566774e+18,-4.602498531,6.434375286,22.45914268
746,1.5596556678e+18,-13.76157188,1.554821253,1.311349154
747,1.55965566786e+18,14.45178509,-17.96021843,3.872906446
748,1.55965566792e+18,-3.717838764,-19.70569992,-1.571465731
749,1.55965566798e+18,-0.1052932739,-9.148594856,-5.914664268
750,1.55965566804e+18,-0.4470357895,-1.141343355,0.4400173426
751,1.5596556681e+18,-4.856104374,3.926389217,0.7800073624
752,1.55965566816e+18,-7.353351593,-0.9890871048,-2.752971649
753,1.55965566822e+18,-5.167491436,-4.780237675,-2.101103783
754,1.55965566828e+18,-2.012559414,3.683930635,0.6797825098
755,1.55965566834e+18,3.189404488,6.762512684,2.998692513
756,1.5596556684e+18,-0.8531894684,1.017408967,3.147388935
757,1.55965566846e+18,-14.58792305,4.318127155,-3.697199345
758,1.55965566852e+18,-1.188933372,-26.93748856,-3.796670437
759,1.55965566857e+18,2.873917103,-11.92966461,-9.860391617
760,1.55965566863e+18,-1.618098497,-6.627537251,-2.749633789
761,1.55965566869e+18,0.7962660789,5.731659889,4.297478199
762,1.55965566875e+18,1.93566227,4.489238739,1.411189079
763,1.55965566881e+18,1.033676147,-7.551268578,0.3887135983
764,1.55965566887e+18,-0.3607778549,-5.911413193,-2.543507338
765,1.55965566893e+18,1.705545425,-4.31507206,-1.927591801
766,1.55965566899e+18,-4.723660469,1.817293644,-2.388234377
767,1.55965566905e+18,-10.87464905,7.454826355,-3.893693447
768,1.55965566911e+18,-5.734850883,7.094620705,-1.87752378
769,1.55965566917e+18,2.185667038,-17.81783867,2.947432041
770,1.55965566923e+18,-2.068493843,-7.693655968,-1.567220211
771,1.55965566929e+18,1.878149033,-33.69368744,-3.890786648
772,1.55965566935e+18,-0.746052742,2.165041924,-4.282292366
773,1.55965566941e+18,-4.152916908,2.065274239,-2.264513731
774,1.55965566947e+18,-4.691337109,2.09702301,2.236651897
775,1.55965566953e+18,2.534246922,-10.95071507,-0.9877707958
776,1.55965566959e+18,6.388099194,-6.004294872,3.725258112
777,1.55965566965e+18,3.889520645,5.496986389,1.905855417
778,1.55965566971e+18,-8.83033371,11.42534065,-0.8934640884
779,1.55965566977e+18,10.48243904,-0.7371717691,1.306058764
780,1.55965566983e+18,-19.69177818,3.057110548,-6.378832817
781,1.55965566989e+18,-8.173396111,-7.070837975,-2.337580919
782,1.55965566995e+18,9.413507462,-28.31104279,-2.802479029
783,1.55965567001e+18,2.242602348,-14.28351593,-3.277981281
784,1.55965567007e+18,2.511562586,10.43958569,9.073271751
785,1.55965567013e+18,-0.07343196869,4.296849251,7.524289131
786,1.55965567019e+18,1.522782803,-3.063691616,2.544325352
787,1.55965567025e+18,7.513310432,-8.872564316,4.815440178
788,1.55965567031e+18,-1.269258499,-5.785512447,0.6374881268
789,1.55965567037e+18,-5.225533962,-0.5928466916,-3.375104189
790,1.55965567043e+18,-11.33621693,7.123932838,-3.90211916
791,1.55965567049e+18,-9.93144989,1.575803757,-0.1164472103
792,1.55965567055e+18,-5.427169323,-2.021277428,-10.44992638
793,1.55965567061e+18,32.41165161,-10.65847683,-1.96729219
794,1.55965567067e+18,-14.24273682,-18.62625313,-5.083674908
795,1.55965567073e+18,11.1455307,-10.02070045,-0.09812569618
796,1.55965567079e+18,-5.741087437,7.16443634,2.214091539
797,1.55965567085e+18,-6.070550919,-3.11772871,6.408749104
798,1.55965567091e+18,-4.187402248,-9.217972755,-0.5988879204
799,1.55965567097e+18,9.897592545,-4.503566265,7.710539818
800,1.55965567103e+18,6.658701897,2.423312902,-6.618195534
801,1.55965567109e+18,-2.757849693,6.130727291,-11.39169312
802,1.55965567115e+18,-5.295018673,11.21635151,-6.052540302
803,1.55965567121e+18,1.615394592,-7.210382938,8.173742294
804,1.55965567127e+18,-12.08120155,1.962314844,-7.09301281
805,1.55965567133e+18,-3.906030178,-22.06854439,2.717750549
806,1.55965567139e+18,8.672865868,-20.62492752,2.314223289
807,1.55965567145e+18,-9.072372437,-0.4737243652,-3.391928196
808,1.55965567151e+18,7.629667759,15.01732254,7.573317528
809,1.55965567157e+18,2.65366888,-0.9905843735,7.973884583
810,1.55965567163e+18,8.154881477,-17.64595032,1.873977661
811,1.55965567169e+18,-2.057429314,-10.49224186,-0.7647652626
812,1.55965567175e+18,-4.856892109,-4.446181774,-2.951782465
813,1.55965567181e+18,-7.279303074,1.433722377,-6.375339031
814,1.55965567187e+18,-6.947871208,-7.179916859,-9.221155167
815,1.55965567193e+18,-15.52857971,5.55807066,-12.27401161
816,1.55965567199e+18,-11.44205666,-3.089095592,-9.888987541
817,1.55965567205e+18,-0.5896668434,-33.0269165,1.051774025
818,1.55965567211e+18,11.66784477,-10.73626614,0.9073022008
819,1.55965567217e+18,1.832452774,6.426739693,6.946549892
820,1.55965567223e+18,0.5307703018,9.569451332,5.44832325
821,1.55965567229e+18,-0.6498885155,-5.45172739,2.78138113
822,1.55965567235e+18,3.018311024,-7.433991432,1.756566525
823,1.55965567241e+18,0.527838707,0.1661245823,7.17907095
824,1.55965567247e+18,-3.378480911,3.766024113,-1.898779869
825,1.55965567253e+18,-7.716613293,0.874366641,-10.33866501
826,1.55965567259e+18,-17.30025864,3.874395847,-12.23430252
827,1.55965567265e+18,-22.27087021,1.291397691,-7.58795023
828,1.55965567271e+18,-3.226867914,-12.15234852,4.803703308
829,1.55965567277e+18,8.344194412,-36.44894791,-5.647059917
830,1.55965567283e+18,11.05398941,-2.758917809,3.883933544
831,1.55965567289e+18,-3.920186758,2.985484123,-6.702088356
832,1.55965567295e+18,1.957834721,2.52375412,-2.617137671
833,1.55965567301e+18,9.063232422,-0.1168980598,0.3561820984
834,1.55965567307e+18,8.143740654,6.250402451,5.585219383
835,1.55965567313e+18,-5.652832985,2.940265417,7.898484707
836,1.55965567319e+18,-18.59093857,-0.8856611848,-6.367425919
837,1.55965567325e+18,-29.39004707,7.649558067,-21.19357491
838,1.55965567331e+18,-18.26530266,6.061101437,-18.25665665
839,1.55965567337e+18,15.07512093,-20.30141449,6.280916214
840,1.55965567343e+18,17.25194168,-31.21908188,7.785358906
841,1.55965567349e+18,-0.5261864662,-6.755332947,-0.9543808699
842,1.55965567355e+18,-2.520821571,4.619027615,0.9832673073
843,1.55965567361e+18,3.224495888,5.407516956,2.874610424
844,1.55965567367e+18,6.361559868,-2.908780336,2.549877644
845,1.55965567373e+18,6.898049355,-4.698519707,5.82793045
846,1.55965567379e+18,-2.453478813,-0.775375843,-1.972123623
847,1.55965567385e+18,7.940648079,-4.272634506,-6.602244377
848,1.55965567391e+18,-14.52563095,-7.464698792,-12.49201775
849,1.55965567397e+18,-16.72147751,-5.868664742,-19.30471802
850,1.55965567403e+18,-8.607037544,-5.777458191,-6.701515675
851,1.55965567409e+18,13.76421738,-21.99428177,4.580953598
852,1.55965567415e+18,11.16701698,-25.94848824,-0.529396534
853,1.55965567421e+18,6.470052719,-4.920471191,3.342150927
854,1.55965567427e+18,-1.109086037,6.282867432,5.606787205
855,1.55965567433e+18,-1.11984396,-5.92860508,2.787637234
856,1.55965567439e+18,7.245217323,-11.37394047,2.973642349
857,1.55965567445e+18,3.67743206,-9.958247185,0.07126760483
858,1.55965567451e+18,-1.615333557,-3.256809711,-3.621028185
859,1.55965567457e+18,-9.461267471,-1.154625416,-6.233915806
860,1.55965567463e+18,1.644777775,-4.943172455,-5.294873714
861,1.55965567469e+18,-25.85216713,0.4206576347,-14.48447609
862,1.55965567475e+18,-4.89333868,-10.11885166,-8.650987625
863,1.55965567481e+18,15.21535397,-28.85718346,10.91138172
864,1.55965567487e+18,3.128551006,-22.38560677,-2.917327166
865,1.55965567493e+18,-0.4414401054,7.397143364,-1.80457449
866,1.55965567499e+18,-4.060121536,-0.9918093681,-2.32373023
867,1.55965567505e+18,5.771816254,-13.37771225,-2.959605217
868,1.55965567511e+18,5.098154068,-10.52335072,0.4473085403
869,1.55965567517e+18,0.1361722946,-3.835062265,2.270517349
870,1.55965567523e+18,-5.243181229,2.333629131,-2.765677929
871,1.55965567529e+18,-6.598944664,0.9018192291,-5.822280407
872,1.55965567535e+18,12.48876381,-6.015183449,-1.043633461
873,1.55965567541e+18,-12.76659584,-5.093515873,-7.279953003
874,1.55965567547e+18,-10.86570454,-5.432343006,-4.632072926
875,1.55965567553e+18,16.68902206,-29.61097145,6.334920883
876,1.55965567559e+18,10.5345974,-1.186746597,-5.060026646
877,1.55965567565e+18,-4.350914001,4.3510952,-7.174553871
878,1.55965567571e+18,0.3660173416,-3.027657986,1.759781361
879,1.55965567577e+18,7.356573105,-11.49295139,3.417749882
880,1.55965567583e+18,4.630577087,-9.202634811,-0.143872261
881,1.55965567589e+18,-1.886217117,-2.565201283,1.464267254
882,1.55965567595e+18,-8.753390312,0.5986317992,-12.29110146
883,1.55965567601e+18,0.8533964157,2.911836624,-8.917610168
884,1.55965567607e+18,-11.60828304,21.47599792,-5.709177494
885,1.55965567613e+18,-5.537675858,-14.54436493,-7.045029163
886,1.55965567619e+18,8.88109684,-35.50758743,9.533760071
887,1.55965567625e+18,-4.917909145,-8.579811096,-14.28480148
888,1.55965567631e+18,8.451590538,14.36865997,-4.32469368
889,1.55965567637e+18,-5.580321312,6.12356329,-4.142646313
890,1.55965567643e+18,2.357328415,-9.756011963,0.2530417442
891,1.55965567649e+18,5.859221458,-11.35916138,-2.857868195
892,1.55965567655e+18,1.61237812,-4.018053055,-4.48025322
893,1.55965567661e+18,-1.93501091,6.257456779,-5.480564117
894,1.55965567667e+18,-16.2335701,8.65680027,-10.49770069
895,1.55965567673e+18,-11.01988888,-2.792782307,-8.158004761
896,1.55965567679e+18,-7.050021172,-7.251286507,-12.62324619
897,1.55965567685e+18,9.956532478,-49.42333221,-12.23084354
898,1.55965567691e+18,10.06958008,-10.31220055,-1.551025391
899,1.55965567697e+18,0.5950520039,-0.9042401314,-5.668385029
900,1.55965567703e+18,-1.649446964,1.375229359,-1.416248322
901,1.55965567709e+18,-1.029363632,-4.226081371,-3.076760292
902,1.55965567715e+18,2.929168701,-2.510603905,-0.5895390511
903,1.55965567721e+18,3.791261673,-2.092849731,3.772805214
904,1.55965567727e+18,-2.808183193,-0.8402920365,-0.9689216614
905,1.55965567733e+18,-7.141689301,-2.512797356,-6.755328655
906,1.55965567738e+18,-1.03556633,-0.2921612263,-13.62155914
907,1.55965567744e+18,-18.43623734,-0.862244606,-12.56344795
908,1.5596556775e+18,-0.9825282097,-13.57099342,0.8711016178
909,1.55965567756e+18,23.93148232,-33.66770172,-2.04121542
910,1.55965567762e+18,1.735976219,-8.812940598,-0.4495067596
911,1.55965567768e+18,0.6605696678,9.040065765,5.120684624
912,1.55965567774e+18,-5.429179192,-1.918031693,4.461614132
913,1.5596556778e+18,2.13583374,-8.762525558,1.69970417
914,1.55965567786e+18,6.848011971,-3.976780176,-0.1224484444
915,1.55965567792e+18,5.198331833,3.094268084,-7.896943092
916,1.55965567798e+18,-1.498997211,4.673174858,-8.887531281
917,1.55965567804e+18,-8.613075256,-1.783911467,-8.606907845
918,1.5596556781e+18,-12.69190407,-16.42994499,6.515507698
919,1.55965567816e+18,-14.06790733,-1.90874362,-4.155185699
920,1.55965567822e+18,1.933232307,-20.34475327,-6.181031227
921,1.55965567828e+18,11.36964417,-22.41206741,-1.509248257
922,1.55965567834e+18,7.02188015,7.296302795,0.3611035347
923,1.5596556784e+18,3.506486893,3.01995945,3.209740639
924,1.55965567846e+18,1.708937168,-4.829950333,5.75772047
925,1.55965567852e+18,5.885263443,-7.621787071,2.841904163
926,1.55965567858e+18,3.740837574,-5.015460491,0.7629756927
927,1.55965567864e+18,-5.531414032,-1.821215987,-3.929546833
928,1.5596556787e+18,-8.561689377,2.704307556,-15.62481594
929,1.55965567876e+18,-2.95811367,1.85847795,-9.154966354
930,1.55965567882e+18,-6.011095047,-3.068694115,4.834947586
931,1.55965567888e+18,-9.884012222,-2.895067692,-0.4529876709
932,1.55965567894e+18,0.08540248871,-15.38785839,-4.611950397
933,1.559655679e+18,2.831555605,-18.57841682,-2.088681459
934,1.55965567906e+18,5.405879021,7.73367691,4.653792381
935,1.55965567912e+18,0.01457166672,3.571697235,1.517315388
936,1.55965567918e+18,6.512152672,-11.11013603,0.6925740242
937,1.55965567924e+18,10.66314888,-11.76900864,1.396014929
938,1.5596556793e+18,3.882370949,-0.9368109703,1.112720013
939,1.55965567936e+18,-1.431141376,5.252484798,0.1391429901
940,1.55965567942e+18,-11.04481125,4.918756962,-11.03188896
941,1.55965567948e+18,-6.107287407,-3.823778868,-13.3811512
942,1.55965567954e+18,13.84668922,-26.54699326,13.54156303
943,1.5596556796e+18,4.481975079,-17.30051422,-5.088199615
944,1.55965567966e+18,1.960371971,-21.48162079,-2.554587126
945,1.55965567972e+18,5.786005974,7.381371975,12.2770052
946,1.55965567978e+18,3.198174,4.141976833,5.939948082
947,1.55965567984e+18,0.04549884796,-1.151658058,1.81607008
948,1.5596556799e+18,4.296876431,-9.575890541,-1.854187965
949,1.55965567996e+18,1.524672508,-6.161062717,-0.1391263008
950,1.55965568002e+18,1.209630013,4.299637794,0.8831100464
951,1.55965568008e+18,0.4999189377,10.54032993,-2.970744133
952,1.55965568014e+18,-4.300428867,6.119991302,-4.681637764
953,1.5596556802e+18,-3.406827688,0.05709934235,-3.467659473
954,1.55965568026e+18,-0.01591491699,-11.81993294,-14.73392487
955,1.55965568032e+18,-5.281738281,-22.92628098,2.769397974
956,1.55965568038e+18,6.074043274,-4.783659935,1.476017237
957,1.55965568044e+18,5.060726643,0.732003212,-11.46095085
958,1.5596556805e+18,-2.391964912,2.790093899,1.081397533
959,1.55965568056e+18,3.124265194,-5.208456039,0.9849021435
960,1.55965568062e+18,4.558523178,-17.36835098,0.6849739552
961,1.55965568068e+18,5.925460815,-8.035485268,6.567763329
962,1.55965568074e+18,0.2289505005,-4.79274559,8.025343895
963,1.5596556808e+18,-1.525629044,7.951925278,7.442860126
964,1.55965568086e+18,-6.768305779,11.962883,-6.54364872
965,1.55965568092e+18,-0.7486333847,6.253782272,-20.04193306
966,1.55965568098e+18,1.834693909,12.49117374,-18.61394691
967,1.55965568104e+18,-8.874455452,0.07091164589,-2.809378386
968,1.5596556811e+18,2.161398888,-4.990804195,-5.02063942
969,1.55965568116e+18,4.108176231,-15.54084682,-3.53160882
970,1.55965568122e+18,3.217331409,-10.76242828,-2.759549379
971,1.55965568128e+18,-3.332009554,-3.540380955,2.878129721
972,1.55965568134e+18,-0.6591329575,-8.855619431,0.05390882492
973,1.5596556814e+18,5.558309555,-8.554125786,-0.1630363464
974,1.55965568146e+18,-1.970665932,-1.179974079,-3.260705948
975,1.55965568152e+18,0.3602266312,3.64550972,-6.036382675
976,1.55965568158e+18,-7.641504288,7.34341526,-7.248980522
977,1.55965568164e+18,9.416763306,-8.912379265,-5.771996498
978,1.5596556817e+18,-18.56174088,11.41488266,-12.30070496
979,1.55965568176e+18,12.20618343,-26.33433151,9.948628426
980,1.55965568182e+18,6.722729683,-13.53638268,-7.882494926
981,1.55965568188e+18,-3.349633932,-5.154652119,-7.894962788
982,1.55965568194e+18,-8.425167084,-11.50838661,-4.856900692
983,1.559655682e+18,-3.794440269,-12.37624741,-1.959036827
984,1.55965568206e+18,-0.335006237,-1.217721224,0.7234506607
985,1.55965568212e+18,1.501182556,7.027873039,1.085286617
986,1.55965568218e+18,-3.182271957,7.57929945,-3.499602318
987,1.55965568224e+18,-7.546555519,3.450021982,-6.154675961
988,1.5596556823e+18,3.329977989,-6.567196846,-21.24025345
989,1.55965568236e+18,-13.11504555,-2.828148365,-8.322393417
990,1.55965568242e+18,5.931488991,-11.37976837,2.589349747
991,1.55965568248e+18,7.862667084,-29.07727051,-6.141081333
992,1.55965568254e+18,3.399216175,-8.837367058,-3.929039001
993,1.5596556826e+18,-3.170241833,1.534130812,-1.544413567
994,1.55965568266e+18,-3.483398438,-2.164461374,-0.7823457718
995,1.55965568272e+18,1.632121086,-10.68193722,-3.461216927
996,1.55965568278e+18,9.864786148,-9.178303719,1.799238205
997,1.55965568284e+18,-0.3055553436,-0.2472032309,-5.678487301
998,1.5596556829e+18,-8.873548508,9.900613785,-10.23666
999,1.55965568296e+18,-16.45427132,-4.3005476,-10.38877869
1000,1.55965568302e+18,3.877250671,-1.148308754,-39.05516815
1001,1.55965568308e+18,-1.891608596,-7.592129707,-10.00908375
1002,1.55965568314e+18,13.73404312,-22.30995178,3.407692909
1003,1.5596556832e+18,6.585390568,-18.65776634,-7.446549416
1004,1.55965568326e+18,2.011433601,1.827402353,-1.890137672
1005,1.55965568332e+18,-0.1908664703,-0.4789524078,-0.2120761871
1006,1.55965568338e+18,4.198476315,-15.11201191,1.862538815
1007,1.55965568344e+18,3.588113785,-8.503173828,1.504022598
1008,1.5596556835e+18,-0.6147298813,3.577784538,0.6191883087
1009,1.55965568356e+18,-0.9492926598,4.776417732,-8.61584568
1010,1.55965568362e+18,1.950762272,-1.855181217,-9.668125153
1011,1.55965568368e+18,-2.649161339,-6.911685944,-6.019803047
1012,1.55965568374e+18,-4.345162392,-8.30198288,1.817252159
1013,1.5596556838e+18,-10.55110741,-3.956489563,-2.054440975
1014,1.55965568386e+18,-2.513390541,-10.14937687,-1.300543785
1015,1.55965568392e+18,-3.075535774,-18.09359741,-3.957859993
1016,1.55965568398e+18,4.250406265,2.681561947,1.169977188
1017,1.55965568404e+18,-1.437486649,-2.296013355,-3.216403246
1018,1.5596556841e+18,6.537442684,-5.409941196,5.163598061
1019,1.55965568416e+18,6.037568569,-4.503201008,0.4514739513
1020,1.55965568422e+18,0.3939676285,2.661691189,2.816193581
1021,1.55965568428e+18,-5.397091389,7.346694946,4.358743668
1022,1.55965568434e+18,-8.623203278,6.300639629,-5.725949764
1023,1.5596556844e+18,-14.70598316,1.770238876,-11.20687485
1024,1.55965568446e+18,-5.962683678,-6.696468353,-8.545809746
1025,1.55965568452e+18,-8.021626472,-8.556981087,-0.3838777542
1026,1.55965568458e+18,13.90622902,-26.47013283,1.139223576
1027,1.55965568464e+18,0.1332478523,6.464473724,0.458912611
1028,1.5596556847e+18,-0.007620334625,-1.242961407,0.4814734459
1029,1.55965568476e+18,-0.8611531258,-6.764879227,-1.470111609
1030,1.55965568482e+18,6.314338207,-3.019107342,2.682907104
1031,1.55965568488e+18,1.18483448,-1.304105282,2.735021114
1032,1.55965568494e+18,-3.752701283,5.035747528,0.8293590546
1033,1.559655685e+18,-8.42618084,8.801178932,-3.702345133
1034,1.55965568506e+18,-10.39207363,4.55851984,-8.338058472
1035,1.55965568512e+18,-2.098092556,-6.2725811,2.971359968
1036,1.55965568518e+18,-0.5728378296,-1.400428295,-1.325330257
1037,1.55965568524e+18,2.791606903,-25.28069115,-0.1038179398
1038,1.5596556853e+18,1.178221703,-4.887159348,-1.914652705
1039,1.55965568536e+18,-1.54513073,8.034259796,1.953125954
1040,1.55965568542e+18,0.7517347336,-0.2081193924,4.929768562
1041,1.55965568548e+18,6.289494991,-14.38237762,0.7507483959
1042,1.55965568554e+18,5.485572815,-7.283026695,2.497022629
1043,1.5596556856e+18,-0.2233953476,2.883985996,-0.5776135921
1044,1.55965568566e+18,-3.478758335,7.265210629,-1.5976789
1045,1.55965568572e+18,-8.727779388,6.746592999,-6.431023121
1046,1.55965568578e+18,-4.441087723,-1.261783838,-8.882527351
1047,1.55965568584e+18,-7.117609978,-13.93849754,-6.208098412
1048,1.5596556859e+18,-14.46357346,-16.3704834,3.340915918
1049,1.55965568596e+18,-7.505467415,-24.08032227,-1.024793148
1050,1.55965568602e+18,-3.422296047,0.2942361832,0.2052412033
1051,1.55965568608e+18,-3.740448475,0.4218010902,2.006284237
1052,1.55965568614e+18,6.062653065,-8.529036522,3.499875546
1053,1.5596556862e+18,7.557147026,-4.248093605,4.763521194
1054,1.55965568626e+18,3.05865097,-1.53443265,4.660562992
1055,1.55965568632e+18,-5.4459939,0.4309761524,2.822378635
1056,1.55965568638e+18,-8.333133698,6.26507473,-4.271630764
1057,1.55965568644e+18,-4.883178234,-0.6639598608,-4.447374344
1058,1.5596556865e+18,-9.417455673,-8.801521301,-12.47575092
1059,1.55965568656e+18,-0.8543586731,-10.71396542,0.5523650646
1060,1.55965568662e+18,4.911775589,-11.56716537,2.866135597
1061,1.55965568668e+18,-2.613986969,-6.630340576,1.106445074
1062,1.55965568674e+18,-5.176092625,6.59770298,3.048126221
1063,1.5596556868e+18,-0.3945775032,4.657145977,7.145003319
1064,1.55965568686e+18,7.592694283,-10.18043709,2.522195101
1065,1.55965568692e+18,7.919383049,-7.644962311,-0.293130517
1066,1.55965568698e+18,0.8646221161,-1.240432739,5.126851082
1067,1.55965568704e+18,-6.239597321,6.813797951,3.438439846
1068,1.5596556871e+18,-9.385448456,8.870153427,0.8859934807
1069,1.55965568716e+18,-3.046290874,-5.848023415,-5.435706615
1070,1.55965568722e+18,2.128533363,-10.55676937,-12.9705286
1071,1.55965568728e+18,4.718681335,-7.635119438,9.700256348
1072,1.55965568734e+18,-7.801822186,-1.64598,0.5867311954
1073,1.5596556874e+18,-1.138896942,-2.276210785,0.2656226158
1074,1.55965568746e+18,-3.756064653,-3.710548401,1.382915497
1075,1.55965568752e+18,-10.00405312,-4.908043861,2.89604187
1076,1.55965568758e+18,4.204135895,-3.717893124,8.341724396
1077,1.55965568764e+18,7.479227543,-3.73216629,3.598286629
1078,1.5596556877e+18,1.313808441,3.288033009,-1.36329484
1079,1.55965568776e+18,-5.163855553,9.704319954,-0.1046657562
1080,1.55965568782e+18,-8.339179993,3.709323645,-4.015369892
1081,1.55965568788e+18,-5.354383469,-9.900136948,-5.449163437
1082,1.55965568794e+18,-3.366577148,-5.788982391,-5.154808044
1083,1.559655688e+18,5.42302227,-6.344649315,10.55229378
1084,1.55965568806e+18,-13.04278088,-1.103188515,-4.014582157
1085,1.55965568812e+18,-3.154650688,-2.629400253,-4.272420406
1086,1.55965568818e+18,1.202557087,3.567248821,0.7173149586
1087,1.55965568824e+18,-4.071604252,-17.9948597,2.202750921
1088,1.5596556883e+18,4.640984535,-8.647441864,10.23837376
1089,1.55965568836e+18,5.84594202,-3.516319275,7.110925674
1090,1.55965568842e+18,1.594070911,3.726938963,2.851299047
1091,1.55965568848e+18,-2.64573431,7.547169685,-6.692957878
1092,1.55965568854e+18,-11.83583355,9.338956833,-8.21187973
1093,1.5596556886e+18,-15.33502483,0.7570126057,-14.09932137
1094,1.55965568866e+18,-4.700820923,5.341501236,-0.290746212
1095,1.55965568872e+18,0.5365396738,-21.05050659,3.73701334
1096,1.55965568878e+18,5.150351524,-10.3113699,2.75932765
1097,1.55965568884e+18,5.410206795,9.583221436,7.593484402
1098,1.5596556889e+18,-3.546109676,-0.4228143692,0.9074356556
1099,1.55965568896e+18,2.112937689,-7.907121181,6.294340134
1100,1.55965568902e+18,2.357710123,1.288069963,8.579849243
1101,1.55965568908e+18,0.3957638741,4.230727196,3.802029133
1102,1.55965568914e+18,-3.410838604,6.279533863,-1.140838623
1103,1.5596556892e+18,-6.663946629,4.469936371,-7.265334129
1104,1.55965568926e+18,-4.900820732,1.123883486,-6.067389011
1105,1.55965568932e+18,-14.01046371,-4.168525219,-17.74431229
1106,1.55965568938e+18,23.56336212,-21.61773682,-10.68146706
1107,1.55965568944e+18,2.652520657,-17.26052856,-2.224475861
1108,1.5596556895e+18,9.508407593,-13.08605576,-7.720219135
1109,1.55965568956e+18,4.8022089,0.05039262772,0.9401478767
1110,1.55965568962e+18,3.289155006,-11.91158867,2.353179455
1111,1.55965568968e+18,9.078166962,-1.021556377,5.488287449
1112,1.55965568974e+18,3.04927969,6.176282406,2.267388821
1113,1.5596556898e+18,-2.645579338,6.146672249,-5.53877449
1114,1.55965568986e+18,-8.175357819,5.763215065,-3.386188507
1115,1.55965568992e+18,-23.19137764,0.9602669477,-9.7891922
1116,1.55965568998e+18,10.71124744,14.26404953,-7.764753342
1117,1.55965569004e+18,1.361543417,-16.3394165,0.721072197
1118,1.5596556901e+18,6.508009911,-38.97606277,-1.241924286
1119,1.55965569016e+18,6.726764679,-8.824653625,-2.917065859
1120,1.55965569022e+18,-2.402415991,2.632998466,-4.688666344
1121,1.55965569028e+18,0.7015948296,0.6164083481,-2.825572968
1122,1.55965569034e+18,-0.5828838348,-7.441479683,0.8304820061
1123,1.5596556904e+18,4.692130566,-2.149233341,0.6451230049
1124,1.55965569046e+18,1.512335777,-4.028914452,-5.822723389
1125,1.55965569052e+18,-5.552179337,-1.142847538,-2.774122238
1126,1.55965569058e+18,-10.89269352,3.915046453,-9.170179367
1127,1.55965569064e+18,-7.098882675,3.412664175,-3.06058836
1128,1.5596556907e+18,-4.124103069,6.203458786,-7.837544441
1129,1.55965569076e+18,2.344358444,-21.50193977,-0.004951953888
1130,1.55965569082e+18,5.397101402,-24.77156067,-4.07251215
1131,1.55965569088e+18,0.230820179,0.7149643898,-2.418603659
1132,1.55965569094e+18,-2.935427427,2.904576778,7.890783787
1133,1.559655691e+18,-2.515963554,-2.235238075,-0.9134049416
1134,1.55965569106e+18,11.65622139,-7.381578445,2.507781982
1135,1.55965569112e+18,7.804479599,-4.919148922,-2.907680511
1136,1.55965569118e+18,-0.2930831909,4.674591064,-2.956591129
1137,1.55965569124e+18,-6.861861706,9.096268654,-3.511933088
1138,1.5596556913e+18,-6.614505768,3.794444084,-7.890928268
1139,1.55965569136e+18,2.6808424,-8.011300087,-23.75365639
1140,1.55965569142e+18,-11.08939838,-8.504547119,-10.04595089
1141,1.55965569148e+18,9.00188446,-22.72978592,2.391215801
1142,1.55965569154e+18,10.26587009,-13.5339241,-2.34119463
1143,1.5596556916e+18,6.978368759,5.669362545,-1.697859287
1144,1.55965569166e+18,-0.916421175,0.7982754707,-6.751694679
1145,1.55965569172e+18,1.087096453,-8.804292679,-1.509810925
1146,1.55965569178e+18,3.741298199,-5.820395947,0.7913770676
1147,1.55965569184e+18,1.15094614,-0.4923489094,1.709802628
1148,1.5596556919e+18,-10.54706192,2.901450396,-3.045780659
1149,1.55965569196e+18,-7.201787949,11.51043129,-9.24409008
1150,1.55965569202e+18,-21.29152107,-8.288619041,-1.535471916
1151,1.55965569208e+18,-10.81976128,-2.660277843,-9.303594589
1152,1.55965569214e+18,10.73672485,-21.02948189,6.430634499
1153,1.5596556922e+18,1.261057377,-23.53916168,-5.95606041
1154,1.55965569226e+18,6.415390015,9.535636902,1.780565739
1155,1.55965569232e+18,0.1082601547,1.396586895,-2.144434929
1156,1.55965569238e+18,1.918797493,-11.10807419,0.3850264549
1157,1.55965569244e+18,3.22304678,-8.708039284,0.7672719955
1158,1.5596556925e+18,3.823099136,-1.567367315,-2.174531937
1159,1.55965569256e+18,-3.243029594,5.911923409,-4.730441093
1160,1.55965569262e+18,-19.54603958,5.060283661,-2.465151787
1161,1.55965569268e+18,-17.5681572,19.8039856,-18.01149368
1162,1.55965569274e+18,2.94189477,-4.366026878,-5.950513363
1163,1.5596556928e+18,5.928020477,-21.2820282,-0.3782339096
1164,1.55965569286e+18,15.53424835,-17.99533463,1.56456852
1165,1.55965569292e+18,2.761657715,1.778847694,-0.204788208
1166,1.55965569298e+18,2.534841299,6.285905838,0.3830957413
1167,1.55965569304e+18,2.971498013,-3.562101364,2.280210018
1168,1.5596556931e+18,8.171762466,-15.17773247,1.304170609
1169,1.55965569316e+18,1.930208206,-8.866593361,-1.785614014
1170,1.55965569322e+18,-8.956607819,-1.630783558,-6.574279308
1171,1.55965569328e+18,-9.075814247,5.814338207,-13.34213352
1172,1.55965569334e+18,-6.214503288,5.19137907,-10.42403793
1173,1.5596556934e+18,-7.619723797,3.798658133,0.5364217758
1174,1.55965569346e+18,5.537527084,-1.026992679,-0.1744046211
1175,1.55965569352e+18,0.3412818909,-15.07109928,9.362876892
1176,1.55965569358e+18,-2.127566338,-9.819444656,-5.124954224
1177,1.55965569364e+18,1.747989655,9.513689041,4.321622849
1178,1.5596556937e+18,-3.06589222,-2.835551262,0.7338750362
1179,1.55965569376e+18,-3.748390913,-8.89156723,-2.179962635
1180,1.55965569382e+18,7.585469246,-6.394644737,3.216491699
1181,1.55965569388e+18,4.111287117,-0.1424218416,-4.288959503
1182,1.55965569394e+18,-4.86787796,4.007506847,-4.917329311
1183,1.559655694e+18,-11.48608208,4.731689453,-5.925566196
1184,1.55965569406e+18,-11.2959137,4.071389198,-7.432836056
1185,1.55965569412e+18,-6.11798048,-2.750632286,1.956142902
1186,1.55965569418e+18,11.16087532,-14.27290344,1.71269083
1187,1.55965569424e+18,-1.526818752,-23.39009666,-3.763860703
1188,1.5596556943e+18,6.748300552,1.46815443,-1.200659037
1189,1.55965569436e+18,-1.36729908,10.43560314,-2.190097332
1190,1.55965569442e+18,3.505699635,1.041548252,3.832839012
1191,1.55965569448e+18,9.102666855,-17.8326931,1.068017244
1192,1.55965569454e+18,3.957566738,-9.248812675,-0.4302358627
1193,1.5596556946e+18,-0.4815864563,0.4528954029,0.5009169579
1194,1.55965569466e+18,-9.850451469,3.610960484,-7.190642357
1195,1.55965569472e+18,-8.433001518,1.843991041,-6.69990015
1196,1.55965569478e+18,-7.875046253,-2.771695137,-7.765310287
1197,1.55965569484e+18,17.29953384,-13.09045601,5.468445301
1198,1.5596556949e+18,-3.720312357,0.1421638429,-6.086621761
1199,1.55965569496e+18,-2.22007823,-18.88685608,-4.27965641
1200,1.55965569502e+18,0.3630280495,4.815580368,-2.132992506
1201,1.55965569508e+18,-0.3375380039,-1.282729149,1.26161623
1202,1.55965569514e+18,3.761418819,-16.16715813,1.013118744
1203,1.5596556952e+18,6.079379559,-4.568181515,4.607506275
1204,1.55965569526e+18,3.501160622,0.4028115273,2.504173279
1205,1.55965569532e+18,-3.566099882,5.380841255,-6.002420902
1206,1.55965569538e+18,-11.18615532,8.092387199,-12.01198483
1207,1.55965569544e+18,-10.01344109,-0.5976974964,-11.70012951
1208,1.5596556955e+18,-8.108873367,1.753159046,-7.059491158
1209,1.55965569556e+18,-0.1704378128,-18.76047516,-2.906620979
1210,1.55965569562e+18,4.097356796,-22.92853737,3.706070423
1211,1.55965569568e+18,4.669552803,6.160056114,4.032748222
1212,1.55965569574e+18,0.712788105,6.747981548,2.669534683
1213,1.5596556958e+18,-0.7884874344,-0.04710769653,1.793218613
1214,1.55965569586e+18,7.555376053,-9.211168289,3.477017879
1215,1.55965569592e+18,1.03465414,-5.576089859,2.404644966
1216,1.55965569598e+18,-4.002725124,0.5513372421,-2.248958349
1217,1.55965569604e+18,-10.58351803,1.762583494,-9.768462181
1218,1.5596556961e+18,-21.32853317,12.93167782,-13.7704258
1219,1.55965569616e+18,-5.150724411,11.76497746,-4.09685421
1220,1.55965569622e+18,8.374797821,-24.89998055,1.691775799
1221,1.55965569628e+18,7.91461134,-13.03074646,-0.7642695904
1222,1.55965569634e+18,3.349397182,-3.235264301,-0.2761597633
1223,1.5596556964e+18,-1.370674133,11.75040531,9.326639175
1224,1.55965569646e+18,-4.731436729,0.6299543381,-0.2143740654
1225,1.55965569652e+18,-0.5395560265,-10.0720396,-4.998567104
1226,1.55965569658e+18,8.350849152,-6.025336266,-2.932707548
1227,1.55965569664e+18,0.1678600311,-4.250042915,-6.197779179
1228,1.5596556967e+18,-9.780319214,4.622938156,-8.221284866
1229,1.55965569676e+18,-2.546269894,7.672293186,2.721865654
1230,1.55965569682e+18,-7.402939796,6.033464432,-6.450413227
1231,1.55965569688e+18,4.116398811,-19.66415024,-0.1237978935
1232,1.55965569694e+18,1.274331331,-22.84946251,-6.086074352
1233,1.559655697e+18,8.186051369,-5.578369141,2.003798485
1234,1.55965569706e+18,-5.64165163,3.78569746,1.74533987
1235,1.55965569712e+18,-2.863429785,1.556928158,0.4763975143
1236,1.55965569718e+18,-4.622546196,-6.333367348,0.1627731323
1237,1.55965569724e+18,-1.860518932,-6.324190617,-2.226590157
1238,1.5596556973e+18,-0.227669239,0.2506196499,7.230380535
1239,1.55965569736e+18,-11.91518688,-4.180575848,-2.10611248
1240,1.55965569742e+18,-17.68129158,0.9973711967,-25.63468361
1241,1.55965569748e+18,-21.71734428,6.969225407,-22.24891281
1242,1.55965569754e+18,16.72143173,-25.7346077,6.052781105
1243,1.5596556976e+18,18.20524216,-18.32583809,2.174201012
1244,1.55965569766e+18,0.9540987015,-4.776817799,-4.811140537
1245,1.55965569772e+18,3.791367054,2.518107414,1.423599243
1246,1.55965569778e+18,2.250165939,6.168964863,3.977052212
1247,1.55965569784e+18,4.454282761,-3.617313623,2.420212269
1248,1.5596556979e+18,2.7517066,-4.882855892,-1.639772415
1249,1.55965569796e+18,1.819664955,1.892374516,1.968552589
1250,1.55965569802e+18,-5.003752708,3.165908337,-0.7037696838
1251,1.55965569808e+18,-8.387354851,0.7942287922,-3.477742434
1252,1.55965569814e+18,-6.366045475,1.983079672,-2.483419418
1253,1.5596556982e+18,-8.600933075,-0.2520513535,-6.77273035
1254,1.55965569826e+18,-1.109140635,-4.930624962,-0.05891513824
1255,1.55965569832e+18,3.937781811,-18.47841454,0.6565189362
1256,1.55965569838e+18,17.22176933,-15.17155552,-2.367817879
1257,1.55965569844e+18,-5.348616123,-1.920580864,-5.830341339
1258,1.5596556985e+18,2.247750282,3.202079296,2.011813641
1259,1.55965569856e+18,3.831418037,-5.535381794,4.100413322
1260,1.55965569862e+18,5.109977722,-3.180785656,1.153151512
1261,1.55965569868e+18,0.1107034683,0.8752645254,2.162925243
1262,1.55965569874e+18,-4.826846123,6.237603188,-6.043003559
1263,1.5596556988e+18,-5.598120689,5.68644619,-4.81730938
1264,1.55965569886e+18,-4.362424374,-5.013877392,2.311010838
1265,1.55965569892e+18,-3.755768299,-0.8331439495,2.318941593
1266,1.55965569898e+18,-13.28493881,-1.192126036,-9.449696541
1267,1.55965569904e+18,11.81926918,-18.5578289,9.781847
1268,1.5596556991e+18,-7.020338535,-8.688311577,-8.772964478
1269,1.55965569916e+18,4.462727547,-6.59910965,2.428506374
1270,1.55965569922e+18,-1.733875751,-5.348786354,-0.8309860229
1271,1.55965569928e+18,7.809612274,-1.708899498,2.203697205
1272,1.55965569934e+18,4.02172184,1.265032768,1.603116035
1273,1.5596556994e+18,-2.247393131,8.839178085,-2.923089743
1274,1.55965569946e+18,-5.857506752,10.20987988,-3.597753048
1275,1.55965569952e+18,-8.275655746,-2.49886775,-2.810727119
1276,1.55965569958e+18,14.54352474,-17.72894096,15.95383072
1277,1.55965569964e+18,-14.94792747,-6.103240013,-7.258791924
1278,1.5596556997e+18,-2.730119228,-12.93625832,2.038197994
1279,1.55965569976e+18,5.451494217,-12.60824203,-4.984391212
1280,1.55965569982e+18,1.673634768,-1.408628941,-3.736139297
1281,1.55965569988e+18,2.077558517,0.3342518806,1.263464928
1282,1.55965569994e+18,4.242435455,-7.189600945,4.958664894
1283,1.5596557e+18,1.349778652,-4.652869701,-0.7960062027
1284,1.55965570006e+18,-2.659409523,2.63615489,-2.528973579
1285,1.55965570012e+18,-8.001407623,8.80597496,-6.770139694
1286,1.55965570018e+18,-9.969360352,9.056428909,-8.925560951
1287,1.55965570024e+18,-4.47283268,-9.891935349,36.00304794
1288,1.5596557003e+18,-4.416680336,10.21782303,-5.842568398
1289,1.55965570036e+18,8.428395271,-41.50101089,10.1723671
1290,1.55965570042e+18,9.410572052,-4.437024117,-9.708906174
1291,1.55965570048e+18,-9.837105751,-2.752947807,-6.33794117
1292,1.55965570054e+18,-5.052937508,2.599754572,-3.824510336
1293,1.5596557006e+18,1.993208885,-7.038885593,-1.851867676
1294,1.55965570066e+18,8.865076065,-2.621138096,2.395432472
1295,1.55965570072e+18,1.020467758,2.807053566,-1.281985283
1296,1.55965570078e+18,-6.846647739,5.173976421,-5.765830517
1297,1.55965570084e+18,-14.25853157,11.15377235,-7.055680275
1298,1.5596557009e+18,3.077916145,-4.566299915,-3.416507959
1299,1.55965570096e+18,0.6529841423,1.855618238,-12.3274231
1300,1.55965570102e+18,3.902752399,-25.71780968,-0.2715058327
1301,1.55965570108e+18,-1.64559269,-12.38364792,-1.679598808
1302,1.55965570114e+18,-0.7629513741,4.847511292,4.309853554
1303,1.5596557012e+18,-3.546555281,5.45457077,3.426975727
1304,1.55965570126e+18,-0.7912125587,-3.032579422,3.111014366
1305,1.55965570132e+18,8.725636482,-9.048207283,4.082341194
1306,1.55965570138e+18,2.439385414,-8.369415283,-2.481894732
1307,1.55965570144e+18,-5.001434326,3.195807219,-5.220879555
1308,1.5596557015e+18,-9.706582069,6.195708275,-9.108390808
1309,1.55965570156e+18,-8.093176842,1.343685627,-10.24333096
1310,1.55965570162e+18,16.60957336,-8.754751205,10.07917595
1311,1.55965570168e+18,-11.88938332,-6.995390892,-3.509745121
1312,1.55965570174e+18,5.779714584,-18.20483589,8.298341751
1313,1.5596557018e+18,-0.7591347694,-12.0536623,1.343197346
1314,1.55965570186e+18,-3.212236881,7.18168354,1.667878389
1315,1.55965570192e+18,-1.126893997,2.442343712,6.621321678
1316,1.55965570198e+18,3.813159466,-16.74942017,2.309944391
1317,1.55965570204e+18,5.392723083,-9.149881363,3.569499254
1318,1.5596557021e+18,0.6092643738,-2.30994916,-0.2921049595
1319,1.55965570216e+18,-1.939733982,7.272315979,-6.937716484
1320,1.55965570222e+18,-7.756326199,5.78074646,-6.653552532
1321,1.55965570228e+18,-6.31913805,-0.2766268253,-4.803220272
1322,1.55965570234e+18,-2.556772232,-11.43415737,10.13895226
1323,1.5596557024e+18,-5.752813339,-0.304349184,-3.259474516
1324,1.55965570246e+18,-2.691946507,-15.81018162,-0.2731156349
1325,1.55965570252e+18,4.495675087,-17.34628296,1.10352993
1326,1.55965570258e+18,4.733122826,7.28830719,0.4403312206
1327,1.55965570264e+18,0.3780326843,-1.502151489,0.1232361794
1328,1.5596557027e+18,1.995563507,-13.69055557,-1.141014576
1329,1.55965570276e+18,2.916022778,-5.872756481,5.179741383
1330,1.55965570282e+18,-2.378569126,2.102203131,6.300702095
1331,1.55965570288e+18,-5.612038612,8.250131607,-1.675758123
1332,1.55965570294e+18,-5.545433998,6.958005428,-6.369855404
1333,1.559655703e+18,-7.175801277,-3.076794624,-5.179008961
1334,1.55965570306e+18,16.69235802,-4.856823921,-5.897137165
1335,1.55965570312e+18,-18.45321465,-1.285754681,-9.569655418
1336,1.55965570318e+18,11.64335823,-43.40594482,-5.068815231
1337,1.55965570324e+18,2.886227131,8.227500916,-0.7879674435
1338,1.5596557033e+18,-0.8986108303,0.4773082733,1.773241043
1339,1.55965570336e+18,-3.971951008,-2.121112823,5.361595154
1340,1.55965570342e+18,7.667510033,-6.107041359,2.078203201
1341,1.55965570348e+18,4.302467346,-2.948550224,-0.6465797424
1342,1.55965570354e+18,0.3340997696,3.874767065,-0.5712907314
1343,1.5596557036e+18,-5.521428108,8.589734077,-2.571694851
1344,1.55965570366e+18,11.87171555,-4.669860363,2.929813862
1345,1.55965570372e+18,-22.536026,15.2966423,-12.65033722
1346,1.55965570378e+18,-7.232327461,-3.643633366,-2.761069059
1347,1.55965570384e+18,7.781207561,-36.91574478,-1.368943691
1348,1.5596557039e+18,4.248179436,-10.44898701,-3.378890753
1349,1.55965570396e+18,-2.138901711,5.902880669,1.247328043
1350,1.55965570402e+18,-2.182239532,0.7146587372,-2.003902197
1351,1.55965570408e+18,-0.1214308739,-8.204843521,-1.008760929
1352,1.55965570414e+18,7.021905899,-6.883835316,0.9500255585
1353,1.5596557042e+18,2.312308311,-0.2344891429,-0.808362484
1354,1.55965570426e+18,-1.518566608,1.742072225,-4.079133987
1355,1.55965570432e+18,-12.11456871,1.02497983,-10.13990021
1356,1.55965570438e+18,6.63020134,-26.12251854,26.85490417
1357,1.55965570444e+18,-18.28273392,7.072909355,-18.84789467
1358,1.5596557045e+18,10.60879612,-40.22312164,-11.98921585
1359,1.55965570456e+18,12.15146828,-15.63040733,-3.017601967
1360,1.55965570462e+18,-1.119162083,-3.138056278,-4.473325729
1361,1.55965570468e+18,-4.933011055,5.692749023,-1.839234352
1362,1.55965570474e+18,-3.033638954,-4.056102753,-1.564356804
1363,1.5596557048e+18,8.786470413,-7.418733597,-7.377298832
1364,1.55965570486e+18,6.056387424,-5.13004303,4.011623859
1365,1.55965570492e+18,1.082690239,0.09218358994,-0.02284240723
1366,1.55965570498e+18,-6.263919353,5.223827839,-1.430404067
1367,1.55965570504e+18,-8.654260635,5.556318283,-12.65393162
1368,1.5596557051e+18,-12.15368176,-4.012644768,1.99153769
1369,1.55965570516e+18,-10.6948719,-2.928843737,-5.954985142
1370,1.55965570522e+18,13.45250893,-18.24126053,5.746806145
1371,1.55965570528e+18,-2.938904762,-18.25426674,-1.710609436
1372,1.55965570534e+18,4.278432369,3.159296036,5.480234146
1373,1.5596557054e+18,-5.972184658,4.611190796,-0.6752057076
1374,1.55965570546e+18,-4.131711483,-3.216245174,-2.308391571
1375,1.55965570552e+18,4.812755108,-5.218013763,1.255288124
1376,1.55965570558e+18,-2.166054726,-5.538864136,0.7314591408
1377,1.55965570564e+18,-2.017747402,2.885371208,-6.399503231
1378,1.5596557057e+18,-1.971662045,5.644547462,-5.915544987
1379,1.55965570576e+18,-2.996254683,5.755157471,1.379987717
1380,1.55965570582e+18,-24.27618027,7.508936882,-16.58643723
1381,1.55965570588e+18,5.631063938,-12.80371284,0.9219956398
1382,1.55965570594e+18,0.6513373852,-28.52651978,-5.627099991
1383,1.559655706e+18,14.14570045,-3.848277092,2.299649715
1384,1.55965570606e+18,5.92827034,3.707007408,2.583063126
1385,1.55965570612e+18,7.82124424,2.230496883,3.086399078
1386,1.55965570618e+18,5.625975132,-3.888818264,1.276087761
1387,1.55965570624e+18,-2.45827508,-9.294309616,-5.253608704
1388,1.5596557063e+18,2.467661619,-4.758722782,-0.6983728409
1389,1.55965570636e+18,-12.60002327,-2.854391098,-18.27372551
1390,1.55965570642e+18,-10.75811768,6.896430492,-13.95705032
1391,1.55965570648e+18,-1.683944225,3.068099022,-3.869990826
1392,1.55965570654e+18,7.224508762,-11.34141541,3.350271225
1393,1.5596557066e+18,8.863534927,-28.92871284,-8.892089844
1394,1.55965570666e+18,10.15876102,-9.112670898,-5.251152992
1395,1.55965570672e+18,6.022282124,-4.013861179,3.0814116
1396,1.55965570678e+18,-7.866976738,-0.2581930161,-5.59660244
1397,1.55965570684e+18,2.960193157,1.540578842,-0.1308894157
1398,1.5596557069e+18,2.949182034,5.366956711,-4.646118164
1399,1.55965570696e+18,1.235988855,3.002074718,7.487361908
1400,1.55965570702e+18,-3.032045364,-6.379858494,-0.8594017029
1401,1.55965570708e+18,-8.281826019,-7.067673683,-9.086452484
1402,1.55965570714e+18,20.4615078,-3.801119328,-9.505417824
1403,1.5596557072e+18,-14.29498672,10.03935242,-13.32983589
1404,1.55965570726e+18,11.46725368,-19.99659348,0.2670593262
1405,1.55965570732e+18,14.11029434,-24.76212883,-2.011209488
1406,1.55965570738e+18,6.984095097,-9.598374367,-7.012813091
1407,1.55965570744e+18,-0.2904285789,-3.047772408,-3.146879196
1408,1.5596557075e+18,0.2199625969,3.227438211,3.077057838
1409,1.55965570756e+18,0.6400327682,-0.009054422379,5.719152451
1410,1.55965570762e+18,5.812957287,-7.058837414,-3.008658409
1411,1.55965570768e+18,-0.2767858505,0.3571181297,-2.880436897
1412,1.55965570774e+18,-1.18036747,2.440115213,-2.548867941
1413,1.5596557078e+18,-6.808261871,0.8974497318,-2.145637035
1414,1.55965570786e+18,-10.38181305,-0.4958677292,-14.08382511
1415,1.55965570792e+18,-16.60734749,-7.013482571,-9.923521996
1416,1.55965570798e+18,20.92029572,-62.71522522,28.023386
1417,1.55965570804e+18,-12.35118961,-19.73465919,8.378865242
1418,1.5596557081e+18,2.916455269,-18.11812973,5.945847988
1419,1.55965570816e+18,-4.097591877,-5.191081047,4.925911427
1420,1.55965570822e+18,0.9345836639,-2.176768303,12.40050125
1421,1.55965570828e+18,2.15140152,-9.563264847,8.103514671
1422,1.55965570834e+18,6.402314186,-7.989854336,7.490970612
1423,1.5596557084e+18,-0.1777362823,-8.94110775,-2.411678314
1424,1.55965570846e+18,-9.81432724,-0.2018522024,-10.43704414
1425,1.55965570852e+18,-1.737752914,0.834100008,16.51979828
1426,1.55965570858e+18,-30.88741302,20.81297302,-21.59386826
1427,1.55965570864e+18,8.496801376,-10.09349728,9.247098923
1428,1.5596557087e+18,14.03891373,-38.52943039,-1.779845238
1429,1.55965570876e+18,-2.006206036,-11.99747849,-6.930734634
1430,1.55965570882e+18,-0.817232132,-7.558374405,-7.385943413
1431,1.55965570888e+18,-3.377921104,-0.4627664089,-2.884874105
1432,1.55965570894e+18,-5.338153839,-3.814978123,-1.028479576
1433,1.559655709e+18,-1.573448181,-9.831772804,-1.891839027
1434,1.55965570906e+18,4.373971462,-11.96183968,-1.263066769
1435,1.55965570912e+18,-0.7474842072,3.581404924,-11.87454891
1436,1.55965570918e+18,-23.20265961,15.41800308,1.59355402
1437,1.55965570924e+18,0.1773357391,7.315262794,-24.60626602
1438,1.5596557093e+18,-9.07743454,-4.72517252,-5.120362282
1439,1.55965570936e+18,7.551116467,-22.00365448,-4.586384773
1440,1.55965570942e+18,6.175141811,-23.92695045,-1.790561438
1441,1.55965570948e+18,3.019831657,-7.645638466,-4.516630173
1442,1.55965570954e+18,-0.7435126305,5.418822765,0.6725993156
1443,1.5596557096e+18,-6.131594181,0.5650548935,-0.05422592163
1444,1.55965570966e+18,0.7100086212,-8.188305855,1.417486191
1445,1.55965570972e+18,6.422062397,-4.519401073,-2.54025054
1446,1.55965570978e+18,3.461363792,-2.784461737,-8.117404938
1447,1.55965570984e+18,-6.674825191,-0.5814187527,-9.9298563
1448,1.5596557099e+18,-13.71806335,6.816635132,-3.435358047
1449,1.55965570996e+18,5.243738174,9.604771614,-2.031864166
1450,1.55965571002e+18,-13.96295357,-1.457188606,-13.44937134
1451,1.55965571008e+18,9.268173218,-31.8399086,-0.753780365
1452,1.55965571014e+18,8.71811676,-15.51848793,-0.01386737823
1453,1.5596557102e+18,2.024611473,1.74749279,-3.50001049
1454,1.55965571026e+18,-5.728463173,4.956336498,-4.579931259
1455,1.55965571032e+18,-2.607012749,0.4932174683,-0.6193537712
1456,1.55965571038e+18,2.037517071,-18.72066689,-2.309921741
1457,1.55965571044e+18,-0.3137073517,-10.49437332,-2.318059921
1458,1.5596557105e+18,-0.378320694,6.370246887,-4.348743439
1459,1.55965571056e+18,-1.916796207,14.64521217,-4.354372978
1460,1.55965571062e+18,5.583359718,7.82275486,4.145600319
1461,1.55965571068e+18,-11.61085892,1.015315771,-1.056411505
1462,1.55965571074e+18,-10.66852379,-6.995306969,-3.098362207
1463,1.5596557108e+18,5.828323364,-23.17250633,-1.866066217
1464,1.55965571086e+18,0.2204742432,-20.030056,-2.29142046
1465,1.55965571092e+18,3.919541359,8.061877251,-1.302928686
1466,1.55965571098e+18,2.651118279,7.169268608,4.079053402
1467,1.55965571104e+18,0.6343402863,-4.35670042,1.080291271
1468,1.5596557111e+18,4.982697487,-16.38948059,-3.08054328
1469,1.55965571116e+18,-2.357863903,-7.215481758,-1.911299944
1470,1.55965571122e+18,-2.120110989,2.302714348,-1.960461855
1471,1.55965571128e+18,-6.381271362,8.902261734,-5.255720139
1472,1.55965571134e+18,-1.204110146,4.788804054,-5.661300659
1473,1.5596557114e+18,-6.521706581,-1.667281985,-9.164959908
1474,1.55965571146e+18,-9.25554657,-10.09940624,-0.9224443436
1475,1.55965571152e+18,5.802638054,-14.85870361,6.777175903
1476,1.55965571158e+18,-5.291883469,-14.8539753,-11.05951118
1477,1.55965571164e+18,5.075100899,5.410212517,-1.554254055
1478,1.5596557117e+18,0.1426317692,-0.6861729622,-3.918382168
1479,1.55965571176e+18,1.132591724,-15.61860085,-3.455607653
1480,1.55965571182e+18,3.490863323,-7.612030029,-0.7432937622
1481,1.55965571188e+18,-0.6486840248,-3.877020359,1.160212994
1482,1.55965571194e+18,-5.397354126,0.4598195553,-0.7829799652
1483,1.559655712e+18,-11.62439632,11.8154068,-10.41222286
1484,1.55965571206e+18,16.30307007,10.7210474,6.232802391
1485,1.55965571212e+18,-20.62681961,9.127674103,-8.93757534
1486,1.55965571218e+18,7.962887764,-28.17004204,-2.196677208
1487,1.55965571224e+18,7.376185417,-24.03790283,2.764781475
1488,1.5596557123e+18,1.084982872,-0.2575917244,-4.47000885
1489,1.55965571236e+18,-1.798989296,10.59713459,3.480700731
1490,1.55965571242e+18,-1.317808151,0.750600338,-0.691942215
1491,1.55965571248e+18,2.335270882,-12.86290646,-0.3653175831
1492,1.55965571254e+18,1.525985718,-11.56856346,0.06407499313
1493,1.5596557126e+18,-3.612552166,-3.157930613,-1.407962799
1494,1.55965571266e+18,-10.79742718,3.768029213,-3.599549294
1495,1.55965571272e+18,-13.08093929,1.302032709,-8.46558857
1496,1.55965571278e+18,14.10615158,-5.19863224,7.966312408
1497,1.55965571284e+18,-8.962001801,-6.388583183,-7.142003059
1498,1.5596557129e+18,0.9622459412,-22.54625511,1.132811069
1499,1.55965571296e+18,6.048946857,-16.88825035,-3.746006966
1500,1.55965571302e+18,4.900460243,10.59534931,2.61162591
1501,1.55965571308e+18,-0.8451051712,7.625381947,0.815985918
1502,1.55965571314e+18,-0.6611199379,-2.054186344,1.105807066
1503,1.5596557132e+18,7.125283241,-13.57981777,2.372653484
1504,1.55965571326e+18,-1.298502922,-10.04693222,0.7262382507
1505,1.55965571332e+18,-3.059265137,-2.425190926,0.4646253586
1506,1.55965571338e+18,-10.77481079,2.503388405,-8.735356331
1507,1.55965571344e+18,-10.88376236,4.633805752,-9.321155548
1508,1.5596557135e+18,-0.4361486435,3.478257418,6.234425068
1509,1.55965571356e+18,-1.387934208,-5.56781292,-9.285257339
1510,1.55965571362e+18,-1.447630405,-19.43870926,-0.2170543671
1511,1.55965571368e+18,1.518104792,-18.42933655,-3.670814514
1512,1.55965571374e+18,5.619898796,7.343325615,2.854430676
1513,1.5596557138e+18,-0.9269399643,4.792337418,1.47749424
1514,1.55965571386e+18,-4.197923183,-5.592448235,2.086412907
1515,1.55965571392e+18,4.552858353,-10.00564766,4.599913597
1516,1.55965571398e+18,-3.007112503,-2.790329456,4.885396004
1517,1.55965571404e+18,-6.143982887,2.277930737,-3.194500446
1518,1.5596557141e+18,-2.853564501,1.374936104,-5.703474998
1519,1.55965571416e+18,-0.4145498276,4.291065693,-4.244164467
1520,1.55965571422e+18,-12.33261395,-6.768258572,-18.31788254
1521,1.55965571428e+18,-1.610519886,-16.89540672,-9.58560276
1522,1.55965571434e+18,4.901432991,-18.38763809,2.58865118
1523,1.5596557144e+18,-3.18257308,-14.87483406,-4.417880058
1524,1.55965571446e+18,9.792222023,2.651427746,6.898641586
1525,1.55965571452e+18,3.020262003,2.140685558,6.177379608
1526,1.55965571458e+18,3.507908344,-6.552463531,6.303355217
1527,1.55965571464e+18,0.1480026245,-4.7461586,2.208630085
1528,1.5596557147e+18,-0.5334010124,-5.693235397,0.7567667961
1529,1.55965571476e+18,-5.456686497,-0.0389983654,-5.842872143
1530,1.55965571482e+18,-8.867035866,8.45814991,-7.954333782
1531,1.55965571488e+18,7.232765675,5.70020628,-6.502529621
1532,1.55965571494e+18,-13.36247635,9.14239502,-13.83718872
1533,1.559655715e+18,-5.505547523,-3.661004066,-1.184154034
1534,1.55965571506e+18,15.84844017,-28.36590004,-2.947933674
1535,1.55965571512e+18,10.35601521,-9.843286514,5.173931122
1536,1.55965571518e+18,6.388143063,-3.669895172,2.828474998
1537,1.55965571524e+18,6.690755844,3.337851286,2.373358727
1538,1.5596557153e+18,-2.559030533,1.403574109,-1.126019955
1539,1.55965571536e+18,-4.409449577,2.836471796,-4.303062916
1540,1.55965571542e+18,-6.161205292,1.82543838,-8.918804169
1541,1.55965571548e+18,4.568651199,11.35530472,-28.3014164
1542,1.55965571554e+18,3.648260117,-6.197405338,-5.279855728
1543,1.5596557156e+18,5.361641884,-20.44612312,0.890663147
1544,1.55965571566e+18,-1.072476625,-17.59519196,-7.847043037
1545,1.55965571572e+18,0.4819073677,-5.419320583,-0.2339081764
1546,1.55965571578e+18,7.795306683,-13.84791756,3.077331066
1547,1.55965571584e+18,6.752935886,-7.539130211,3.285255432
1548,1.5596557159e+18,-2.142412901,-1.383883476,0.6258955002
1549,1.55965571596e+18,-4.56357193,5.853554726,-1.420350075
1550,1.55965571602e+18,-7.022351742,3.577984571,-7.536055088
1551,1.55965571608e+18,-5.49549675,-3.41145134,-6.865982533
1552,1.55965571614e+18,-6.965185642,-13.82525635,24.30208588
1553,1.5596557162e+18,-1.692946911,-4.432918549,-1.701283455
1554,1.55965571626e+18,-0.62778759,-9.991467476,7.197351933
1555,1.55965571632e+18,-1.836188555,-15.72026253,-2.000002384
1556,1.55965571638e+18,8.427448273,13.02098179,0.6893138885
1557,1.55965571644e+18,7.126077175,-12.15603828,3.691645145
1558,1.5596557165e+18,4.730829239,-8.175562859,-1.804157495
1559,1.55965571656e+18,3.393286705,-4.774241924,-2.986060143
1560,1.55965571662e+18,-2.331758022,1.876975894,-3.67458415
1561,1.55965571668e+18,-13.16088867,7.394956589,-12.56710815
1562,1.55965571674e+18,-2.840860844,-8.31794548,9.669135094
1563,1.5596557168e+18,-17.45878601,11.27565384,-5.96994257
1564,1.55965571686e+18,2.873013973,-15.39905643,-1.13985014
1565,1.55965571692e+18,-1.18253088,-40.85965347,-8.775939941
1566,1.55965571698e+18,4.988147259,-2.324936867,-4.476009369
1567,1.55965571704e+18,-2.768454075,0.7952656746,-6.417882442
1568,1.5596557171e+18,0.9950652122,-2.144191265,-0.9815645218
1569,1.55965571716e+18,3.657652378,-7.533176422,-3.644260406
1570,1.55965571722e+18,5.235002518,-0.5554717779,0.2791967392
1571,1.55965571728e+18,0.1530256271,-0.6842702627,-2.724578381
1572,1.55965571734e+18,-10.53493309,-1.175656557,-5.318910122
1573,1.5596557174e+18,-13.58040333,0.8057115078,-16.04985046
1574,1.55965571746e+18,-20.92184067,-5.083042145,3.033016205
1575,1.55965571752e+18,-16.10261154,-9.304211617,-8.021728516
1576,1.55965571758e+18,24.7675724,-53.9607048,-7.746567249
1577,1.55965571764e+18,3.880199909,-12.96515179,-7.078120232
1578,1.5596557177e+18,-2.718175173,4.324110985,-0.5119318962
1579,1.55965571776e+18,-0.2496182919,4.502846718,2.869068146
1580,1.55965571782e+18,2.382739067,-2.749200344,3.620944023
1581,1.55965571788e+18,12.32530594,-9.143718719,4.512608051
1582,1.55965571794e+18,2.814257145,-8.046189308,-1.789438248
1583,1.559655718e+18,-5.028165817,1.723781705,-4.428501606
1584,1.55965571806e+18,-9.404653549,1.683077812,-6.522098064
1585,1.55965571812e+18,-8.605532646,1.274907827,-7.09603548
1586,1.55965571818e+18,-0.8373441696,-7.442942619,3.289675236
1587,1.55965571824e+18,-8.355542183,-2.906716108,-5.879826546
1588,1.5596557183e+18,-0.5074472427,-10.89629745,0.02160978317
1589,1.55965571836e+18,19.23996353,-23.15408707,0.5971441269
1590,1.55965571842e+18,-3.382376671,-0.07996416092,-5.699381351
1591,1.55965571848e+18,-2.912008762,1.623121262,0.005605220795
1592,1.55965571854e+18,2.440862179,-5.497244358,4.556246281
1593,1.5596557186e+18,8.395622253,-3.956725597,3.784351349
1594,1.55965571866e+18,-0.3844218254,2.130496025,-0.4873628616
1595,1.55965571872e+18,-4.141190052,9.213954926,-5.893425941
1596,1.55965571878e+18,-10.97019005,5.044585705,-12.11706161
1597,1.55965571884e+18,11.26778793,-12.70352173,-10.52782059
1598,1.5596557189e+18,-4.426399231,1.82647419,-0.8452568054
1599,1.55965571896e+18,-2.742367744,-11.81949711,0.0581035614
1600,1.55965571902e+18,3.55548954,-18.18385696,-1.292961597
1601,1.55965571908e+18,7.777637005,4.847533226,1.611042261
1602,1.55965571914e+18,-0.6359577179,2.020675659,-0.739723444
1603,1.5596557192e+18,-1.606554031,-5.113589764,-0.07912302017
1604,1.55965571926e+18,5.382465363,-8.851135254,0.6541807652
1605,1.55965571932e+18,1.267576218,-6.423713207,0.8941235542
1606,1.55965571938e+18,-6.260267258,1.047735691,-0.5135560036
1607,1.55965571944e+18,-9.579603195,8.973216057,-8.38431263
1608,1.5596557195e+18,-14.45005417,10.22159958,-10.85169983
1609,1.55965571956e+18,23.54768181,8.985804558,-31.14211845
1610,1.55965571962e+18,-8.195983887,-8.396127701,-6.362812519
1611,1.55965571968e+18,12.83368301,-51.73596573,-12.65021324
1612,1.55965571974e+18,1.036047935,-4.424150944,-5.39727354
1613,1.5596557198e+18,-2.107741117,5.412482738,2.171964169
1614,1.55965571986e+18,-4.709794998,1.120796204,0.5789136887
1615,1.55965571992e+18,-1.89548254,-6.475832939,-2.3081882
1616,1.55965571998e+18,8.520990372,-4.246931553,1.42970705
1617,1.55965572004e+18,6.074670792,0.1763629913,-4.878555775
1618,1.5596557201e+18,-6.619345665,5.694871426,-5.399136066
1619,1.55965572016e+18,-19.49051285,11.19455433,-1.440718651
1620,1.55965572022e+18,-10.97441673,16.60864067,-13.54461861
1621,1.55965572028e+18,-3.217687845,-18.49625778,-4.542459488
1622,1.55965572034e+18,16.87395859,-35.19652939,2.006057739
1623,1.5596557204e+18,3.39971137,-7.799077034,-11.69296455
1624,1.55965572046e+18,0.3316624165,4.100229263,-2.502325058
1625,1.55965572052e+18,2.490775585,4.702682495,0.8469429016
1626,1.55965572058e+18,4.20715189,-1.976303101,-0.02305984497
1627,1.55965572064e+18,5.765605927,-6.93185997,-0.2275466919
1628,1.5596557207e+18,4.200512409,-6.484379292,-0.9634380341
1629,1.55965572076e+18,-4.227148533,-4.536773682,-5.070476055
1630,1.55965572082e+18,-14.46706772,5.420135498,-12.1253109
1631,1.55965572088e+18,-1.029255867,0.06667363644,3.263495445
1632,1.55965572094e+18,-11.59974289,3.818181038,-5.355585098
1633,1.559655721e+18,-4.219129562,-8.309440613,-1.657524109
1634,1.55965572106e+18,20.54377556,-36.35269928,-2.122115135
1635,1.55965572112e+18,-0.9486842155,-5.880340576,-2.65589118
1636,1.55965572118e+18,-1.382166386,7.039001465,-2.996243954
1637,1.55965572124e+18,-5.710316658,-0.6076698303,0.1922044754
1638,1.5596557213e+18,-2.750767469,-8.25110054,-2.559913158
1639,1.55965572136e+18,4.845304489,-1.857766628,1.043795586
1640,1.55965572142e+18,4.496458054,-0.7056593895,-1.193101406
1641,1.55965572148e+18,-1.410820007,8.857391357,-1.511371851
1642,1.55965572154e+18,-9.712324142,10.85941505,-5.108771324
1643,1.5596557216e+18,0.3702993393,2.788883448,-3.11266017
1644,1.55965572166e+18,-17.69260788,5.143657207,-14.85553551
1645,1.55965572172e+18,7.691204071,-32.22266769,-3.574935198
1646,1.55965572178e+18,3.715337038,-16.88733292,-1.182797432
1647,1.55965572184e+18,3.5651021,1.449300766,-1.711233854
1648,1.5596557219e+18,-2.366036177,6.652917385,-1.762246847
1649,1.55965572196e+18,-0.8346128464,-4.039901733,-6.586862564
1650,1.55965572202e+18,0.6274442673,-8.24684906,-5.393586159
1651,1.55965572208e+18,1.559379101,-5.551793098,3.299478054
1652,1.55965572214e+18,-1.274291992,4.070263863,-3.394160271
1653,1.5596557222e+18,-5.965502739,9.571699142,3.134680748
1654,1.55965572226e+18,-12.07759285,24.28899384,-14.15945625
1655,1.55965572232e+18,-2.491132975,-2.365530491,-1.576791286
1656,1.55965572238e+18,4.006714821,-23.82883263,-2.205238104
1657,1.55965572244e+18,-6.293631554,-15.99341202,-6.984201908
1658,1.5596557225e+18,0.4352583885,-6.337347031,-4.654625893
1659,1.55965572256e+18,-0.257226944,1.942816257,-0.1475207806
1660,1.55965572262e+18,-7.574017525,1.111530304,0.369345665
1661,1.55965572268e+18,0.1705241203,-2.947282314,0.4383597374
1662,1.55965572274e+18,2.935409069,-4.981104851,-0.7787547112
1663,1.5596557228e+18,-4.409765244,-4.380011559,0.7031235695
1664,1.55965572286e+18,-9.623998642,1.502957821,-8.505823135
1665,1.55965572292e+18,2.159020424,8.796756744,-15.31726265
1666,1.55965572298e+18,-12.44273758,8.207230568,-12.5063858
1667,1.55965572304e+18,-5.207565308,-5.978685856,0.1175932884
1668,1.5596557231e+18,12.2473259,-26.12500381,-2.2519207
1669,1.55965572316e+18,-1.849825859,-9.861888885,3.346266508
1670,1.55965572322e+18,-2.980017662,-2.731536388,2.096582174
1671,1.55965572328e+18,-4.821734905,7.163250446,5.552228451
1672,1.55965572334e+18,-8.468956947,-2.8414855,3.484733105
1673,1.5596557234e+18,-3.096741915,-12.84490013,0.1842575073
1674,1.55965572346e+18,-2.824546814,-7.905537128,-5.244053841
1675,1.55965572352e+18,-1.138290405,6.578176975,-3.351889133
1676,1.55965572358e+18,-5.731669426,6.802857876,-4.69306612
1677,1.55965572364e+18,-9.240163803,16.68119049,-6.815226555
1678,1.5596557237e+18,-6.596515179,8.474647522,-3.413447857
1679,1.55965572376e+18,5.589873314,-16.8793869,11.26298904
1680,1.55965572382e+18,-23.29253197,-27.84287834,0.2051713467
1681,1.55965572388e+18,-0.1330413818,-13.21640587,6.178185463
1682,1.55965572394e+18,-6.480472565,-6.40366745,0.3070514202
1683,1.559655724e+18,-3.660337925,0.7426979542,3.959864616
1684,1.55965572406e+18,-2.730942726,7.373818398,9.670967102
1685,1.55965572412e+18,-0.1100387573,-2.849749565,4.164086342
1686,1.55965572418e+18,4.939522266,-0.5070971251,1.088050365
1687,1.55965572424e+18,0.3857884407,-0.9064970016,-3.581846476
1688,1.5596557243e+18,-8.301346779,-2.289523125,-8.003572464
1689,1.55965572436e+18,-11.16593838,-1.24909842,-8.195120811
1690,1.55965572442e+18,-0.7150130272,-5.056132317,8.155080795
1691,1.55965572448e+18,-5.6130476,0.1614900529,-9.499900818
1692,1.55965572454e+18,0.9029755592,-22.63539696,4.090602875
1693,1.5596557246e+18,7.369570732,-18.52131271,0.1065740585
1694,1.55965572466e+18,2.232522488,-5.225830078,-1.089926481
1695,1.55965572472e+18,-3.881793976,4.568053246,-1.48193717
1696,1.55965572478e+18,-1.803155422,1.989679337,-0.2558138371
1697,1.55965572484e+18,9.860917091,-2.472625732,-9.305018425
1698,1.5596557249e+18,10.08294868,-2.093727112,0.6833143234
1699,1.55965572496e+18,2.034140587,3.610900879,6.058836937
1700,1.55965572502e+18,-5.281511307,4.892127991,-1.166561246
1701,1.55965572508e+18,-13.86748695,3.279909372,-7.261381626
1702,1.55965572514e+18,-16.17333603,4.822335243,12.8073616
1703,1.5596557252e+18,-2.518113613,-0.0691061914,1.422837257
1704,1.55965572526e+18,5.816613674,-33.33366013,-1.883496761
1705,1.55965572532e+18,5.170420647,-5.758275509,-5.686419487
1706,1.55965572538e+18,-0.8344707489,5.223909855,-2.26017189
1707,1.55965572544e+18,-3.822430849,-4.149735928,-2.733925343
1708,1.5596557255e+18,-4.553097725,-6.96450758,-1.247806072
1709,1.55965572556e+18,2.329809666,-1.975984097,-2.907762527
1710,1.55965572562e+18,5.619559288,5.145747185,-0.3022389412
1711,1.55965572568e+18,-0.5535159111,7.668354988,-2.872229815
1712,1.55965572574e+18,-7.892958164,4.007437229,-4.719470501
1713,1.5596557258e+18,0.4252557755,-2.109369278,5.61677742
1714,1.55965572586e+18,-20.07819939,-1.716286421,-10.49884605
1715,1.55965572592e+18,-3.215872049,-8.138386726,-3.786306143
1716,1.55965572598e+18,9.411882401,-34.8378334,0.2561893463
1717,1.55965572604e+18,11.6401577,-5.154341221,2.438294888
1718,1.5596557261e+18,-3.986305475,3.098344803,-4.232769012
1719,1.55965572616e+18,-1.436770439,-0.4198236465,0.6856746674
1720,1.55965572622e+18,3.678371429,-5.877323151,-0.06091976166
1721,1.55965572628e+18,0.7571978569,-4.369091034,-2.855287552
1722,1.55965572634e+18,-0.7198762894,3.709358931,1.864650011
1723,1.5596557264e+18,-7.304848671,10.56651211,-3.641809702
1724,1.55965572646e+18,-4.530486107,7.334620476,-1.342231274
1725,1.55965572652e+18,8.347017288,-3.185836792,0.5385768414
1726,1.55965572658e+18,-12.27962017,-3.607038498,-5.442975044
1727,1.55965572664e+18,1.22567749,-12.25443459,-0.2215156555
1728,1.5596557267e+18,7.965373993,-31.48852348,-3.325274467
1729,1.55965572676e+18,6.373532295,13.08092976,1.57320714
1730,1.55965572682e+18,-1.599402666,2.497561932,-1.988666296
1731,1.55965572688e+18,1.84360981,-7.945218563,-0.2277216911
1732,1.55965572694e+18,9.901480675,-10.62691498,3.036418676
1733,1.559655727e+18,1.542681694,-4.135483742,0.9116220474
1734,1.55965572706e+18,-3.827833176,4.537854195,-0.5224890709
1735,1.55965572712e+18,-7.619627953,7.401474476,-5.799330711
1736,1.55965572718e+18,-4.525255203,4.844921112,-4.206074715
1737,1.55965572724e+18,-8.808608055,-2.867929935,-5.572536945
1738,1.5596557273e+18,22.74114799,-5.446399689,0.2592124939
1739,1.55965572736e+18,-3.121374607,-6.073288441,2.073342323
1740,1.55965572742e+18,0.2852449417,-15.02220917,-7.80451107
1741,1.55965572748e+18,3.861845255,7.267530918,-0.6971645355
1742,1.55965572754e+18,0.2730298042,-1.890392303,-2.554913044
1743,1.5596557276e+18,9.18355751,-6.03916502,10.73251534
1744,1.55965572766e+18,0.0939142704,-8.128408432,-1.405984402
1745,1.55965572772e+18,1.377001762,0.2190322876,5.441663265
1746,1.55965572778e+18,-5.353467464,6.84113884,1.456162453
1747,1.55965572784e+18,-6.283942699,6.583802223,1.032335758
1748,1.5596557279e+18,-5.049678802,1.831610918,-4.048531532
1749,1.55965572796e+18,-4.177578926,-4.919886112,-15.34022331
1750,1.55965572802e+18,-5.964497566,-13.93525791,5.973515034
1751,1.55965572808e+18,16.15597534,-8.077732086,6.516114235
1752,1.55965572814e+18,-8.881603241,1.388762474,-6.444288254
1753,1.5596557282e+18,-1.499137163,4.29321003,-2.36558342
1754,1.55965572826e+18,-1.583821297,-6.687124252,0.7819597721
1755,1.55965572832e+18,7.223104954,-7.580136776,3.505835533
1756,1.55965572838e+18,3.552284241,-2.772073269,-1.82593596
1757,1.55965572844e+18,-1.892293453,5.361445904,3.111221552
1758,1.5596557285e+18,-0.6034121513,16.61683464,-7.277422905
1759,1.55965572856e+18,-5.948551655,7.651908875,-6.082555294
1760,1.55965572862e+18,-7.391225815,-7.108727932,16.58429146
1761,1.55965572868e+18,1.570631027,-8.747911453,-4.048481464
1762,1.55965572874e+18,-2.017662525,-17.37475204,2.697826385
1763,1.5596557288e+18,10.46434784,-14.00971127,4.526917934
1764,1.55965572886e+18,-2.517282724,11.3066597,-0.2415523529
1765,1.55965572892e+18,2.847777843,1.995037079,1.182589531
1766,1.55965572898e+18,0.6080160141,-9.441976547,-1.206911564
1767,1.55965572904e+18,4.607313633,-6.392917633,2.844791889
1768,1.5596557291e+18,1.262120724,-7.13587904,0.1271739006
1769,1.55965572916e+18,-2.567970753,1.613173962,-7.102586746
1770,1.55965572922e+18,-10.07178497,4.871063232,-6.12430048
1771,1.55965572928e+18,-9.567615509,0.8424437046,-11.95750237
1772,1.55965572934e+18,2.019114017,-6.926638126,-5.742425919
1773,1.5596557294e+18,-7.405333042,-2.372020721,-10.45623493
1774,1.55965572946e+18,-6.321611404,-25.18746948,-4.826070309
1775,1.55965572952e+18,10.20909405,-11.83952045,-0.04219007492
1776,1.55965572958e+18,0.8758907318,7.361281395,6.997949123
1777,1.55965572964e+18,-0.8544220924,0.4934740067,-3.960588932
1778,1.5596557297e+18,5.837162495,-6.61110878,-3.273647785
1779,1.55965572976e+18,4.175580502,-6.610445499,1.190339088
1780,1.55965572982e+18,0.1751356125,6.635177135,-2.555420876
1781,1.55965572988e+18,-3.927193642,13.76302719,5.468306541
1782,1.55965572994e+18,-10.79184055,9.510381699,-5.260080338
1783,1.55965573e+18,-11.80468273,7.633780003,-3.700094938
1784,1.55965573006e+18,-11.58041477,-7.10396719,-4.403584003
1785,1.55965573012e+18,8.622917175,-21.01169395,2.357869148
1786,1.55965573018e+18,4.884237766,-18.16071892,-3.659729481
1787,1.55965573024e+18,3.616019487,10.58510876,0.3159646988
1788,1.5596557303e+18,-3.432031393,1.664242744,-4.718955994
1789,1.55965573036e+18,-5.96049118,-6.234982967,-1.508662105
1790,1.55965573042e+18,2.229569912,-4.767332554,-0.9971413612
1791,1.55965573048e+18,6.047195435,-2.540482998,4.410933495
1792,1.55965573054e+18,0.1124162674,5.776132107,-0.9104784727
1793,1.5596557306e+18,-0.791727066,6.57161808,10.03158855
1794,1.55965573066e+18,-18.44797134,12.41952896,-4.372952461
1795,1.55965573072e+18,-15.07172585,4.244638443,-1.909918308
1796,1.55965573078e+18,12.14698029,-26.60507393,1.350832939
1797,1.55965573084e+18,1.137795925,-12.5552063,-6.069691181
1798,1.5596557309e+18,2.328246593,-0.005491256714,-0.04355049133
1799,1.55965573096e+18,-3.460987329,5.477585793,1.666220188
1800,1.55965573102e+18,-4.716607094,-6.671322823,-2.414218664
1801,1.55965573108e+18,-1.601340771,-13.12117004,-1.87944603
1802,1.55965573114e+18,-1.581028938,0.09310096502,3.798581123
1803,1.5596557312e+18,-1.709636688,9.896355629,-4.968367577
1804,1.55965573126e+18,-4.278163433,7.449987411,-10.98752975
1805,1.55965573132e+18,0.1150736809,8.130703926,-3.466415405
1806,1.55965573138e+18,-12.64783478,9.770986557,-9.532773972
1807,1.55965573144e+18,-4.528100014,-17.07597351,3.2905159
1808,1.5596557315e+18,-3.685152531,-24.41474152,2.165326595
1809,1.55965573156e+18,7.831624031,-8.693635941,0.7892308235
1810,1.55965573162e+18,-1.367114544,4.606010914,3.04706192
1811,1.55965573168e+18,-3.689327478,0.5265960693,0.4670906067
1812,1.55965573174e+18,-2.199783802,-12.41066647,2.331731319
1813,1.5596557318e+18,-1.243501186,-6.98788023,5.584469795
1814,1.55965573186e+18,-7.671018124,4.784292221,5.951728821
1815,1.55965573192e+18,-4.448040009,5.454521179,-2.564908981
1816,1.55965573198e+18,0.8337802887,7.352965355,-10.97537613
1817,1.55965573204e+18,-7.025137901,0.233798027,-7.858345509
1818,1.5596557321e+18,-2.569137335,-3.56444025,1.915592194
1819,1.55965573216e+18,-7.657354355,3.037886381,-2.356804371
1820,1.55965573222e+18,-4.562948704,-11.71417522,10.32078743
1821,1.55965573228e+18,14.76107216,-21.52018738,5.041614532
1822,1.55965573234e+18,-3.244997501,-2.103854656,-4.506594658
1823,1.5596557324e+18,-4.821827888,-0.3836545944,-3.253836155
1824,1.55965573246e+18,2.252612591,-4.446393013,0.8463625908
1825,1.55965573252e+18,-1.431147099,-5.257431984,1.219124317
1826,1.55965573258e+18,-1.527194977,-0.4791198671,-1.198599339
1827,1.55965573264e+18,-1.634277344,5.468855381,-4.802241802
1828,1.5596557327e+18,-1.082077026,12.37687206,-1.612016201
1829,1.55965573276e+18,-7.224440575,2.084410191,5.591180801
1830,1.55965573282e+18,-25.70703888,6.13424778,-16.41895866
1831,1.55965573288e+18,-0.07368850708,-10.04796028,1.654333115
1832,1.55965573294e+18,6.961474419,-25.28986168,3.618535042
1833,1.559655733e+18,7.23601675,-15.76978874,0.9088082314
1834,1.55965573306e+18,-0.7558197975,1.402421951,-1.93796587
1835,1.55965573312e+18,0.6469311714,-0.4832625389,-2.501398802
1836,1.55965573318e+18,6.292983532,-8.20797348,-0.1489219666
1837,1.55965573324e+18,4.215899944,-3.213387728,1.516766071
1838,1.5596557333e+18,0.340939045,1.090527058,-0.6073794365
1839,1.55965573336e+18,-6.913380623,1.533784151,-0.7815651894
1840,1.55965573342e+18,-10.38952541,3.757004738,-7.123768806
1841,1.55965573348e+18,-4.193254471,0.909008503,-7.38121891
1842,1.55965573354e+18,-14.97547913,3.757603884,-9.849945068
1843,1.5596557336e+18,9.760070801,-15.38688755,-7.21933651
1844,1.55965573366e+18,1.15669632,-13.218853,0.01080513
1845,1.55965573372e+18,4.447549343,-20.26806641,-1.666942596
1846,1.55965573378e+18,2.756451607,6.502866745,3.025602102
1847,1.55965573384e+18,0.04422283173,0.3589134216,0.7077865601
1848,1.5596557339e+18,8.020656586,-13.21110344,1.218474388
1849,1.55965573396e+18,4.964502811,-8.317272186,2.442598343
1850,1.55965573402e+18,0.2955417633,0.03435730934,-1.266426563
1851,1.55965573408e+18,-3.083673,3.341040373,-10.64957428
1852,1.55965573414e+18,-11.80407906,4.094073296,-13.79735184
1853,1.5596557342e+18,-8.145735741,-2.127812624,2.866152763
1854,1.55965573426e+18,-7.445846558,5.93316555,-8.919095993
1855,1.55965573432e+18,-0.2907788754,-15.00884724,-4.993136883
1856,1.55965573438e+18,1.464749336,-22.97873116,-6.347490311
1857,1.55965573444e+18,10.46964455,-2.679686546,4.867675304
1858,1.5596557345e+18,-2.10299468,3.175577641,-1.307361841
1859,1.55965573456e+18,2.09207058,1.016829014,6.221925735
1860,1.55965573462e+18,6.924825191,-12.29477882,3.406264305
1861,1.55965573468e+18,2.082129478,-6.479230881,0.5105757713
1862,1.55965573474e+18,-3.016857386,1.858046055,-1.642863274
1863,1.5596557348e+18,-4.762491226,4.322595596,-3.396079063
1864,1.55965573486e+18,-9.575471878,6.362268925,-8.379505157
1865,1.55965573492e+18,-5.105457306,2.806763887,-4.564763069
1866,1.55965573498e+18,-1.763703346,-8.045625687,-4.504234314
1867,1.55965573504e+18,2.213699818,-4.198692799,-7.230692863
1868,1.5596557351e+18,-1.441603184,-16.99353981,-7.23495245
1869,1.55965573516e+18,11.80010509,-2.298938751,4.343904972
1870,1.55965573522e+18,-4.991327286,0.08838701248,-12.23945427
1871,1.55965573528e+18,0.7441077232,1.981965065,3.1459589
1872,1.55965573534e+18,5.881900311,-6.137330532,9.350893021
1873,1.5596557354e+18,5.983602047,-2.646671772,7.890910625
1874,1.55965573546e+18,-2.612434864,1.793640852,1.772538662
1875,1.55965573552e+18,-7.02464056,7.934423447,-4.753736496
1876,1.55965573558e+18,-7.233654976,4.579791069,-7.919837952
1877,1.55965573564e+18,-2.99510622,-4.766339779,-10.95541954
1878,1.5596557357e+18,7.364726067,-10.77554512,0.627314806
1879,1.55965573576e+18,-12.94754791,-2.914087534,-6.150889397
1880,1.55965573582e+18,4.218421936,-21.43648911,-3.883756638
1881,1.55965573588e+18,0.08037137985,1.193937302,0.142926693
1882,1.55965573594e+18,-1.032988548,-0.4642453194,3.218214989
1883,1.559655736e+18,-1.098365784,-11.97883129,0.2586336136
1884,1.55965573606e+18,8.040402412,-7.926700592,5.436633587
1885,1.55965573612e+18,3.775749207,-4.906962395,3.382461071
1886,1.55965573618e+18,-5.686150551,5.127380371,2.228090286
1887,1.55965573624e+18,-7.867291927,12.97132397,-6.057766914
1888,1.5596557363e+18,-3.681189775,4.679404259,-7.384773731
1889,1.55965573636e+18,-3.746628523,-2.168577671,-5.873148918
1890,1.55965573642e+18,3.53197813,-1.770395994,-16.41051483
1891,1.55965573648e+18,-0.9489169121,-12.21407986,-3.322077513
1892,1.55965573654e+18,1.484401703,-22.93507004,2.405837059
1893,1.5596557366e+18,4.054322243,5.644716263,0.9322109222
1894,1.55965573666e+18,-5.239144802,3.208291531,0.07742857933
1895,1.55965573672e+18,4.425618172,-3.074113369,1.606336117
1896,1.55965573678e+18,7.532055378,-7.264238358,1.095689774
1897,1.55965573684e+18,2.918840408,-6.117898941,0.4846153259
1898,1.5596557369e+18,-2.60007143,0.3628665209,-3.246452093
1899,1.55965573696e+18,-8.695103645,10.81471062,-4.447839737
1900,1.55965573702e+18,-9.40174675,9.222795486,-10.68320465
1901,1.55965573708e+18,-17.13658142,1.617607355,-8.895802498
1902,1.55965573714e+18,-1.090669632,-9.340477943,2.489326954
1903,1.5596557372e+18,4.632528782,-23.88929558,-5.489657879
1904,1.55965573726e+18,2.212253571,-11.92401505,-2.89964509
1905,1.55965573732e+18,-0.0846953392,6.251403809,-0.5897746086
1906,1.55965573738e+18,-1.198101997,0.05621337891,-1.495424509
1907,1.55965573744e+18,2.352035046,-10.99436188,-1.881517887
1908,1.5596557375e+18,6.75783062,-3.815181255,1.966477394
1909,1.55965573756e+18,0.5368003845,-4.02862072,1.216281891
1910,1.55965573762e+18,-5.324233055,0.5466901064,-0.1067690849
1911,1.55965573768e+18,-10.24106979,3.894734859,-6.279407978
1912,1.55965573774e+18,-8.829176903,3.802981377,-6.254435539
1913,1.5596557378e+18,1.688578129,-10.83419418,11.20803261
1914,1.55965573786e+18,-9.405740738,3.374306679,6.293268681
1915,1.55965573792e+18,15.19654083,-52.00909424,-2.349566936
1916,1.55965573798e+18,2.009421825,0.4772133827,-6.578172684
1917,1.55965573804e+18,-1.336492538,-2.327674389,-3.700400829
1918,1.5596557381e+18,-8.58102417,-3.555377007,1.532708645
1919,1.55965573816e+18,-0.1656808853,-4.003232956,-4.004938602
1920,1.55965573822e+18,10.72385597,-1.640415192,0.3761532307
1921,1.55965573828e+18,6.483204842,9.607897758,-4.187458038
1922,1.55965573834e+18,-1.141535759,13.52815247,-1.039292455
1923,1.5596557384e+18,-12.3392725,11.43222809,-5.255593777
1924,1.55965573846e+18,7.375518799,-9.623808861,8.042658806
1925,1.55965573852e+18,-4.031559944,0.8921957016,-4.028652668
1926,1.55965573858e+18,-1.927679062,-12.49841976,-1.047332048
1927,1.55965573864e+18,6.867384434,-20.91698074,-1.315533638
1928,1.5596557387e+18,2.931720734,-0.905837059,-2.129165173
1929,1.55965573876e+18,-0.7434506416,6.320315838,-0.4378530979
1930,1.55965573882e+18,2.740744591,0.1326580048,4.413454056
1931,1.55965573888e+18,6.586018562,-11.12126637,-0.414096117
1932,1.55965573894e+18,-0.2626457214,-7.135909081,1.388512611
1933,1.559655739e+18,-6.189755917,-1.763001084,0.1508545876
1934,1.55965573906e+18,-11.36139297,3.121168613,-7.234904289
1935,1.55965573912e+18,-8.427819252,8.457924843,-9.92373848
1936,1.55965573918e+18,8.650288582,-6.032012463,-7.873916626
1937,1.55965573924e+18,-12.68376541,-6.754507065,-5.043197155
1938,1.5596557393e+18,3.095956802,-23.12267685,3.100521564
1939,1.55965573936e+18,3.875854969,-6.567902565,0.2177801132
1940,1.55965573942e+18,-1.688180685,8.903916359,4.290989876
1941,1.55965573948e+18,-1.789392948,1.315487385,5.044865131
1942,1.55965573954e+18,5.099540234,-17.03461266,-1.712064505
1943,1.5596557396e+18,0.2660531998,-11.22837639,1.089378357
1944,1.55965573966e+18,-2.847941875,-1.885045767,-0.3326635361
1945,1.55965573972e+18,-6.152754784,5.665269852,-3.318132639
1946,1.55965573978e+18,-6.158641338,7.408679485,-8.76517868
1947,1.55965573984e+18,-13.20191383,6.832973003,-13.07210541
1948,1.5596557399e+18,3.021074772,-15.78399849,-14.91884422
1949,1.55965573996e+18,-2.310284376,-23.1919117,-0.8406300545
1950,1.55965574002e+18,3.611263037,-15.39937782,0.506786108
1951,1.55965574008e+18,2.942260265,2.925601482,6.996883392
1952,1.55965574014e+18,-1.09545958,11.59027004,8.66454792
1953,1.5596557402e+18,-1.16050005,0.9906029701,5.446412086
1954,1.55965574026e+18,3.900082588,-12.99880028,1.293565273
1955,1.55965574032e+18,6.182358265,-1.584824085,6.693104744
1956,1.55965574038e+18,0.4724683762,0.1397025585,1.70259428
1957,1.55965574044e+18,-4.207678795,1.015737534,-2.582610846
1958,1.5596557405e+18,-17.08222008,0.54513973,-11.80595016
1959,1.55965574056e+18,-14.8464222,0.4835952222,-19.50988197
1960,1.55965574062e+18,-2.439660072,0.8335290551,-1.572775364
1961,1.55965574068e+18,7.806054115,-36.06233978,-9.942428589
1962,1.55965574074e+18,12.48253441,-12.34246254,6.122947216
1963,1.5596557408e+18,0.7256395817,-0.5133490562,-1.086838484
1964,1.55965574086e+18,-2.857402325,4.355725288,3.800269127
1965,1.55965574092e+18,3.483168125,-8.088139534,4.489739895
1966,1.55965574098e+18,-0.3836607933,-3.083798647,6.531787395
1967,1.55965574104e+18,-3.119333506,0.6332698464,4.140470505
1968,1.5596557411e+18,-8.171860695,-0.7012754083,-1.995746613
1969,1.55965574116e+18,-1.36465621,-4.453577042,-2.578442574
1970,1.55965574122e+18,-11.44557285,4.036972523,-16.72264481
1971,1.55965574128e+18,-9.588817596,3.525830984,-7.028156757
1972,1.55965574134e+18,5.555538177,-12.28212738,8.053449631
1973,1.5596557414e+18,-4.709964752,-17.23555565,-11.52616119
1974,1.55965574146e+18,6.573540688,-7.187137127,1.644134521
1975,1.55965574152e+18,-1.307830334,5.024713516,3.141273022
1976,1.55965574158e+18,-0.07789707184,-0.5515117645,4.127332211
1977,1.55965574164e+18,9.845171928,-6.070736408,3.881204605
1978,1.5596557417e+18,2.118890762,0.1594556272,1.166669369
1979,1.55965574176e+18,-0.2388148308,4.273542404,-3.476511478
1980,1.55965574182e+18,-2.749828339,4.883456707,-3.913981915
1981,1.55965574188e+18,-4.635174274,3.833747864,-4.607914448
1982,1.55965574194e+18,-12.08870029,-8.511846542,-13.28693199
1983,1.559655742e+18,48.73630524,-8.066802025,-41.11296844
1984,1.55965574206e+18,7.186439037,-14.03206539,-2.161172867
1985,1.55965574212e+18,-0.1673278809,-15.3713665,-3.840307236
1986,1.55965574218e+18,4.953876019,1.132708549,-4.597405434
1987,1.55965574224e+18,-2.95417881,-1.754353046,-0.9741444588
1988,1.5596557423e+18,2.282678604,-10.18933678,3.811751842
1989,1.55965574236e+18,7.269106388,-5.732183456,1.396090984
1990,1.55965574242e+18,4.323020458,6.091833591,-2.381328583
1991,1.55965574248e+18,-5.168205738,5.756093502,-8.982039452
