,Time (s),Linear Acceleration x (m/s^2),Linear Acceleration y (m/s^2),Linear Acceleration z (m/s^2)
0,1.55965624006e+18,0.1125605106,0.6413627863,-0.4411754608
1,1.55965624012e+18,1.323806882,1.453038216,-0.1480007172
2,1.55965624018e+18,1.392997265,1.638061762,-0.08887672424
3,1.55965624024e+18,1.052342534,1.765405893,-0.1118793488
4,1.5596562403e+18,0.1888372004,1.798383236,-0.1917028427
5,1.55965624036e+18,-0.5501106381,1.791867733,-0.2065267563
6,1.55965624042e+18,5.324037552,3.889655113,-1.052963257
7,1.55965624048e+18,6.783544064,3.394395828,-0.366522789
8,1.55965624054e+18,9.32012558,-0.1830166578,-1.427004814
9,1.5596562406e+18,10.50295639,-7.143671036,-3.172383785
10,1.55965624066e+18,11.17000961,-8.565393448,-4.423368931
11,1.55965624072e+18,8.857091904,-10.41623306,-5.324477196
12,1.55965624078e+18,6.28531456,-8.075090408,-7.003926277
13,1.55965624084e+18,3.140208483,-4.723234177,-7.586075783
14,1.5596562409e+18,1.485248804,-2.904343367,-6.946455002
15,1.55965624096e+18,1.935832262,-3.58055687,-2.969667912
16,1.55965624102e+18,3.575773001,-3.012297153,-0.3692874908
17,1.55965624108e+18,5.865930557,-0.2180063725,2.194148064
18,1.55965624114e+18,5.886722088,-0.1318922043,2.633782387
19,1.5596562412e+18,2.471001863,-0.5912935734,-0.08106231689
20,1.55965624126e+18,-0.3947892785,0.3799960613,-3.4320364
21,1.55965624132e+18,-2.041156054,0.9100874066,-5.353077412
22,1.55965624138e+18,-0.9795583487,1.738195181,-4.846125603
23,1.55965624144e+18,1.711183429,1.705291033,-1.747098923
24,1.5596562415e+18,0.3348989487,1.395150185,-2.772080421
25,1.55965624156e+18,-0.1794331074,0.2664903998,-1.404852867
26,1.55965624162e+18,-0.6642994881,0.1014198661,-0.1901283264
27,1.55965624168e+18,-2.240068674,-0.6438825727,1.62746048
28,1.55965624174e+18,-3.31039381,1.150837183,-0.9471216202
29,1.5596562418e+18,-4.988976002,1.075480223,0.3416280746
30,1.55965624186e+18,-4.01705265,-1.323363185,-0.8802366257
31,1.55965624192e+18,-0.0559797287,-2.862938881,2.240921021
32,1.55965624198e+18,-0.8926680088,-4.140138626,1.850016594
33,1.55965624204e+18,2.719494581,-1.281564951,0.9286384583
34,1.5596562421e+18,-3.644858599,-1.688130379,-1.844227314
35,1.55965624216e+18,-0.3916828632,0.488465786,-1.870967388
36,1.55965624222e+18,-0.25070858,-0.5850512981,-1.138292313
37,1.55965624228e+18,-0.4542956352,-0.1363708973,-1.210582733
38,1.55965624234e+18,-0.1108608246,-0.03712821007,-1.833837032
39,1.5596562424e+18,-0.2525343895,-0.2943348885,-0.8090844154
40,1.55965624246e+18,-0.3437480927,-0.03826355934,-1.190238953
41,1.55965624252e+18,0.1755065918,-0.1311547756,-0.6815299988
42,1.55965624258e+18,-0.2402729988,-0.04721283913,-1.092373371
43,1.55965624264e+18,0.1369242668,0.2114863396,-0.3988881111
44,1.5596562427e+18,-0.1542863846,0.3157498837,0.06493854523
45,1.55965624276e+18,-0.06111955643,0.09417724609,-0.2214789391
46,1.55965624282e+18,-0.25344944,-0.4995787144,0.02588605881
47,1.55965624288e+18,0.347887516,-0.3950781822,0.0888209343
48,1.55965624294e+18,-0.1301817894,-0.539485693,-0.09452152252
49,1.559656243e+18,-0.01829624176,-0.05236506462,0.193751812
50,1.55965624306e+18,-0.2444291115,0.2913665771,-0.5321240425
51,1.55965624312e+18,-0.1437573433,-0.1188509464,-0.4420695305
52,1.55965624318e+18,-0.1824636459,0.3300580978,-0.9615626335
53,1.55965624324e+18,-0.1721644402,0.1546220779,-0.6936373711
54,1.5596562433e+18,-0.1919317245,-0.1315822601,-0.4420809746
55,1.55965624336e+18,-0.2541613579,-0.06664800644,-0.5002179146
56,1.55965624342e+18,-0.001900672913,0.1939387321,-0.5709891319
57,1.55965624348e+18,0.005028247833,-0.1526823044,-0.1954312325
58,1.55965624354e+18,-0.232108593,-0.3845374584,0.2171373367
59,1.5596562436e+18,0.2099776268,-0.3790047169,0.2429852486
60,1.55965624366e+18,0.1166949272,-0.2638292313,-0.5715341568
61,1.55965624372e+18,0.6214776039,0.1990528107,-0.7567081451
62,1.55965624378e+18,0.03453683853,-0.2338426113,-0.3872699738
63,1.55965624384e+18,0.0500330925,-0.06516504288,-0.01305055618
64,1.5596562439e+18,0.001079559326,-0.05527067184,-0.118581295
65,1.55965624396e+18,0.05653047562,0.07130479813,-0.4482040405
66,1.55965624402e+18,0.1041536331,0.1556611061,-0.3878564835
67,1.55965624408e+18,0.2188668251,-0.322773695,-0.4275765419
68,1.55965624414e+18,0.4628481865,-0.1757776737,-0.8736729622
69,1.5596562442e+18,0.5903558731,-0.2612621784,-0.7910122871
70,1.55965624426e+18,0.5183215141,-0.03675103188,-0.9008936882
71,1.55965624432e+18,0.2926802635,0.2477943897,-0.2501444817
72,1.55965624438e+18,-0.02483034134,0.6132333279,0.1881709099
73,1.55965624444e+18,0.1250729561,0.83537817,0.3359375
74,1.5596562445e+18,0.103061676,0.7689678669,0.1299891472
75,1.55965624456e+18,0.1293802261,0.3145084381,0.01610183716
76,1.55965624462e+18,0.3080983162,0.09473609924,0.1887774467
77,1.55965624468e+18,0.4412517548,0.4259104729,-0.1674809456
78,1.55965624474e+18,0.803917408,0.6901698112,-0.8440804482
79,1.5596562448e+18,-0.09985160828,-0.06355404854,-0.5857830048
80,1.55965624486e+18,0.02353858948,-0.3264579773,-0.7442855835
81,1.55965624492e+18,0.2262291908,-0.08653974533,-0.7529931068
82,1.55965624498e+18,0.4414963722,-0.492452383,-0.2326021194
83,1.55965624504e+18,0.0582818985,-1.021827459,-0.2402296066
84,1.5596562451e+18,-0.2059488297,-1.037314415,0.00733757019
85,1.55965624516e+18,-1.669139385,0.03080654144,0.2782387733
86,1.55965624522e+18,-1.247696877,-0.947029233,-0.308157444
87,1.55965624528e+18,-1.279375553,-1.578056455,-2.011645794
88,1.55965624534e+18,1.471610069,-2.131673098,-0.7240338326
89,1.5596562454e+18,1.268604279,-0.8672283888,-2.653010368
90,1.55965624546e+18,1.028296232,-0.01185846329,-1.338926792
91,1.55965624552e+18,0.1823055744,0.08527481556,-0.4747085571
92,1.55965624558e+18,1.21625936,0.2958824635,0.374671936
93,1.55965624564e+18,1.477045059,-1.037300467,0.9505386353
94,1.5596562457e+18,-0.1218893528,-0.9787379503,0.671875
95,1.55965624576e+18,0.1225883961,0.7383739352,1.549013138
96,1.55965624582e+18,0.4859375954,1.069561481,1.827210426
97,1.55965624588e+18,0.9424328208,1.35647881,1.711708069
98,1.55965624594e+18,1.423478484,1.637188673,2.160673141
99,1.559656246e+18,2.430926561,0.8457138538,1.890989304
100,1.55965624606e+18,1.870136976,0.9229710698,0.1958808899
101,1.55965624612e+18,1.38421464,0.7099369168,-0.8138017654
102,1.55965624618e+18,0.9819586277,0.9021353126,-1.005164146
103,1.55965624624e+18,0.8139301538,1.42499733,-1.140248299
104,1.5596562463e+18,-0.5842648745,1.18766284,-0.9804201126
105,1.55965624636e+18,-1.283437729,1.0300138,-0.9420490265
106,1.55965624642e+18,-2.566497803,-0.7311758995,-1.54451561
107,1.55965624648e+18,-1.11512959,-2.591303349,-0.4421510696
108,1.55965624654e+18,-1.607243776,-2.561810255,-0.06841468811
109,1.5596562466e+18,-0.9226603508,-1.516650438,1.208837509
110,1.55965624666e+18,-0.8685554266,-0.233104229,0.4886732101
111,1.55965624672e+18,-0.5491249561,-0.3782224655,1.00108242
112,1.55965624678e+18,-0.6698040962,0.04565429688,-0.2190599442
113,1.55965624684e+18,-0.362360239,-0.1367871612,-0.6935176849
114,1.5596562469e+18,0.2482113838,0.08236587048,-0.6760005951
115,1.55965624696e+18,-0.1442985535,-0.7182122469,-1.250161171
116,1.55965624702e+18,0.5673429966,-0.466984123,-0.9502124786
117,1.55965624708e+18,0.2560415268,-0.2296135724,-0.4880018234
118,1.55965624714e+18,0.1997725964,0.2617642283,-0.1783714294
119,1.5596562472e+18,0.40853405,0.08232599497,0.2617044449
120,1.55965624726e+18,0.2755475044,-0.1345289946,-0.08207702637
121,1.55965624732e+18,0.2518265247,0.08018025756,-0.2357215881
122,1.55965624738e+18,0.3690195084,0.1547228098,-0.4196643829
123,1.55965624744e+18,0.7294535637,0.3612653017,-0.2219047546
124,1.5596562475e+18,0.003000974655,0.6431724429,-0.3325433731
125,1.55965624756e+18,-0.08724617958,0.4496878386,0.2938613892
126,1.55965624762e+18,0.05557799339,0.09538948536,0.3797607422
127,1.55965624768e+18,0.7407946587,-0.1708000898,-0.4610862732
128,1.55965624774e+18,0.6444051266,-0.2990727425,-0.5775051117
129,1.5596562478e+18,0.5185191631,-0.4536221027,-0.437710762
130,1.55965624786e+18,0.8396339417,-0.3757212162,-0.2746810913
131,1.55965624792e+18,0.5782248974,-0.3952245712,-0.2437429428
132,1.55965624798e+18,0.2122328281,-0.09334337711,-0.105132103
133,1.55965624804e+18,0.5171039104,0.0633225441,-0.3005495071
134,1.5596562481e+18,0.430914402,0.1233839989,-0.4511823654
135,1.55965624816e+18,-0.3008172512,0.3043026924,-0.3738164902
136,1.55965624822e+18,-0.1401677132,0.2544829845,0.1675348282
137,1.55965624828e+18,-0.4393751621,0.1166524887,-0.2306928635
138,1.55965624834e+18,-0.006971597672,-0.2043015957,-0.07803726196
139,1.5596562484e+18,-0.3213181496,-0.4141995907,-0.6014585495
140,1.55965624846e+18,-0.2066967487,-0.4847803116,-0.5140552521
141,1.55965624852e+18,0.2256977558,-0.3823881149,-0.2810382843
142,1.55965624858e+18,0.1506085396,0.1691660881,0.08017539978
143,1.55965624864e+18,-0.001092910767,0.1199684143,-0.379899025
144,1.5596562487e+18,0.2470710278,-0.1377739906,-0.6555528641
145,1.55965624876e+18,0.5541846752,-0.4987362623,-0.939871788
146,1.55965624882e+18,1.098040462,-0.6082149744,-0.4878034592
147,1.55965624888e+18,1.183681965,-0.9872675538,1.410273552
148,1.55965624894e+18,1.83743453,-1.685745001,1.791481972
149,1.559656249e+18,1.762699008,-1.207711935,0.7228136063
150,1.55965624906e+18,1.470182896,-0.3475458026,-0.9274101257
151,1.55965624912e+18,1.795028567,-0.3093739152,-1.028205872
152,1.55965624918e+18,2.037042856,0.6514167786,-1.040478706
153,1.55965624924e+18,1.128126025,1.104880452,-0.7245960236
154,1.5596562493e+18,-0.3439170122,0.8650197983,-0.8504896164
155,1.55965624936e+18,-1.46228838,0.8944846988,-1.4121418
156,1.55965624942e+18,-2.180528641,1.117023945,1.437193871
157,1.55965624948e+18,-1.487762094,0.3509218395,2.045259476
158,1.55965624954e+18,-1.807994604,-0.508302331,1.502859116
159,1.5596562496e+18,-2.290328503,-0.06008324027,-0.2317657471
160,1.55965624966e+18,-2.101726532,0.3822386861,-0.623922348
161,1.55965624972e+18,-1.246946335,0.1891540885,-0.05608654022
162,1.55965624978e+18,-0.03820472956,-0.1682626903,0.2461929321
163,1.55965624984e+18,0.5229317546,-0.4491742849,0.1636705399
164,1.5596562499e+18,0.7768511772,-0.6345125437,-0.5344009399
165,1.55965624996e+18,0.7289773822,0.199792549,-0.1339578629
166,1.55965625002e+18,0.6356528997,0.8483678699,0.2874774933
167,1.55965625008e+18,0.456040144,1.041133404,0.08387851715
168,1.55965625014e+18,1.30087173,0.4917058945,0.9772758484
169,1.5596562502e+18,1.264461279,-0.09022565931,0.8368597031
170,1.55965625026e+18,0.4193915129,-0.3102211356,-0.2803821564
171,1.55965625032e+18,0.1295485497,-0.3320515752,-0.8649291992
172,1.55965625038e+18,0.3823912144,-0.1314579844,-0.4196872711
173,1.55965625044e+18,0.4710235596,-0.1110658646,-0.09178924561
174,1.5596562505e+18,0.1303286552,0.1902607083,-0.2956085205
175,1.55965625056e+18,0.1067690849,0.6843727827,0.1598653793
176,1.55965625062e+18,0.3866112232,0.3364781141,0.08537769318
177,1.55965625068e+18,0.446710825,0.1889846325,-0.3613481522
178,1.55965625074e+18,0.8582975864,1.633631587,0.4537992477
179,1.5596562508e+18,0.2821974754,2.577064991,0.5267515182
180,1.55965625086e+18,0.482278347,0.4804241657,1.398824692
181,1.55965625092e+18,0.690823555,-0.1370854378,0.1791419983
182,1.55965625097e+18,0.7121982574,-1.032282829,-1.562863827
183,1.55965625103e+18,-0.1761417389,-1.998702049,-2.371957779
184,1.55965625109e+18,0.4894404411,-1.736375928,-1.361091614
185,1.55965625115e+18,0.0662279129,-1.45217073,-1.208934307
186,1.55965625121e+18,-1.02475214,-1.450801015,-1.53077507
187,1.55965625127e+18,0.7513003349,-1.33492291,-0.9981389046
188,1.55965625133e+18,-0.2388820648,-0.7122479677,-1.608757973
189,1.55965625139e+18,0.2145385742,0.4276744127,-0.7261853218
190,1.55965625145e+18,-0.3689117432,0.6178418398,0.2218294144
191,1.55965625151e+18,-0.5242714882,0.5515549183,0.9373674393
192,1.55965625157e+18,0.560341835,0.2505202889,1.473571777
193,1.55965625163e+18,0.326479435,-0.6728111506,1.104711056
194,1.55965625169e+18,0.8846597672,-1.325434446,0.9790501595
195,1.55965625175e+18,0.9722189903,0.1095117927,-0.0237030983
196,1.55965625181e+18,0.3128714561,-0.2474066019,0.6375422478
197,1.55965625187e+18,-0.3992481232,-0.3379201293,0.393014431
198,1.55965625193e+18,-0.06373023987,-0.225808382,-0.6662354469
199,1.55965625199e+18,-0.117846489,0.417065382,-1.900167942
200,1.55965625205e+18,0.5141043663,0.6847667694,-1.27583456
201,1.55965625211e+18,-0.8421068192,0.3393456936,-2.22889781
202,1.55965625217e+18,0.5096607208,0.4674639702,-1.389437675
203,1.55965625223e+18,0.2197241783,0.2584326267,-0.5300192833
204,1.55965625229e+18,0.2827396393,-0.03850007057,0.03642654419
205,1.55965625235e+18,0.1161646843,0.01167416573,-0.04890108109
206,1.55965625241e+18,0.3703856468,0.293618679,0.05132484436
207,1.55965625247e+18,0.05139303207,0.06976795197,-0.2437391281
208,1.55965625253e+18,0.002383232117,0.1602814198,-0.263730526
209,1.55965625259e+18,0.3460826874,-0.08686542511,0.06452941895
210,1.55965625265e+18,0.1144003868,0.09791970253,-0.2178812027
211,1.55965625271e+18,0.4159007072,-0.05648875237,-0.6599884033
212,1.55965625277e+18,-0.2319045067,0.2372066975,-0.6222510338
213,1.55965625283e+18,-0.03531503677,-0.08450233936,0.2410788536
214,1.55965625289e+18,-0.3826966286,-0.8443650007,-0.2030286789
215,1.55965625295e+18,-0.4811377525,-0.5940996408,-0.3966035843
216,1.55965625301e+18,-0.5700502396,-0.2179118395,-0.6054430008
217,1.55965625307e+18,-0.6744799614,0.08831930161,-0.7838406563
218,1.55965625313e+18,-0.7810640335,0.3499693871,-0.9362754822
219,1.55965625319e+18,-0.7695922852,0.6856892109,-0.99061203
220,1.55965625325e+18,1.157541275,0.7910361886,-1.550995827
221,1.55965625331e+18,1.281754017,0.6026442647,-2.053094864
222,1.55965625337e+18,-0.4661183357,0.009417444468,-2.508842468
223,1.55965625343e+18,1.181105137,0.1201202273,-0.6359906197
224,1.55965625349e+18,4.661851883,-0.3100799322,1.160987854
225,1.55965625355e+18,2.750920534,-0.6264078617,-0.05280780792
226,1.55965625361e+18,0.9728350639,-1.646283627,2.956616879
227,1.55965625367e+18,-1.745669127,-1.805765629,2.486438751
228,1.55965625373e+18,-1.512687683,-0.5307779312,0.38129282
229,1.55965625379e+18,1.407107234,-0.4694166183,0.2032227516
230,1.55965625385e+18,0.6527047753,-0.9273786545,-0.2233929634
231,1.55965625391e+18,-0.568010807,-0.9397301674,-0.5385107994
232,1.55965625397e+18,0.2038145661,-0.8947205544,-0.535554409
233,1.55965625403e+18,0.1404272318,-0.7908596992,-0.3648757935
234,1.55965625409e+18,0.3079844713,-1.102265358,-0.292863369
235,1.55965625415e+18,0.3779212832,-0.9389004707,-0.1042585373
236,1.55965625421e+18,0.4176826477,-0.5701112747,-0.1876192093
237,1.55965625427e+18,0.2499493361,-0.3734459877,-0.3057427406
238,1.55965625433e+18,0.4728322327,-0.07668066025,-0.6649169922
239,1.55965625439e+18,0.3926932216,-0.4315524101,-0.3203167915
240,1.55965625445e+18,0.07454609871,-0.2395625114,-0.3680534363
241,1.55965625451e+18,0.2505577803,-0.2109103203,-0.2991423607
242,1.55965625457e+18,-0.1444027871,-0.3600459099,-0.2238821983
243,1.55965625463e+18,1.394030333,-0.3531837463,0.2911252975
244,1.55965625469e+18,0.3324764073,-0.4143624306,0.07581520081
245,1.55965625475e+18,0.8658303618,-0.0758266449,0.05789279938
246,1.55965625481e+18,0.3233265877,-0.2065620422,0.06332015991
247,1.55965625487e+18,-0.2057844698,0.199136734,-0.5555696487
248,1.55965625493e+18,0.2959985137,-0.06123399734,-0.4104862213
249,1.55965625499e+18,0.02388250828,0.1765270233,-0.8188591003
250,1.55965625505e+18,0.4792457819,0.02208375931,-0.5246648788
251,1.55965625511e+18,0.4381115437,-0.01130199432,-0.453742981
252,1.55965625517e+18,-0.2928155363,-0.2767019272,-0.4270524979
253,1.55965625523e+18,0.07328593731,-0.04837751389,0.01315402985
254,1.55965625529e+18,0.01131689548,0.04098749161,-0.1460571289
255,1.55965625535e+18,0.1881332994,0.1173405647,0.2049303055
256,1.55965625541e+18,0.2418736815,0.07646799088,0.1008501053
257,1.55965625547e+18,0.8063097,0.2399291992,0.6723499298
258,1.55965625553e+18,0.3225372434,0.07259082794,0.3950986862
259,1.55965625559e+18,0.7849937677,0.8999681473,0.4045314789
260,1.55965625565e+18,0.4786863327,0.5997743607,0.1901960373
261,1.55965625571e+18,0.2949865162,-0.255715847,0.1049032211
262,1.55965625577e+18,-0.7704886198,-1.035514355,0.3592042923
263,1.55965625583e+18,0.7323168516,-0.5760025978,-0.1251707077
264,1.55965625589e+18,0.4350569546,-0.49172616,-0.3231811523
265,1.55965625595e+18,0.01087158918,-0.6103525162,-0.8267126083
266,1.55965625601e+18,0.6576780677,-0.3308882713,-1.019053459
267,1.55965625607e+18,1.229932427,-0.2970335484,-1.232688904
268,1.55965625612e+18,1.660840631,0.1018970013,-1.343103409
269,1.55965625618e+18,0.5315787792,-0.2447845936,-1.484703064
270,1.55965625624e+18,0.4843136668,-0.4031682014,0.6222925186
271,1.5596562563e+18,-0.1044726372,-0.3698124886,1.090259552
272,1.55965625636e+18,-1.836817622,-0.3856854439,1.552282333
273,1.55965625642e+18,-1.321301699,-0.4615550041,1.370340347
274,1.55965625648e+18,-0.7410117388,-0.034111619,0.2980747223
275,1.55965625654e+18,-0.6238231659,0.4082419872,-0.5714445114
276,1.5596562566e+18,-0.3073856831,1.257769704,-1.720911026
277,1.55965625666e+18,-0.5593729019,0.3014990389,-1.70456028
278,1.55965625672e+18,-0.1080986261,-0.8968975544,-2.512656689
279,1.55965625678e+18,0.5150855184,-0.8187633753,-2.951945305
280,1.55965625684e+18,0.8487597704,-0.6905400753,-2.589586258
281,1.5596562569e+18,0.6990581751,1.069096923,-1.387638092
282,1.55965625696e+18,-0.6710270047,0.3575921059,1.008691788
283,1.55965625702e+18,-0.7235913277,-0.2145950049,3.223426819
284,1.55965625708e+18,0.3582415581,-0.231857717,2.934630394
285,1.55965625714e+18,0.1893894672,-0.4273585677,3.029649734
286,1.5596562572e+18,1.610948563,-1.390025616,3.794018745
287,1.55965625726e+18,-1.098242521,0.6667245626,1.225040436
288,1.55965625732e+18,-0.6131837964,0.1111974716,-0.4330444336
289,1.55965625738e+18,0.2244247794,-0.6077446938,-0.7438926697
290,1.55965625744e+18,0.5001711845,-0.6957765818,-1.892202377
291,1.5596562575e+18,2.039558887,-0.9022108316,-1.861061573
292,1.55965625756e+18,0.8515695333,-0.3930618763,-0.3305864334
293,1.55965625762e+18,0.4766219556,-0.4932444096,1.256813049
294,1.55965625768e+18,-0.5980223417,2.585845709,1.407607079
295,1.55965625774e+18,1.068516612,3.095847607,2.415807724
296,1.5596562578e+18,0.2829363346,3.51020813,0.2533140182
297,1.55965625786e+18,0.9458377361,1.775237083,-1.236280441
298,1.55965625792e+18,0.2774028778,-0.3979549408,-2.676104069
299,1.55965625798e+18,-1.125195742,-1.132997036,-6.324528694
300,1.55965625804e+18,-0.3397274315,-2.547997475,-8.699808121
301,1.5596562581e+18,3.193525076,-6.117228031,-8.999802589
302,1.55965625816e+18,4.925693035,-5.883475304,-9.800318718
303,1.55965625822e+18,7.682084084,-15.87979603,-17.41397476
304,1.55965625828e+18,3.847790003,-1.825662851,4.472192764
305,1.55965625834e+18,-4.381424904,4.083910465,10.73792267
306,1.5596562584e+18,-9.476597786,8.333963394,10.60338306
307,1.55965625846e+18,-10.42234898,7.483551025,4.869846344
308,1.55965625852e+18,-11.61748695,5.778801918,-3.746510983
309,1.55965625858e+18,-10.04062271,2.712149858,-8.249267578
310,1.55965625864e+18,-6.084615707,-4.542873859,2.347088814
311,1.5596562587e+18,15.79242992,-14.75455475,-13.95022392
312,1.55965625876e+18,5.118215084,-6.944617271,-7.035812378
313,1.55965625882e+18,-2.60871315,-0.08486247063,-9.754506111
314,1.55965625888e+18,-1.912778854,1.869742393,-7.269496918
315,1.55965625894e+18,-0.9600944519,-1.945994377,-5.679397583
316,1.559656259e+18,-0.3563220501,-1.478220582,-4.192762852
317,1.55965625906e+18,0.3053090572,0.5798627138,-5.396896362
318,1.55965625912e+18,1.034275174,0.9729192853,-1.66785717
319,1.55965625918e+18,0.2294799089,4.41975832,0.4466333389
320,1.55965625924e+18,1.820978642,6.37036562,8.705764771
321,1.5596562593e+18,5.565011024,5.270321369,11.45664978
322,1.55965625936e+18,6.108738899,4.351614475,7.591578484
323,1.55965625942e+18,4.903193474,1.089939356,3.514569283
324,1.55965625948e+18,2.541360378,0.547267437,0.5490474701
325,1.55965625954e+18,1.954064131,0.9148554802,-1.422729969
326,1.5596562596e+18,-0.3457649946,-0.4720406532,-1.907709122
327,1.55965625966e+18,-0.3472383618,0.7206411362,-2.807732105
328,1.55965625972e+18,-0.1432478726,1.028439999,-4.750408649
329,1.55965625978e+18,-1.877010465,0.8074707985,-5.792709351
330,1.55965625984e+18,0.8807723522,0.3196911812,-3.280551672
331,1.5596562599e+18,0.1500968933,-5.671627045,-3.988347292
332,1.55965625996e+18,0.5880522728,-9.969140053,-7.718084335
333,1.55965626002e+18,13.37958527,-20.87648582,11.70241356
334,1.55965626008e+18,-4.365446568,-8.955275536,2.950913906
335,1.55965626014e+18,-5.654947758,-2.709307194,0.1542701721
336,1.5596562602e+18,-6.837557316,1.022563934,1.563845158
337,1.55965626026e+18,-10.03637123,6.063066959,6.182774544
338,1.55965626032e+18,-13.0273304,9.423471451,2.12853241
339,1.55965626038e+18,-13.30456066,8.867061615,-1.468470097
340,1.55965626044e+18,-11.54132938,7.699607849,-1.793959618
341,1.5596562605e+18,1.124934912,-6.197669983,7.822216034
342,1.55965626056e+18,17.87379456,-22.02891159,0.7965049744
343,1.55965626062e+18,0.4048199654,-3.3646276,-6.237099648
344,1.55965626068e+18,-1.286751628,-1.177779794,-8.878974915
345,1.55965626074e+18,-2.519253731,2.377414942,-5.120173454
346,1.5596562608e+18,-1.069286823,3.044693708,-5.370660782
347,1.55965626086e+18,-1.269207239,3.472753763,-3.746888161
348,1.55965626092e+18,0.1643664539,4.248763084,-2.305753708
349,1.55965626098e+18,-0.6207399368,3.469464064,-1.031361103
350,1.55965626104e+18,-1.476815939,4.521874428,0.2065925598
351,1.5596562611e+18,-1.154580474,5.8546772,1.750244141
352,1.55965626116e+18,-0.6422841549,6.607931137,6.427958965
353,1.55965626122e+18,0.1409769058,2.807127476,6.042868137
354,1.55965626128e+18,-1.405879259,0.7372598648,1.90561676
355,1.55965626134e+18,-1.889027596,0.4873251915,1.225371838
356,1.5596562614e+18,-2.456624985,0.7284417152,0.3710613251
357,1.55965626146e+18,-1.923185349,0.6923642159,1.175409794
358,1.55965626152e+18,-0.8973791003,3.691093445,2.616676807
359,1.55965626158e+18,-0.1104575396,4.901032925,4.637306213
360,1.55965626164e+18,-1.371835232,-0.9121952057,1.178654671
361,1.5596562617e+18,0.04847973585,-6.352375984,-4.104172707
362,1.55965626176e+18,0.3716667891,-13.17544556,-8.587885857
363,1.55965626182e+18,5.886306763,-11.05901051,-11.36010551
364,1.55965626188e+18,-16.80672073,-10.62677193,-5.40627718
365,1.55965626194e+18,4.546165466,-0.7723622322,-11.71310616
366,1.559656262e+18,-0.0597679615,-3.152234554,-4.480784416
367,1.55965626206e+18,-0.7925951481,2.921751499,-1.627779961
368,1.55965626212e+18,-4.358087063,4.948007584,4.429455757
369,1.55965626218e+18,-6.414217949,6.404517174,8.116306305
370,1.55965626224e+18,-10.45541763,6.598530769,9.202548027
371,1.5596562623e+18,-16.06707764,10.58036041,7.230434418
372,1.55965626236e+18,-16.79393768,0.9182984829,4.360243797
373,1.55965626242e+18,5.027992249,-19.8514328,-1.361414909
374,1.55965626248e+18,5.930171013,-16.53708458,-4.03554821
375,1.55965626254e+18,-2.258168221,-4.217149258,-8.150208473
376,1.5596562626e+18,0.2266409397,-2.797395229,-8.171562195
377,1.55965626266e+18,-3.428740263,1.854832411,-5.717899799
378,1.55965626272e+18,-3.420210361,3.827768803,-2.023470402
379,1.55965626278e+18,-4.793449402,6.224392891,-4.583454132
380,1.55965626284e+18,-2.539719343,6.925774574,-0.125831604
381,1.5596562629e+18,-0.2998371124,6.916515827,3.673630714
382,1.55965626296e+18,0.3100264072,7.418169975,4.625552177
383,1.55965626302e+18,1.557264805,4.840716362,4.539740562
384,1.55965626308e+18,0.6878423691,2.482459784,2.422727585
385,1.55965626314e+18,1.403594971,1.921733856,1.496222496
386,1.5596562632e+18,1.768555641,-0.3494753838,1.802637577
387,1.55965626326e+18,1.195829391,-0.9357175827,0.7131085396
388,1.55965626332e+18,1.389407873,0.6570124626,0.5032987595
389,1.55965626338e+18,1.178120852,1.490381718,-0.8502440453
390,1.55965626344e+18,1.151278257,3.486692429,-0.07854938507
391,1.5596562635e+18,1.156360865,3.8494277,-1.294101715
392,1.55965626356e+18,-2.717468739,2.356308937,-4.757639885
393,1.55965626362e+18,-4.565309048,-2.335279465,-4.309224129
394,1.55965626368e+18,-4.108231544,-5.391716957,-3.629733562
395,1.55965626374e+18,-4.175423622,-10.39634895,-7.412669182
396,1.5596562638e+18,9.667850494,-17.53228569,3.285422802
397,1.55965626386e+18,-10.05927849,10.55521584,-6.487251759
398,1.55965626392e+18,-1.26789403,2.206774235,-6.210644245
399,1.55965626398e+18,-2.73330307,2.073478222,-0.7751569748
400,1.55965626404e+18,-2.969053268,5.029223919,6.060909271
401,1.5596562641e+18,-3.314661026,4.765220642,12.38426971
402,1.55965626416e+18,-2.873130322,2.587860107,7.14264679
403,1.55965626422e+18,-7.563725948,1.264454126,6.048046112
404,1.55965626428e+18,-7.595393181,2.38044548,8.396300316
405,1.55965626434e+18,-11.25449848,6.609928131,2.395132065
406,1.5596562644e+18,-7.216027737,-7.020217419,4.887516975
407,1.55965626446e+18,5.470519543,-9.954979897,-2.836763859
408,1.55965626452e+18,14.49276733,-7.658240318,-5.396661758
409,1.55965626458e+18,-2.706311703,-4.383316517,-9.215530396
410,1.55965626464e+18,-2.288763046,-1.624023438,-6.089293003
411,1.5596562647e+18,-4.239962101,1.412484884,-3.601405621
412,1.55965626476e+18,-1.66410625,2.398590326,-0.5333690643
413,1.55965626482e+18,-0.02049541473,3.33236599,0.124329567
414,1.55965626488e+18,2.048634052,5.725420952,2.139997005
415,1.55965626494e+18,0.4530529976,5.67193222,2.391415119
416,1.559656265e+18,-0.5168395042,6.782220364,2.45300293
417,1.55965626506e+18,0.1795225143,6.915841103,2.471713543
418,1.55965626512e+18,0.4582662582,4.3966856,2.784101963
419,1.55965626518e+18,-0.4392442703,3.305166006,1.125908375
420,1.55965626524e+18,0.154153347,1.250735521,0.7991271019
421,1.5596562653e+18,1.171816111,1.063289165,-1.516573429
422,1.55965626536e+18,1.298460245,1.820055008,-2.810258865
423,1.55965626542e+18,-2.118858814,0.073533535,-6.31078434
424,1.55965626548e+18,-1.412573576,-6.221004963,-4.644910812
425,1.55965626554e+18,-0.7446961403,-9.063031197,-12.39603519
426,1.5596562656e+18,27.75463867,-22.10342026,-31.86138153
427,1.55965626566e+18,-1.567846298,-0.7617311478,-0.1813960075
428,1.55965626572e+18,-5.581810474,-1.738214493,7.195137978
429,1.55965626578e+18,-2.926945925,4.674056053,6.424796104
430,1.55965626584e+18,-3.04624486,3.928792477,8.376383781
431,1.5596562659e+18,-11.88268757,5.099579811,2.129558563
432,1.55965626596e+18,-13.91197586,9.767457962,-2.487938881
433,1.55965626602e+18,-12.22490978,-3.238567829,-2.099989414
434,1.55965626608e+18,16.08009911,-11.06715584,-2.970050812
435,1.55965626614e+18,15.09915161,-13.12320137,-8.509239197
436,1.5596562662e+18,1.623707294,-4.895750999,-8.177980423
437,1.55965626626e+18,1.499939919,0.828389287,-7.558699608
438,1.55965626632e+18,-1.935544252,6.030713558,-4.339832306
439,1.55965626638e+18,-2.455240726,7.482095718,-2.386960983
440,1.55965626644e+18,-3.102947712,5.154556274,-1.198762894
441,1.5596562665e+18,-1.960425258,2.132190228,0.0367269516
442,1.55965626656e+18,-2.55956459,1.803839684,1.525302887
443,1.55965626662e+18,-2.049600124,2.63959074,4.083909035
444,1.55965626668e+18,-1.840769887,4.840636253,5.348329544
445,1.55965626674e+18,0.7293190956,4.109485626,5.162689209
446,1.5596562668e+18,0.9490766525,2.145177126,3.231722832
447,1.55965626686e+18,1.653659344,0.8905448914,2.057492256
448,1.55965626692e+18,1.41355896,1.269920826,1.386120796
449,1.55965626698e+18,0.1386928558,0.2553639412,-0.1257619858
450,1.55965626704e+18,0.2809656858,3.082876205,-0.3799796104
451,1.5596562671e+18,0.7605102062,9.564136505,3.790415764
452,1.55965626716e+18,3.036646843,0.4760484695,1.995327473
453,1.55965626722e+18,10.28865337,-11.26762772,-5.737474918
454,1.55965626728e+18,47.94195938,-28.07182312,-1.114077091
455,1.55965626734e+18,-16.96390152,0.5796971321,-23.87522697
456,1.5596562674e+18,5.394945621,-8.220420837,-2.637953281
457,1.55965626746e+18,-4.451478481,-4.477865219,-9.968935013
458,1.55965626752e+18,6.784874439,-0.2462596893,-5.120415688
459,1.55965626758e+18,0.861386776,2.99559164,-0.9698615074
460,1.55965626764e+18,-10.43192673,2.958373547,8.220703125
461,1.5596562677e+18,-23.51595879,7.464869499,5.409324169
462,1.55965626776e+18,-19.61876297,-0.4639832973,-0.4007735252
463,1.55965626782e+18,14.0347414,-17.36665916,0.1163439751
464,1.55965626788e+18,32.13522339,-17.87935829,-5.199131966
465,1.55965626794e+18,-4.375484943,-10.28392124,-9.597214699
466,1.559656268e+18,5.590655327,-1.315501451,-6.105192184
467,1.55965626806e+18,0.8265078068,0.2774151564,-4.880513191
468,1.55965626812e+18,-1.021762848,-0.9595465064,-0.7731952667
469,1.55965626818e+18,-1.375577688,-0.3286243975,-1.654072762
470,1.55965626824e+18,1.052464366,1.580486774,0.7840089798
471,1.5596562683e+18,3.68368268,1.747416973,5.232563972
472,1.55965626836e+18,1.126472473,5.342813015,2.369035721
473,1.55965626842e+18,3.670252323,8.93446064,5.944710732
474,1.55965626848e+18,3.832171917,7.506618977,6.78451395
475,1.55965626854e+18,2.276239395,3.993837833,4.001924515
476,1.5596562686e+18,5.16398716,1.536503077,2.167275429
477,1.55965626866e+18,5.377822876,0.8119935989,-0.6075768471
478,1.55965626872e+18,4.350924492,0.2915654182,1.151241302
479,1.55965626878e+18,0.6310117245,1.728060246,-1.702260494
480,1.55965626884e+18,2.742572546,1.921832085,-4.412487984
481,1.5596562689e+18,-0.5476924777,1.289516926,-7.503748894
482,1.55965626896e+18,0.6114557981,-1.013373375,-7.740706444
483,1.55965626902e+18,1.617417455,-4.879064083,-8.030991554
484,1.55965626908e+18,3.764792681,-13.36424828,-11.12407875
485,1.55965626914e+18,21.76612854,-53.11268234,32.86472321
486,1.5596562692e+18,-10.29994202,-9.272116661,0.2619800568
487,1.55965626926e+18,-10.80316353,-1.348864079,11.69162273
488,1.55965626932e+18,-10.98896885,3.734154224,11.00156212
489,1.55965626938e+18,-11.56820965,2.013572693,4.56417942
490,1.55965626944e+18,-18.61670113,5.984844685,-5.706987381
491,1.5596562695e+18,-12.4808569,-8.81900692,-2.670563221
492,1.55965626956e+18,12.43739796,-18.83594131,-1.850960732
493,1.55965626962e+18,13.91150951,-9.385134697,0.1763772964
494,1.55965626968e+18,-1.115136504,-4.190716267,-7.711911678
495,1.55965626974e+18,-1.435328484,-3.012572765,-6.175940514
496,1.5596562698e+18,-3.204468012,1.202566266,-6.2505126
497,1.55965626986e+18,-5.895134926,4.293417454,-2.485240459
498,1.55965626992e+18,-5.859056473,5.191995144,-1.495771885
499,1.55965626998e+18,-1.601409912,3.13194418,4.127313614
500,1.55965627004e+18,-0.0211648941,2.225658894,3.0284729
501,1.5596562701e+18,1.294509411,3.210370064,5.080713272
502,1.55965627016e+18,2.121362686,5.901396275,5.587309837
503,1.55965627022e+18,2.798554897,7.04091835,6.138422489
504,1.55965627028e+18,1.688734531,4.943469524,4.179641724
505,1.55965627034e+18,2.729907036,3.112376213,2.5484972
506,1.5596562704e+18,1.222661018,1.880972266,1.286372185
507,1.55965627046e+18,1.253362656,0.9795730114,-0.2067995071
508,1.55965627052e+18,-0.2496919632,0.5791764259,0.352004528
509,1.55965627058e+18,-1.279407024,0.7508182526,0.709499836
510,1.55965627064e+18,0.179479599,2.511387825,1.489718914
511,1.5596562707e+18,0.5654547215,6.08281517,1.991714478
512,1.55965627076e+18,-0.1212117672,3.124907494,0.694999218
513,1.55965627082e+18,-0.73774755,-1.069030285,-2.039590836
514,1.55965627088e+18,-0.8553657532,-6.806713581,-5.878864288
515,1.55965627094e+18,13.53768063,-14.65559578,-10.17746162
516,1.559656271e+18,10.13538265,-21.71099854,28.40751266
517,1.55965627106e+18,-18.68021774,0.03692722321,-21.68994141
518,1.55965627112e+18,-3.574969292,2.72954464,1.352378368
519,1.55965627118e+18,-19.00966072,-0.3699011803,2.233451366
520,1.55965627124e+18,-14.38197327,3.77936554,1.843377113
521,1.5596562713e+18,-15.20788193,6.251284122,-3.511079311
522,1.55965627136e+18,-24.23275375,-4.462265015,-6.551343918
523,1.55965627142e+18,6.706447601,-9.872379303,0.762096405
524,1.55965627148e+18,0.405225873,-28.73753357,-14.70082664
525,1.55965627154e+18,11.60685539,6.78912878,-1.806538105
526,1.5596562716e+18,0.7519168854,-7.210563183,-5.437234879
527,1.55965627166e+18,-3.549815178,2.546839476,-6.168423653
528,1.55965627172e+18,-3.20266223,2.393682957,-3.844068527
529,1.55965627178e+18,-3.460523844,1.481413007,-3.730481625
530,1.55965627184e+18,-2.637150764,2.273027897,0.4056806564
531,1.5596562719e+18,-1.252491951,2.209977627,0.4237174988
532,1.55965627196e+18,2.419996738,2.50226903,1.241399765
533,1.55965627202e+18,4.897852898,1.284010172,0.7283201218
534,1.55965627208e+18,5.432793617,4.482331753,2.379364967
535,1.55965627214e+18,4.58106184,7.270318031,2.209374428
536,1.5596562722e+18,3.020381451,7.022094727,4.500890732
537,1.55965627226e+18,1.579778194,4.21262455,3.505609512
538,1.55965627232e+18,2.132043362,2.297021627,1.587538242
539,1.55965627238e+18,2.670570374,1.516343951,0.9799051285
540,1.55965627244e+18,2.272327423,1.241882801,0.724460125
541,1.5596562725e+18,2.005220413,2.273261786,2.312775612
542,1.55965627256e+18,3.505765438,3.253625631,3.139849663
543,1.55965627262e+18,3.447205067,6.468904972,2.237593651
544,1.55965627268e+18,2.674339533,4.41345787,0.6238741875
545,1.55965627274e+18,1.862299442,0.2362465858,-1.473722458
546,1.5596562728e+18,-0.08204941452,-8.275361061,-7.81213522
547,1.55965627286e+18,12.74485588,-24.65344238,-15.69347382
548,1.55965627292e+18,-6.898246765,-31.07983398,-9.618998528
549,1.55965627298e+18,-6.443202019,-4.509083271,-20.37322807
550,1.55965627304e+18,7.068682671,-1.017083168,4.364605427
551,1.5596562731e+18,-8.842229843,6.839300632,7.528534412
552,1.55965627316e+18,-5.808590889,6.159733295,9.297839165
553,1.55965627322e+18,-7.581473351,4.706048012,8.022854805
554,1.55965627328e+18,-11.01700783,1.936515808,3.245449066
555,1.55965627334e+18,-15.69109344,5.686418533,-3.967924118
556,1.5596562734e+18,-14.46395969,-2.909039974,-8.16251564
557,1.55965627346e+18,10.09825897,-16.67123032,6.078944206
558,1.55965627352e+18,-0.08961588144,-17.02443314,-17.65724564
559,1.55965627358e+18,13.38525581,8.093167305,-4.801341534
560,1.55965627364e+18,0.1309193671,-8.961265564,-4.991364479
561,1.5596562737e+18,-5.433318138,1.594529629,-3.92528677
562,1.55965627376e+18,-4.257676125,4.870087624,-1.470615387
563,1.55965627382e+18,-4.037957668,0.8518710136,-1.569480896
564,1.55965627388e+18,-2.054191113,2.377019167,-0.5585517883
565,1.55965627394e+18,0.9176995754,1.946877718,-1.286934853
566,1.559656274e+18,4.771732807,1.510234714,0.8589143753
567,1.55965627406e+18,5.042458057,4.808066368,1.527224064
568,1.55965627412e+18,4.930662632,7.885553837,7.058062077
569,1.55965627418e+18,4.160814762,7.720077515,8.255217552
570,1.55965627424e+18,2.469493866,3.789847136,2.126746178
571,1.5596562743e+18,4.400059223,1.968285799,0.3357849121
572,1.55965627436e+18,2.433752537,1.81803894,-1.088924408
573,1.55965627442e+18,1.493687153,1.015581131,-1.224953175
574,1.55965627448e+18,-3.285399914,-0.1433987617,-6.128998756
575,1.55965627454e+18,-5.437072754,-4.730041981,-9.352179527
576,1.5596562746e+18,-3.545839787,-7.562150002,-9.449257851
577,1.55965627466e+18,5.495145321,-14.05727768,-11.50974655
578,1.55965627472e+18,-18.61433029,9.235441208,-12.36117554
579,1.55965627478e+18,-3.448101997,-1.969495058,6.430778027
580,1.55965627484e+18,8.034244537,10.89359283,16.4034481
581,1.5596562749e+18,-5.918467999,8.329766273,11.86464119
582,1.55965627496e+18,-5.343443394,7.224538803,6.380059242
583,1.55965627502e+18,-11.79760361,8.412231445,8.915781975
584,1.55965627508e+18,-19.9526577,7.945758343,-10.34928131
585,1.55965627514e+18,0.8383586407,-11.8433342,5.66324234
586,1.5596562752e+18,16.56969643,-19.9955368,-17.94125557
587,1.55965627526e+18,12.08121204,-0.757004261,-6.943613052
588,1.55965627532e+18,1.457426906,-6.042899609,-8.015885353
589,1.55965627538e+18,-1.964584947,-1.44372797,-6.634809494
590,1.55965627544e+18,-5.40703249,4.539402008,-5.073692799
591,1.5596562755e+18,-6.805932045,3.627096176,-1.796609879
592,1.55965627556e+18,-4.308750153,6.019530296,-0.4334659576
593,1.55965627562e+18,-0.5365533829,4.454797745,0.1932024956
594,1.55965627568e+18,5.225137234,5.446575642,2.525278091
595,1.55965627574e+18,3.560975075,8.809346199,3.702064037
596,1.5596562758e+18,2.061740875,9.344836235,4.993502617
597,1.55965627586e+18,2.570022583,6.08947134,3.637810707
598,1.55965627592e+18,2.196886063,5.46511364,2.11975956
599,1.55965627598e+18,7.20566082,7.981235504,4.922122002
600,1.55965627604e+18,1.681993008,1.053472519,-4.091931343
601,1.5596562761e+18,-3.933815479,-4.064921379,-11.16615677
602,1.55965627616e+18,-3.507528067,-5.977009296,-7.303102493
603,1.55965627622e+18,8.949730873,-6.894382477,-7.257603645
604,1.55965627628e+18,59.37992859,-30.58524704,26.4080925
605,1.55965627634e+18,-27.49425316,3.109769821,-18.41413307
606,1.5596562764e+18,-1.613198042,-2.693422079,8.074497223
607,1.55965627646e+18,-8.499260902,0.9129443169,3.230775833
608,1.55965627652e+18,-3.819306612,0.4609909058,1.834180832
609,1.55965627658e+18,-10.13263702,-0.04608225822,2.864071846
610,1.55965627664e+18,-22.77287674,8.36157608,-2.751829624
611,1.5596562767e+18,-13.25497627,-3.009550095,1.358285904
612,1.55965627676e+18,17.66207123,-19.11720085,0.2689723969
613,1.55965627682e+18,22.37291336,-9.476860046,-6.644256592
614,1.55965627688e+18,-2.115024805,-8.73397541,-7.964208126
615,1.55965627694e+18,0.1908071935,-2.081579208,-6.337202072
616,1.559656277e+18,-3.368328094,2.478216171,-2.674362183
617,1.55965627706e+18,-6.058599472,5.026176453,-2.831582069
618,1.55965627712e+18,-5.038163662,4.853830338,-1.289625168
619,1.55965627718e+18,-1.687615395,3.984873056,1.54523468
620,1.55965627724e+18,0.6226022243,3.53792572,3.370830536
621,1.5596562773e+18,-1.15092206,5.063269615,4.459182739
622,1.55965627736e+18,0.1556127071,4.720424652,4.475850105
623,1.55965627742e+18,0.5056605339,3.354867458,2.867783546
624,1.55965627748e+18,0.4527380466,2.827978373,3.007336617
625,1.55965627754e+18,1.932208776,2.050978184,-0.09882450104
626,1.5596562776e+18,0.1078213453,1.262095928,-4.597557068
627,1.55965627766e+18,-1.417714596,-2.396991968,-7.497329712
628,1.55965627772e+18,-0.1422017813,-8.4140625,-7.12550211
629,1.55965627778e+18,7.256496429,-11.33902454,-23.59999466
630,1.55965627784e+18,-8.66479969,8.49055481,1.177439213
631,1.5596562779e+18,-11.9467926,9.10296917,5.661934853
632,1.55965627796e+18,-13.88462067,4.078521729,2.983768463
633,1.55965627802e+18,-11.89009285,2.854968071,-0.337272644
634,1.55965627808e+18,-21.60897827,9.24680233,-4.813744068
635,1.55965627814e+18,-5.710641861,-4.032218933,-4.810687542
636,1.5596562782e+18,22.48931313,-14.72520256,0.01268577576
637,1.55965627826e+18,4.605086327,-11.98263359,-12.5315218
638,1.55965627832e+18,4.582550526,-4.194052219,-5.089112282
639,1.55965627838e+18,-1.85832715,-1.075064421,-4.913938046
640,1.55965627844e+18,-4.424932003,3.82502985,-4.221018791
641,1.5596562785e+18,-3.953205824,2.633765697,-2.414557934
642,1.55965627856e+18,-4.187421799,3.682666779,-1.504252434
643,1.55965627862e+18,-4.209234715,3.773899078,0.2305669785
644,1.55965627868e+18,-2.202050209,2.699108839,2.292611122
645,1.55965627874e+18,-1.896428227,5.610311508,3.965916634
646,1.5596562788e+18,-1.219879031,5.28118515,5.111434937
647,1.55965627886e+18,0.1672434807,3.936728001,3.105156898
648,1.55965627892e+18,0.1543900967,1.890149593,2.195140839
649,1.55965627898e+18,-0.09421348572,1.225025415,0.4183502197
650,1.55965627904e+18,-0.8036604524,1.376574516,-3.636054039
651,1.5596562791e+18,-2.20310688,-1.046333313,-5.078960896
652,1.55965627916e+18,-2.51906395,-2.513360023,-6.058018684
653,1.55965627922e+18,-0.7287050486,-5.773019314,-6.616914272
654,1.55965627928e+18,14.23281479,-9.677564621,-11.16117096
655,1.55965627934e+18,-9.994352341,13.67709541,15.30103302
656,1.5596562794e+18,-8.826592445,9.128454208,5.031852722
657,1.55965627946e+18,-10.59417343,3.285843372,2.002819061
658,1.55965627952e+18,-12.01016331,2.88449192,0.1800079346
659,1.55965627958e+18,-20.00746536,10.55998802,-0.1311531067
660,1.55965627964e+18,-17.43291473,-3.263404608,-2.34918499
661,1.5596562797e+18,9.414475441,-13.32974911,12.69969273
662,1.55965627976e+18,6.22268343,-17.18251991,-10.96204758
663,1.55965627982e+18,3.421760082,-1.469833732,-6.499481201
664,1.55965627988e+18,0.9658075571,-3.005684614,-7.015621185
665,1.55965627994e+18,-2.015132427,-2.17854023,-2.70354414
666,1.55965628e+18,-5.225110531,1.317374945,-1.553764343
667,1.55965628006e+18,-8.000138283,2.783399582,-5.234547615
668,1.55965628012e+18,-2.837080479,2.217046738,-2.2084589
669,1.55965628018e+18,3.116005898,3.704923153,-0.4197664261
670,1.55965628024e+18,8.673915863,6.45308876,3.609349728
671,1.5596562803e+18,6.428750038,11.21291924,3.113950253
672,1.55965628036e+18,2.53894043,8.513955116,3.798699856
673,1.55965628042e+18,0.5053939819,3.903439999,0.5250701904
674,1.55965628048e+18,3.046191692,2.725983858,1.54131794
675,1.55965628054e+18,2.094513893,4.746113777,2.092722416
676,1.5596562806e+18,2.709563732,2.10519886,-1.384174824
677,1.55965628066e+18,-1.084862232,1.042373657,-4.360010624
678,1.55965628072e+18,-0.5305011272,-0.8358101845,-2.485925198
679,1.55965628078e+18,-0.002306699753,-1.10655117,-6.452688694
680,1.55965628084e+18,1.15371263,-6.566160679,-7.02259779
681,1.5596562809e+18,4.641011715,-12.32139778,-9.690267563
682,1.55965628096e+18,32.15563583,-17.87693787,-1.605849266
683,1.55965628102e+18,-18.50571442,4.332740307,-18.38346672
684,1.55965628108e+18,-3.175091267,-4.244430542,2.546864033
685,1.55965628114e+18,-4.968626022,2.771440983,1.690178871
686,1.5596562812e+18,-7.851789474,4.984527111,5.279099941
687,1.55965628126e+18,-12.08239555,7.290264606,5.370905876
688,1.55965628132e+18,-18.05154419,12.98313904,3.507190704
689,1.55965628138e+18,-13.48817253,-0.1426813602,2.357469559
690,1.55965628144e+18,6.374557495,-10.69963455,8.776257515
691,1.5596562815e+18,2.739659309,-24.34794426,-11.31659126
692,1.55965628156e+18,9.347112656,1.899441361,-8.944875717
693,1.55965628162e+18,-2.801553726,-4.353185654,-7.603435993
694,1.55965628168e+18,-4.912692547,0.951417923,-7.547050953
695,1.55965628174e+18,-1.121251583,0.07296490669,-3.254207134
696,1.5596562818e+18,-1.787711978,-1.28743279,-2.81236887
697,1.55965628186e+18,-2.659662485,0.351696372,-3.552258492
698,1.55965628192e+18,-1.259032488,-0.1335172653,-3.102312565
699,1.55965628198e+18,1.245671988,-0.7938164473,-1.46808672
700,1.55965628204e+18,6.107152939,3.004368305,0.3758006096
701,1.5596562821e+18,7.779414177,3.260632277,6.076643944
702,1.55965628216e+18,5.638121605,6.708217621,7.116589546
703,1.55965628222e+18,4.636781693,8.258847237,8.764228821
704,1.55965628228e+18,3.629466057,5.829815865,6.118923187
705,1.55965628234e+18,3.540307045,3.44284749,3.092199326
706,1.5596562824e+18,4.093875408,3.735126734,-0.2414116859
707,1.55965628246e+18,2.131742954,2.688417196,-3.54718709
708,1.55965628252e+18,0.5449171066,2.390055656,-3.883123159
709,1.55965628258e+18,-0.3333387375,1.726738453,-3.436176062
710,1.55965628264e+18,1.76282692,0.6663751602,-2.445504665
711,1.5596562827e+18,4.339278698,0.8573675156,-2.822114944
712,1.55965628276e+18,1.968540668,-1.337795258,-5.437390804
713,1.55965628282e+18,-0.7639908791,-4.930027008,-11.68911934
714,1.55965628288e+18,-2.730400085,-10.01272678,-10.26264954
715,1.55965628294e+18,0.5063061714,-17.45338631,-9.790306091
716,1.559656283e+18,4.898394585,-39.39862823,21.91178513
717,1.55965628306e+18,-0.3111805916,-12.80124283,10.73777485
718,1.55965628312e+18,7.427454472,-10.54040146,14.33795929
719,1.55965628318e+18,11.32785606,-8.147794724,13.04508781
720,1.55965628324e+18,14.72588062,-7.07512331,14.3368082
721,1.5596562833e+18,10.6135397,-3.358734131,15.13011265
722,1.55965628336e+18,4.331100941,-2.163187504,11.15888882
723,1.55965628342e+18,-5.958491325,-1.78060627,9.694703102
724,1.55965628348e+18,-13.4574461,2.263999939,8.772154808
725,1.55965628354e+18,-20.8879261,3.556791306,-15.90104103
726,1.5596562836e+18,5.576688766,-10.60410404,14.27686787
727,1.55965628366e+18,23.89946938,-18.34519005,-4.726183414
728,1.55965628372e+18,3.098505497,-2.654300451,-12.94367409
729,1.55965628378e+18,2.228003502,-2.799023628,-11.50551224
730,1.55965628384e+18,-2.539660215,-0.3333280087,-6.987510681
731,1.5596562839e+18,-6.129960537,4.510446548,-3.879058361
732,1.55965628396e+18,-5.090742588,3.154369593,1.815103054
733,1.55965628402e+18,5.072406769,2.840123415,2.275515556
734,1.55965628408e+18,14.54597759,3.536025047,9.913085938
735,1.55965628414e+18,8.450248718,9.19096756,8.521446228
736,1.5596562842e+18,8.096381187,11.47691727,12.47421074
737,1.55965628426e+18,5.35119009,11.60816765,7.843659401
738,1.55965628432e+18,5.435221195,10.57943535,6.717180252
739,1.55965628438e+18,6.202259064,8.375953674,6.809913635
740,1.55965628444e+18,3.648985863,6.588945389,5.170635223
741,1.5596562845e+18,1.951915741,4.708241463,4.040352821
742,1.55965628456e+18,-0.05354881287,2.852748632,2.948351383
743,1.55965628462e+18,-1.847761154,2.564516783,0.5555872917
744,1.55965628468e+18,-1.535818577,2.894142628,2.34143734
745,1.55965628474e+18,-0.3237915039,3.861357212,4.192612648
746,1.5596562848e+18,-0.03960895538,5.259921074,3.274727821
747,1.55965628486e+18,-0.7679643631,4.742761612,3.649120331
748,1.55965628492e+18,-4.616749763,2.378635406,-0.1461200714
749,1.55965628498e+18,-4.309579849,-0.8281145096,-2.992512703
750,1.55965628504e+18,-2.137977123,-6.110079765,-5.859139919
751,1.5596562851e+18,-3.569185257,-8.943551064,-8.123482704
752,1.55965628516e+18,-2.619351864,-12.21574402,-12.35576344
753,1.55965628522e+18,26.33646774,-39.47120285,34.07209015
754,1.55965628528e+18,-12.49144936,7.472886562,-18.241642
755,1.55965628534e+18,5.934342861,9.452661514,-0.5664534569
756,1.5596562854e+18,-5.804401398,13.26137543,-5.31703186
757,1.55965628546e+18,-5.815286636,12.68578911,-1.005898476
758,1.55965628552e+18,-3.082228899,12.42982864,-5.494285107
759,1.55965628558e+18,-4.568266392,9.292369843,-3.662940025
760,1.55965628564e+18,-5.913912296,10.54270363,-4.169095993
761,1.5596562857e+18,-9.190030098,16.14029694,-2.125653744
762,1.55965628576e+18,-18.89576721,14.77487659,-0.3238062859
763,1.55965628582e+18,-12.09553623,9.409453392,-3.993458748
764,1.55965628588e+18,2.489126921,-12.30192184,8.355548859
765,1.55965628594e+18,14.9085722,-40.58841324,-11.50569344
766,1.559656286e+18,-0.6391123533,5.711044788,-5.686222553
767,1.55965628606e+18,2.631572247,-8.419670105,-4.166582108
768,1.55965628612e+18,-12.84716988,-3.678410292,-8.089148521
769,1.55965628618e+18,-5.916416645,-0.1033217013,-5.916481972
770,1.55965628624e+18,-8.384638786,1.666169405,-3.55803442
771,1.5596562863e+18,-7.297201157,3.992417812,1.784117699
772,1.55965628636e+18,-2.343900204,1.928168535,1.546254158
773,1.55965628642e+18,6.080043793,2.15165472,-0.02166414261
774,1.55965628648e+18,9.742805481,5.330998898,3.119066
775,1.55965628654e+18,5.925051689,8.144701004,5.244007111
776,1.5596562866e+18,3.95200634,7.919897079,4.042089462
777,1.55965628666e+18,1.991270065,5.894477367,3.569087744
778,1.55965628672e+18,2.31553936,4.088770866,1.488213301
779,1.55965628678e+18,2.096656799,2.586894512,0.4508519173
780,1.55965628684e+18,1.905107498,2.069244385,0.4001059532
781,1.5596562869e+18,1.177638054,2.286743641,0.8369722366
782,1.55965628696e+18,-0.1672534943,2.005596161,0.4821777344
783,1.55965628702e+18,0.6182756424,2.040712595,1.10878849
784,1.55965628708e+18,1.744504929,3.433306456,1.274613857
785,1.55965628714e+18,1.160307407,3.470187187,-1.655557156
786,1.5596562872e+18,-2.955391407,1.550089359,-0.4125590324
787,1.55965628726e+18,-4.475747108,-0.7883839607,-2.079256535
788,1.55965628732e+18,-4.777265072,-3.620513678,-3.060217619
789,1.55965628738e+18,-7.895497322,-6.949226379,-4.691453457
790,1.55965628744e+18,-7.679510117,-9.959114075,-6.029374599
791,1.5596562875e+18,0.5572762489,-17.17226028,-9.1895895
792,1.55965628756e+18,12.89577484,-18.46446991,3.366892099
793,1.55965628762e+18,-4.283307552,17.70800591,1.655028939
794,1.55965628768e+18,11.96553135,0.4460297823,11.15644646
795,1.55965628774e+18,8.119573593,8.509679794,3.487262249
796,1.5596562878e+18,8.578148842,8.8234272,4.209644794
797,1.55965628786e+18,4.553937912,9.313866615,-0.1251100302
798,1.55965628792e+18,0.6437110901,7.917663574,0.8655104637
799,1.55965628798e+18,-3.325591564,5.30542469,0.6864948273
800,1.55965628804e+18,-4.734812737,6.986759186,-1.294198036
801,1.5596562881e+18,-6.514651299,8.388570786,1.509096146
802,1.55965628816e+18,-17.01159668,14.71155739,0.03981971741
803,1.55965628822e+18,-13.4705019,0.4401469231,-3.77351284
804,1.55965628828e+18,2.887781143,-12.14660645,9.213306427
805,1.55965628834e+18,13.41994572,-31.25993156,-8.222919464
806,1.5596562884e+18,-1.830744982,-3.923303843,-5.719644547
807,1.55965628846e+18,-0.1055569649,-7.678725243,-13.35331917
808,1.55965628852e+18,-3.596714973,0.6757917404,-6.74284935
809,1.55965628858e+18,-2.682156086,-1.168670416,-5.675180435
810,1.55965628864e+18,-2.996265173,-0.2503325343,-3.154894829
811,1.5596562887e+18,-2.248408794,2.1628654,-1.251511574
812,1.55965628876e+18,2.770576954,0.197579354,-0.5163393021
813,1.55965628882e+18,7.888977528,1.958040714,-0.3580288887
814,1.55965628887e+18,9.277401924,6.111532211,3.907930374
815,1.55965628893e+18,7.219976425,9.073249817,3.353698254
816,1.55965628899e+18,5.126116753,9.812713623,4.431171894
817,1.55965628905e+18,2.253227234,7.927303314,1.493844032
818,1.55965628911e+18,3.556280613,5.067071438,-0.09770774841
819,1.55965628917e+18,4.694699287,2.679862499,-0.8570184708
820,1.55965628923e+18,1.191641808,1.387375593,-0.6702728271
821,1.55965628929e+18,1.121566296,1.380991697,0.4540276527
822,1.55965628935e+18,0.1812663078,1.384963512,1.322061539
823,1.55965628941e+18,1.949854374,1.703724265,2.263379097
824,1.55965628947e+18,0.6734538078,2.183691263,1.162035942
825,1.55965628953e+18,-0.2502336502,2.623314857,2.33656168
826,1.55965628959e+18,0.9055037498,2.91408205,3.700809479
827,1.55965628965e+18,0.1198675632,0.3007111549,1.681996346
828,1.55965628971e+18,0.3392164707,-2.357340336,-3.01563406
829,1.55965628977e+18,-0.1311738491,-3.806866407,-5.40561676
830,1.55965628983e+18,-2.669367552,-3.931684732,-8.765473366
831,1.55965628989e+18,-5.488107204,-4.228421211,-9.243330956
832,1.55965628995e+18,-4.457006454,-10.23788071,-11.48340225
833,1.55965629001e+18,3.75444603,-13.53278542,-27.04407501
834,1.55965629007e+18,-5.855856895,10.68758678,-22.14802551
835,1.55965629013e+18,6.50343132,14.75657177,0.4989476204
836,1.55965629019e+18,-1.081597328,17.75208664,-3.145843029
837,1.55965629025e+18,-2.304686546,14.72798729,-9.250416756
838,1.55965629031e+18,-5.680463791,10.9912262,-6.862290859
839,1.55965629037e+18,-8.337656021,8.850564003,-9.573570251
840,1.55965629043e+18,-8.28397274,3.612626553,-9.647771835
841,1.55965629049e+18,-9.021877289,0.9562335014,-10.67581081
842,1.55965629055e+18,-7.491783142,-0.5008797646,-1.744071007
843,1.55965629061e+18,-6.492556095,-15.12327003,5.143113613
844,1.55965629067e+18,43.80618286,-23.46882057,-1.290225983
845,1.55965629073e+18,-8.072133064,0.2380104065,-6.174134731
846,1.55965629079e+18,-3.00861454,-6.763100624,-0.2202205658
847,1.55965629085e+18,-4.16872406,0.7469036579,-2.748140812
848,1.55965629091e+18,-5.760299206,-2.896553516,-4.646863461
849,1.55965629097e+18,-0.8937301636,-0.5310835838,-2.747956753
850,1.55965629103e+18,-1.066591978,-0.5251002312,-1.44412756
851,1.55965629109e+18,-1.59513998,1.42094183,-1.015614986
852,1.55965629115e+18,-1.104271412,1.353876352,-0.6734862328
853,1.55965629121e+18,1.349816799,1.821228981,0.634431839
854,1.55965629127e+18,0.3275661469,1.269396663,-2.276287079
855,1.55965629133e+18,2.981223583,1.951143503,0.3121213913
856,1.55965629139e+18,0.975883007,3.012373447,0.1116380692
857,1.55965629145e+18,1.896057606,3.089717865,1.22021246
858,1.55965629151e+18,2.216926575,3.516924381,1.393285751
859,1.55965629157e+18,2.634651184,3.677727699,1.887125969
860,1.55965629163e+18,2.351412773,3.188966751,1.310414791
861,1.55965629169e+18,1.46571064,1.948267221,-0.1252579689
862,1.55965629175e+18,1.786971092,0.7046087384,-0.9468073845
863,1.55965629181e+18,1.266756058,0.132795155,-1.088574886
864,1.55965629187e+18,0.7363862991,0.3277689815,-0.8363060951
865,1.55965629193e+18,0.497168541,-0.02448999882,-0.7645082474
866,1.55965629199e+18,0.1122803688,-0.3137183785,-0.3722705841
867,1.55965629205e+18,0.6474142075,-0.2392007709,0.9584913254
868,1.55965629211e+18,0.5570306778,-0.2363590002,0.6979250908
869,1.55965629217e+18,0.02619361877,-0.1393915415,0.4793348312
870,1.55965629223e+18,0.689561367,-0.5911279917,1.15182209
871,1.55965629229e+18,1.278985023,-0.4285066128,2.047857761
872,1.55965629235e+18,0.3677158356,0.04749727249,1.733551025
873,1.55965629241e+18,0.7830042839,0.5177755356,1.298709869
874,1.55965629247e+18,0.9621076584,0.2538704872,1.005158424
875,1.55965629253e+18,0.09894752502,-0.464217186,1.349151134
876,1.55965629259e+18,1.149873495,0.2439279556,-0.3592796326
877,1.55965629265e+18,-0.4943301678,1.375033855,-5.367211342
878,1.55965629271e+18,-0.6701686382,1.38325119,-4.82338953
879,1.55965629277e+18,-1.332175732,0.4512629509,-4.31507206
880,1.55965629283e+18,-3.885914326,-1.968187809,-5.28227663
881,1.55965629289e+18,-2.016126871,-4.822005272,-7.148731232
882,1.55965629295e+18,-0.9151103497,-11.68767357,-13.67006207
883,1.55965629301e+18,9.650026321,-19.20783806,-12.20986366
884,1.55965629307e+18,-11.26439381,-18.8121891,31.97660446
885,1.55965629313e+18,13.75354385,-4.365446091,13.82314301
886,1.55965629319e+18,7.019006252,0.7255764008,19.90341187
887,1.55965629325e+18,0.1569581032,4.635956764,18.26596642
888,1.55965629331e+18,-1.773998737,6.174607277,9.179019928
889,1.55965629337e+18,-6.048539162,4.187285423,5.352021694
890,1.55965629343e+18,-18.34242439,13.74216366,-5.722342014
891,1.55965629349e+18,-11.09623146,-13.04070663,9.977817535
892,1.55965629355e+18,7.395421028,-42.18934631,-8.554039001
893,1.55965629361e+18,14.61658001,0.7354007959,-8.713364601
894,1.55965629367e+18,-5.507430077,-13.74389362,-12.15295601
895,1.55965629373e+18,-4.809277534,-0.3586059213,-8.273508072
896,1.55965629379e+18,-2.671439648,-0.1542463899,-5.030580997
897,1.55965629385e+18,-5.509297371,1.007166862,-1.532378197
898,1.55965629391e+18,-9.876543045,2.731814384,-3.910602093
899,1.55965629397e+18,-4.328501701,1.236745119,-0.03943729401
900,1.55965629403e+18,3.947748423,1.048600793,0.4139251709
901,1.55965629409e+18,6.498694897,4.260300636,1.745445728
902,1.55965629415e+18,3.841549397,7.656094074,2.951562405
903,1.55965629421e+18,0.8049430847,7.770293236,2.462504864
904,1.55965629427e+18,1.438223362,4.900363445,2.262815952
905,1.55965629433e+18,2.05117321,2.277354002,1.59871912
906,1.55965629439e+18,0.9358539581,0.6079223752,0.03968477249
907,1.55965629445e+18,0.06667137146,-0.02371060848,-0.24081707
908,1.55965629451e+18,1.167560101,-0.8361768723,-0.91335392
909,1.55965629457e+18,-0.9026627541,-1.216222644,-2.431019783
910,1.55965629463e+18,-1.071418762,-0.5367977619,-0.9909448624
911,1.55965629469e+18,-1.413101196,-1.735351443,0.01070928574
912,1.55965629475e+18,-0.5458245277,-1.377989054,-1.279234886
913,1.55965629481e+18,0.3000264168,2.123054743,-1.779003143
914,1.55965629487e+18,3.209642887,6.130405426,-3.69811368
915,1.55965629493e+18,1.20716238,5.648051262,-5.778400898
916,1.55965629499e+18,0.5303888321,-0.5683977604,-0.61500597
917,1.55965629505e+18,7.162737846,7.13897419,5.577004433
918,1.55965629511e+18,4.99858427,4.920284271,-1.74614954
919,1.55965629517e+18,16.35435295,-1.772619009,-8.331087112
920,1.55965629523e+18,22.8520813,-17.27466011,-7.04005003
921,1.55965629529e+18,-21.51300049,-24.49950027,-21.72738266
922,1.55965629535e+18,-3.070254564,-16.19863701,3.651675701
923,1.55965629541e+18,6.678982735,-2.267029285,4.462965965
924,1.55965629547e+18,-0.9052846432,-2.134444237,4.047792435
925,1.55965629553e+18,-0.7197489738,0.02133917809,0.5584039688
926,1.55965629559e+18,-3.97343874,2.156602621,-2.088372707
927,1.55965629565e+18,-7.676301003,0.539370656,1.181875706
928,1.55965629571e+18,-10.32218361,1.423272729,-2.950059175
929,1.55965629577e+18,-13.14284325,4.938227654,-10.71308517
930,1.55965629583e+18,2.108807564,-7.375799656,10.28724766
931,1.55965629589e+18,14.55519295,-32.49481201,-17.99895859
932,1.55965629595e+18,5.458542824,9.549779892,-6.520602226
933,1.55965629601e+18,8.536613464,-11.36466408,-5.731799603
934,1.55965629607e+18,2.00195694,1.975522041,-4.789919853
935,1.55965629613e+18,0.3370997906,1.563913107,-4.969170094
936,1.55965629619e+18,0.6007918119,-0.4149999619,-2.526731014
937,1.55965629625e+18,2.175979376,3.567365646,-3.400411129
938,1.55965629631e+18,5.169387341,0.764724791,-1.409993649
939,1.55965629637e+18,11.06441021,0.9896386862,0.4787082672
940,1.55965629643e+18,6.634259701,4.173245907,2.735931873
941,1.55965629649e+18,2.325784206,4.497960567,2.690135479
942,1.55965629655e+18,1.745649338,3.71453023,2.002455711
943,1.55965629661e+18,1.808318615,2.109363794,1.596466541
944,1.55965629667e+18,2.41151619,1.012810707,0.850769043
945,1.55965629673e+18,2.439673424,-0.8052163124,0.435532093
946,1.55965629679e+18,-0.534954071,-0.7010203004,-0.2990837097
947,1.55965629685e+18,-1.330124855,-0.9384227991,-0.8660635948
948,1.55965629691e+18,-0.7952537537,-1.306446791,-0.6357975006
949,1.55965629697e+18,-1.089795589,-0.8048098087,0.6778898239
950,1.55965629703e+18,-0.855275631,0.5346060395,0.3154230118
951,1.55965629709e+18,-0.4201550484,1.251306057,1.631661415
952,1.55965629715e+18,1.911100864,3.00394249,1.997271061
953,1.55965629721e+18,3.822137356,3.116823196,0.9880518913
954,1.55965629727e+18,4.18666172,4.755259037,-1.574953556
955,1.55965629733e+18,-2.421564579,-3.277828693,-6.905130386
956,1.55965629739e+18,9.44080925,6.915115356,-9.259333611
957,1.55965629745e+18,3.729839325,2.999116898,-5.855609894
958,1.55965629751e+18,27.89512825,-27.57505989,27.26152802
959,1.55965629757e+18,-17.91155624,-10.67668438,-1.55480814
960,1.55965629763e+18,-4.931084633,-4.039906502,-1.752241135
961,1.55965629769e+18,2.911388874,-1.047598839,2.109704018
962,1.55965629775e+18,-0.6243182421,-0.3276786804,-1.141241074
963,1.55965629781e+18,-4.302900314,0.3158774376,-1.753777981
964,1.55965629787e+18,-5.789751053,4.989619732,-8.292413712
965,1.55965629793e+18,-24.80434036,11.65189552,-9.704252243
966,1.55965629799e+18,-6.321674347,-7.335849762,2.525541782
967,1.55965629805e+18,22.85468483,-38.71192169,0.9261598587
968,1.55965629811e+18,12.47114658,-4.273331642,-8.260837555
969,1.55965629817e+18,-4.123764992,-2.726694107,-10.79275799
970,1.55965629823e+18,2.27432394,2.629618406,-4.77490139
971,1.55965629829e+18,2.121598244,-0.0208119154,-4.025758266
972,1.55965629835e+18,0.7419993877,0.7749862075,-2.869596958
973,1.55965629841e+18,0.6656806469,0.7908726931,-1.437720776
974,1.55965629847e+18,2.047061443,1.053599596,1.297873497
975,1.55965629853e+18,2.513554335,0.6141822338,3.190705299
976,1.55965629859e+18,3.984407425,0.9926614761,5.117917061
977,1.55965629865e+18,4.485691071,2.767962694,6.084037781
978,1.55965629871e+18,1.91306591,4.070713043,5.340451241
979,1.55965629877e+18,2.379889011,3.136083841,5.359623432
980,1.55965629883e+18,1.813826084,1.836275935,2.488681793
981,1.55965629889e+18,2.012558937,0.8738199472,0.5376749039
982,1.55965629895e+18,1.958063126,1.264394283,-0.05912876129
983,1.55965629901e+18,1.469254971,1.855507374,0.9495868683
984,1.55965629907e+18,1.332161903,2.263610363,1.634264946
985,1.55965629913e+18,-0.1374084949,0.4436728954,0.5686435699
986,1.55965629919e+18,0.9529693127,-0.8492221832,0.1415176392
987,1.55965629925e+18,-0.4553329945,0.3555865288,-0.7196230888
988,1.55965629931e+18,0.428935051,2.09667778,-0.5052776337
989,1.55965629937e+18,2.340002298,-1.51070261,-2.59030056
990,1.55965629943e+18,1.576703429,-6.98093462,-3.330863953
991,1.55965629949e+18,0.3593356907,-14.71994781,-11.86024857
992,1.55965629955e+18,-18.72439957,-5.811029911,-11.19948196
993,1.55965629961e+18,-3.22934556,-3.816593647,-10.65181732
994,1.55965629967e+18,4.788994789,4.263638496,-2.392999887
995,1.55965629973e+18,-5.589313507,8.443571091,-1.196621895
996,1.55965629979e+18,-12.92069149,13.36078453,1.985252857
997,1.55965629985e+18,-14.14402199,13.01262665,1.601668358
998,1.55965629991e+18,-18.66818619,12.93482208,-1.945771217
999,1.55965629997e+18,-1.549094558,-11.0506916,5.488449574
1000,1.55965630003e+18,18.73236847,-47.08047104,-13.43873978
1001,1.55965630009e+18,1.666555047,-8.856479645,-12.41708946
1002,1.55965630015e+18,1.862306118,-8.360201836,-6.536765099
1003,1.55965630021e+18,-7.259090424,-3.241890669,-6.605605125
1004,1.55965630027e+18,-3.916759968,-0.5536997318,-3.636502266
1005,1.55965630033e+18,-6.183248997,-1.476335883,-3.077965736
1006,1.55965630039e+18,-4.719788551,1.981116772,1.947140694
1007,1.55965630045e+18,-0.1484174728,-0.340775013,-0.5806775093
1008,1.55965630051e+18,8.433269501,1.649859428,-0.5776381493
1009,1.55965630057e+18,6.843235016,3.533427238,1.205710649
1010,1.55965630063e+18,1.575255394,5.620262146,1.683727264
1011,1.55965630069e+18,2.757426262,5.128365517,3.951670885
1012,1.55965630075e+18,2.971095085,3.627635002,1.786410093
1013,1.55965630081e+18,3.319666862,2.047665596,0.6770372391
1014,1.55965630087e+18,2.047480583,1.959149837,0.5465693474
1015,1.55965630093e+18,5.151110649,3.116919279,1.972929001
1016,1.55965630099e+18,5.941369534,4.943730354,-0.8247184753
1017,1.55965630105e+18,6.86797905,7.302856922,-3.706029654
1018,1.55965630111e+18,4.025733948,4.584038258,-5.997839451
1019,1.55965630117e+18,2.428882837,-3.5435853,-4.551077843
1020,1.55965630123e+18,1.209613323,-5.967615604,-7.480368614
1021,1.55965630129e+18,-1.867952943,-6.758708,-8.742311478
1022,1.55965630135e+18,-0.9362256527,-7.847655296,-11.78109264
1023,1.55965630141e+18,-2.844044447,-14.11454582,-14.94637966
1024,1.55965630147e+18,10.86121082,-17.36272049,-26.60415649
1025,1.55965630153e+18,-6.572698593,-1.802963257,10.54067612
1026,1.55965630159e+18,3.805506706,-4.25528717,9.730510712
1027,1.55965630165e+18,4.318879128,-6.044886112,6.763682842
1028,1.55965630171e+18,20.47079849,-8.983277321,3.636726856
1029,1.55965630177e+18,17.16990662,-5.242491245,8.695453644
1030,1.55965630183e+18,10.94858837,0.9168806672,1.838180304
1031,1.55965630189e+18,5.539288521,-1.45927465,5.543052673
1032,1.55965630195e+18,0.2188224792,3.364249468,4.08943367
1033,1.55965630201e+18,-4.491424561,2.654047251,3.756796837
1034,1.55965630207e+18,-9.521965027,4.405909538,9.434464455
1035,1.55965630213e+18,-20.15099335,8.64706707,-14.12381172
1036,1.55965630219e+18,1.407379389,-12.37210369,8.418654442
1037,1.55965630225e+18,18.69142342,-24.05305481,1.729283333
1038,1.55965630231e+18,3.354777336,-6.353840828,-9.662610054
1039,1.55965630237e+18,1.306939602,-6.296799183,-11.48895931
1040,1.55965630243e+18,-4.94811964,1.405190825,-8.528281212
1041,1.55965630249e+18,-4.052161694,0.7306780815,-6.560943604
1042,1.55965630255e+18,-5.439764977,3.515825272,-4.73910141
1043,1.55965630261e+18,-2.274317265,3.534431934,-4.028055191
1044,1.55965630267e+18,11.43887711,-1.373581767,0.7540793419
1045,1.55965630273e+18,14.55216789,5.81059885,3.503344774
1046,1.55965630279e+18,5.399297714,9.600362778,3.638276577
1047,1.55965630285e+18,2.72268486,9.069657326,3.159574747
1048,1.55965630291e+18,2.719097137,7.237236023,3.782084465
1049,1.55965630297e+18,2.929479599,4.36205864,1.866395473
1050,1.55965630303e+18,3.020568848,1.564470053,1.134479046
1051,1.55965630309e+18,2.442507744,-0.3140773773,-0.9609293938
1052,1.55965630315e+18,0.4061822891,-0.9096668363,-2.047035217
1053,1.55965630321e+18,-0.2784957886,-0.9778623581,-2.480492115
1054,1.55965630327e+18,0.3618984222,2.246657848,0.3842020035
1055,1.55965630333e+18,-1.432655334,4.369506359,3.884828568
1056,1.55965630339e+18,1.140970707,3.66036129,8.317626953
1057,1.55965630345e+18,0.2975149155,1.248372078,5.273600578
1058,1.55965630351e+18,-1.853742599,0.09879541397,1.131629944
1059,1.55965630357e+18,-3.768279314,-2.14196825,-2.390799999
1060,1.55965630363e+18,-5.48744297,-5.506242275,-4.567899227
1061,1.55965630369e+18,-6.747546196,-10.07429314,-4.102069855
1062,1.55965630375e+18,-7.995949745,-14.88705826,-10.24567509
1063,1.55965630381e+18,8.426678658,-26.97859573,-16.03385925
1064,1.55965630387e+18,-1.144660473,20.93133926,-6.654203415
1065,1.55965630393e+18,9.504083633,15.06270409,-0.474366188
1066,1.55965630399e+18,9.213460922,14.51779175,-0.8481116295
1067,1.55965630405e+18,8.902267456,18.33481789,1.973621845
1068,1.55965630411e+18,-2.812970638,17.18991089,3.591521263
1069,1.55965630417e+18,0.8709783554,14.27654934,-3.416106939
1070,1.55965630423e+18,-4.709536552,10.46039867,0.3778319359
1071,1.55965630429e+18,-5.524849892,15.55530548,6.367206573
1072,1.55965630435e+18,-6.814598083,15.65763855,-5.314695835
1073,1.55965630441e+18,-0.2085669041,-13.15169048,1.253136635
1074,1.55965630447e+18,20.70831108,-39.75953674,-23.46305466
1075,1.55965630453e+18,3.265496254,-3.865807533,-9.025370598
1076,1.55965630459e+18,4.04890871,-7.357794762,-7.723092556
1077,1.55965630465e+18,-7.795518875,-1.482931852,-8.880180359
1078,1.55965630471e+18,-4.863553524,0.5221731663,-5.202558994
1079,1.55965630477e+18,-8.084850311,0.4444687665,-5.178408146
1080,1.55965630483e+18,-8.006753922,3.950888395,-1.318054199
1081,1.55965630489e+18,-1.013789654,0.7497599721,1.96126461
1082,1.55965630495e+18,10.5672369,1.406565666,1.588181496
1083,1.55965630501e+18,9.16582489,6.282374859,2.665000916
1084,1.55965630507e+18,2.506425858,8.77939415,1.770598888
1085,1.55965630513e+18,1.617309093,7.824936867,0.7606186867
1086,1.55965630519e+18,3.644235134,5.127701759,1.102721691
1087,1.55965630525e+18,3.093169212,3.465375662,-0.1840190887
1088,1.55965630531e+18,2.785168171,1.934707642,-1.152004719
1089,1.55965630537e+18,1.457252026,1.111330986,-2.594718456
1090,1.55965630543e+18,1.339152336,0.268594265,-2.321142197
1091,1.55965630549e+18,-0.334400177,0.7727293968,-1.734967232
1092,1.55965630555e+18,-0.6211185455,1.443527222,-0.2744488716
1093,1.55965630561e+18,-1.471589565,1.413201928,1.534897804
1094,1.55965630567e+18,0.2073559761,-0.02787280083,1.892621517
1095,1.55965630573e+18,-0.5862970352,-0.9465099573,-0.2921152115
1096,1.55965630579e+18,-1.187281132,-0.9171476364,-0.8970637321
1097,1.55965630585e+18,-1.379046917,-0.09760117531,-0.8769364357
1098,1.55965630591e+18,0.7375092506,1.430845022,-1.34219265
1099,1.55965630597e+18,1.186975479,2.364397526,-1.876199961
1100,1.55965630603e+18,-0.3007669449,2.42223382,-3.235551834
1101,1.55965630609e+18,-0.9543232918,2.967336416,-3.637955666
1102,1.55965630615e+18,-2.939237595,-1.041187525,1.100557804
1103,1.55965630621e+18,9.516471863,4.620386124,-8.427284241
1104,1.55965630627e+18,-3.431464195,-9.427909851,-9.92304039
1105,1.55965630633e+18,-3.066818237,-11.53023338,-39.43418884
1106,1.55965630639e+18,-3.779681206,3.240255833,4.898461342
1107,1.55965630645e+18,0.7394247055,-3.139992714,9.927568436
1108,1.55965630651e+18,2.896902084,-4.701106071,5.731744766
1109,1.55965630657e+18,-2.085786819,-7.685417175,2.041520119
1110,1.55965630663e+18,0.1335983276,-5.625396729,-0.7636008263
1111,1.55965630669e+18,-0.6091952324,-1.955260754,-1.443616867
1112,1.55965630675e+18,-3.647044659,1.197514534,1.290055275
1113,1.55965630681e+18,-12.99624538,7.893389702,4.213419914
1114,1.55965630687e+18,-20.91510773,-0.1829539537,-13.60355186
1115,1.55965630693e+18,10.44383049,-14.82241344,17.71462822
1116,1.55965630699e+18,22.41539574,-24.03179359,3.500154495
1117,1.55965630705e+18,4.743021488,-3.949791908,-7.433362961
1118,1.55965630711e+18,3.132573843,-4.907095432,-10.49234867
1119,1.55965630717e+18,0.550817728,1.810762882,-5.808112621
1120,1.55965630723e+18,-1.149691463,0.6911686659,-4.523091793
1121,1.55965630729e+18,-2.859510183,4.040842056,-5.588042259
1122,1.55965630735e+18,-0.6701975465,4.419118881,-2.227359772
1123,1.55965630741e+18,4.024245262,2.974807024,-0.04597854614
1124,1.55965630747e+18,9.279208183,3.198752403,1.641644001
1125,1.55965630753e+18,6.67381382,7.07487154,3.570480108
1126,1.55965630759e+18,2.644646645,8.018985748,1.944969654
1127,1.55965630765e+18,1.082349777,5.534140587,2.217073917
1128,1.55965630771e+18,1.463942528,3.076670408,1.225278378
1129,1.55965630777e+18,1.479726791,1.113692284,-0.3038873672
1130,1.55965630783e+18,0.1613121033,-0.406324476,-1.103785992
1131,1.55965630789e+18,-0.02040338516,-1.351062655,-1.399377823
1132,1.55965630795e+18,-0.9521574974,-1.494894147,-1.55061388
1133,1.55965630801e+18,-1.186208248,-1.384302855,-1.053525925
1134,1.55965630807e+18,-1.613408566,-0.8950644135,-0.1469597816
1135,1.55965630813e+18,-1.356670856,-0.2689317465,0.6148562431
1136,1.55965630819e+18,0.4500217438,1.203793049,0.07211828232
1137,1.55965630825e+18,1.584868431,3.319498301,-0.6093244553
1138,1.55965630831e+18,1.503047943,7.391687393,-1.258363008
1139,1.55965630837e+18,1.14038372,7.381418705,-2.13677907
1140,1.55965630843e+18,3.691636086,8.414087296,-2.030128956
1141,1.55965630849e+18,5.940317154,3.559722185,-1.347467899
1142,1.55965630855e+18,11.15994453,9.333304405,0.5877485275
1143,1.55965630861e+18,9.493404388,4.053472996,-3.363214493
1144,1.55965630867e+18,6.877447605,0.1574239731,-5.999042511
1145,1.55965630873e+18,-5.490961552,-8.651580811,-16.4323082
1146,1.55965630879e+18,11.93095207,-20.36221886,-19.14278221
1147,1.55965630885e+18,-7.465489864,-15.60629272,-20.01368904
1148,1.55965630891e+18,-9.054027557,-19.06451035,9.877780914
1149,1.55965630897e+18,-2.392422915,-12.72127533,5.046024799
1150,1.55965630903e+18,-3.862650156,-11.99472618,9.311836243
1151,1.55965630909e+18,-3.848778248,-7.106653214,9.203223228
1152,1.55965630915e+18,0.9587612152,-3.228849888,6.781468391
1153,1.55965630921e+18,-0.6233153343,0.3962345123,6.541249275
1154,1.55965630927e+18,-0.094158113,-0.0256152153,1.183795452
1155,1.55965630933e+18,-1.914428115,-1.853196859,-0.5363850594
1156,1.55965630939e+18,-5.825091362,-0.4053325653,-4.519992352
1157,1.55965630945e+18,-12.86380005,2.67798543,-10.48670864
1158,1.55965630951e+18,-4.125313759,2.46200633,-5.740669727
1159,1.55965630957e+18,3.63778019,-8.751442909,12.35724449
1160,1.55965630963e+18,20.91262436,-35.11883926,-8.114117622
1161,1.55965630969e+18,7.189160347,-7.153344154,-2.298366547
1162,1.55965630975e+18,0.8360026479,-5.96986866,-6.233662605
1163,1.55965630981e+18,-1.816047788,3.67280221,-6.198287964
1164,1.55965630987e+18,0.9743051529,0.8442461491,0.4148626328
1165,1.55965630993e+18,1.588090181,-0.009199619293,2.25178051
1166,1.55965630999e+18,1.736654758,-1.309211254,2.594858646
1167,1.55965631005e+18,1.469340324,-1.547837257,2.428667068
1168,1.55965631011e+18,1.938054085,-0.4126958847,2.53595686
1169,1.55965631017e+18,2.103481293,1.077202797,3.234790325
1170,1.55965631023e+18,1.210298061,1.348756313,2.593734741
1171,1.55965631029e+18,1.11039114,0.7928900719,1.849683762
1172,1.55965631035e+18,0.7578015327,-0.4001431465,-0.3323702812
1173,1.55965631041e+18,1.197696209,0.2536444664,-0.7506670952
1174,1.55965631047e+18,1.492046356,-0.5321912766,-0.1334309578
1175,1.55965631053e+18,0.87606287,-0.5314421654,-0.004887104034
1176,1.55965631059e+18,-0.3845100403,-0.151819706,0.2935290337
1177,1.55965631065e+18,-0.940984726,-0.2947618961,0.4075884819
1178,1.55965631071e+18,-0.2123303413,-0.0005240440369,2.636242867
1179,1.55965631077e+18,-0.684571743,-0.9362447262,1.927466393
1180,1.55965631083e+18,-0.7953238487,-1.911560774,0.1333060265
1181,1.55965631089e+18,-1.215514183,-2.365962029,-1.273161888
1182,1.55965631095e+18,-0.7655911446,-2.075090408,-2.16652298
1183,1.55965631101e+18,-0.198551178,-3.262715101,-1.247281075
1184,1.55965631107e+18,0.5555090904,-1.570147991,-2.434663296
1185,1.55965631113e+18,-0.8154902458,1.223985434,-3.358511448
1186,1.55965631119e+18,0.02644586563,0.4608213902,-3.007473946
1187,1.55965631125e+18,3.947808743,-0.6103825569,2.728157997
1188,1.55965631131e+18,2.036132336,-1.425299168,0.2059502602
1189,1.55965631137e+18,4.12090826,2.642860413,7.959765434
1190,1.55965631143e+18,2.754319668,1.367977142,4.46180439
1191,1.55965631149e+18,-3.220229387,-2.201043367,1.999560356
1192,1.55965631155e+18,-4.959158897,-10.53932953,-4.938065052
1193,1.55965631161e+18,4.368002892,-8.714437485,-24.90248489
1194,1.55965631167e+18,6.014458656,29.73134613,-18.23853493
1195,1.55965631173e+18,17.48848724,11.92765236,1.200529814
1196,1.55965631179e+18,-0.08355808258,13.19178009,-0.836455822
1197,1.55965631185e+18,3.959469795,10.42194176,1.587295532
1198,1.55965631191e+18,0.04216527939,9.636108398,-9.06415844
1199,1.55965631197e+18,-2.39991045,8.570603371,-7.297966003
1200,1.55965631203e+18,-1.364149094,9.7700634,-3.083040714
1201,1.55965631209e+18,-7.627351761,13.81507969,2.818276405
1202,1.55965631215e+18,-14.15427494,8.210794449,0.4023647308
1203,1.55965631221e+18,1.682401538,-18.54635429,13.06721592
1204,1.55965631227e+18,11.99931335,-50.66851044,-0.3337259293
1205,1.55965631233e+18,0.7350445986,-3.706247091,-7.369029999
1206,1.55965631239e+18,0.7456169128,-13.98505783,-10.40647125
1207,1.55965631245e+18,-4.066195488,1.987178326,-12.02630806
1208,1.55965631251e+18,-0.9301917553,-2.894876957,-8.639152527
1209,1.55965631257e+18,-2.592020988,-2.631890535,-4.773701191
1210,1.55965631263e+18,-3.086425781,-2.607720852,2.342823029
1211,1.55965631269e+18,-2.188667774,-3.188182592,2.000862122
1212,1.55965631275e+18,5.142373562,-3.855209827,5.166452885
1213,1.55965631281e+18,12.38322449,1.402421713,8.560678482
1214,1.55965631287e+18,8.895185471,8.395781517,11.00627422
1215,1.55965631293e+18,3.318220139,8.936081886,4.341882706
1216,1.55965631299e+18,2.859946251,5.224615097,1.929768085
1217,1.55965631305e+18,3.669049263,2.542853594,1.455780506
1218,1.55965631311e+18,4.227665424,0.1918549538,0.05056142807
1219,1.55965631317e+18,1.857647419,0.01611757278,-0.9728059769
1220,1.55965631323e+18,0.3179483414,-0.2571060658,-1.336014271
1221,1.55965631329e+18,0.05319356918,-1.22197628,-1.032399178
1222,1.55965631335e+18,-1.49211359,-0.7964656353,-2.334195375
1223,1.55965631341e+18,-1.299837589,-0.4781859517,-0.7015047073
1224,1.55965631347e+18,-0.9125695229,2.462462902,1.083361149
1225,1.55965631353e+18,-0.5806765556,4.658489227,4.330572605
1226,1.55965631359e+18,2.081807137,3.391882896,4.648756981
1227,1.55965631365e+18,2.857113361,2.706140518,4.898292065
1228,1.55965631371e+18,2.300462723,2.970567703,1.141400814
1229,1.55965631377e+18,2.362573147,2.498709202,-0.4247121811
1230,1.55965631383e+18,0.2083215714,2.411403179,-2.058150768
1231,1.55965631389e+18,-0.03326320648,0.9666061401,-3.233956337
1232,1.55965631395e+18,-3.066451073,-2.419430494,-4.467599869
1233,1.55965631401e+18,-2.407690048,-5.946475506,-2.981622696
1234,1.55965631407e+18,-3.232499599,-10.2145443,-2.716047049
1235,1.55965631413e+18,6.380235672,-17.9276371,-10.11331749
1236,1.55965631419e+18,-11.97439766,-24.56608963,36.47974014
1237,1.55965631425e+18,-13.99138641,6.918629169,5.002047539
1238,1.55965631431e+18,-13.54898262,10.05278492,6.343882561
1239,1.55965631437e+18,-12.27054119,8.851370811,5.724854946
1240,1.55965631443e+18,-13.31846142,10.26926231,4.255327225
1241,1.55965631449e+18,-24.37176514,14.14083099,-1.712952614
1242,1.55965631455e+18,-15.28069878,-1.370737433,3.939610481
1243,1.55965631461e+18,4.699166298,-15.90619469,11.64909458
1244,1.55965631467e+18,-0.3604509234,-11.64847088,-5.627388
1245,1.55965631473e+18,8.450445175,3.610720873,-7.088058472
1246,1.55965631479e+18,-0.7728321552,-5.346986771,-12.45372295
1247,1.55965631485e+18,-5.453720093,4.710898399,-8.959132195
1248,1.55965631491e+18,-2.768692493,-1.90085876,-7.762497425
1249,1.55965631497e+18,-4.159861088,-2.536899328,-6.974266052
1250,1.55965631503e+18,-3.712819099,-2.650237322,-3.502950191
1251,1.55965631509e+18,4.934580803,-3.970330238,6.332339764
1252,1.55965631515e+18,14.72410774,-2.850496292,8.927892685
1253,1.55965631521e+18,9.05352211,1.938998699,10.73882389
1254,1.55965631527e+18,6.555537701,6.2286129,9.667370796
1255,1.55965631533e+18,6.070831776,6.923474312,9.831661224
1256,1.55965631539e+18,5.336522579,4.846152306,7.330357075
1257,1.55965631545e+18,3.650247574,3.148633003,4.362059593
1258,1.55965631551e+18,2.844857693,0.172478199,3.994158268
1259,1.55965631557e+18,1.941110611,0.2762951851,3.023814201
1260,1.55965631563e+18,1.342306614,-0.1826076508,1.990289927
1261,1.55965631569e+18,0.1772651672,0.8265638351,1.10924077
1262,1.55965631575e+18,0.4994306564,2.592709541,1.817584515
1263,1.55965631581e+18,0.4239473343,3.907261848,1.074241161
1264,1.55965631587e+18,1.99514389,4.604368687,-1.431794405
1265,1.55965631593e+18,1.60351038,5.86624527,-3.345696211
1266,1.55965631599e+18,0.8460016251,3.657108545,-4.469251156
1267,1.55965631605e+18,-0.8443512917,5.257998943,-7.325227737
1268,1.55965631611e+18,0.4463992119,1.019405842,-10.25828362
1269,1.55965631617e+18,-2.235116482,-8.107085228,-7.706302166
1270,1.55965631623e+18,-7.192437172,-15.32723999,-10.777318
1271,1.55965631629e+18,-3.792740822,-19.18004799,-11.83061981
1272,1.55965631635e+18,12.35099697,-31.23954201,11.21343994
1273,1.55965631641e+18,9.430490494,-18.17755699,9.18261528
1274,1.55965631647e+18,9.611638069,-15.99655151,7.215258598
1275,1.55965631653e+18,14.91534996,-17.13742065,5.611156464
1276,1.55965631659e+18,15.79733562,-12.23505211,4.088299274
1277,1.55965631665e+18,10.24108505,-10.70611191,1.037379742
1278,1.55965631671e+18,7.343196392,-12.08313751,3.987770557
1279,1.55965631677e+18,2.789999962,-5.277589798,0.02239847183
1280,1.55965631683e+18,-0.5208930969,-1.17627573,-1.29917562
1281,1.55965631689e+18,-1.279599667,-0.8073344231,1.236092567
1282,1.55965631695e+18,-9.844259262,-3.877307415,5.759160995
1283,1.55965631701e+18,-13.58265686,2.913850784,5.967906475
1284,1.55965631707e+18,-30.26761055,12.45582199,-12.71288872
1285,1.55965631713e+18,-5.561385632,-7.070492744,2.002029419
1286,1.55965631719e+18,15.00714684,-41.95418167,-17.60219955
1287,1.55965631725e+18,7.214309692,10.67549896,-4.772997856
1288,1.55965631731e+18,2.121068716,-10.13134861,-6.557945251
1289,1.55965631737e+18,-4.89964962,0.3623330593,-9.510816574
1290,1.55965631743e+18,-3.67707324,1.181519628,-8.278104782
1291,1.55965631749e+18,-4.353246689,-0.2901112139,-6.585450172
1292,1.55965631755e+18,-2.583972931,1.783552408,-5.166138649
1293,1.55965631761e+18,9.697666168,2.053037643,2.40266633
1294,1.55965631767e+18,10.50051594,5.759918213,5.409287453
1295,1.55965631773e+18,9.172842026,8.068958282,7.284312248
1296,1.55965631779e+18,11.40158081,11.59017754,6.771778107
1297,1.55965631785e+18,6.510360718,11.64770699,6.152890205
1298,1.55965631791e+18,5.163318634,9.49960041,4.897887707
1299,1.55965631797e+18,3.853819847,7.006591797,2.719163895
1300,1.55965631803e+18,2.895641804,5.325050354,1.899189234
1301,1.55965631809e+18,0.6574935913,4.697493553,2.650789976
1302,1.55965631815e+18,-0.02240276337,3.967742443,3.211616039
1303,1.55965631821e+18,0.6223173141,2.045868635,5.413538933
1304,1.55965631827e+18,0.360004425,1.46670568,5.10332489
1305,1.55965631833e+18,0.105134964,0.5495156646,4.363395691
1306,1.55965631839e+18,0.7876420021,0.1236026287,2.264602661
1307,1.55965631845e+18,0.4944581985,0.06579041481,1.921535492
1308,1.55965631851e+18,-0.3832616806,1.414928913,-0.4580702782
1309,1.55965631857e+18,-0.5181064606,3.852324009,-1.310233593
1310,1.55965631863e+18,-2.02398777,2.927462101,-3.753244877
1311,1.55965631869e+18,-4.49239254,-0.3332848549,-4.062013626
1312,1.55965631875e+18,-5.91757679,-5.099974155,-6.781689167
1313,1.55965631881e+18,-6.814337254,-9.917100906,-5.644355774
1314,1.55965631887e+18,-2.095966816,-17.48888779,-13.00631714
1315,1.55965631893e+18,34.96614075,-77.64175415,72.69869232
1316,1.55965631899e+18,11.90381336,25.82831955,-18.87966156
1317,1.55965631905e+18,0.9972248077,26.42345428,2.058535337
1318,1.55965631911e+18,-7.631306648,24.52752304,-2.690215588
1319,1.55965631917e+18,-7.894458294,16.24986267,-1.521073341
1320,1.55965631923e+18,-13.32419872,8.573478699,-3.408633947
1321,1.55965631929e+18,-10.58125305,9.365999222,-3.577511311
1322,1.55965631935e+18,-7.276596546,2.5285182,-1.619722843
1323,1.55965631941e+18,5.686725616,-14.95480442,-2.182672501
1324,1.55965631947e+18,-0.5058710575,-11.6231823,-7.162808895
1325,1.55965631953e+18,11.16184425,0.350269556,-7.470065117
1326,1.55965631959e+18,-2.18207407,-4.273452282,0.1666765213
1327,1.55965631965e+18,-10.12117958,-1.368933201,-7.028388023
1328,1.55965631971e+18,-2.959086418,-0.3868556023,-4.916245937
1329,1.55965631977e+18,-1.168925643,-0.3043241501,-5.255017281
1330,1.55965631983e+18,-3.103490829,-1.703533649,-3.810961246
1331,1.55965631989e+18,-4.62863636,-2.091372967,-2.152872562
1332,1.55965631995e+18,-3.941869259,-4.854860783,1.317484856
1333,1.55965632001e+18,4.746878624,-7.673331261,2.089560747
1334,1.55965632007e+18,16.46008682,-3.752394676,1.908024192
1335,1.55965632013e+18,10.88783073,3.708691597,2.212465525
1336,1.55965632019e+18,6.404585361,5.450787544,-1.280400157
1337,1.55965632025e+18,7.099065781,5.187156677,-0.961607933
1338,1.55965632031e+18,6.353992939,4.220868111,-0.9785116911
1339,1.55965632037e+18,5.652021408,2.308485508,-0.1573667526
1340,1.55965632043e+18,3.539116383,-0.4956536293,0.8554853201
1341,1.55965632049e+18,1.793905258,-1.391008854,-0.4934566021
1342,1.55965632055e+18,0.7315731049,-2.761203766,-0.3575837612
1343,1.55965632061e+18,-0.07529067993,-3.071385145,-1.747029066
1344,1.55965632067e+18,-0.475487709,-2.350777864,-0.8904628754
1345,1.55965632073e+18,-0.2642707825,-1.439392328,-1.386142731
1346,1.55965632079e+18,1.388882637,-0.7315731049,-0.247317791
1347,1.55965632085e+18,-0.1513214111,0.516613543,0.3523592949
1348,1.55965632091e+18,0.2313404083,0.3351473212,-0.9584681988
1349,1.55965632097e+18,0.01529407501,-0.4874267578,-2.075981855
1350,1.55965632103e+18,-1.900597095,-0.6395189762,-2.879908085
1351,1.55965632109e+18,-1.387687206,-0.2405588627,-3.543870211
1352,1.55965632115e+18,-1.110571861,1.016553402,-3.366420746
1353,1.55965632121e+18,-0.8565020561,1.859041214,-1.197476149
1354,1.55965632127e+18,0.7646503448,2.729285479,1.6921525
1355,1.55965632133e+18,4.662851334,4.900970459,5.267313957
1356,1.55965632139e+18,4.054816246,11.0682478,8.924764633
1357,1.55965632145e+18,13.8317976,10.62435627,3.670910358
1358,1.55965632151e+18,5.086746693,8.234970093,-9.671937943
1359,1.55965632157e+18,-4.799008369,-11.07287979,-12.44840431
1360,1.55965632163e+18,-6.619668961,-18.68703842,-18.51564407
1361,1.55965632169e+18,10.36731815,-11.09405327,-21.89988708
1362,1.55965632175e+18,0.0994758606,-5.745507717,10.53875637
1363,1.55965632181e+18,-12.7942934,-10.19251156,2.651051998
1364,1.55965632187e+18,-8.195137978,-8.548762321,4.435127258
1365,1.55965632193e+18,-7.950962067,-4.04537487,5.666394234
1366,1.55965632199e+18,-2.276568413,-2.554933786,7.252155304
1367,1.55965632205e+18,-0.1135725081,-1.360590458,5.879701614
1368,1.55965632211e+18,-0.06513358653,-1.596388817,7.012975693
1369,1.55965632217e+18,-1.619648457,1.043811083,4.644792557
1370,1.55965632223e+18,-7.226689339,3.71961236,1.160565376
1371,1.55965632229e+18,-27.47138596,1.185234427,-22.20248032
1372,1.55965632235e+18,8.028469086,-13.79770184,-0.4708714485
1373,1.55965632241e+18,10.15056038,-32.86280441,-27.1169548
1374,1.55965632247e+18,14.76108932,3.515568256,-4.493710518
1375,1.55965632253e+18,2.000221729,-10.85599899,-8.279717445
1376,1.55965632259e+18,-6.600205421,-2.539978743,-1.237281799
1377,1.55965632265e+18,-5.625258446,2.117467403,-3.269843102
1378,1.55965632271e+18,-6.51149559,3.068235874,-3.261200905
1379,1.55965632277e+18,10.71013737,-1.530786753,3.300733566
1380,1.55965632283e+18,14.4805994,1.94740808,-0.6818208694
1381,1.55965632289e+18,11.65389347,7.934558392,0.2435116768
1382,1.55965632295e+18,7.442027569,10.59080696,2.587944508
1383,1.55965632301e+18,3.842523098,9.027198792,-0.5170207024
1384,1.55965632307e+18,4.424388885,5.018713474,-0.5861139297
1385,1.55965632313e+18,6.645330429,1.235354662,-0.5264296532
1386,1.55965632319e+18,4.082269669,-0.945734024,-1.762174129
1387,1.55965632325e+18,0.4976177216,-0.8779532909,-3.328543425
1388,1.55965632331e+18,-0.4756731987,-0.5174230337,-5.277959824
1389,1.55965632337e+18,0.5156521797,-0.8367008567,-4.295442581
1390,1.55965632343e+18,-0.4549398422,-0.4844181538,-4.571234226
1391,1.55965632349e+18,-0.5173568726,-0.7395611405,-3.048193932
1392,1.55965632355e+18,0.4984664917,0.2767522335,-1.141467571
1393,1.55965632361e+18,1.215982437,0.2819751501,0.03530263901
1394,1.55965632367e+18,2.344435692,0.3132662773,1.447772026
1395,1.55965632373e+18,0.646437645,1.189536572,0.3864612579
1396,1.55965632379e+18,2.825839043,2.445100069,-1.670354843
1397,1.55965632385e+18,4.365405083,7.04012394,-0.2852284908
1398,1.55965632391e+18,5.704856873,7.810330868,0.9210247993
1399,1.55965632397e+18,6.935487747,3.879179239,3.015597105
1400,1.55965632403e+18,6.892276764,4.713830471,2.518521309
1401,1.55965632409e+18,2.419691086,4.805088997,-6.635863304
1402,1.55965632415e+18,-9.37899971,-3.626672268,-14.83897591
1403,1.55965632421e+18,-15.22845268,-12.33732986,-15.1813345
1404,1.55965632427e+18,2.113038063,-11.65757179,-4.679030418
1405,1.55965632433e+18,35.96708679,-60.26015472,65.87489319
1406,1.55965632439e+18,-0.8734741211,18.59951401,14.23626804
1407,1.55965632445e+18,-0.5703039169,8.403678894,25.1056366
1408,1.55965632451e+18,-7.920416355,-1.419137001,10.60708046
1409,1.55965632457e+18,-0.3266758919,-1.275940895,3.702511311
1410,1.55965632463e+18,-0.04249334335,-0.704852581,4.67705822
1411,1.55965632469e+18,-2.850946188,-1.121279716,4.702323914
1412,1.55965632475e+18,-3.762041092,2.084755898,1.039151192
1413,1.55965632481e+18,-9.882025719,0.7212529182,-0.6153302193
1414,1.55965632487e+18,-23.62584114,9.974102974,0.07778835297
1415,1.55965632493e+18,-17.06523132,-2.336284637,-21.66841507
1416,1.55965632499e+18,6.660675526,-23.90703011,29.001297
1417,1.55965632505e+18,13.57411861,-11.22794914,-11.82921791
1418,1.55965632511e+18,2.904747963,-11.34101105,-12.54249668
1419,1.55965632517e+18,-7.480019093,7.464447021,-12.76580429
1420,1.55965632523e+18,0.8323326111,-1.400395632,-6.47729826
1421,1.55965632529e+18,0.03380632401,-0.2472958565,-5.079593658
1422,1.55965632535e+18,-1.763551474,1.678644896,-2.221558094
1423,1.55965632541e+18,-1.974656582,2.996849298,0.3607187271
1424,1.55965632547e+18,0.8473621607,1.663979292,2.466154099
1425,1.55965632553e+18,8.528956413,-0.1964378357,1.39732933
1426,1.55965632559e+18,13.88914108,3.180783272,0.3773345947
1427,1.55965632565e+18,9.05610466,8.729036331,-0.6169581413
1428,1.55965632571e+18,8.430520058,10.07863426,0.6946320534
1429,1.55965632577e+18,4.48742342,7.006114006,-0.8072185516
1430,1.55965632583e+18,3.005506039,4.101137638,-0.2977223396
1431,1.55965632589e+18,4.924182892,1.750759602,-0.9999613762
1432,1.55965632595e+18,3.223745823,0.7398030758,-0.4543638229
1433,1.55965632601e+18,2.794236183,0.0325717926,-1.360361099
1434,1.55965632607e+18,1.969395161,-1.40967834,-1.63171196
1435,1.55965632613e+18,-0.1717991829,-2.049964905,-2.913862944
1436,1.55965632619e+18,-0.8689336777,-1.284010887,-3.067814112
1437,1.55965632625e+18,-1.76362133,0.5027878284,-1.463539124
1438,1.55965632631e+18,-2.488586426,1.395985603,0.3938598633
1439,1.55965632637e+18,-0.1670641899,5.511675358,3.828751087
1440,1.55965632643e+18,1.834469795,11.3204937,-0.001908779144
1441,1.55965632649e+18,-0.5583686829,6.597918034,-1.786663532
1442,1.55965632655e+18,-10.85356522,0.686101675,-3.879861355
1443,1.55965632661e+18,-17.5581131,-4.319178581,-4.447460175
1444,1.55965632667e+18,-15.92077827,-20.1987114,-4.684398651
1445,1.55965632673e+18,3.638633728,-26.3306179,-12.69615841
1446,1.55965632679e+18,3.684954643,-2.161703348,-63.68874741
1447,1.55965632685e+18,31.52575302,14.09348202,11.3735714
1448,1.55965632691e+18,4.927845478,10.714571,1.604482651
1449,1.55965632697e+18,28.34888649,4.839340687,3.617285013
1450,1.55965632703e+18,18.10201645,-3.538944244,1.389403343
1451,1.55965632709e+18,16.4215126,-3.915043116,1.21741724
1452,1.55965632715e+18,5.398834229,-2.372056484,-1.040171146
1453,1.55965632721e+18,0.3393878937,-4.094317436,2.376244545
1454,1.55965632727e+18,-3.235649586,-2.29939127,-5.570558548
1455,1.55965632733e+18,-6.977075577,0.1610174179,-2.410656452
1456,1.55965632739e+18,-22.39802742,6.575083733,-8.457486153
1457,1.55965632745e+18,-14.06135273,5.926171303,-18.10860825
1458,1.55965632751e+18,10.58510017,-11.41945076,12.13958168
1459,1.55965632757e+18,16.38844681,-14.35220242,-14.46978569
1460,1.55965632763e+18,7.0651021,4.908082485,-9.164107323
1461,1.55965632769e+18,3.299118042,-1.481767178,-3.721371651
1462,1.55965632775e+18,-3.397536755,7.66588974,-9.195859909
1463,1.55965632781e+18,-0.7761130333,-0.3589754105,-6.809539795
1464,1.55965632787e+18,1.658970594,0.09604978561,-5.972815514
1465,1.55965632793e+18,2.336411953,-1.85806036,-3.086406231
1466,1.55965632799e+18,2.86989975,-1.465507984,2.930448055
1467,1.55965632805e+18,6.121520042,-1.193380833,2.981759071
1468,1.55965632811e+18,12.6620121,2.061113358,1.91940403
1469,1.55965632817e+18,13.69556618,6.768908978,1.433021545
1470,1.55965632823e+18,10.55768871,9.412780762,0.3775334358
1471,1.55965632829e+18,11.08933258,12.31116867,2.312945843
1472,1.55965632835e+18,7.948046684,12.95067692,0.9645109177
1473,1.55965632841e+18,6.49331665,8.58072567,0.4051587582
1474,1.55965632847e+18,6.467049599,4.400136948,1.109340191
1475,1.55965632853e+18,3.467060566,3.045142651,-0.1956033707
1476,1.55965632859e+18,2.392254829,0.9372630119,0.451839447
1477,1.55965632865e+18,1.742604256,1.124081492,-1.291415453
1478,1.55965632871e+18,-0.3040094376,-0.1064409018,-1.413356066
1479,1.55965632877e+18,-0.02601242065,0.9399284124,0.636259079
1480,1.55965632883e+18,5.353075027,7.639000893,6.226259232
1481,1.55965632889e+18,4.725110054,5.63709259,1.49042654
1482,1.55965632895e+18,4.190673828,0.8623394966,-2.809195518
1483,1.55965632901e+18,0.09912729263,-1.609255075,-4.677318573
1484,1.55965632907e+18,-4.008190632,-2.431239128,-7.851713181
1485,1.55965632913e+18,-4.967741489,-1.835447788,-9.189935684
1486,1.55965632919e+18,-6.58965683,-2.386730671,-8.415532112
1487,1.55965632925e+18,-6.121673584,-5.558804989,-7.498607159
1488,1.55965632931e+18,3.71145916,-13.98768425,-9.666966438
1489,1.55965632937e+18,12.73635483,-16.00279808,23.02975845
1490,1.55965632943e+18,0.2176933289,11.41629219,14.97241592
1491,1.55965632949e+18,12.50501537,9.484186172,23.14535141
1492,1.55965632955e+18,4.249767303,5.53636837,17.27947044
1493,1.55965632961e+18,-3.43872261,2.859704494,15.09057713
1494,1.55965632967e+18,-6.693196774,1.719735622,6.420011997
1495,1.55965632973e+18,-10.54349041,10.19026661,6.92525959
1496,1.55965632979e+18,-22.9516201,9.13174057,-10.5608511
1497,1.55965632985e+18,-0.7893302441,-4.446344376,11.79986191
1498,1.55965632991e+18,13.58093262,-34.28057861,-25.33568382
1499,1.55965632997e+18,6.626966476,3.464588404,-11.6493187
1500,1.55965633003e+18,4.835223198,-4.550526619,-12.72563171
1501,1.55965633009e+18,-2.992445469,-0.9911952019,-6.223174095
1502,1.55965633015e+18,-6.471069336,2.787310123,-3.603851795
1503,1.55965633021e+18,-9.410763741,5.398453712,-5.021450043
1504,1.55965633027e+18,-7.53725338,6.841578007,-3.09687233
1505,1.55965633033e+18,2.509112358,2.15071106,-0.7827014923
1506,1.55965633039e+18,13.64290142,3.463426113,2.72937274
1507,1.55965633045e+18,6.337154388,10.22793102,4.161199093
1508,1.55965633051e+18,3.746395111,9.735754967,4.244219303
1509,1.55965633057e+18,1.994008064,8.126291275,2.512399197
1510,1.55965633063e+18,1.092308044,6.09657383,1.82360363
1511,1.55965633069e+18,1.003397942,3.819820642,0.7757825851
1512,1.55965633075e+18,1.081009865,1.729418039,0.2374396324
1513,1.55965633081e+18,0.4717693329,0.3016135097,-0.7842876911
1514,1.55965633087e+18,-0.5048799515,-0.09810300916,-0.5338411331
1515,1.55965633093e+18,-1.303290367,0.02634078264,2.014895439
1516,1.55965633099e+18,-1.002938271,1.273497581,4.419057369
1517,1.55965633105e+18,0.433511734,1.379981637,5.773898125
1518,1.55965633111e+18,-1.415606499,1.897827029,2.198455095
1519,1.55965633117e+18,1.163492203,2.266031981,2.547975063
1520,1.55965633123e+18,2.372084618,2.867321253,2.883100986
1521,1.55965633129e+18,1.747587204,3.517217159,0.4901008606
1522,1.55965633135e+18,1.293600559,2.317312241,-3.202691555
1523,1.55965633141e+18,-2.276238441,1.238277912,-8.925743103
1524,1.55965633147e+18,-7.584103107,-3.676141977,-8.283616066
1525,1.55965633153e+18,-5.684350491,-10.28834724,-5.617900848
1526,1.55965633159e+18,9.064510345,-22.4989109,-13.90964413
1527,1.55965633165e+18,16.62350845,-68.82385254,6.324991226
1528,1.55965633171e+18,-9.416311264,19.24396133,3.106141329
1529,1.55965633177e+18,14.2046442,-3.121563911,23.31416321
1530,1.55965633183e+18,7.222473145,0.5262842178,13.54008961
1531,1.55965633189e+18,0.8536214828,-2.864189148,14.34626293
1532,1.55965633195e+18,-0.5304050446,-2.463337898,8.342983246
1533,1.55965633201e+18,-0.4674963951,-0.2811450958,4.221797466
1534,1.55965633207e+18,-2.540967464,3.677760124,3.571321487
1535,1.55965633213e+18,-11.68209362,10.70784283,2.025241852
1536,1.55965633219e+18,-22.11915207,-1.880969048,-4.511043072
1537,1.55965633225e+18,16.41538239,-17.9737587,11.13625622
1538,1.55965633231e+18,1.510964274,-8.735146523,-11.64185333
1539,1.55965633237e+18,2.235154867,-6.544859886,-11.28679562
1540,1.55965633243e+18,0.2959402204,-4.434132576,-10.49767113
1541,1.55965633249e+18,-3.413133144,2.349300861,-7.446457863
1542,1.55965633255e+18,-6.580801964,2.0523417,-6.203739166
1543,1.55965633261e+18,-6.352796555,3.452136517,-1.443711281
1544,1.55965633267e+18,-0.1757850647,3.590197563,3.729685783
1545,1.55965633273e+18,7.768610954,2.426928759,4.766256809
1546,1.55965633279e+18,6.156639099,7.047767639,5.783383369
1547,1.55965633285e+18,2.439897537,10.13807392,6.826589584
1548,1.55965633291e+18,-0.905798912,7.25430584,3.060031891
1549,1.55965633297e+18,0.971889019,5.576653481,2.083934307
1550,1.55965633303e+18,1.624537468,2.910568476,1.319898605
1551,1.55965633309e+18,2.47228241,-0.8243539333,1.894361496
1552,1.55965633315e+18,-0.5071091652,-1.454554558,-0.7166032791
1553,1.55965633321e+18,-0.4073491096,-2.337311506,-0.9050216675
1554,1.55965633327e+18,-1.01355505,-2.082492828,-2.355120659
1555,1.55965633333e+18,-1.015069008,-0.4201277494,-2.794567347
1556,1.55965633339e+18,-1.206276894,-0.0826960206,-1.165443897
1557,1.55965633345e+18,-0.3604960442,0.1337512732,0.4485902786
1558,1.55965633351e+18,3.060559273,1.604600668,0.9206647873
1559,1.55965633357e+18,4.162732124,5.532253742,1.200155258
1560,1.55965633363e+18,4.701931953,3.992326021,1.867936611
1561,1.55965633369e+18,0.8019704819,1.888524532,-1.042285919
1562,1.55965633375e+18,1.253396034,1.675610423,-0.3413491249
1563,1.55965633381e+18,0.8959283829,3.083035469,-4.24536705
1564,1.55965633387e+18,-0.7291254997,0.873085022,-7.083835602
1565,1.55965633393e+18,-5.622813702,-3.229706287,-4.46372509
1566,1.55965633399e+18,-2.61781168,-8.565127373,-8.64850235
1567,1.55965633405e+18,2.283830643,-6.311061382,-11.89971066
1568,1.55965633411e+18,-10.22856712,16.40800667,-4.044377327
1569,1.55965633417e+18,-6.915451527,2.784144878,4.591350555
1570,1.55965633423e+18,-2.215826511,4.060557842,20.86293602
1571,1.55965633429e+18,-2.257861614,12.7980957,-9.219426155
1572,1.55965633435e+18,-10.46770096,6.577132702,-22.71622467
1573,1.55965633441e+18,12.08434486,-26.59181976,4.563697815
1574,1.55965633447e+18,18.2293911,-7.844545364,4.650264263
1575,1.55965633453e+18,7.373661995,1.803386092,5.013638496
1576,1.55965633459e+18,7.444670677,1.723759651,0.4199673533
1577,1.55965633465e+18,-3.830554485,8.882177353,5.378954887
1578,1.55965633471e+18,-2.939110518,2.753508568,3.404355049
1579,1.55965633477e+18,-3.897402287,4.88341713,6.292832375
1580,1.55965633483e+18,-13.69218636,6.602325439,-2.763937473
1581,1.55965633489e+18,0.7333538532,-17.78059959,1.920837402
1582,1.55965633495e+18,2.632163048,-47.49542999,-19.92068863
1583,1.55965633501e+18,17.08384895,7.108761311,-8.214245796
1584,1.55965633507e+18,0.2897309959,-18.37994576,-11.05330563
1585,1.55965633513e+18,-2.631484985,-1.481068134,-8.112221718
1586,1.55965633519e+18,-3.328521729,-2.334351063,-5.293492794
1587,1.55965633525e+18,-3.850243568,-1.806837678,-2.274476051
1588,1.55965633531e+18,-0.0941259861,-0.277438879,0.9000988007
1589,1.55965633537e+18,7.08010149,-3.163182974,4.198419571
1590,1.55965633543e+18,8.150437355,1.59088552,3.410331249
1591,1.55965633549e+18,6.571299553,4.275848389,2.874695301
1592,1.55965633555e+18,4.670508385,7.355113029,2.18367672
1593,1.55965633561e+18,3.634403706,7.476178169,1.41984272
1594,1.55965633567e+18,3.614817619,4.993524075,0.9100627899
1595,1.55965633573e+18,0.9212150574,3.058046103,-0.5560779572
1596,1.55965633579e+18,1.026201248,1.196936131,-1.446181536
1597,1.55965633585e+18,1.856880188,-0.7555686235,1.460004807
1598,1.55965633591e+18,-0.6286606789,-1.150331378,-0.2229790688
1599,1.55965633597e+18,-0.2122879028,-0.8915882111,0.101000309
1600,1.55965633603e+18,-2.005916119,-0.3132780194,1.12493372
1601,1.55965633609e+18,-1.489922047,-0.7621947527,1.631251335
1602,1.55965633615e+18,-1.649103642,-1.534483671,1.222069263
1603,1.55965633621e+18,-1.187175751,-0.9190037847,0.6220841408
1604,1.55965633627e+18,-0.251616478,-0.7547339201,0.7193393707
1605,1.55965633633e+18,-0.6357569695,0.4428865314,0.04602146149
1606,1.55965633639e+18,1.726231575,2.661342382,1.027900219
1607,1.55965633645e+18,1.194535255,4.676613808,-0.05880260468
1608,1.55965633651e+18,1.453588963,4.975343704,-1.168938637
1609,1.55965633657e+18,5.548869133,2.843176365,0.07677268982
1610,1.55965633663e+18,1.897890091,1.777782321,-2.239262581
1611,1.55965633669e+18,3.543814659,2.467679024,-2.507730961
1612,1.55965633675e+18,-0.8924326897,2.090459824,-5.804369926
1613,1.55965633681e+18,-0.6552805901,-1.686249495,-4.586398125
1614,1.55965633687e+18,-2.84449482,-6.363306046,-7.211426735
1615,1.55965633693e+18,5.248531342,-11.56408215,-10.524827
1616,1.55965633699e+18,10.79454327,-43.28020859,47.5332222
1617,1.55965633705e+18,-0.2514696121,4.503452778,7.417850971
1618,1.55965633711e+18,-0.8121709824,1.682261467,11.97870255
1619,1.55965633717e+18,-2.641513824,-0.1385145187,5.036677837
1620,1.55965633723e+18,-6.204190731,3.472054958,4.136678219
1621,1.55965633729e+18,-10.62162018,10.31199837,11.38209343
1622,1.55965633735e+18,-19.49909401,7.266861439,-3.964274883
1623,1.55965633741e+18,-6.766448021,-11.64973068,7.715515137
1624,1.55965633747e+18,21.69448471,-54.28890991,2.163944244
1625,1.55965633753e+18,11.11104679,-1.285344124,-14.21027946
1626,1.55965633759e+18,-0.03487031162,-7.555655479,-9.951590538
1627,1.55965633765e+18,-10.46902752,8.94651413,-12.65891838
1628,1.55965633771e+18,0.8241201639,-2.200142145,-7.159695148
1629,1.55965633777e+18,0.5952783823,-2.701981783,-6.597935677
1630,1.55965633783e+18,0.9660832882,-1.743440866,-4.589552402
1631,1.55965633789e+18,1.573563457,-1.127287388,-1.871844769
1632,1.55965633795e+18,0.2131508589,-1.163421988,-1.580141068
1633,1.55965633801e+18,3.944820881,-2.088402271,0.7232561111
1634,1.55965633807e+18,3.45856905,-2.991238356,1.009708405
1635,1.55965633813e+18,2.059262753,-3.079929113,3.670568943
1636,1.55965633819e+18,6.289131165,-2.49242878,3.560423851
1637,1.55965633825e+18,9.693778038,1.055282116,3.463900328
1638,1.55965633831e+18,7.290000916,4.349222183,1.733684063
1639,1.55965633837e+18,3.845725536,4.558201313,0.5258500576
1640,1.55965633843e+18,3.956149578,3.23158288,-0.5294852257
1641,1.55965633849e+18,3.080915928,0.7916679382,-0.0108089447
1642,1.55965633855e+18,1.67869997,-1.435754776,-1.052871943
1643,1.55965633861e+18,0.1005067825,-2.924194336,-0.8298153877
1644,1.55965633867e+18,-0.494946003,-3.614161253,-1.814038754
1645,1.55965633873e+18,-1.555202007,-3.165190458,0.2393884659
1646,1.55965633879e+18,1.568692207,-0.3418047428,1.947086096
1647,1.55965633885e+18,4.81176281,1.940381765,3.868860245
1648,1.55965633891e+18,4.675720215,1.496917009,3.180936575
1649,1.55965633897e+18,3.734428406,-0.9036340714,2.458138466
1650,1.55965633903e+18,0.6222019196,-1.044606924,-1.738728523
1651,1.55965633909e+18,-0.2442398071,-0.4073646069,-2.43142724
1652,1.55965633915e+18,-2.199457645,-2.040549517,-3.047939301
1653,1.55965633921e+18,-3.782372236,-5.049969196,-4.45771122
1654,1.55965633927e+18,-11.05728531,-21.9017067,-11.12580872
1655,1.55965633933e+18,1.123401642,-19.18244171,-13.33802891
1656,1.55965633939e+18,11.30747032,-21.03741455,31.63795471
1657,1.55965633945e+18,22.83757019,25.3686676,-3.329343319
1658,1.55965633951e+18,5.876364708,23.39461517,1.539090872
1659,1.55965633957e+18,-2.837809563,20.64510345,-1.405706406
1660,1.55965633963e+18,-3.656609058,16.15787506,0.2946300507
1661,1.55965633969e+18,-7.376552582,15.34084129,-4.049007416
1662,1.55965633975e+18,-12.25729752,19.09236717,-1.051505566
1663,1.55965633981e+18,-9.551391602,6.796998501,0.1258907318
1664,1.55965633987e+18,0.560696125,-6.705839157,3.824812889
1665,1.55965633993e+18,11.24483013,-36.90678024,-12.80209732
1666,1.55965633999e+18,5.362096786,4.76410675,-7.712515831
1667,1.55965634005e+18,-6.395517349,-4.474303246,-9.367560387
1668,1.55965634011e+18,-9.289299965,-3.194392443,-11.36188793
1669,1.55965634017e+18,-3.150028467,-0.316686213,-9.936151505
1670,1.55965634023e+18,-3.745580196,-1.089763045,-6.785598755
1671,1.55965634029e+18,-2.79061079,0.1754128188,-1.724199772
1672,1.55965634035e+18,4.861671448,-5.195579052,2.264993191
1673,1.55965634041e+18,14.86253262,-5.492568016,7.06897974
1674,1.55965634047e+18,10.55161381,0.5696120262,9.757435799
1675,1.55965634053e+18,10.86792183,5.261622429,16.46408844
1676,1.55965634059e+18,3.054342747,6.84855175,6.141180038
1677,1.55965634065e+18,2.602272511,3.408908129,4.217206001
1678,1.55965634071e+18,4.12494421,2.599322796,1.633241653
1679,1.55965634077e+18,3.241110325,0.9707303047,0.1266410947
1680,1.55965634083e+18,0.3139619827,1.19482398,-0.1180964708
1681,1.55965634089e+18,-0.6387405396,3.075212002,1.239797235
1682,1.55965634095e+18,0.8842897415,2.105494499,3.153942585
1683,1.55965634101e+18,1.221029282,1.965996861,4.888266087
1684,1.55965634107e+18,-0.02021121979,2.356013775,3.846343279
1685,1.55965634113e+18,1.145033836,5.283949852,5.089230061
1686,1.55965634119e+18,9.678530693,8.363922119,9.548822403
1687,1.55965634125e+18,5.295786858,5.895390511,2.445204496
1688,1.55965634131e+18,2.721968651,1.04506278,-2.130623579
1689,1.55965634137e+18,-0.2528095245,-2.016637564,-6.823297024
1690,1.55965634143e+18,-7.617405891,-3.441885471,-9.327992439
1691,1.55965634149e+18,-8.36434269,-4.317648411,-9.845623016
1692,1.55965634155e+18,-6.370236397,-7.085186958,-9.957990646
1693,1.55965634161e+18,-1.117846489,-14.00500202,-13.24985123
1694,1.55965634167e+18,8.225079536,-10.23452187,-7.840462685
1695,1.55965634173e+18,3.364992142,12.96759987,4.495641708
1696,1.55965634179e+18,8.485898018,-5.275129795,12.7802124
1697,1.55965634185e+18,13.91305161,-0.398639679,12.11985016
1698,1.55965634191e+18,12.7038002,4.497598171,11.09333038
1699,1.55965634197e+18,8.208194733,5.011268139,11.64137459
1700,1.55965634203e+18,1.874440193,2.532630444,0.9891482592
1701,1.55965634209e+18,-6.200628757,3.047587633,-4.271069527
1702,1.55965634215e+18,-15.54377556,4.176604271,-5.675343513
1703,1.55965634221e+18,-19.9491024,-0.9702987671,-15.58708286
1704,1.55965634227e+18,1.764026165,-10.29564381,13.96763134
1705,1.55965634233e+18,20.65047073,-29.54212189,-8.773021698
1706,1.55965634239e+18,-5.976531982,6.048814297,-6.810214996
1707,1.55965634245e+18,7.009280205,-8.662354469,-6.707338333
1708,1.55965634251e+18,-4.983573437,3.362148523,-2.51278019
1709,1.55965634257e+18,-6.43619442,2.25886488,-4.472893715
1710,1.55965634263e+18,-5.367503643,1.26799202,-3.908512592
1711,1.55965634269e+18,-0.9434661865,-1.129027367,0.1864995956
1712,1.55965634275e+18,5.133047104,-4.030675411,0.6368775368
1713,1.55965634281e+18,9.37550354,-1.296580315,0.6608729362
1714,1.55965634287e+18,9.417660713,5.000292301,1.83379817
1715,1.55965634293e+18,7.289941311,6.291862965,1.813184738
1716,1.55965634299e+18,4.985817432,5.603212833,-0.3305938244
1717,1.55965634305e+18,3.728933811,3.967324018,-1.061346769
1718,1.55965634311e+18,3.024102688,2.536742449,-1.812973022
1719,1.55965634317e+18,2.989447117,1.070626259,-2.226626635
1720,1.55965634323e+18,2.52240324,-0.004864692688,-1.363776922
1721,1.55965634329e+18,1.546472549,-1.1863482,-1.071327686
1722,1.55965634335e+18,-0.1987819672,-1.22814703,-0.6981461048
1723,1.55965634341e+18,-0.8470592499,-1.274778366,-1.383001328
1724,1.55965634347e+18,-1.270571232,-1.792857289,-1.228187084
1725,1.55965634352e+18,-1.765235901,-1.13085866,-0.9727768898
1726,1.55965634358e+18,0.4314193726,0.7126191854,-0.02349042892
1727,1.55965634364e+18,2.013400078,0.4525338411,2.294211626
1728,1.5596563437e+18,0.0930147171,0.2785807848,-0.1151490211
1729,1.55965634376e+18,0.5068769455,-0.8723646402,-1.202189207
1730,1.55965634382e+18,0.4972982407,0.1333961487,0.1123466492
1731,1.55965634388e+18,6.706443787,3.889728546,2.795186043
1732,1.55965634394e+18,1.714499474,3.906505585,-0.7520051003
1733,1.559656344e+18,3.928172112,2.512102604,-1.517173529
1734,1.55965634406e+18,5.062933922,4.763801575,-1.683314323
1735,1.55965634412e+18,2.710000515,6.654174328,-1.541165352
1736,1.55965634418e+18,-0.9169130325,2.411325932,-1.728536606
1737,1.55965634424e+18,-5.849634171,-3.080174685,-3.016586542
1738,1.5596563443e+18,-2.908337831,-7.924137592,-5.821628094
1739,1.55965634436e+18,-4.037619591,-11.99698353,-18.71395874
1740,1.55965634442e+18,8.95532608,-19.77070236,-13.69819069
1741,1.55965634448e+18,10.68321609,-36.89515305,27.65190125
1742,1.55965634454e+18,-3.242166042,-6.674025536,4.65084362
1743,1.5596563446e+18,17.99177742,-11.47501087,23.52083397
1744,1.55965634466e+18,13.74330807,-8.743207932,16.50553131
1745,1.55965634472e+18,9.989480019,-4.142234325,7.019291878
1746,1.55965634478e+18,10.17533207,0.8989458084,1.259707451
1747,1.55965634484e+18,-4.03003931,-0.2342653275,-3.914926052
1748,1.5596563449e+18,-6.245635986,0.5769453049,-4.575994968
1749,1.55965634496e+18,-14.58461285,5.752756596,-7.675452232
1750,1.55965634502e+18,-17.16865349,3.593884468,-14.91609097
1751,1.55965634508e+18,-1.568214417,-7.714871883,5.258633614
1752,1.55965634514e+18,38.79374313,-47.83112717,-8.832363129
1753,1.5596563452e+18,-3.18827486,6.657329559,-6.172789574
1754,1.55965634526e+18,8.225650787,-14.45444107,-4.103081226
1755,1.55965634532e+18,-4.933942318,6.106178284,-4.809319496
1756,1.55965634538e+18,-5.673360348,2.507275581,-7.059766769
1757,1.55965634544e+18,0.3953368664,-1.352031231,-4.342218399
1758,1.5596563455e+18,4.965255737,-4.499745846,-0.8208055496
1759,1.55965634556e+18,4.034686089,-7.880482674,-1.914842725
1760,1.55965634562e+18,9.797795296,-9.24646759,-0.1200733185
1761,1.55965634568e+18,13.49556541,-4.25730896,5.116902828
1762,1.55965634574e+18,10.89142799,-0.4636821747,4.424091339
1763,1.5596563458e+18,9.772535324,0.7895431519,2.135267496
1764,1.55965634586e+18,8.182338715,1.256798744,1.251243949
1765,1.55965634592e+18,7.303726196,-0.3244895935,-0.06577241421
1766,1.55965634598e+18,4.98583746,0.8129549026,0.0093947649
1767,1.55965634604e+18,2.951152802,-0.1509418488,0.2898466587
1768,1.5596563461e+18,0.05697011948,-2.315560341,-0.2547730207
1769,1.55965634616e+18,-1.820870638,-3.70118618,0.1543229818
1770,1.55965634622e+18,-2.691414356,-3.047074795,0.1345748901
1771,1.55965634628e+18,-2.670892715,-3.095910072,1.131514192
1772,1.55965634634e+18,-2.557783127,-1.668437004,0.8306856155
1773,1.5596563464e+18,-2.131396294,-0.1124458313,3.946757317
1774,1.55965634646e+18,-1.19462347,0.5250706673,3.545700073
1775,1.55965634652e+18,-0.658700943,0.03305149078,1.478310823
1776,1.55965634658e+18,2.070559978,-0.2200679779,2.046363592
1777,1.55965634664e+18,2.919322014,0.9073681831,2.478236437
1778,1.5596563467e+18,3.029720306,2.546701193,2.737099409
1779,1.55965634676e+18,4.599093437,2.867224216,-0.1085662842
1780,1.55965634682e+18,7.019080162,2.474421024,1.217527866
1781,1.55965634688e+18,4.581638336,0.379424423,-1.683039188
1782,1.55965634694e+18,5.923968792,-1.428988099,-1.063853264
1783,1.559656347e+18,5.006846905,-0.3495659828,-7.015810966
1784,1.55965634706e+18,0.160431385,-1.610425949,-10.52003384
1785,1.55965634712e+18,-4.809418678,-2.075095654,-9.33364296
1786,1.55965634718e+18,-2.426121712,-2.22429347,-10.22032547
1787,1.55965634724e+18,7.758519173,-11.93891525,-9.347248077
1788,1.5596563473e+18,8.815268517,-12.77272797,-30.68153
1789,1.55965634736e+18,-19.32558823,7.268730164,8.05563736
1790,1.55965634742e+18,4.834283829,-6.601771355,11.55937958
1791,1.55965634748e+18,11.11532974,-10.59547043,2.055755138
1792,1.55965634754e+18,7.892115593,-11.09570694,-3.107968807
1793,1.5596563476e+18,7.217069149,-14.39148331,3.445990562
1794,1.55965634766e+18,19.20799065,-17.73425674,-0.3499990702
1795,1.55965634772e+18,6.957565308,-12.01627254,-4.605021477
1796,1.55965634778e+18,12.72100163,-7.282200813,-3.451644897
1797,1.55965634784e+18,8.045619965,-0.04979896545,-8.444297791
1798,1.5596563479e+18,3.760605812,-1.795282602,-3.930997849
1799,1.55965634796e+18,-0.3391680717,-0.4216432571,-3.955929995
1800,1.55965634802e+18,-8.079210281,1.592965603,0.7548246384
1801,1.55965634808e+18,-22.24617386,11.84324265,-6.784188271
1802,1.55965634814e+18,-23.47889709,-0.9871613979,-6.27703476
1803,1.5596563482e+18,7.213347912,-5.482221127,9.066167831
1804,1.55965634826e+18,9.448984146,-25.96968651,-4.330617428
1805,1.55965634832e+18,11.50852776,0.6404869556,-9.417778969
1806,1.55965634838e+18,1.576252699,-2.561666727,-10.7960825
1807,1.55965634844e+18,-0.4050850868,1.968800545,-5.997019768
1808,1.5596563485e+18,-4.433722496,-2.65223217,-5.426641941
1809,1.55965634856e+18,-4.109652519,-1.420356989,-1.574376106
1810,1.55965634862e+18,-1.449009657,-3.760968447,-0.2656240463
1811,1.55965634868e+18,2.67237854,-2.021097183,2.862024307
1812,1.55965634874e+18,9.183508873,-0.7408080101,1.836156845
1813,1.5596563488e+18,9.793456078,1.646483898,2.104686975
1814,1.55965634886e+18,6.690007687,7.265489101,2.073386908
1815,1.55965634892e+18,9.078456879,8.90054512,2.945219994
1816,1.55965634898e+18,8.728069305,8.564795494,3.17708683
1817,1.55965634904e+18,7.669567108,7.525760174,3.613376141
1818,1.5596563491e+18,4.521700859,5.827344894,3.151016951
1819,1.55965634916e+18,3.350437164,2.307955265,3.364240646
1820,1.55965634922e+18,2.624883175,-0.9998922348,2.28385067
1821,1.55965634928e+18,0.2944030762,-0.9431304932,2.403522015
1822,1.55965634934e+18,0.2133464813,-1.017682076,2.739466667
1823,1.5596563494e+18,-2.403081894,-0.7049239874,1.462310791
1824,1.55965634946e+18,-1.167394161,1.259154439,2.041055202
1825,1.55965634952e+18,-0.2990837097,3.040055275,3.57767725
1826,1.55965634958e+18,0.9017324448,3.389041901,2.387583733
1827,1.55965634964e+18,1.970654011,4.249019623,1.690355301
1828,1.5596563497e+18,3.179960728,7.626799583,-0.2074794769
1829,1.55965634976e+18,2.210083723,4.87242651,-3.459348679
1830,1.55965634982e+18,-1.47248435,0.8070087433,-5.417707443
1831,1.55965634988e+18,-1.243176341,-1.887924671,-5.126904488
1832,1.55965634994e+18,-1.541168571,-2.556942463,-4.831646442
1833,1.55965635e+18,-0.1954830885,-2.993443966,-6.686523914
1834,1.55965635006e+18,0.01884245872,-7.72358036,-13.4041729
1835,1.55965635012e+18,4.337133408,-16.24336243,-13.95903397
1836,1.55965635018e+18,0.4450321198,-16.20014,23.01234245
1837,1.55965635024e+18,-15.30331516,3.56041193,4.35802269
1838,1.5596563503e+18,-5.739510536,7.302499294,18.91236877
1839,1.55965635036e+18,-11.36321068,0.1525945663,10.22318268
1840,1.55965635042e+18,-9.479686737,-0.1482272148,4.10002327
1841,1.55965635048e+18,-6.554667473,-2.057871819,1.379728794
1842,1.55965635054e+18,-5.495379925,-1.972597837,-0.3272538185
1843,1.5596563506e+18,-20.18727684,-0.7028319836,-6.243394852
1844,1.55965635066e+18,-15.42034435,-8.590543747,-1.862980843
1845,1.55965635072e+18,14.87538242,-12.94414997,5.975592613
1846,1.55965635078e+18,18.32079315,-20.50299263,-2.675182819
1847,1.55965635084e+18,-1.518664479,-5.11440134,-6.741594315
1848,1.5596563509e+18,0.7688381672,-5.584730148,-7.69904232
1849,1.55965635096e+18,-5.435087204,0.8561208248,-4.581906319
1850,1.55965635102e+18,-7.164153576,5.914995193,-3.705884933
1851,1.55965635108e+18,-3.74766922,2.31178236,-4.438476562
1852,1.55965635114e+18,8.88387394,-1.149114847,-1.205312729
1853,1.5596563512e+18,21.98027802,4.080744743,2.31394577
1854,1.55965635126e+18,15.58666611,9.147377014,4.199189186
1855,1.55965635132e+18,9.348278046,13.18061066,1.928885102
1856,1.55965635138e+18,6.407595158,11.17750549,0.503585577
1857,1.55965635144e+18,6.0481987,6.842252731,0.8944442272
1858,1.5596563515e+18,5.550563812,3.159929752,-0.4605464935
1859,1.55965635156e+18,2.596501827,1.322426796,-0.9934699535
1860,1.55965635162e+18,-0.8458509445,-0.8223471642,-1.581959248
1861,1.55965635168e+18,-0.3659286499,0.1858718395,-2.71309948
1862,1.55965635174e+18,0.8380689621,0.6335310936,0.3789504766
1863,1.5596563518e+18,-0.9229011536,1.970830798,1.1771245
1864,1.55965635186e+18,4.515155792,1.327320695,3.566208124
1865,1.55965635192e+18,3.064094543,2.026149511,3.096421242
1866,1.55965635198e+18,2.157945633,2.811050653,4.499296188
1867,1.55965635204e+18,4.793643951,2.739573956,3.168811798
1868,1.5596563521e+18,2.347723961,1.659889817,0.5267601013
1869,1.55965635216e+18,3.81216526,0.01137948036,3.638867617
1870,1.55965635222e+18,0.7934308052,2.143677711,1.655498028
1871,1.55965635228e+18,-4.7233181,-0.7017254829,-1.648011684
1872,1.55965635234e+18,-4.608367443,-5.779625893,-4.332841873
1873,1.5596563524e+18,-6.890724182,-14.60838127,-6.914559841
1874,1.55965635246e+18,-0.7609705925,-20.03654099,-11.84726906
1875,1.55965635252e+18,-0.5092859268,-10.15795898,-17.43817139
1876,1.55965635258e+18,-2.247675419,16.21883011,22.69835663
1877,1.55965635264e+18,6.059880257,-0.3909953833,-21.91988945
1878,1.5596563527e+18,4.488700867,7.653524399,-20.30490494
1879,1.55965635276e+18,6.033883095,7.822780609,-16.85536194
1880,1.55965635282e+18,3.663108826,9.39687252,-15.60681152
1881,1.55965635288e+18,3.16253376,10.30863953,-10.33417702
1882,1.55965635294e+18,5.535419464,9.204546928,-6.898099422
1883,1.559656353e+18,5.308670044,8.255947113,-3.460027218
1884,1.55965635306e+18,6.324947357,6.791851044,-2.912913084
1885,1.55965635312e+18,6.688976288,5.526477337,-7.413713455
1886,1.55965635318e+18,2.980841637,6.237287521,-4.256715298
1887,1.55965635324e+18,0.5348749161,6.098239422,2.850019455
1888,1.5596563533e+18,-5.466905594,7.81770134,4.605335712
1889,1.55965635336e+18,-8.780096054,10.97106552,5.595973015
1890,1.55965635342e+18,-14.94061661,-0.03992754221,-8.442640305
1891,1.55965635348e+18,15.21842575,-12.36017227,17.94332886
1892,1.55965635354e+18,-1.911464095,-19.48947144,-9.117938042
1893,1.5596563536e+18,6.772377491,-1.954195499,-11.93805885
1894,1.55965635366e+18,-0.9822092652,-6.173893452,-10.95597363
1895,1.55965635372e+18,-7.934900284,4.578831673,-7.502672195
1896,1.55965635378e+18,-6.87917757,-0.05316898227,-5.309370041
1897,1.55965635384e+18,-7.600337505,-2.043321133,-2.899677753
1898,1.5596563539e+18,-1.629811764,-1.272899985,-1.44363451
1899,1.55965635396e+18,12.06662846,-3.390216351,4.769666672
1900,1.55965635402e+18,14.24446869,2.854111671,4.442249298
1901,1.55965635408e+18,11.05570984,8.451964378,5.008741379
1902,1.55965635414e+18,12.05145836,10.68672085,6.003454685
1903,1.5596563542e+18,7.841269016,10.74377823,3.952851534
1904,1.55965635426e+18,4.284161091,8.780070305,2.627863884
1905,1.55965635432e+18,1.340531826,7.130335808,0.5937132835
1906,1.55965635438e+18,2.013446331,5.042034626,0.6490101814
1907,1.55965635444e+18,2.64321804,2.385657549,1.125533104
1908,1.5596563545e+18,1.500014305,0.7078533173,2.872790337
1909,1.55965635456e+18,1.589487076,0.7172422409,3.967021227
1910,1.55965635462e+18,0.9984035492,0.6611692905,3.708139181
1911,1.55965635468e+18,-1.423138618,0.116822958,2.719079256
1912,1.55965635474e+18,-1.372451305,1.044450521,1.99119091
1913,1.5596563548e+18,-0.4258718491,1.44816494,1.671260357
1914,1.55965635486e+18,-0.3630681038,2.800549746,1.48004818
1915,1.55965635492e+18,-0.02182626724,2.699508429,1.938187599
1916,1.55965635498e+18,-1.515152454,3.453318596,-0.01964426041
1917,1.55965635504e+18,-0.3890523911,1.921826839,-0.7284212112
1918,1.5596563551e+18,-2.27606082,-0.01949071884,-2.744766474
1919,1.55965635516e+18,-5.623444557,-2.160128593,-5.959611416
1920,1.55965635522e+18,-5.324771881,-5.249022961,-11.10011292
1921,1.55965635528e+18,-2.051756382,-8.735872269,-7.631127834
1922,1.55965635534e+18,-3.029898167,-8.826051712,-12.7739048
1923,1.5596563554e+18,0.2920055389,-9.528568268,-23.28988647
1924,1.55965635546e+18,12.75046635,22.77443504,5.705537796
1925,1.55965635552e+18,0.9717168808,10.60313606,16.35151672
1926,1.55965635558e+18,-0.1555652618,15.95768738,7.996606827
1927,1.55965635564e+18,-4.56265831,9.917757034,1.245640755
1928,1.5596563557e+18,-7.505582333,5.246385098,5.62124157
1929,1.55965635576e+18,-6.97725296,6.068074703,4.421986103
1930,1.55965635582e+18,-12.11175728,13.41555023,8.796380043
1931,1.55965635588e+18,-15.64082813,8.624206543,-9.605429649
1932,1.55965635594e+18,3.814095974,-11.24351692,18.31986809
1933,1.559656356e+18,6.557365417,-21.0160675,-11.47914791
1934,1.55965635606e+18,8.446714401,-2.015697002,-8.919149399
1935,1.55965635612e+18,-1.708146691,-6.784686565,-11.81848907
1936,1.55965635618e+18,-3.900845528,2.895180702,-9.146042824
1937,1.55965635624e+18,-4.69820118,-0.4992496371,-4.571103096
1938,1.5596563563e+18,-6.70475769,0.184448123,-1.748565197
1939,1.55965635636e+18,-2.95170927,0.8540027738,-2.152493954
1940,1.55965635642e+18,11.87714291,-5.326303005,-0.03036689758
1941,1.55965635648e+18,15.32498455,3.074937344,-0.819593668
1942,1.55965635654e+18,9.704986572,9.946956635,-0.5280179977
1943,1.5596563566e+18,8.895622253,11.1142807,1.220239639
1944,1.55965635666e+18,3.560752869,9.962350845,-1.343297243
1945,1.55965635672e+18,3.093509674,7.786118507,-0.5458657742
1946,1.55965635678e+18,5.213807583,4.905002594,1.544375181
1947,1.55965635684e+18,6.794865608,0.2265033722,1.455656767
1948,1.5596563569e+18,2.816008568,-1.031190395,-1.369887829
1949,1.55965635696e+18,0.394194603,-1.121665597,-2.148012877
1950,1.55965635702e+18,0.1463117599,-0.3332011104,-1.545024872
1951,1.55965635708e+18,-1.414983749,0.6482334733,-0.1785392761
1952,1.55965635714e+18,0.9525442123,3.427370548,2.506243706
1953,1.5596563572e+18,2.661076546,4.193387032,2.97218895
1954,1.55965635726e+18,3.59422493,4.643604279,1.181849957
1955,1.55965635732e+18,0.4207606316,3.848026514,-1.503448009
1956,1.55965635738e+18,-2.741930485,2.16319418,-4.959768295
1957,1.55965635744e+18,-9.061639786,-3.276247978,-6.92543745
1958,1.5596563575e+18,-11.89604187,-10.73538399,-7.335558414
1959,1.55965635756e+18,-5.953549862,-17.78469086,-10.50011635
1960,1.55965635762e+18,2.269116402,-13.51310349,-4.486844063
1961,1.55965635768e+18,2.853194237,-10.15513897,0.0047519207
1962,1.55965635774e+18,12.35945988,7.845129967,0.8120422363
1963,1.5596563578e+18,19.16065788,5.072311878,-0.3218560219
1964,1.55965635786e+18,18.5784111,5.824753284,-0.3822369576
1965,1.55965635792e+18,15.99839401,4.651721001,3.844790697
1966,1.55965635798e+18,12.18130493,1.627738476,3.202227354
1967,1.55965635804e+18,5.848620415,0.3076381683,3.157325029
1968,1.55965635809e+18,5.206561089,1.321068525,3.351510763
1969,1.55965635815e+18,-1.075586319,3.920892239,0.01345324516
1970,1.55965635821e+18,-5.080890179,3.520025253,0.8571317196
1971,1.55965635827e+18,-8.58049202,3.059256077,-2.907839298
1972,1.55965635833e+18,-11.43216515,3.59502244,-5.101737976
1973,1.55965635839e+18,-18.71426392,5.954686165,-8.68424511
1974,1.55965635845e+18,2.846815586,-4.041119576,-6.665984154
1975,1.55965635851e+18,23.77018929,-15.80546188,3.503063202
1976,1.55965635857e+18,2.645726919,-2.939324141,-8.212627411
1977,1.55965635863e+18,-3.565649986,-14.18758011,-5.631041527
1978,1.55965635869e+18,-2.602928162,1.577032685,-4.904693604
1979,1.55965635875e+18,-6.164060116,3.154967785,-4.705248833
1980,1.55965635881e+18,-4.277648926,-1.991204739,0.1862201691
1981,1.55965635887e+18,2.86047101,-1.949281216,-2.948747158
1982,1.55965635893e+18,3.753543854,-2.322444439,-1.686114311
1983,1.55965635899e+18,3.404603481,-1.251710415,1.538955212
1984,1.55965635905e+18,3.72565484,-1.357543945,3.458461761
1985,1.55965635911e+18,4.89166069,1.048789978,5.236062527
1986,1.55965635917e+18,3.263324976,2.799845219,5.144201756
