,Time (s),Linear Acceleration x (m/s^2),Linear Acceleration y (m/s^2),Linear Acceleration z (m/s^2)
0,1.55965655405e+18,-3.315915823,-1.00719738,-0.937277317
1,1.5596565541e+18,-2.296313047,-0.862888813,-1.768138409
2,1.55965655415e+18,-1.258561373,-0.6489570141,-2.424476147
3,1.5596565542e+18,-0.07956957817,-0.4121992588,-2.963716984
4,1.55965655425e+18,0.9769115448,-0.1800818443,-3.295613766
5,1.5596565543e+18,2.009855747,0.04610490799,-3.492193699
6,1.55965655436e+18,3.01226306,0.3052692413,-3.575425625
7,1.55965655442e+18,-6.162659645,-1.005667567,-4.303853035
8,1.55965655448e+18,-4.939255238,-0.9967150688,-3.514475822
9,1.55965655454e+18,-0.6610798836,0.2015120983,-3.239233971
10,1.5596565546e+18,-0.4422369003,0.3751804829,1.227182865
11,1.55965655465e+18,1.120283127,-0.9456350803,3.659487247
12,1.5596565547e+18,0.1626491547,-0.6915979385,1.962676287
13,1.55965655476e+18,2.812116623,-2.689227581,5.27808094
14,1.55965655481e+18,2.874097824,0.0220181942,-1.717014909
15,1.55965655487e+18,-1.902987957,-3.789879322,-0.4906697273
16,1.55965655493e+18,2.377955437,2.187237263,-1.847411633
17,1.55965655499e+18,7.111690521,5.901615143,-0.9287848473
18,1.55965655504e+18,14.34805107,2.54005003,6.003060341
19,1.5596565551e+18,10.34094048,1.606086016,4.820948601
20,1.55965655516e+18,4.465080261,-1.826285601,-0.5256409645
21,1.55965655521e+18,-1.998841286,-3.621882439,-3.410223246
22,1.55965655527e+18,-3.223343611,-4.414774895,-4.452188015
23,1.55965655533e+18,-4.329565525,-4.069265842,-5.255652905
24,1.55965655539e+18,-1.494692326,-4.065186501,-5.640298367
25,1.55965655544e+18,-1.839109659,-3.188126326,-6.091278553
26,1.55965655549e+18,-2.654282331,-1.240851164,-2.201058865
27,1.55965655555e+18,-9.655106544,2.65912056,5.919504166
28,1.55965655561e+18,-23.35593987,4.612404823,9.571732521
29,1.55965655567e+18,-36.37590408,15.02500343,-9.286487579
30,1.55965655573e+18,-6.702573299,0.4744596481,-14.16535187
31,1.55965655579e+18,17.59806824,-38.6745224,7.361840248
32,1.55965655585e+18,15.70572758,-7.69433403,-37.90627289
33,1.5596565559e+18,11.39820957,-6.892313957,-24.11663818
34,1.55965655595e+18,5.331059933,0.2937686443,-5.663702965
35,1.55965655601e+18,3.316195488,6.303613663,-10.67241478
36,1.55965655606e+18,6.582350731,-1.870148063,-4.882897377
37,1.55965655612e+18,4.007259846,-3.646060467,-1.27476716
38,1.55965655618e+18,6.16967392,-1.588490844,-4.541103363
39,1.55965655624e+18,7.172906399,-0.1231957674,-4.245496273
40,1.55965655629e+18,7.64771986,-7.166988373,-1.230060101
41,1.55965655635e+18,7.549041271,-19.65931129,0.677854538
42,1.55965655641e+18,18.68014336,-17.74949646,-0.5829343796
43,1.55965655646e+18,17.98546982,-11.1638298,5.489620209
44,1.55965655652e+18,14.82572937,-3.048514366,6.5726614
45,1.55965655658e+18,11.19493103,0.7851543427,5.401989937
46,1.55965655664e+18,12.188344,2.676931858,3.88058567
47,1.5596565567e+18,10.94771671,0.2369976044,2.220248461
48,1.55965655675e+18,7.079771042,-2.471761703,-0.05234956741
49,1.55965655681e+18,2.511324883,-5.778286934,-2.221610069
50,1.55965655686e+18,-0.6315848827,-6.629900932,-3.219017267
51,1.55965655692e+18,-4.301175117,-4.262619495,-5.569390297
52,1.55965655698e+18,-4.055745602,-2.808383942,-4.369293213
53,1.55965655704e+18,-5.096562386,-2.741632938,-4.365067005
54,1.5596565571e+18,-5.649753571,-0.4997887611,-3.117485523
55,1.55965655716e+18,-4.093482971,0.8861951828,-0.5033042431
56,1.55965655722e+18,-1.026556969,-0.02085399628,1.452191353
57,1.55965655727e+18,1.279225707,-0.6788187027,1.217057943
58,1.55965655732e+18,5.333395958,-1.294175148,2.196490049
59,1.55965655738e+18,9.665333748,2.628212452,6.971525192
60,1.55965655743e+18,9.177609444,1.859495163,10.35528946
61,1.55965655749e+18,9.798809052,-1.816399574,8.456624031
62,1.55965655754e+18,8.128193855,-3.588453293,3.75505209
63,1.5596565576e+18,6.316752911,-4.288291454,0.3680129051
64,1.55965655766e+18,5.768783092,-5.288702488,-4.265066147
65,1.55965655771e+18,7.145158291,-5.466255665,-4.064279079
66,1.55965655776e+18,4.852590561,-3.530576944,-3.18334198
67,1.55965655782e+18,-0.4283013344,-4.48095417,-6.439782143
68,1.55965655788e+18,0.3207297325,-1.93192482,-3.089078903
69,1.55965655794e+18,0.02175712585,-2.565651417,-6.843528748
70,1.55965655799e+18,-3.324353218,0.8552173376,-13.57051277
71,1.55965655805e+18,-3.519145012,2.354476213,-11.05183029
72,1.55965655811e+18,-4.464996338,3.543683052,-12.04398727
73,1.55965655817e+18,10.03235245,5.620018959,8.928800583
74,1.55965655823e+18,6.417735577,6.389872551,9.34485817
75,1.55965655829e+18,6.143252373,8.330403328,4.539165497
76,1.55965655835e+18,0.7456707954,0.7715883255,-4.352854252
77,1.5596565584e+18,-2.19201827,-0.6901865005,-0.8779592514
78,1.55965655845e+18,-6.170098305,-6.463886738,-1.728651285
79,1.55965655851e+18,-8.752108574,-10.12528419,-6.549402237
80,1.55965655856e+18,-8.292628288,-10.42194462,-11.13777733
81,1.55965655862e+18,-4.265990257,-10.53397369,-11.5122509
82,1.55965655868e+18,-1.11077261,-11.31387901,-6.881464958
83,1.55965655874e+18,9.591367722,-18.13593483,3.2918396
84,1.55965655879e+18,6.642046928,-16.93775558,-2.611126423
85,1.55965655885e+18,12.30859661,-9.124201775,4.486784458
86,1.55965655891e+18,15.70300007,-1.824576378,10.85870934
87,1.55965655896e+18,13.61083126,0.07300567627,13.35147762
88,1.55965655902e+18,4.207136154,-1.828053474,8.718738556
89,1.55965655908e+18,3.964800358,-0.5371141434,4.814790249
90,1.55965655914e+18,2.604630947,-0.556391716,2.09840107
91,1.55965655919e+18,1.230279207,-6.520562172,0.2156066895
92,1.55965655924e+18,5.521995544,-3.895326614,1.636892319
93,1.5596565593e+18,6.031812668,-0.8317680359,3.232362747
94,1.55965655935e+18,4.898600101,-0.07159614563,0.8387584686
95,1.55965655941e+18,4.126329422,3.084746361,-0.2470464706
96,1.55965655947e+18,3.158979893,3.427351713,-2.894535303
97,1.55965655953e+18,3.122156382,2.246692657,-2.864853621
98,1.55965655958e+18,0.508767128,1.413718462,-3.169449091
99,1.55965655964e+18,0.9164981842,-1.95954299,-1.665570736
100,1.55965655969e+18,3.148755074,-1.041886806,1.306763649
101,1.55965655974e+18,4.079601288,1.860114574,3.833734512
102,1.55965655979e+18,2.857435703,2.642333984,2.56890583
103,1.55965655985e+18,1.571751595,1.161233664,-1.683137894
104,1.55965655991e+18,-0.01055908203,1.000020027,-3.448091269
105,1.55965655997e+18,-1.701991558,1.684597254,-1.634946823
106,1.55965656002e+18,-2.013546944,1.33032918,-2.604809046
107,1.55965656008e+18,-4.118600368,0.7627506256,-2.168692589
108,1.55965656013e+18,-5.075662613,2.152056932,-1.470711708
109,1.55965656019e+18,-1.579276562,-0.6526122093,-3.701651573
110,1.55965656024e+18,0.9139323235,-0.9825904369,-3.516165018
111,1.5596565603e+18,-0.1726408005,-3.645840406,-4.483619213
112,1.55965656036e+18,0.9143762589,-5.467857838,4.87059927
113,1.55965656042e+18,-5.202465057,1.268295288,0.7008323073
114,1.55965656048e+18,-3.878677845,0.2252402306,1.80843401
115,1.55965656054e+18,-6.998470783,2.426657677,-2.199379206
116,1.55965656059e+18,-0.523399353,2.90731287,-3.003881693
117,1.55965656065e+18,0.2025156021,-3.025569439,-1.613217354
118,1.55965656071e+18,5.704034805,-7.699718475,4.230205536
119,1.55965656077e+18,6.679472923,-5.89431572,0.5474991798
120,1.55965656083e+18,8.764763832,-3.741042614,2.068763733
121,1.55965656089e+18,12.51889992,-5.167890549,0.3360458612
122,1.55965656094e+18,10.22170544,-6.169552803,-0.1206067204
123,1.55965656099e+18,6.806710243,-7.243992805,-3.071400404
124,1.55965656104e+18,4.063929558,-8.565124512,-5.297444344
125,1.5596565611e+18,0.4541125298,-7.176328659,-7.692670822
126,1.55965656116e+18,-1.819156289,-5.843615532,-7.920761108
127,1.55965656122e+18,0.9002703428,-4.725030899,-7.423565865
128,1.55965656127e+18,-0.03556072712,-1.968113422,-5.060806274
129,1.55965656133e+18,-4.683118343,5.106311798,1.770200729
130,1.55965656138e+18,-22.54978943,9.690044403,2.876842976
131,1.55965656144e+18,-31.58255386,12.80152416,-13.87719631
132,1.55965656149e+18,-13.00740814,-7.4662714,-16.61359406
133,1.55965656155e+18,27.84859657,-21.80955696,-4.992088795
134,1.55965656161e+18,22.73721695,-11.61894703,-5.949806213
135,1.55965656167e+18,7.313324928,-20.04876709,-10.67247391
136,1.55965656172e+18,-0.4088497162,5.857598305,-11.85466576
137,1.55965656177e+18,0.6316671371,5.900515556,-8.386143684
138,1.55965656183e+18,4.313578129,-0.8063575029,-3.224153042
139,1.55965656189e+18,0.912153244,1.256665826,0.2406094074
140,1.55965656195e+18,0.004259109497,-0.1060720235,2.472205162
141,1.55965656201e+18,-0.9583272934,0.1042977571,4.063621521
142,1.55965656207e+18,-1.515460968,-0.4034314156,2.98261857
143,1.55965656213e+18,-2.38446331,-0.7460222244,1.748243809
144,1.55965656218e+18,-0.8835916519,0.2420213223,0.501932621
145,1.55965656224e+18,-0.1010770798,-0.2667450905,0.5120768547
146,1.55965656229e+18,0.4203877449,0.4022805691,-1.272631645
147,1.55965656235e+18,0.8785085678,-0.2703896761,-1.155846119
148,1.55965656241e+18,1.51174283,0.193474412,-1.460999966
149,1.55965656247e+18,1.695955038,0.3017196357,0.8181362152
150,1.55965656252e+18,1.659057617,0.6678417325,1.62908268
151,1.55965656258e+18,2.696045876,-0.548222065,2.278413773
152,1.55965656263e+18,2.905957222,-0.9422741532,1.5759058
153,1.55965656269e+18,0.7470402122,0.2751583159,0.4978065491
154,1.55965656274e+18,1.525680065,0.1082386971,0.5258932114
155,1.5596565628e+18,1.606574059,0.007697850466,-0.5151729584
156,1.55965656286e+18,2.692389965,-0.1521622539,-0.2475585938
157,1.55965656292e+18,1.332340002,0.9546760321,-1.004589081
158,1.55965656298e+18,0.6311831474,1.998728991,-0.1630935669
159,1.55965656304e+18,1.042971134,2.096631289,-0.3786115646
160,1.55965656309e+18,0.855243206,2.028865099,-0.5055561066
161,1.55965656315e+18,1.354888916,0.09171319008,0.09628582001
162,1.5596565632e+18,0.51765728,-0.6854703426,0.2556753159
163,1.55965656326e+18,0.7280631065,-1.428903818,0.1942615509
164,1.55965656332e+18,0.6105523109,-2.387168407,0.8620471954
165,1.55965656338e+18,-0.1521525383,-1.54586339,-0.9416952133
166,1.55965656343e+18,0.1022257805,-1.450475693,-0.7397866249
167,1.55965656349e+18,-0.188931942,-1.215986013,-1.465150833
168,1.55965656354e+18,0.1012382507,-1.206652164,-0.8180909157
169,1.5596565636e+18,-0.3802080154,-1.063674212,-1.294086933
170,1.55965656365e+18,-0.09161615372,-0.8241529465,-0.8577308655
171,1.55965656371e+18,0.233932972,-0.7590942383,-0.5652470589
172,1.55965656376e+18,0.2231249809,-0.6294820309,-0.7875871658
173,1.55965656381e+18,0.4087748528,-0.4030613899,-0.3041319847
174,1.55965656387e+18,0.4365262985,0.08691525459,-0.3143029213
175,1.55965656393e+18,0.3965477943,0.06214523315,-0.08767652512
176,1.55965656399e+18,-0.02586126328,0.9745721817,0.3757538795
177,1.55965656405e+18,0.4841461182,0.773809433,1.332774162
178,1.55965656411e+18,0.5628333092,0.4796867371,0.7446379662
179,1.55965656417e+18,0.4459762573,0.2734119892,0.2357177734
180,1.55965656423e+18,0.05845689774,0.3345716,-0.3374080658
181,1.55965656428e+18,-0.04100131989,0.3967590332,-0.7882056236
182,1.55965656434e+18,0.7105894089,-0.2702801228,-0.2230844498
183,1.5596565644e+18,0.1259827614,-0.702999115,-0.6773724556
184,1.55965656446e+18,-0.4602894783,-0.5444910526,-0.6468310356
185,1.55965656452e+18,-0.13555336,-0.8354105949,-0.8726453781
186,1.55965656458e+18,-0.08088207245,-0.5184910297,-0.2412018776
187,1.55965656464e+18,-0.5662322044,0.07123923302,-0.556271553
188,1.55965656469e+18,-0.2650713921,0.1438763142,-0.07432031631
189,1.55965656474e+18,0.1131162643,0.5999426842,1.137058258
190,1.55965656479e+18,0.4520802498,0.7646176815,1.669957638
191,1.55965656485e+18,1.493050575,0.987780571,2.018292904
192,1.55965656491e+18,1.467165947,1.341136813,1.439620972
193,1.55965656497e+18,1.363577366,1.213509202,0.8585948944
194,1.55965656502e+18,2.087847233,1.461711645,1.859583855
195,1.55965656508e+18,2.180450916,0.3585723341,1.005547523
196,1.55965656513e+18,1.806268215,-0.3091270328,0.9039287567
197,1.55965656519e+18,0.6939878464,-0.5038224459,-0.7010164261
198,1.55965656524e+18,-0.2173752785,-0.5198622346,-0.02140331268
199,1.5596565653e+18,-0.436157465,-1.483094931,-0.8000297546
200,1.55965656536e+18,-0.6216186285,-1.12689662,-1.870762348
201,1.55965656542e+18,-0.4093341827,-0.7037360668,-3.612472534
202,1.55965656548e+18,-1.68130219,-0.0348572731,-2.392180443
203,1.55965656554e+18,-1.22875452,-2.471729994,-2.966001511
204,1.55965656559e+18,-1.750040531,-0.719678998,-2.243540764
205,1.55965656565e+18,-0.387046814,-1.114506721,-1.025927544
206,1.55965656571e+18,0.859005928,-0.6757341623,-1.946401596
207,1.55965656576e+18,3.384785175,-8.382380486,-6.3001194
208,1.55965656582e+18,-1.235743523,0.260273695,3.367026806
209,1.55965656587e+18,-1.246323109,0.4725270271,-0.3453044891
210,1.55965656593e+18,0.2328243256,3.669291973,-1.989175558
211,1.55965656599e+18,-2.88232708,-0.9500498772,3.851334572
212,1.55965656605e+18,1.31125164,2.308368444,1.421098232
213,1.55965656611e+18,-2.264198303,0.1962926388,-0.1395792961
214,1.55965656617e+18,-3.880774975,-0.8060977459,0.866189003
215,1.55965656623e+18,-1.877698421,-0.6674382687,0.2142314911
216,1.55965656628e+18,-1.033631802,0.5268456936,2.031391144
217,1.55965656634e+18,-7.034796238,3.727402449,8.906667709
218,1.55965656639e+18,-15.89529133,4.160914421,13.05772305
219,1.55965656645e+18,-28.94901657,8.029085159,-4.095259666
220,1.5596565665e+18,-15.62633896,-0.09484672546,-9.647255898
221,1.55965656656e+18,19.45915222,-21.58365059,24.44824028
222,1.55965656661e+18,9.528274536,-36.64392853,1.144348145
223,1.55965656667e+18,15.62651062,-5.785556316,-14.35336304
224,1.55965656673e+18,-1.162824154,3.752933979,-8.693340302
225,1.55965656679e+18,-0.7681336403,1.136595249,-11.29003143
226,1.55965656684e+18,3.604736328,-1.351238489,-3.436700821
227,1.5596565669e+18,5.39398098,-4.706250191,-1.93419981
228,1.55965656696e+18,4.722935677,-3.27578187,-4.828971386
229,1.55965656702e+18,4.909645557,-1.898790598,-3.435982704
230,1.55965656708e+18,4.596040249,2.559938908,-0.6724309921
231,1.55965656714e+18,5.584477425,2.2859025,6.234870911
232,1.55965656719e+18,11.91244984,1.151627302,5.701858521
233,1.55965656724e+18,10.36643982,6.013845921,7.760428429
234,1.55965656729e+18,9.351503372,7.883639812,5.824791908
235,1.55965656735e+18,1.848655224,11.04006672,2.307321548
236,1.55965656741e+18,-0.315533638,7.140586853,0.07249307632
237,1.55965656747e+18,1.062417507,1.509856582,-0.06543254852
238,1.55965656752e+18,2.526198387,-0.4629267454,-0.5427570343
239,1.55965656758e+18,1.733975887,-0.8526321054,-2.007842064
240,1.55965656763e+18,0.3177762032,-1.924406528,-2.032456875
241,1.55965656769e+18,-1.107980251,-0.5880448818,-2.803797722
242,1.55965656774e+18,-2.058691502,-0.4270401001,-2.011796951
243,1.5596565678e+18,-0.1786150932,-1.288476467,-1.542085171
244,1.55965656786e+18,-0.3392252922,-0.5885384679,-1.373338699
245,1.55965656792e+18,0.8889803886,0.1505236626,0.5812034607
246,1.55965656798e+18,0.1330447197,1.049422503,1.317426682
247,1.55965656803e+18,-0.2064843178,1.542443156,1.453708172
248,1.55965656809e+18,0.2927627563,2.426102877,1.654465675
249,1.55965656815e+18,0.8174843788,2.133365631,0.8200807571
250,1.55965656821e+18,0.7587313652,0.8766844273,0.7334465981
251,1.55965656827e+18,0.04918956757,-0.009498924017,-0.5730895996
252,1.55965656833e+18,-0.1171889305,0.09192204475,-0.8536944389
253,1.55965656839e+18,-0.6184802055,0.2572959661,0.005142211914
254,1.55965656844e+18,-1.561206818,2.284148693,8.36886692
255,1.55965656849e+18,1.350432873,1.965519309,17.89464188
256,1.55965656854e+18,9.949886322,2.342144251,18.33292198
257,1.5596565686e+18,15.01961422,2.403724194,0.6333737373
258,1.55965656866e+18,6.82319355,-2.568361044,-5.351730347
259,1.55965656872e+18,1.593733191,-5.648771286,-8.819925308
260,1.55965656877e+18,-1.035550594,-6.041410446,-7.879673004
261,1.55965656883e+18,1.293216586,-7.688069344,-3.020218134
262,1.55965656888e+18,-0.0729881525,-6.353165627,-4.403372765
263,1.55965656894e+18,-1.414981365,-4.803543568,-3.017309666
264,1.55965656899e+18,-2.760663748,-2.520764351,-3.157061577
265,1.55965656905e+18,-2.672864199,-1.663427353,-2.503508091
266,1.55965656911e+18,-2.825805902,-1.502696514,-2.806959629
267,1.55965656917e+18,0.2932503223,-3.262351513,-2.782042503
268,1.55965656923e+18,2.289018631,-5.721038818,-4.309453487
269,1.55965656929e+18,4.366498947,-6.485929966,-4.425619602
270,1.55965656934e+18,3.890599489,-3.291821957,-2.960421562
271,1.5596565694e+18,-0.283645153,0.9173455238,-0.6235003471
272,1.55965656946e+18,-2.454082489,0.5785355568,1.963488102
273,1.55965656952e+18,1.375599027,-0.4167070389,0.3718042374
274,1.55965656958e+18,3.659410477,-1.562256098,2.313051224
275,1.55965656963e+18,1.373006105,-2.226603031,0.1197929382
276,1.55965656968e+18,5.968625546,-2.564023495,1.91760397
277,1.55965656974e+18,1.285134792,0.08776961267,4.097159863
278,1.55965656979e+18,3.465739727,-3.349750519,2.192379475
279,1.55965656985e+18,0.6511735916,-1.19968152,0.97585392
280,1.55965656991e+18,1.285628796,-1.538677692,-0.6158361435
281,1.55965656997e+18,-0.3569083214,-1.471370697,-0.5199885368
282,1.55965657002e+18,0.001924037933,-2.017744541,-0.3645997047
283,1.55965657008e+18,2.720610619,-3.923204422,0.3323488235
284,1.55965657013e+18,-0.100587368,-0.8769416809,-0.6879549026
285,1.55965657019e+18,-0.5404372215,-0.4311485291,-1.254789114
286,1.55965657024e+18,-0.09342288971,-0.5387029648,-0.565905571
287,1.5596565703e+18,-0.3125567436,-0.5059185028,0.001730918884
288,1.55965657036e+18,0.8086781502,-0.9660005569,0.6897857189
289,1.55965657042e+18,0.7049081326,-0.5326833725,-0.1809988022
290,1.55965657048e+18,0.2283270359,-0.4180860519,-0.04418826103
291,1.55965657054e+18,-0.2721297741,0.09201812744,-0.6549293995
292,1.5596565706e+18,0.2968707085,-0.5995073318,-0.368062973
293,1.55965657066e+18,-0.5240392685,-0.1944637299,-0.9343292713
294,1.55965657072e+18,-1.063256741,-0.5258388519,-1.615481496
295,1.55965657078e+18,-0.5988607407,-0.7886219025,-1.049509287
296,1.55965657083e+18,-0.6665127277,-0.703040123,-1.242591858
297,1.55965657088e+18,-0.3667063713,-0.6609220505,-0.6320266724
298,1.55965657093e+18,-0.2971439362,-0.7013502121,-0.4479622841
299,1.55965657099e+18,-0.4424638748,-0.3095874786,-0.5428364277
300,1.55965657104e+18,-0.1644761562,-0.4123954773,-0.3611571789
301,1.5596565711e+18,-0.2151122093,-0.1825199127,-0.4924883842
302,1.55965657116e+18,-0.09761190414,-0.1801013947,-0.3538210392
303,1.55965657122e+18,0.3677978516,-0.3134384155,0.2265899181
304,1.55965657127e+18,0.8351759911,-0.0126953125,1.031214476
305,1.55965657133e+18,0.7733852863,0.01554870605,1.959938765
306,1.55965657138e+18,0.4363152981,0.03129291534,2.209213018
307,1.55965657144e+18,0.4261460304,-0.6969881058,2.303091526
308,1.55965657149e+18,0.9468407631,-0.9895820618,1.771288395
309,1.55965657155e+18,0.8706898689,-1.821118832,1.41422987
310,1.55965657161e+18,0.538175106,-1.331036091,0.08257627487
311,1.55965657167e+18,0.1224479675,-1.309380531,-0.7857642174
312,1.55965657172e+18,0.2884626389,-0.9355874062,-1.472735882
313,1.55965657177e+18,0.3440923691,-0.7356009483,-1.378060818
314,1.55965657183e+18,0.03628873825,0.02921533585,-1.701631546
315,1.55965657189e+18,0.01943397522,0.0251147747,-2.410973072
316,1.55965657195e+18,-0.4640572071,0.6526794434,-2.513352871
317,1.55965657201e+18,-0.6577830315,0.5024058819,-1.303076267
318,1.55965657207e+18,-0.9861049652,0.7296694517,-0.0867729187
319,1.55965657213e+18,-0.4219112396,1.075604677,1.242660522
320,1.55965657218e+18,-0.5066242218,0.8828104734,1.466178894
321,1.55965657224e+18,-0.6288523674,1.041652679,0.784945488
322,1.55965657229e+18,-0.4928236008,0.7730136514,1.24716568
323,1.55965657235e+18,-0.504488945,1.124721289,0.9721927643
324,1.55965657241e+18,-0.1363301277,1.31997788,0.9792261124
325,1.55965657247e+18,-0.1645772457,1.107090116,1.001551628
326,1.55965657252e+18,-0.6173713207,0.9221339822,0.2387876511
327,1.55965657258e+18,0.3439850807,0.7443779707,0.2143068314
328,1.55965657263e+18,0.3082499504,0.4660118222,-0.609003067
329,1.55965657269e+18,-0.4409389496,0.4469314814,-1.391278267
330,1.55965657274e+18,-0.4830727577,0.3994255066,-1.880695343
331,1.5596565728e+18,-0.5500693321,-0.01959848404,-1.640576839
332,1.55965657286e+18,-1.235857725,0.2717444897,-0.7822408676
333,1.55965657292e+18,-0.5287432671,0.02954030037,-0.174487114
334,1.55965657298e+18,0.4938864708,-1.191648245,-2.610270023
335,1.55965657304e+18,3.820660591,-5.011119843,-7.758626938
336,1.55965657309e+18,-0.005274295807,-1.966301918,-3.245719671
337,1.55965657315e+18,-2.505077362,0.8862507343,-2.321320057
338,1.55965657321e+18,-0.6702222824,3.720170736,0.4011387825
339,1.55965657327e+18,-2.531253815,1.072502255,-0.09907054901
340,1.55965657333e+18,-0.4866709709,0.04902619123,0.896677494
341,1.55965657339e+18,3.216257572,-0.5360865593,5.27426815
342,1.55965657344e+18,3.819030762,1.24380517,7.090242386
343,1.55965657349e+18,1.307717323,0.3696492016,5.906463146
344,1.55965657354e+18,0.3513875008,-0.3152769208,4.483383179
345,1.55965657359e+18,-0.9587345123,-0.6494761705,-0.8427371979
346,1.55965657364e+18,-1.087358713,-0.7008062601,-2.011281967
347,1.5596565737e+18,-0.1173770428,-1.298503399,-4.462207794
348,1.55965657376e+18,-1.007804036,-2.171079636,-3.896755219
349,1.55965657382e+18,-1.289928675,-1.449840784,-2.786911964
350,1.55965657388e+18,-4.193492413,0.6024663448,1.638003349
351,1.55965657394e+18,-10.74344444,5.337884903,5.184055328
352,1.55965657399e+18,-19.63109589,12.52272034,6.536840439
353,1.55965657405e+18,-26.37421799,6.402809143,-12.29292393
354,1.55965657411e+18,10.29664421,-10.73907852,10.34961128
355,1.55965657417e+18,23.64421082,-39.8996582,5.122668266
356,1.55965657423e+18,6.442991257,-18.54698944,-19.9979744
357,1.55965657429e+18,-5.625032425,10.08794403,-10.15923977
358,1.55965657434e+18,2.656918049,1.776459217,-5.039793015
359,1.5596565744e+18,1.330055714,0.866443634,-0.7935426235
360,1.55965657446e+18,2.045449257,-0.09843635559,0.01963233948
361,1.55965657452e+18,5.628210068,-2.890627861,-3.144561052
362,1.55965657458e+18,7.943361282,-2.773229599,-3.311459541
363,1.55965657464e+18,6.144812584,-3.824007273,-5.377570152
364,1.55965657469e+18,6.072142124,-3.020924091,-3.608519077
365,1.55965657474e+18,5.588571548,-2.575381994,3.789556503
366,1.55965657479e+18,4.760088921,-5.316774845,5.809695244
367,1.55965657485e+18,4.21944809,-4.636844158,9.448728561
368,1.55965657491e+18,4.463654995,-0.1220905781,8.709568977
369,1.55965657497e+18,2.384873629,1.241335273,4.778493881
370,1.55965657502e+18,1.397185802,1.863626003,2.99571228
371,1.55965657508e+18,1.809546709,2.255246878,1.234995842
372,1.55965657513e+18,2.692881107,2.418749332,0.9440164566
373,1.55965657519e+18,1.679887772,1.46800983,0.1851387024
374,1.55965657524e+18,1.61022234,0.9632167816,-0.4488887787
375,1.5596565753e+18,1.645278931,0.1319086552,-0.7004146576
376,1.55965657536e+18,1.089629173,-0.007166862488,-0.7463769913
377,1.55965657542e+18,1.128880501,-1.172878504,-1.280045033
378,1.55965657548e+18,1.250803947,-1.135737658,-0.9784188271
379,1.55965657554e+18,-0.1110572815,-1.185316086,-1.332312107
380,1.55965657559e+18,0.05675029755,-1.041116238,-1.354353428
381,1.55965657565e+18,0.01659011841,-0.7928144932,-0.3741574287
382,1.55965657571e+18,-0.3478317261,-0.6230015755,-0.1043810844
383,1.55965657577e+18,-0.2414779663,-0.6629097462,-0.1456785202
384,1.55965657583e+18,-0.7856502533,-0.4758930206,-0.2691841125
385,1.55965657589e+18,-0.3336896896,-0.477679491,-0.1423993111
386,1.55965657594e+18,0.5815415382,-0.6410179138,0.1012253761
387,1.55965657599e+18,0.9388670921,-0.4629356861,0.4787154198
388,1.55965657604e+18,0.694088459,-0.310292244,-0.01227235794
389,1.5596565761e+18,0.6047921181,0.1588962078,-0.2882695198
390,1.55965657616e+18,0.3511433601,0.4425792694,-0.7001881599
391,1.55965657622e+18,0.9499664307,0.1343522072,-0.5808825493
392,1.55965657627e+18,0.763092041,0.1122043133,-0.4973535538
393,1.55965657633e+18,0.7740654945,-0.164409399,-0.3277778625
394,1.55965657638e+18,0.5893163681,-0.04636597633,-0.6432056427
395,1.55965657644e+18,0.5822162628,0.2001469135,-0.1907515526
396,1.55965657649e+18,0.08820867538,0.3258986473,-0.4850683212
397,1.55965657655e+18,0.4459857941,-0.13671875,0.04315423965
398,1.55965657661e+18,-0.1973872185,-0.399834156,-0.4961147308
399,1.55965657667e+18,0.02861499786,-0.2980089188,-0.3528532982
400,1.55965657672e+18,-0.018658638,-0.2360439301,-0.3508563042
401,1.55965657677e+18,0.02630615234,-0.2802484035,-0.3396887779
402,1.55965657683e+18,-0.2088093758,0.03820633888,-0.2540183067
403,1.55965657689e+18,-0.03593301773,0.1129233837,-0.4807844162
404,1.55965657695e+18,0.2558803558,0.05733346939,0.08214235306
405,1.55965657701e+18,0.4269509315,0.06851601601,0.3354754448
406,1.55965657707e+18,0.2208547592,0.2283067703,0.5970931053
407,1.55965657712e+18,-0.3065009117,0.4153277874,0.840777874
408,1.55965657717e+18,0.2648034096,0.2439050674,0.8736844063
409,1.55965657723e+18,0.6561131477,-0.102922678,0.6509127617
410,1.55965657728e+18,0.9655532837,0.1530799866,0.6297979355
411,1.55965657734e+18,0.6405572891,0.2714041471,0.5681762695
412,1.5596565774e+18,1.264909744,0.7208861709,1.395175934
413,1.55965657746e+18,1.017938614,0.6272578239,1.551547527
414,1.55965657751e+18,0.6299753189,0.567188859,1.572667122
415,1.55965657757e+18,0.7290472984,0.5651938915,0.4948368073
416,1.55965657762e+18,0.2146515846,-0.06550383568,-0.6078372002
417,1.55965657768e+18,1.14408493,-0.1922272444,0.3075523376
418,1.55965657774e+18,1.284980774,0.2361309528,0.6526317596
419,1.5596565778e+18,-1.111269712,-0.1426193714,-2.153653622
420,1.55965657786e+18,-0.07596588135,-0.7794258595,0.3291325569
421,1.55965657791e+18,-2.367745399,-1.328148365,-0.7688016891
422,1.55965657796e+18,0.2277708054,-2.365609646,-1.458959579
423,1.55965657801e+18,0.7335705757,-1.313094616,-2.701086044
424,1.55965657807e+18,0.6510949135,-2.26295805,-4.757042885
425,1.55965657813e+18,3.376322746,-3.378700256,-6.970640182
426,1.55965657819e+18,-6.628257751,-6.982989788,-0.8751320839
427,1.55965657825e+18,-2.72203064,6.667143822,-13.33877373
428,1.55965657831e+18,-0.07444620132,1.183964968,7.620545864
429,1.55965657837e+18,-7.224523544,-0.4032680988,1.417547226
430,1.55965657842e+18,1.039974689,-1.118176222,-1.112017155
431,1.55965657848e+18,0.8290691376,-7.41020298,2.247222424
432,1.55965657853e+18,5.254092693,-0.6453861594,12.77516174
433,1.55965657859e+18,6.448468685,-2.108582973,11.47599316
434,1.55965657864e+18,4.648618698,-2.379946709,7.662752628
435,1.5596565787e+18,-0.8277688026,0.9222880602,2.026666641
436,1.55965657876e+18,1.466256618,-1.140524507,-4.594941139
437,1.55965657882e+18,-0.5668611526,-1.430738568,-4.755364418
438,1.55965657887e+18,0.1867822409,-1.942571282,-4.738475323
439,1.55965657893e+18,-1.496761084,-1.14470315,-4.084147453
440,1.55965657899e+18,1.613432527,-1.822959185,-3.813163757
441,1.55965657905e+18,0.2688533068,-2.286202431,-5.437695503
442,1.55965657911e+18,-2.924487591,0.7750577927,-0.3854036331
443,1.55965657917e+18,-10.05490303,7.248016834,3.056097031
444,1.55965657923e+18,-29.89886856,18.97833061,3.552086353
445,1.55965657929e+18,-27.57473373,10.17431068,-0.1315770149
446,1.55965657934e+18,-2.134441853,0.7123022079,-1.220066547
447,1.5596565794e+18,48.26475906,-80.68804169,45.56199646
448,1.55965657946e+18,1.066016197,-14.35399628,-21.01502991
449,1.55965657952e+18,3.057970285,-1.727197647,-8.850700378
450,1.55965657958e+18,4.744679451,2.572657585,-11.0835371
451,1.55965657964e+18,6.432175636,-0.5054821968,-1.329714417
452,1.55965657969e+18,2.985343933,0.01177549362,-1.274615645
453,1.55965657974e+18,5.193247795,-3.802031517,-0.2471533418
454,1.55965657979e+18,6.658737183,-2.979324818,2.003884315
455,1.55965657985e+18,4.08232069,-0.4086005688,-0.1224045753
456,1.55965657991e+18,4.46440506,0.3774929047,2.023293972
457,1.55965657997e+18,4.848821163,5.778452396,4.805139542
458,1.55965658002e+18,2.126808167,1.628395319,6.249248505
459,1.55965658008e+18,3.633385181,1.945994139,8.119522095
460,1.55965658013e+18,3.274450302,1.997244596,4.986697197
461,1.55965658019e+18,1.839988232,2.376671553,2.78972435
462,1.55965658024e+18,1.622060299,1.300367355,1.39849329
463,1.5596565803e+18,1.579742908,0.7005653381,-0.1079163551
464,1.55965658036e+18,1.297637463,0.03088355064,0.1827630997
465,1.55965658042e+18,0.30377388,-0.08261084557,-2.073205948
466,1.55965658048e+18,1.313749313,-0.1930630207,-1.272648335
467,1.55965658054e+18,1.689174175,-0.6702684164,-1.303766727
468,1.55965658059e+18,1.056429863,-0.7165492773,-0.9597554207
469,1.55965658065e+18,0.7507352829,-0.9653619528,-1.088973045
470,1.55965658071e+18,-0.02907323837,-0.8429636955,-0.8434524536
471,1.55965658077e+18,0.1408815384,-0.5321834087,-0.5467886925
472,1.55965658083e+18,0.3018631935,-0.6333596706,-0.2223587036
473,1.55965658089e+18,-0.2295274734,-0.4394370317,-0.3993434906
474,1.55965658094e+18,-0.1648378372,-0.3356388807,0.07481813431
475,1.55965658099e+18,0.2368273735,-0.1642092466,0.5032367706
476,1.55965658104e+18,0.3015832901,-0.006844162941,0.3466024399
477,1.5596565811e+18,0.5232110023,-0.06216526031,0.3489618301
478,1.55965658116e+18,0.1682229042,0.06579041481,0.1755847931
479,1.55965658122e+18,0.06034803391,-0.03539681435,-0.08110237122
480,1.55965658127e+18,0.2340574265,-0.181251049,-0.1138958931
481,1.55965658133e+18,-0.2061524391,-0.20532763,-0.5124154091
482,1.55965658138e+18,0.1520409584,-0.2553617954,-0.1963481903
483,1.55965658144e+18,0.5641975403,-0.4499869347,-0.1368837357
484,1.55965658149e+18,0.1738629341,-0.4382654428,-0.04252958298
485,1.55965658155e+18,0.03077507019,-0.3829991817,-0.1516222954
486,1.55965658161e+18,-0.07686185837,-0.2476400137,0.01528835297
487,1.55965658167e+18,0.08796930313,-0.2513613701,0.04112863541
488,1.55965658173e+18,0.2602849007,-0.3282898664,-0.186296463
489,1.55965658179e+18,-0.009235858917,-0.1211340427,-0.3007984161
490,1.55965658184e+18,-0.08005046844,-0.09351611137,-0.1327590942
491,1.5596565819e+18,-0.1833333969,0.04240095615,-0.2220463753
492,1.55965658196e+18,0.2351455688,0.03653383255,0.1369862556
493,1.55965658202e+18,0.09410667419,0.03650009632,-0.1620335579
494,1.55965658208e+18,0.1793832779,0.1128125191,-0.00828742981
495,1.55965658214e+18,-0.2428388596,0.2388991714,-0.2889089584
496,1.55965658219e+18,0.2719211578,0.2071996927,0.1831030846
497,1.55965658224e+18,0.06936216354,0.3048703074,0.3403911591
498,1.55965658229e+18,-0.5989403725,0.02451068163,0.7248921394
499,1.55965658235e+18,-0.5197415352,-0.2631215453,0.562722683
500,1.55965658241e+18,-0.2068133354,-0.1459484398,0.4509267807
501,1.55965658247e+18,0.6644473076,-0.2033130825,-0.209748745
502,1.55965658252e+18,0.1044182777,-0.2251857221,-0.6945643425
503,1.55965658258e+18,0.02776002884,0.008496046066,0.005582809448
504,1.55965658263e+18,-0.06067037582,0.3461152315,0.4134273529
505,1.55965658269e+18,0.006980419159,0.2790253162,0.9240078926
506,1.55965658274e+18,0.2159042358,0.7362318635,1.599035263
507,1.5596565828e+18,0.1680402756,0.06295847893,1.283618927
508,1.55965658286e+18,0.5375361443,0.368827343,1.205570221
509,1.55965658292e+18,0.7014904022,0.4545662403,0.5636739731
510,1.55965658298e+18,0.06338500977,0.123696804,-0.4299077988
511,1.55965658304e+18,-0.001504421234,0.5876767635,-1.560232162
512,1.55965658309e+18,0.4818863869,0.3032655716,-0.4064340591
513,1.55965658315e+18,0.5230202675,0.9500010014,-0.609413147
514,1.55965658321e+18,-0.8861995935,1.17137742,-1.524954796
515,1.55965658327e+18,-0.2767989635,0.2624537945,-0.9807925224
516,1.55965658333e+18,0.1210358143,-0.5732769966,-0.3491134644
517,1.55965658339e+18,0.4410188198,-0.4643616676,-0.2689428329
518,1.55965658344e+18,-0.45657444,-0.6051998138,-0.7528858185
519,1.55965658349e+18,-0.6863319874,0.2714734077,0.9256124496
520,1.55965658354e+18,-0.2001461983,-0.05647706985,0.02567481995
521,1.5596565836e+18,-0.489023447,-0.7691693306,-0.748146534
522,1.55965658366e+18,-0.5143682957,-0.63560009,-0.9158716202
523,1.55965658372e+18,-0.9199097157,-0.8201377392,-0.9784693718
524,1.55965658377e+18,-1.290633202,-1.882525802,-1.079940319
525,1.55965658383e+18,2.890906334,-3.222059965,-3.902193069
526,1.55965658388e+18,0.9858436584,-8.762908936,-7.257517338
527,1.55965658394e+18,-5.300415993,13.54303932,-3.170641184
528,1.55965658399e+18,-1.789456367,-0.2105078697,-3.948880434
529,1.55965658405e+18,-2.670976162,0.8780584335,-1.590275288
530,1.55965658411e+18,-1.995172501,1.987177849,-1.832153797
531,1.55965658417e+18,0.5686326027,1.820281506,3.276009083
532,1.55965658422e+18,3.180328369,1.222156525,7.939952374
533,1.55965658427e+18,0.7362532616,1.350183964,9.0092659
534,1.55965658433e+18,-1.0281353,-1.095416069,1.36173439
535,1.55965658439e+18,-0.6288137436,-2.231037617,-3.230009556
536,1.55965658445e+18,0.530882597,-3.139312744,-3.408799648
537,1.55965658451e+18,-0.3248977661,-4.524291515,-2.566000938
538,1.55965658457e+18,-1.258375883,-2.46455574,-0.9879431725
539,1.55965658463e+18,-3.873687744,3.655107975,2.53042078
540,1.55965658468e+18,-11.72747231,6.265688419,8.257788658
541,1.55965658474e+18,-28.81370544,13.83395672,4.271967888
542,1.55965658479e+18,-25.96517944,8.573259354,-0.6722025871
543,1.55965658485e+18,4.948878288,-7.320445061,3.33506012
544,1.55965658491e+18,23.19010162,-68.04603577,7.613334656
545,1.55965658497e+18,6.432152748,-10.61327171,-22.20722961
546,1.55965658502e+18,4.511689186,1.082031727,-13.87706566
547,1.55965658508e+18,5.43616724,5.370889664,-5.808114052
548,1.55965658514e+18,3.371632099,1.837703228,-1.134207129
549,1.5596565852e+18,4.036322594,-1.442476273,1.244567871
550,1.55965658525e+18,6.029402733,-4.092030525,-0.4940087795
551,1.55965658531e+18,7.764310837,-3.635719776,-0.6389286518
552,1.55965658536e+18,7.182036877,-4.54076004,-2.794621468
553,1.55965658542e+18,6.326185226,-2.940881491,-2.761479378
554,1.55965658548e+18,4.81163168,2.210752726,0.7927904129
555,1.55965658554e+18,4.407487869,3.116530418,8.310956955
556,1.55965658559e+18,7.84441185,-2.200944901,9.938341141
557,1.55965658565e+18,8.611825943,4.477145195,7.447183609
558,1.55965658571e+18,4.583785534,5.854475021,4.28403759
559,1.55965658577e+18,2.630261898,5.246217728,0.7669467926
560,1.55965658583e+18,2.120394707,4.439881802,-0.2326021194
561,1.55965658588e+18,1.984351158,2.482748985,-0.5229506493
562,1.55965658593e+18,0.7979221344,0.6415793896,-1.543678761
563,1.55965658599e+18,1.825322151,-0.4022864103,-1.422556877
564,1.55965658604e+18,1.874482632,-1.44254446,-1.758997917
565,1.5596565861e+18,0.8846230507,-0.8927683234,-2.06018734
566,1.55965658616e+18,0.6030769348,-1.135125637,-1.286465168
567,1.55965658622e+18,-0.0871424675,-1.025966525,-1.514929295
568,1.55965658627e+18,-0.1240100861,-0.7347177267,-0.3986859322
569,1.55965658633e+18,-0.7940969467,-0.06728066504,-0.5480351448
570,1.55965658638e+18,1.235222816,0.02058568597,-0.3644270897
571,1.55965658644e+18,0.7628078461,0.4460979104,0.2123737335
572,1.55965658649e+18,-0.04867172241,0.468528688,0.06355476379
573,1.55965658655e+18,0.6195011139,0.3723559082,0.1412110329
574,1.55965658661e+18,0.2349715233,0.3886297345,-0.03224992752
575,1.55965658667e+18,0.433786869,0.3657701612,-0.1167140007
576,1.55965658673e+18,0.522860527,0.3210142255,-0.4230942726
577,1.55965658679e+18,0.3261523247,0.1939362586,-0.6009840965
578,1.55965658684e+18,0.1613945961,0.3227097988,-0.696917057
579,1.5596565869e+18,0.9636182785,0.06039661169,-0.190281868
580,1.55965658696e+18,0.2236461639,0.01497274637,-0.4915747643
581,1.55965658702e+18,0.2734394073,-0.2300828099,-0.2275595665
582,1.55965658708e+18,0.207010746,-0.2290886045,-0.03265810013
583,1.55965658714e+18,-0.2334299088,-0.1978654861,-0.1177082062
584,1.55965658719e+18,0.7403092384,-0.397044003,0.9211196899
585,1.55965658724e+18,-0.3395037651,-0.04061692953,0.2568235397
586,1.55965658729e+18,0.9181981087,-0.1735596061,1.221130371
587,1.55965658735e+18,1.237587929,1.292746782,3.062660694
588,1.55965658741e+18,2.801885605,1.217020154,2.09790659
589,1.55965658747e+18,2.589748859,0.8096301556,3.488701344
590,1.55965658752e+18,1.09178257,0.3425803185,-0.03382587433
591,1.55965658758e+18,-0.6398186684,-1.571013212,-2.861198902
592,1.55965658763e+18,-0.3584074974,-0.479886055,-3.117866993
593,1.55965658769e+18,-1.163954258,-0.9670574665,-5.553493977
594,1.55965658774e+18,-1.214328289,-3.231231451,-3.149221897
595,1.5596565878e+18,2.369156837,-1.555645943,-3.285740137
596,1.55965658786e+18,3.429699898,-3.454575062,5.490367889
597,1.55965658792e+18,1.410809517,6.141983509,-0.1813144684
598,1.55965658797e+18,-5.00646019,0.7765674591,0.1464729309
599,1.55965658802e+18,-2.3023386,-0.1381464005,-0.6768531799
600,1.55965658808e+18,-1.580551147,-0.6653828621,-1.667372942
601,1.55965658814e+18,-1.152697086,-0.2708957195,-1.318366766
602,1.5596565882e+18,-0.4608535767,0.8924810886,3.166821957
603,1.55965658826e+18,8.045502663,1.389086723,10.76222801
604,1.55965658832e+18,4.223118305,1.311874866,6.238523483
605,1.55965658838e+18,3.819440365,-1.312985659,1.4583745
606,1.55965658843e+18,0.9931650162,-3.06147027,-1.623140812
607,1.55965658849e+18,-0.3048555851,-4.097584248,-3.210235596
608,1.55965658854e+18,-0.871268034,-4.53464365,-4.263674736
609,1.5596565886e+18,-0.1089735627,-4.3141675,-5.695165634
610,1.55965658866e+18,0.0706602037,-3.966574669,-5.388437271
611,1.55965658872e+18,-0.3577604294,-1.286247492,-3.151744366
612,1.55965658877e+18,-3.43986249,1.615236759,3.267022133
613,1.55965658883e+18,-10.76516533,6.743160248,10.31007385
614,1.55965658888e+18,-19.88012314,10.23857689,11.2437849
615,1.55965658894e+18,-33.14250183,15.11695576,-7.644358635
616,1.55965658899e+18,-14.15976906,-0.05027389526,-15.10064507
617,1.55965658905e+18,25.81883812,-36.37114716,-1.183042526
618,1.55965658911e+18,9.8624506,-2.875582933,-8.596115112
619,1.55965658917e+18,7.978584766,-7.883159637,-20.7162075
620,1.55965658923e+18,1.92740202,5.001097679,-13.3115406
621,1.55965658929e+18,7.592534542,-2.933440924,-1.261940241
622,1.55965658934e+18,6.574677467,-3.385089159,-4.696453094
623,1.5596565894e+18,7.170366287,-4.025253296,-4.403253555
624,1.55965658946e+18,5.837423325,-2.32952404,-2.496675968
625,1.55965658952e+18,6.530790329,4.663949966,2.29203701
626,1.55965658958e+18,4.79169178,3.810251713,6.391828537
627,1.55965658963e+18,8.626012802,-2.374559402,10.56749439
628,1.55965658968e+18,8.305781364,3.640954971,8.108732224
629,1.55965658974e+18,4.499309063,4.840001583,7.670135021
630,1.55965658979e+18,3.434837818,5.231898785,5.36234045
631,1.55965658985e+18,3.549889088,6.089265347,1.632145405
632,1.55965658991e+18,2.797357559,3.901744366,-0.6449131966
633,1.55965658997e+18,1.633833408,1.063780069,-1.491749763
634,1.55965659002e+18,1.053615093,-0.3539069295,-2.456352234
635,1.55965659008e+18,1.584921837,-0.8132600188,-1.980309963
636,1.55965659013e+18,0.7305440903,-1.247135282,-1.739650726
637,1.55965659019e+18,-0.3049807549,-1.676683068,-1.308107853
638,1.55965659024e+18,-1.199437141,-0.9366738796,-1.523482323
639,1.5596565903e+18,-0.8785881996,-0.4865300059,-0.06328678131
640,1.55965659036e+18,-1.349977016,0.001637935638,0.04627275467
641,1.55965659042e+18,-0.2368092537,0.2821444869,1.065562248
642,1.55965659047e+18,0.6277179718,0.8543953896,0.7109208107
643,1.55965659052e+18,0.592605114,0.9230664968,0.421749115
644,1.55965659058e+18,0.33162117,1.136586308,0.1333804131
645,1.55965659064e+18,0.08729410172,1.190268755,-0.1604876518
646,1.5596565907e+18,0.7819700241,0.7655930519,-0.05448293686
647,1.55965659076e+18,0.5098028183,0.2877146304,-0.1005330086
648,1.55965659082e+18,-0.4578280449,0.06143772602,-0.4035153389
649,1.55965659087e+18,-0.2230567932,0.04337638617,-0.472014904
650,1.55965659092e+18,-0.09534263611,0.2301416397,-0.3877243996
651,1.55965659098e+18,0.3952531815,-0.00336843729,0.02033472061
652,1.55965659103e+18,0.2915401459,-0.02776604891,0.05302906036
653,1.55965659109e+18,0.3444232941,-0.2198418975,0.3538913727
654,1.55965659115e+18,-0.3990273476,-0.3046197891,0.1452589035
655,1.55965659121e+18,-0.09624862671,-0.320215404,0.1800785065
656,1.55965659126e+18,0.06150627136,-0.1348348856,-0.1045799255
657,1.55965659132e+18,-0.04099941254,-0.07571732998,-0.1931238174
658,1.55965659137e+18,0.07752037048,-0.05498117208,-0.1964945793
659,1.55965659143e+18,-0.07130813599,0.1940140724,-0.1269583702
660,1.55965659149e+18,-0.08436393738,0.07951697707,0.001953125
661,1.55965659155e+18,0.2884969711,0.3108079135,0.1663298607
662,1.55965659161e+18,0.3192396164,0.2354601324,-0.03390073776
663,1.55965659167e+18,0.1136112213,0.3488366604,-0.2337880135
664,1.55965659173e+18,-0.04481697083,0.3630273938,-0.1365060806
665,1.55965659179e+18,0.3440637589,0.06468468904,0.08664512634
666,1.55965659184e+18,0.2617883682,-0.0352845788,-0.1190280914
667,1.5596565919e+18,0.1691398621,-0.1294215322,-0.002923488617
668,1.55965659196e+18,-0.1403083801,-0.1317418814,-0.07561588287
669,1.55965659202e+18,0.1614694595,-0.2086866498,0.02413368225
670,1.55965659208e+18,0.0008106231689,-0.1022410989,-0.03669834137
671,1.55965659214e+18,0.2026090622,-0.1398992836,0.1316270828
672,1.55965659219e+18,-0.06163883209,-0.1158124208,0.04336690903
673,1.55965659224e+18,0.1073493958,-0.1398697197,0.3116378784
674,1.55965659229e+18,0.01830291748,0.07758390903,0.1379971504
675,1.55965659235e+18,-0.3384108543,0.05182892084,-0.006738185883
676,1.55965659241e+18,-0.6317434311,-0.221870929,0.6156606674
677,1.55965659247e+18,-0.3133015633,-0.2809937596,-0.4103665352
678,1.55965659252e+18,-0.0840587616,-0.1461734176,-0.149289608
679,1.55965659258e+18,0.47762537,-0.308585614,-0.4013566971
680,1.55965659263e+18,-0.4065480232,-0.105220437,-0.4791665077
681,1.55965659269e+18,0.01974391937,0.1684969068,-0.4322681427
682,1.55965659274e+18,-0.2828392982,0.8630970716,0.7370486259
683,1.5596565928e+18,-0.2549452782,2.091095686,1.238157749
684,1.55965659286e+18,0.7021136284,1.772827268,1.194769382
685,1.55965659292e+18,0.8588809967,0.9306535125,1.291093826
686,1.55965659298e+18,0.8440451622,0.1383534968,0.5642561913
687,1.55965659304e+18,1.811860085,-0.5008184314,-0.06057071686
688,1.55965659309e+18,0.4166545868,-0.4409560561,-0.8942165375
689,1.55965659315e+18,1.331761837,-0.5584615469,0.3335494995
690,1.5596565932e+18,0.3860301971,0.05530834198,0.2521743774
691,1.55965659326e+18,1.050345898,0.306204319,0.4052410126
692,1.55965659332e+18,1.054486752,0.2692155838,0.6071100235
693,1.55965659338e+18,0.6662960052,0.5070614815,1.017890453
694,1.55965659343e+18,-0.6281981468,-0.1480705738,-0.4315538406
695,1.55965659349e+18,0.08336925507,-0.9780464172,-0.2995710373
696,1.55965659354e+18,-0.00209236145,-0.6900730133,-0.4468598366
697,1.5596565936e+18,-0.01742267609,-0.762378931,-0.1945199966
698,1.55965659366e+18,-0.9501609802,-0.4938673973,-2.760853052
699,1.55965659372e+18,-1.364983559,-1.590754509,-2.318502665
700,1.55965659377e+18,-2.028635502,-2.685118437,-2.676612139
701,1.55965659383e+18,0.08844614029,-5.207246304,-2.450903177
702,1.55965659388e+18,4.054608345,-6.457058907,-7.534193039
703,1.55965659394e+18,-2.965001106,2.008504868,4.714757919
704,1.55965659399e+18,-0.05038261414,2.352653503,3.993338585
705,1.55965659405e+18,-1.23737812,2.341729641,1.535997868
706,1.55965659411e+18,1.743801594,1.852445126,2.13901186
707,1.55965659417e+18,4.827607155,5.489505768,0.2206473351
708,1.55965659423e+18,-0.3023080826,3.451018333,0.111978054
709,1.55965659429e+18,-1.042803288,1.885661125,-1.769892216
710,1.55965659434e+18,-1.229684114,0.946126461,-3.875893354
711,1.5596565944e+18,-3.003560543,-1.349423885,-2.827420235
712,1.55965659446e+18,-0.7603892684,-1.617427349,-4.054023743
713,1.55965659452e+18,-1.14217186,-1.661797047,-3.425495625
714,1.55965659458e+18,-1.486006498,-0.4748091698,-1.727537155
715,1.55965659463e+18,-3.247235298,3.723705769,3.220791817
716,1.55965659468e+18,-12.15872192,7.971093655,10.10710526
717,1.55965659474e+18,-26.48628426,13.83718491,7.100692272
718,1.55965659479e+18,-30.22419357,7.065747738,-3.888698578
719,1.55965659485e+18,3.362717867,-10.65877151,11.36877155
720,1.55965659491e+18,34.05399704,-46.09501648,16.29246521
721,1.55965659497e+18,4.064381599,-18.26374435,-24.71077156
722,1.55965659502e+18,5.940593719,0.02078199387,-11.09505463
723,1.55965659508e+18,7.446838379,2.581909657,-8.111919403
724,1.55965659513e+18,3.993057251,-2.802810192,-4.536855221
725,1.55965659519e+18,6.905051708,-4.674525738,-1.733642697
726,1.55965659524e+18,5.92402792,-5.074861526,-1.677082777
727,1.5596565953e+18,4.973248482,-3.327789545,0.777130127
728,1.55965659536e+18,2.930650949,0.6587578058,2.539823532
729,1.55965659542e+18,2.639365435,-2.08276844,2.710453033
730,1.55965659548e+18,8.077935219,0.09852188826,7.092982292
731,1.55965659554e+18,4.477941513,1.49759829,7.764910698
732,1.55965659559e+18,3.341991425,0.4032107592,4.701165199
733,1.55965659565e+18,4.741847038,1.381542087,3.311098099
734,1.55965659571e+18,2.950825214,4.123491764,1.91352272
735,1.55965659577e+18,2.283686638,4.568552017,1.396070957
736,1.55965659583e+18,2.60184145,2.107239723,1.430609703
737,1.55965659589e+18,2.105325699,-0.3316924572,0.3002376556
738,1.55965659594e+18,2.083324432,-1.449627757,-0.5150108337
739,1.55965659599e+18,1.195195198,-1.962587953,-1.364098072
740,1.55965659604e+18,1.030868053,-2.306027651,-1.947361946
741,1.5596565961e+18,-0.07439470291,-2.665803909,-2.597835541
742,1.55965659616e+18,-0.2790470123,-1.452347755,-2.687892437
743,1.55965659622e+18,-0.2201290131,-0.9353819489,-2.131093025
744,1.55965659627e+18,0.006849765778,-0.3424534798,-1.623608112
745,1.55965659633e+18,0.4147629738,-0.1238020658,-0.5656757355
746,1.55965659639e+18,0.799182415,0.3182185888,0.3080010414
747,1.55965659645e+18,0.4244875908,0.9501936436,-0.2480554581
748,1.5596565965e+18,0.5376996994,0.5572258234,0.4983077049
749,1.55965659656e+18,0.6624116898,0.995583415,0.2285003662
750,1.55965659661e+18,0.7012672424,0.9015183449,0.2691521645
751,1.55965659667e+18,0.7799501419,0.8259218931,-0.1502861977
752,1.55965659673e+18,0.3820528984,0.9855706692,-0.3852777481
753,1.55965659679e+18,0.7787294388,0.3823144436,-0.3964943886
754,1.55965659684e+18,0.9983115196,-0.242770195,-0.2094473839
755,1.5596565969e+18,0.4892902374,-0.1683933735,-0.4944005013
756,1.55965659696e+18,0.3033766747,-0.3886544704,-0.5400810242
757,1.55965659702e+18,-0.1064529419,-0.4966175556,-0.4756493568
758,1.55965659708e+18,0.2114810944,-0.6733028889,-0.4779791832
759,1.55965659714e+18,0.2227563858,-0.5709841251,-0.1796927452
760,1.55965659719e+18,-0.4653081894,-0.2428627014,-0.1241374016
761,1.55965659724e+18,-0.7404789925,-0.1974561214,0.00240278244
762,1.55965659729e+18,-0.135219574,-0.2431838512,0.1394085884
763,1.55965659735e+18,0.5031819344,-0.2140929699,0.167140007
764,1.55965659741e+18,0.1215953827,-0.05732679367,0.07744550705
765,1.55965659747e+18,0.08827209473,0.1377155781,0.05559301376
766,1.55965659752e+18,0.06793546677,0.1946239471,-0.3014922142
767,1.55965659758e+18,0.2338533401,0.1665284634,-0.1596002579
768,1.55965659763e+18,0.4690647125,-0.004753828049,-0.2239303589
769,1.55965659769e+18,0.2558717728,0.06872606277,-0.4243121147
770,1.55965659774e+18,0.1312866211,-0.08366417885,-0.3363304138
771,1.5596565978e+18,0.1063680649,-0.07216024399,-0.386323452
772,1.55965659786e+18,0.2317152023,-0.08668899536,-0.1003503799
773,1.55965659792e+18,-0.05031490326,-0.1199684143,-0.04352998734
774,1.55965659798e+18,0.1563777924,-0.0944519043,0.200981617
775,1.55965659804e+18,-0.1599807739,-0.1908774376,0.04293823242
776,1.55965659809e+18,0.1347417831,-0.1735527515,0.335914135
777,1.55965659815e+18,-0.2341742516,-0.09793376923,0.07742834091
778,1.55965659821e+18,-0.1495056152,-0.1016714573,0.05041503906
779,1.55965659827e+18,-0.04195213318,0.04680752754,-0.03268098831
780,1.55965659833e+18,0.0490694046,0.05743718147,0.2798399925
781,1.55965659839e+18,-0.1515812874,0.06843972206,0.1498360634
782,1.55965659844e+18,-0.005747795105,0.1769334078,0.2431020737
783,1.55965659849e+18,-0.0672750473,0.3027124405,-0.1992111206
784,1.55965659854e+18,0.6943058968,0.1799561977,-0.3758854866
785,1.5596565986e+18,0.5829892159,0.268633604,-0.6266770363
786,1.55965659866e+18,0.3407917023,0.4766681194,-0.5352730751
787,1.55965659872e+18,-0.1629862785,0.2249879837,-0.1440634727
788,1.55965659877e+18,0.4073033333,0.2132296562,0.06946754456
789,1.55965659883e+18,-0.1608309746,-0.01301503181,-0.1679601669
790,1.55965659888e+18,-0.443239212,0.2429673672,0.3324232101
791,1.55965659894e+18,-1.132802486,0.9812272787,-0.2333931923
792,1.55965659899e+18,-0.2904443741,0.9201412201,-0.3760490417
793,1.55965659905e+18,0.3699331284,0.2339408398,0.7064375877
794,1.55965659911e+18,1.547762871,-0.01200890541,2.585066319
795,1.55965659917e+18,2.267371655,-0.3149185181,2.957836628
796,1.55965659923e+18,1.027700901,0.3602561951,1.661375046
797,1.55965659929e+18,1.270205975,0.3938304186,1.240372181
798,1.55965659934e+18,1.085406303,0.2647536993,1.286894321
799,1.5596565994e+18,0.7813391685,-0.3556620479,0.3871808052
800,1.55965659946e+18,0.2639183998,-1.145164371,-0.3989844322
801,1.55965659952e+18,-0.1824474335,-1.430481791,-1.119837761
802,1.55965659958e+18,-0.4636650085,-0.9908073545,-1.875164986
803,1.55965659963e+18,-0.8252024651,-0.9653736949,-1.067029476
804,1.55965659968e+18,-0.7170243263,-0.6369839311,-1.369394779
805,1.55965659974e+18,-0.8626770973,-0.1312142611,-0.6029992104
806,1.55965659979e+18,-1.125607967,0.4121075869,-1.036225319
807,1.55965659985e+18,-0.4504041672,0.5943139791,0.1010284424
808,1.55965659991e+18,-0.5593118668,0.803430438,-0.01235246658
809,1.55965659997e+18,-0.3970470428,0.9874273539,1.04139328
810,1.55965660002e+18,-0.1494779587,1.067609429,0.4411153793
811,1.55965660008e+18,1.347682953,0.8999249935,1.00311327
812,1.55965660013e+18,0.4633746147,0.688429594,0.2653045654
813,1.55965660019e+18,-0.3548622131,-0.4151003361,-0.8265299797
814,1.55965660024e+18,-0.7674188614,-1.692447543,-1.936919212
815,1.5596566003e+18,1.413376331,-4.008450031,-4.995461941
816,1.55965660036e+18,1.283218384,-2.399334192,-4.309727192
817,1.55965660042e+18,-12.09117317,-8.166752815,4.84809351
818,1.55965660048e+18,-5.235298157,-1.000403643,2.79736042
819,1.55965660054e+18,-1.373914719,3.995505571,-1.030861139
820,1.55965660059e+18,-0.06518650055,0.03732872009,1.203400135
821,1.55965660065e+18,2.525245667,-1.817398667,4.645709038
822,1.55965660071e+18,6.072120667,1.303930998,6.764656067
823,1.55965660077e+18,3.255874634,2.479193449,6.465519428
824,1.55965660083e+18,3.303178787,1.237463117,6.105136871
825,1.55965660089e+18,1.590882301,-0.5306112766,2.740111351
826,1.55965660094e+18,0.9880051613,0.01530265808,-0.3099856377
827,1.55965660099e+18,0.0996837616,-0.8814988136,-1.33560133
828,1.55965660104e+18,-0.9073705673,-2.67444849,-1.130661488
829,1.5596566011e+18,-1.809286475,-1.676924944,-6.278707027
830,1.55965660116e+18,1.138964891,-2.687838078,-5.312143803
831,1.55965660122e+18,-0.3436056972,-3.62390399,-5.733181
832,1.55965660128e+18,0.4313150644,-2.153607607,-5.197860718
833,1.55965660134e+18,-0.6914072037,-0.553756237,-3.518309593
834,1.55965660139e+18,-2.780997992,1.858605385,1.28010416
835,1.55965660145e+18,-8.373731613,5.125674248,6.189269543
836,1.5596566015e+18,-15.25,10.33269691,7.443441868
837,1.55965660156e+18,-30.21110535,17.61704254,0.1701359749
838,1.55965660161e+18,-22.44594383,5.082771778,0.1422190666
839,1.55965660167e+18,8.032769203,-22.24674416,13.45760345
840,1.55965660173e+18,25.47227478,-5.494260311,-24.36361504
841,1.55965660179e+18,-5.461242676,-19.50934792,-22.10096931
842,1.55965660184e+18,1.663152218,7.062973976,-11.49342918
843,1.5596566019e+18,8.87495327,-2.019219398,-4.901817322
844,1.55965660196e+18,4.503730774,-0.9262568951,-0.3302416801
845,1.55965660202e+18,4.145957947,-3.884038687,-3.155486584
846,1.55965660208e+18,7.066171169,-1.892127156,-1.255730629
847,1.55965660213e+18,5.333367348,1.706002951,-0.8799505234
848,1.55965660218e+18,3.549953938,-1.106569529,2.932274818
849,1.55965660224e+18,6.72094059,3.646407127,5.763401985
850,1.55965660229e+18,4.683380604,3.978075981,5.302620888
851,1.55965660235e+18,9.138803482,3.751601696,8.243253708
852,1.55965660241e+18,1.292456627,4.843553543,2.386203289
853,1.55965660247e+18,-0.02829217911,4.283112049,0.712539196
854,1.55965660252e+18,0.2769265175,3.601563692,-0.3358783722
855,1.55965660258e+18,1.609410286,1.898389101,-0.8210458755
856,1.55965660263e+18,2.00474596,0.728916049,-1.285544872
857,1.55965660269e+18,1.258961678,0.04759120941,-1.666808128
858,1.55965660274e+18,1.065241814,-0.3572745323,-1.935451031
859,1.5596566028e+18,0.7975225449,-0.5196735263,-1.843738079
860,1.55965660286e+18,-0.06351709366,-0.5463017821,-1.662456036
861,1.55965660292e+18,0.352288723,-0.7359095216,-0.9851007462
862,1.55965660298e+18,-0.1196670532,-0.472884655,-0.671066761
863,1.55965660304e+18,0.8923983574,-0.3528546095,-0.1503214836
864,1.55965660309e+18,-0.2951402664,-0.1709529161,0.4909524918
865,1.55965660315e+18,0.1665534973,0.1457830667,0.1092114449
866,1.55965660321e+18,0.1047992706,0.4870821834,-0.1084580421
867,1.55965660327e+18,0.2821426392,0.5364443064,-0.4700365067
868,1.55965660333e+18,0.6057767868,0.2731345296,0.2149672508
869,1.55965660339e+18,-0.1809692383,0.6054954529,-0.1880054474
870,1.55965660344e+18,0.8344144821,0.7265281081,0.3160362244
871,1.55965660349e+18,0.427397728,0.6971348524,0.03215646744
872,1.55965660354e+18,0.4072408676,0.4884964228,0.03032112122
873,1.5596566036e+18,0.2240123749,0.1167817786,-0.2792644501
874,1.55965660366e+18,0.2475185394,-0.1422389448,-0.3672885895
875,1.55965660372e+18,0.3035030365,-0.3303575516,-0.2668085098
876,1.55965660377e+18,0.2203121185,-0.5896454453,-0.241546154
877,1.55965660383e+18,-0.2315835953,-0.5471644998,-0.446583271
878,1.55965660388e+18,0.03901576996,-0.5626782179,-0.3256483078
879,1.55965660394e+18,0.08683013916,-0.3058760762,-0.2050046921
880,1.55965660399e+18,-0.04724884033,-0.1544620991,-0.1681132317
881,1.55965660405e+18,0.1080112457,-0.0602921173,-0.1533780098
882,1.55965660411e+18,-0.0002098083496,0.1850859374,-0.1868467331
883,1.55965660417e+18,0.02593708038,0.2277676463,-0.2013549805
884,1.55965660423e+18,0.1544151306,0.3094800711,-0.06184482574
885,1.55965660429e+18,0.4412250519,0.7897592783,0.228038311
886,1.55965660435e+18,0.6843357086,0.8821383715,1.59965229
887,1.55965660441e+18,1.124242783,1.505448222,1.973730564
888,1.55965660447e+18,0.8643980026,1.87441802,1.164597511
889,1.55965660453e+18,1.269973278,1.890549898,1.067887783
890,1.55965660458e+18,1.924238682,1.221402287,2.631962299
891,1.55965660464e+18,0.2174487114,1.332375526,-0.8609447479
892,1.55965660469e+18,-0.2593698502,-0.1150150299,-1.522454262
893,1.55965660474e+18,-0.340195179,-1.475298166,-1.924720764
894,1.55965660479e+18,-1.092474461,-3.108799696,-2.632729053
895,1.55965660485e+18,-0.2895827293,-4.761016369,-3.885923147
896,1.55965660491e+18,3.707575798,-5.184071064,-4.939004421
897,1.55965660497e+18,3.327465057,0.9078533649,-6.537320614
898,1.55965660502e+18,-6.28290081,-0.0365562439,3.914730787
899,1.55965660508e+18,-0.5756473541,1.194433928,3.421263218
900,1.55965660514e+18,-3.652817249,1.122313499,-1.233623981
901,1.5596566052e+18,-0.9757699966,-2.03284359,-1.42263937
902,1.55965660525e+18,-1.331455231,-1.28690505,1.542553425
903,1.55965660531e+18,-0.6726827621,1.751194,-2.050617218
904,1.55965660536e+18,-0.9498291016,2.553776026,-1.309467554
905,1.55965660542e+18,9.872117043,1.222343922,7.925070286
906,1.55965660547e+18,14.79999924,4.418905258,5.652049065
907,1.55965660552e+18,10.68965244,4.769715309,1.742489934
908,1.55965660558e+18,3.597704887,-0.9696824551,-0.3511865139
909,1.55965660564e+18,-0.6015672684,-2.746463776,-4.493321896
910,1.5596566057e+18,0.3297567368,-3.083109379,-3.913346529
911,1.55965660576e+18,-2.535899162,-3.516836166,-5.997382164
912,1.55965660582e+18,0.0459061861,-3.367488146,-6.858672142
913,1.55965660587e+18,-0.9394018054,-4.403740883,-7.761643887
914,1.55965660592e+18,0.6955940723,-3.406312943,-5.662744522
915,1.55965660598e+18,-0.01133728027,-1.21381855,-3.109060287
916,1.55965660603e+18,-4.291095257,3.127931595,2.052846909
917,1.55965660609e+18,-13.58509636,7.60087204,6.400209904
918,1.55965660615e+18,-23.23432922,11.17343616,7.562970161
919,1.55965660621e+18,-31.04882812,17.05019188,-11.16243172
920,1.55965660626e+18,-7.398547649,1.850487709,-16.90893745
921,1.55965660632e+18,27.56536484,-54.15013885,4.313564301
922,1.55965660638e+18,12.37119675,-2.574181557,-13.8439579
923,1.55965660644e+18,8.56934166,-7.060749531,-20.2774353
924,1.55965660649e+18,3.368976116,3.762261629,-8.814714432
925,1.55965660655e+18,1.696864128,1.179340839,-4.72040844
926,1.55965660661e+18,6.352161884,-2.376783848,-2.174138784
927,1.55965660667e+18,5.601937294,-2.405737638,-2.967702389
928,1.55965660673e+18,5.461727142,1.405334949,0.09294319153
929,1.55965660678e+18,2.482697725,0.711250186,1.544774055
930,1.55965660684e+18,4.76527977,1.544432759,4.640685081
931,1.5596566069e+18,9.476773262,1.263832211,8.99294281
932,1.55965660696e+18,7.665378094,0.8069720864,7.905332565
933,1.55965660702e+18,3.615742683,2.414854527,4.616814613
934,1.55965660708e+18,2.478097439,3.645536661,2.072108746
935,1.55965660714e+18,1.865021229,3.964711666,0.7981133461
936,1.55965660719e+18,2.247737408,2.416396618,-0.0959815979
937,1.55965660724e+18,2.578316212,0.662317276,-0.8366651535
938,1.55965660729e+18,1.45853138,-0.2861660123,-0.8997774124
939,1.55965660735e+18,1.616307259,-0.7905567884,-1.579512596
940,1.55965660741e+18,0.2560653687,-1.162487745,-2.507029533
941,1.55965660747e+18,0.7575387955,-1.272793889,-1.176379204
942,1.55965660752e+18,-0.2573399544,-0.9866454005,-1.786281109
943,1.55965660758e+18,0.3055639267,-0.6545383334,-1.111778259
944,1.55965660763e+18,-0.4943609238,-0.2229340225,-1.091538906
945,1.55965660769e+18,0.0341796875,-0.142092973,-0.6916594505
946,1.55965660774e+18,-0.2557940483,-0.1332320869,-0.597671032
947,1.5596566078e+18,-1.235434055,0.1539532542,-0.9952731133
948,1.55965660786e+18,-2.711381435,-0.6685593128,-1.428230286
949,1.55965660792e+18,-3.747855425,-0.658842802,-2.593551159
950,1.55965660798e+18,-1.291413307,-1.961745262,-0.4399490356
951,1.55965660803e+18,1.145702362,-1.326663017,-1.458406687
952,1.55965660809e+18,6.210724354,-2.967953682,2.795759201
953,1.55965660815e+18,3.58377409,-1.183115959,1.543293238
954,1.55965660821e+18,3.79163909,-0.8627147675,1.243911266
955,1.55965660827e+18,-0.3932466507,-1.228433609,-1.625970125
956,1.55965660832e+18,-2.169415712,-1.018578529,-1.575923562
957,1.55965660838e+18,-0.7667262554,-0.6263418198,-0.9352920055
958,1.55965660843e+18,-0.8059399128,0.2001008987,-0.5436714888
959,1.55965660849e+18,-1.836685061,0.1025762558,-0.4107156992
960,1.55965660854e+18,-1.03324604,-0.2241458893,0.6632708311
961,1.5596566086e+18,-0.788143158,-1.534344673,0.5543699265
962,1.55965660866e+18,-0.9634836912,-0.5640830994,0.1747838259
963,1.55965660872e+18,0.2038223743,0.5592365265,0.8266324997
964,1.55965660877e+18,0.9173755646,0.352976799,1.479795098
965,1.55965660883e+18,0.3198080063,-0.9293746948,1.125848174
966,1.55965660888e+18,0.733392477,-0.5906066895,1.096128821
967,1.55965660894e+18,-0.3077762127,1.514044285,0.255110383
968,1.55965660899e+18,-0.3733360767,0.640917778,-0.786560595
969,1.55965660905e+18,0.1949350834,-0.864525795,-0.7802795768
970,1.55965660911e+18,0.1982810497,0.005262374878,-1.027404785
971,1.55965660916e+18,0.02978038788,0.3907012939,-1.034673929
972,1.55965660922e+18,0.07126569748,-0.3027915955,-1.32217896
973,1.55965660927e+18,0.5516569614,-0.2096185684,-1.298182964
974,1.55965660933e+18,0.5952413082,-0.4691648483,-0.9748288393
975,1.55965660939e+18,-0.5794887543,0.03531455994,-1.014479637
976,1.55965660945e+18,-0.6238799095,-0.3788089752,-1.137977242
977,1.55965660951e+18,-0.1135737896,-1.132045746,0.842464447
978,1.55965660957e+18,-0.9277205467,-0.3930797577,0.3105391264
979,1.55965660963e+18,-1.302997708,-0.299161911,-0.8159503937
980,1.55965660968e+18,-0.5933802128,-0.09076881409,-0.2912780643
981,1.55965660974e+18,-0.1657803059,-0.1948862076,-0.009196639061
982,1.55965660979e+18,0.3751561642,0.1877241135,-0.2221769094
983,1.55965660985e+18,0.5488982201,0.0344619751,0.5208231211
984,1.55965660991e+18,0.8338375092,-0.1939334869,-0.1490988731
985,1.55965660997e+18,0.5393953323,-0.1992330551,-0.1911162138
986,1.55965661002e+18,0.1981070042,0.1971931458,-0.1326749921
987,1.55965661008e+18,-0.2399594784,-0.2175216675,0.1490439773
988,1.55965661013e+18,-0.3649628162,-0.3324985504,-0.2598760128
989,1.55965661019e+18,-0.04853773117,-0.2422399521,-0.4941395223
990,1.55965661024e+18,0.1945114136,-0.006951332092,-0.08939772844
991,1.5596566103e+18,0.0840678215,-0.02029514313,0.2910519838
992,1.55965661036e+18,0.277156353,-0.1621875763,0.03016394377
993,1.55965661041e+18,0.3744995594,0.09592533112,0.2028561234
994,1.55965661047e+18,0.7127730846,0.2111682892,0.6153633595
995,1.55965661052e+18,0.5477685928,-0.03037452698,0.2104535699
996,1.55965661058e+18,0.3944497108,-0.2201471329,-0.02292233706
997,1.55965661064e+18,0.7811129093,-0.2586345673,-0.1808294058
998,1.5596566107e+18,0.3063788414,-0.2030439377,-0.1258101463
999,1.55965661076e+18,-0.1656005383,-0.1648445129,-0.429223597
1000,1.55965661082e+18,-1.059380531,-0.2333831787,-0.4461601973
1001,1.55965661088e+18,-0.7754325867,-0.1195554733,-0.1862829924
1002,1.55965661093e+18,-0.2023696899,-0.8002281189,0.1652249098
1003,1.55965661099e+18,2.039690018,-0.6142272949,1.000060797
1004,1.55965661104e+18,0.1732273102,-0.06184673309,0.2528237104
1005,1.5596566111e+18,-0.09945487976,-0.080701828,0.699926734
1006,1.55965661116e+18,-0.8212909698,-0.0865688324,-0.2048547268
1007,1.55965661122e+18,-0.9780716896,-0.118970871,-0.6011242867
1008,1.55965661127e+18,-1.105250835,-0.2053875923,-0.8512821198
1009,1.55965661133e+18,-1.108540058,-0.2790904045,-0.6911753416
1010,1.55965661138e+18,-1.151778698,-0.1408262253,-0.2230334282
1011,1.55965661144e+18,-1.165185928,-0.3861246109,0.4964977503
1012,1.55965661149e+18,0.1285243034,-0.2784156799,0.8084070683
1013,1.55965661155e+18,-0.4534392357,-0.4718227386,0.541452527
1014,1.55965661161e+18,1.458774328,-0.1231622696,0.2711576223
1015,1.55965661167e+18,1.558434248,0.06052207947,0.2370948792
1016,1.55965661173e+18,1.185284615,0.005383491516,0.4587472677
1017,1.55965661179e+18,0.292829752,0.172252655,-0.09455060959
1018,1.55965661184e+18,-1.335139513,-0.1999702454,-0.6458272934
1019,1.5596566119e+18,0.1656954288,-0.190577507,0.7996994257
1020,1.55965661195e+18,0.9571223259,-0.2883615494,0.4269970655
1021,1.55965661201e+18,1.915260315,0.260723114,1.414034486
1022,1.55965661207e+18,0.5172829628,0.02995967865,0.8664802313
1023,1.55965661213e+18,0.947704792,-0.5330400467,0.6564571857
1024,1.55965661218e+18,1.757808685,-0.2145662308,0.4696297646
1025,1.55965661224e+18,0.8732013702,-0.8073124886,-0.1335835457
1026,1.5596566123e+18,0.2731323242,-0.3498439789,-0.8461885452
1027,1.55965661235e+18,-0.2367110252,-0.3277611732,-0.9906541109
1028,1.55965661241e+18,-0.1382884979,-0.2921471596,-0.9133400917
1029,1.55965661247e+18,0.4158983231,-0.05213260651,-0.5825698376
1030,1.55965661252e+18,1.234166145,0.07446670532,0.7231702805
1031,1.55965661258e+18,2.038302898,0.3501667976,1.471642733
1032,1.55965661263e+18,2.500153065,0.1954727173,1.518910885
1033,1.55965661269e+18,2.139247894,0.293170929,0.5080223083
1034,1.55965661274e+18,2.047794342,0.8030872345,1.651387453
1035,1.5596566128e+18,0.918422699,-0.02075743675,0.3487429619
1036,1.55965661286e+18,0.6644878387,-1.587785006,-0.4317016602
1037,1.55965661292e+18,-0.08850479126,-3.197176456,-1.090416431
1038,1.55965661298e+18,-4.878851414,-3.750065804,-0.1779971123
1039,1.55965661304e+18,-8.573051453,-6.980783939,-5.341615677
1040,1.55965661309e+18,-9.722387314,-7.806581974,3.930704117
1041,1.55965661315e+18,6.963886261,1.102427244,2.258630514
1042,1.5596566132e+18,-4.60612154,2.279151917,-4.008375168
1043,1.55965661326e+18,2.424280167,2.010302067,0.1670506597
1044,1.55965661332e+18,6.255811691,3.157709122,0.8051763773
1045,1.55965661338e+18,14.13963509,6.156388283,2.175539255
1046,1.55965661343e+18,11.30187893,7.183489799,-1.422408104
1047,1.55965661349e+18,6.607067108,4.96604538,0.6594917774
1048,1.55965661354e+18,4.762301445,1.971741915,0.2391486168
1049,1.5596566136e+18,-0.3086948395,-0.4414718151,-2.996710777
1050,1.55965661366e+18,-2.039944649,-3.356539249,-5.403880119
1051,1.55965661372e+18,-3.220376968,-2.283575773,-6.768658161
1052,1.55965661377e+18,-4.723828316,-3.953861713,-8.072703362
1053,1.55965661383e+18,-1.998212457,-1.593564391,-6.406978607
1054,1.55965661388e+18,0.2754154801,1.640279055,-6.093954086
1055,1.55965661394e+18,-5.645218849,5.356780052,0.503534317
1056,1.55965661399e+18,-14.77911949,7.7339468,4.393971443
1057,1.55965661405e+18,-22.19069672,9.752328873,4.593892097
1058,1.55965661411e+18,-26.22537994,13.08182812,-9.69572258
1059,1.55965661417e+18,-2.335063934,-3.048077106,-14.73305702
1060,1.55965661423e+18,21.0575161,-51.50802231,-18.17100525
1061,1.55965661429e+18,14.75674725,5.60888958,-13.61327171
1062,1.55965661434e+18,12.42841721,-11.98473358,-16.17854118
1063,1.5596566144e+18,-1.428732872,8.502632141,-6.324688435
1064,1.55965661446e+18,-1.115525246,5.342986107,-5.987422466
1065,1.55965661452e+18,2.202061176,5.754209995,0.184428215
1066,1.55965661458e+18,2.52083683,1.196238518,0.1226606369
1067,1.55965661464e+18,3.503322363,-0.04825592041,-0.7369198799
1068,1.55965661469e+18,2.497032166,4.559013367,-2.757259846
1069,1.55965661474e+18,3.674463272,5.036921024,0.4603414536
1070,1.55965661479e+18,1.995886326,2.489958763,3.758730888
1071,1.55965661485e+18,1.232644916,2.998455048,2.519412041
1072,1.55965661491e+18,2.053586006,1.871777534,3.253908157
1073,1.55965661497e+18,2.649441719,4.3377285,2.301873207
1074,1.55965661502e+18,3.66782999,3.707090378,2.683897972
1075,1.55965661508e+18,2.356267929,4.013918877,1.827195168
1076,1.55965661513e+18,3.273369312,3.028494835,1.094326019
1077,1.55965661519e+18,1.509915352,1.739221931,0.5756978989
1078,1.55965661524e+18,1.40746069,0.8704279065,-0.7294692993
1079,1.5596566153e+18,1.264219284,-0.7043473721,-0.8222208023
1080,1.55965661536e+18,0.6419634819,-1.062511086,-1.716869354
1081,1.55965661542e+18,0.4371299744,-1.410035253,-1.629802227
1082,1.55965661548e+18,0.4254589081,-0.7556606531,-1.400017262
1083,1.55965661554e+18,-0.2065386772,-0.2819139957,-1.121309757
1084,1.55965661559e+18,0.6128211021,-0.104162097,-0.258846283
1085,1.55965661565e+18,0.6279258728,0.2987757623,-0.8334269524
1086,1.55965661571e+18,0.3229198456,0.7857782245,-0.7113718987
1087,1.55965661577e+18,0.7676968575,0.7365332842,-0.82264328
1088,1.55965661583e+18,-0.2981815338,0.7282122374,-1.423420906
1089,1.55965661589e+18,0.1185207367,0.8697995543,-1.541402817
1090,1.55965661594e+18,-1.442525864,0.7616234422,-2.28669548
1091,1.55965661599e+18,-2.384805679,0.5234777927,-2.756597996
1092,1.55965661604e+18,-3.122937679,-0.9668264389,-1.731679916
1093,1.5596566161e+18,-3.662017584,-1.846182346,-1.371139526
1094,1.55965661616e+18,1.050533295,-5.063235283,0.2090778351
1095,1.55965661622e+18,0.6594491005,-4.925848961,-0.3383390903
1096,1.55965661627e+18,2.812170982,-4.363787651,0.255764246
1097,1.55965661633e+18,3.675325394,-0.9352359772,-0.06275498867
1098,1.55965661638e+18,2.878447533,-0.2495584488,0.2111312151
1099,1.55965661644e+18,1.343526363,-0.0169801712,-0.3383094668
1100,1.55965661649e+18,0.7578401566,0.3507089615,-0.1976900101
1101,1.55965661655e+18,0.5133607388,0.5308599472,-0.5275213122
1102,1.55965661661e+18,0.4940104485,-0.3250732422,-0.02849876881
1103,1.55965661667e+18,0.1447846889,-0.2729530334,-0.401058197
1104,1.55965661673e+18,-0.673176527,-0.5183143616,-0.3531296849
1105,1.55965661679e+18,-0.899181366,-0.4974689484,-0.6549208164
1106,1.55965661684e+18,-1.176874876,-0.4449920654,-0.5010220408
1107,1.5596566169e+18,-1.271460533,-0.3429384232,-0.3366734982
1108,1.55965661696e+18,-1.102073193,-0.4337997437,-0.5363427401
1109,1.55965661702e+18,-0.5712139606,-0.357134819,-0.3029543161
1110,1.55965661708e+18,-0.6111979485,-0.4138526917,-0.3547786474
1111,1.55965661713e+18,-0.4846591949,-0.3580608368,-0.210091114
1112,1.55965661718e+18,-0.695556879,-0.2064266205,-0.441313684
1113,1.55965661724e+18,-0.231616497,-0.3574085236,-0.2598286867
1114,1.55965661729e+18,-0.4381227493,-0.1255521774,-0.4454066753
1115,1.55965661735e+18,-0.2916083336,-0.4253368378,-0.2713417411
1116,1.55965661741e+18,0.1003403664,-0.06208515167,-0.04920184612
1117,1.55965661747e+18,0.03284072876,-0.05543327332,0.01396888494
1118,1.55965661752e+18,0.5076878071,-0.1013946533,0.2853218913
1119,1.55965661758e+18,0.221735239,-0.01851940155,0.3060758114
1120,1.55965661763e+18,0.5895209312,-0.1504011154,0.5211409926
1121,1.55965661769e+18,0.1668763161,0.01411914825,0.05243712664
1122,1.55965661774e+18,0.4199810028,-0.08085918427,0.2830489278
1123,1.5596566178e+18,0.6220617294,0.2268590927,0.2071819901
1124,1.55965661786e+18,3.420236111,0.2160978317,1.077498674
1125,1.55965661792e+18,4.074776649,0.06063365936,0.8912200928
1126,1.55965661797e+18,4.384904385,-0.8680171967,2.257989407
1127,1.55965661802e+18,3.260369301,-1.342543602,1.202228904
1128,1.55965661808e+18,0.9192814827,-2.016172886,-0.5026776791
1129,1.55965661814e+18,0.1294202805,-2.108992577,-0.783952713
1130,1.5596566182e+18,0.1561717987,-2.045864582,-1.243635178
1131,1.55965661826e+18,0.07673025131,-1.697984695,-1.106897116
1132,1.55965661832e+18,0.3883686066,-1.419279575,0.2573161125
1133,1.55965661837e+18,0.1262369156,-0.8830559254,-0.4787447453
1134,1.55965661842e+18,-0.5239105225,-0.2303682566,-0.01303720474
1135,1.55965661848e+18,-0.1103725433,0.6122472286,1.04607296
1136,1.55965661853e+18,-1.052055359,0.78098768,-0.2469539642
1137,1.55965661859e+18,-0.781542778,0.4115233421,-0.5729980469
1138,1.55965661865e+18,-1.852888584,0.1460182071,-1.278403997
1139,1.55965661871e+18,-2.119882107,0.3204661608,-0.6880259514
1140,1.55965661876e+18,-2.2691679,-0.06710588932,-1.359590888
1141,1.55965661882e+18,-3.002596378,-0.651044786,-0.9593719244
1142,1.55965661887e+18,-4.896908283,-2.750535488,-1.192012548
1143,1.55965661893e+18,-3.702140331,-5.334453583,-2.689945936
1144,1.55965661899e+18,-0.9370155334,-3.357882977,0.6477611065
1145,1.55965661905e+18,-0.08670043945,-3.679341316,3.919084311
1146,1.55965661911e+18,2.705564499,2.266161442,-2.506588936
1147,1.55965661917e+18,3.400959969,1.773098946,1.12220788
1148,1.55965661923e+18,3.347561836,4.633376598,-4.770373344
1149,1.55965661929e+18,5.094100475,2.596963167,0.8926582336
1150,1.55965661935e+18,11.88270569,2.994977474,1.514904141
1151,1.55965661941e+18,13.78598785,3.095325232,0.7567079067
1152,1.55965661947e+18,11.09585857,3.124363422,-1.260637045
1153,1.55965661953e+18,7.164954185,-1.365748405,0.916077137
1154,1.55965661958e+18,2.35452652,-2.175060272,0.0693975687
1155,1.55965661963e+18,-2.428798676,-3.057594061,-4.488846779
1156,1.55965661968e+18,-4.474253178,-4.593859673,-6.286721706
1157,1.55965661974e+18,-2.774825096,-4.432839394,-8.03745079
1158,1.55965661979e+18,-3.534936666,-3.905844927,-8.885591507
1159,1.55965661985e+18,-4.987715721,3.470051289,0.3614749908
1160,1.55965661991e+18,-8.302455902,9.62020874,7.53036499
1161,1.55965661997e+18,-16.38724136,11.77914047,8.028249741
1162,1.55965662002e+18,-24.52381897,14.74193954,2.569459915
1163,1.55965662008e+18,-18.88718224,2.299017668,-7.166028976
1164,1.55965662013e+18,8.531989098,-11.04906559,8.214982033
1165,1.55965662019e+18,44.87133026,-21.98094749,-14.77483749
1166,1.55965662024e+18,-1.305258751,-15.28304195,-25.1045208
1167,1.5596566203e+18,12.2675209,6.689172745,-9.730034828
1168,1.55965662036e+18,3.354398251,5.522144794,-8.174907684
1169,1.55965662042e+18,4.66845274,1.20713973,-3.055979967
1170,1.55965662048e+18,5.454139233,-0.2254458666,-4.715542793
1171,1.55965662054e+18,7.575514793,-3.787307024,-5.303908825
1172,1.55965662059e+18,7.796165943,-3.556325674,-1.93478775
1173,1.55965662065e+18,3.381333351,-10.30077744,-1.705382824
1174,1.55965662071e+18,5.232546806,-13.80198479,3.146221161
1175,1.55965662077e+18,6.04242897,-14.00139427,-0.2584285736
1176,1.55965662083e+18,13.55413151,-10.87194157,1.195480585
1177,1.55965662088e+18,13.5146265,-7.352325439,-0.443395853
1178,1.55965662093e+18,10.6694622,-5.152762413,-1.561672449
1179,1.55965662099e+18,12.63587189,-1.109325409,-0.721036911
1180,1.55965662104e+18,11.2000351,2.32997036,-0.9983012676
1181,1.5596566211e+18,8.383776665,0.2743034363,-2.341011524
1182,1.55965662116e+18,5.842470169,-0.7488927841,-2.630567789
1183,1.55965662122e+18,3.364764452,-2.238307953,-2.4521873
1184,1.55965662127e+18,1.456879377,-1.684368134,-2.731109142
1185,1.55965662133e+18,-0.5453019142,-2.550898552,-3.286227703
1186,1.55965662138e+18,-1.735633135,-2.706780434,-2.952936888
1187,1.55965662144e+18,-2.580289364,-1.400603771,-3.076820135
1188,1.55965662149e+18,-3.023222685,-1.216187,-2.051888704
1189,1.55965662155e+18,-2.905052662,0.004937648773,-1.571173549
1190,1.55965662161e+18,-2.308379173,0.03171348572,-1.319237471
1191,1.55965662167e+18,-1.025773287,-0.04946517944,-0.3376551867
1192,1.55965662173e+18,0.7942709923,-0.7946147919,-0.1513408422
1193,1.55965662178e+18,1.879663229,-0.6244802475,0.1404422522
1194,1.55965662183e+18,2.703565121,-0.915760994,0.249341011
1195,1.55965662189e+18,3.632539272,-0.2456045151,0.04373133183
1196,1.55965662195e+18,2.856146812,0.1938018799,-0.2138322592
1197,1.55965662201e+18,2.727213383,0.480755806,-0.188647151
1198,1.55965662207e+18,1.997815132,0.4414319992,-0.2400934696
1199,1.55965662213e+18,1.768725157,0.1469449997,-0.5780841112
1200,1.55965662218e+18,1.090839863,-0.3051652908,-0.5830328465
1201,1.55965662224e+18,0.806255579,-0.4290494919,-0.3688947558
1202,1.55965662229e+18,0.2910869122,-0.1236963272,-0.3840119839
1203,1.55965662235e+18,-0.6739008427,-0.4283399582,-0.5354550481
1204,1.55965662241e+18,-1.14724493,-0.457701683,-0.9407080412
1205,1.55965662247e+18,-1.190063477,-0.3991737366,-0.9339607358
1206,1.55965662252e+18,-0.9482955933,-0.3324985504,-0.5570167899
1207,1.55965662258e+18,-1.253498077,-0.2311639786,-0.394145906
1208,1.55965662263e+18,-1.051413536,-0.3542909622,-0.4705708623
1209,1.55965662269e+18,-0.7994432449,-0.2840032578,-0.04282271862
1210,1.55965662274e+18,-0.343957901,-0.1647014618,0.06622159481
1211,1.5596566228e+18,0.1601634026,-0.1649045944,0.003099441528
1212,1.55965662286e+18,0.4691493511,0.03363800049,0.1577501297
1213,1.55965662292e+18,0.9480493069,-0.1022462845,-0.1934982538
1214,1.55965662298e+18,1.17512393,0.1350860596,0.03644961119
1215,1.55965662303e+18,1.49878788,0.08141899109,0.2311118245
1216,1.55965662309e+18,1.142566442,0.1192312241,0.03563648462
1217,1.55965662315e+18,0.706584692,-0.002956390381,0.09863358736
1218,1.5596566232e+18,0.4337747097,-0.160777092,0.2665808201
1219,1.55965662326e+18,0.1860890388,-0.07433700562,-0.1408275366
1220,1.55965662332e+18,-0.06893825531,-0.1333723068,-0.1004145741
1221,1.55965662337e+18,-0.1624736786,-0.1350650787,-0.00710773468
1222,1.55965662342e+18,-0.3957176208,-0.323720932,-0.1785879135
1223,1.55965662348e+18,-0.4871907234,-0.0873708725,-0.1571410894
1224,1.55965662353e+18,-0.653460741,-0.1114692688,-0.2621780038
1225,1.55965662359e+18,-0.487251997,-0.203660965,-0.1759848595
1226,1.55965662365e+18,0.1392366886,-0.1776266098,0.00591480732
1227,1.55965662371e+18,0.4410526752,-0.02634143829,0.05147880316
1228,1.55965662376e+18,0.4057548046,-0.1481466293,0.09409224987
1229,1.55965662382e+18,0.6057417393,0.0590801239,0.006135821342
1230,1.55965662387e+18,-0.06181788445,0.01231193542,-0.2829437852
1231,1.55965662393e+18,0.5105164051,-0.02213001251,-0.03620696068
1232,1.55965662399e+18,-0.03948354721,-0.05458545685,-0.1843255758
1233,1.55965662405e+18,-0.2597160339,-0.1235141754,-0.1827659607
1234,1.55965662411e+18,0.3211321831,-0.1290407181,0.3049316406
1235,1.55965662417e+18,0.1338546276,-0.1065254211,0.2882226706
1236,1.55965662423e+18,0.07215189934,-0.1657047272,0.01027834415
1237,1.55965662429e+18,-0.1868910789,-0.1464090347,-0.1601635814
1238,1.55965662435e+18,-0.4366571903,-0.1390724182,-0.376103282
1239,1.55965662441e+18,-0.2742958069,-0.06529331207,0.1204896569
1240,1.55965662447e+18,-0.249222517,0.07787036896,-0.0702227354
1241,1.55965662453e+18,1.859244823,0.3306474686,1.306149244
1242,1.55965662458e+18,2.481145144,0.02641677856,2.083092213
1243,1.55965662464e+18,5.991315842,-0.0491027832,5.243214607
1244,1.55965662469e+18,6.35569191,-0.6781187057,3.979873657
1245,1.55965662474e+18,4.331665516,-3.678963661,2.004542112
1246,1.55965662479e+18,2.300200462,-4.390205383,-0.07809925079
1247,1.55965662485e+18,-1.350882053,-4.441031456,-2.811150074
1248,1.55965662491e+18,-3.154295444,-2.157783031,-3.559001923
1249,1.55965662497e+18,-3.097499371,-0.5704102516,-2.943426609
1250,1.55965662502e+18,-1.130696774,0.2662904263,-1.01663518
1251,1.55965662508e+18,-1.156277657,0.06454539299,-1.281078339
1252,1.55965662513e+18,-0.6471652985,0.2602527142,-0.577278614
1253,1.55965662519e+18,-0.7083182335,0.8636615276,-0.3180303574
1254,1.55965662524e+18,-1.061805725,1.267041445,0.4671750069
1255,1.5596566253e+18,0.4967479706,1.695448875,1.564560652
1256,1.55965662536e+18,0.4560613632,2.263188362,1.189424038
1257,1.55965662542e+18,-1.124406815,0.4217477143,0.002531528473
1258,1.55965662548e+18,-2.534302711,-2.133738756,-0.8841471672
1259,1.55965662554e+18,-2.38731432,-6.399931908,-3.088824511
1260,1.55965662559e+18,-27.06855392,-24.10611725,5.57988739
1261,1.55965662565e+18,3.453665733,6.899721146,-0.2909457684
1262,1.55965662571e+18,-3.37632513,5.20091486,-0.425963819
1263,1.55965662577e+18,-1.358855247,2.099440575,2.659810305
1264,1.55965662583e+18,-1.094959259,2.622364044,-0.1897652149
1265,1.55965662589e+18,8.238370895,2.239737034,-2.439642191
1266,1.55965662594e+18,10.36151409,1.858694196,3.386797428
1267,1.55965662599e+18,11.64420795,3.192626715,3.032936335
1268,1.55965662604e+18,10.93394756,2.301491261,2.531558037
1269,1.5596566261e+18,5.899227142,-0.4721508026,1.469872713
1270,1.55965662616e+18,2.686421394,-2.270303011,-0.7855513096
1271,1.55965662622e+18,-0.7670331001,-3.721169949,-2.811692476
1272,1.55965662627e+18,-3.033769608,-3.787734509,-5.714436531
1273,1.55965662633e+18,-2.870056391,-4.226480484,-5.464931965
1274,1.55965662638e+18,-4.552659512,-5.079289913,-5.309663773
1275,1.55965662644e+18,-2.240026474,-2.545251131,-4.938904285
1276,1.55965662649e+18,-2.599511623,0.743935585,-3.083646774
1277,1.55965662655e+18,-8.122529984,4.933352947,4.73125267
1278,1.55965662661e+18,-15.56023693,8.308776855,5.559314728
1279,1.55965662667e+18,-28.5222435,12.32734489,4.690067768
1280,1.55965662673e+18,-25.84031677,7.411287308,-9.555025101
1281,1.55965662679e+18,10.45186806,-16.10404587,11.20632935
1282,1.55965662684e+18,33.24038315,-45.9905014,15.15978622
1283,1.5596566269e+18,7.874546051,-18.14831352,-18.01436234
1284,1.55965662696e+18,1.872421741,5.528339386,-9.269476891
1285,1.55965662702e+18,-1.992247105,3.015208244,-8.75586319
1286,1.55965662708e+18,-0.4579219818,0.7021448612,-2.678581953
1287,1.55965662714e+18,0.8663048744,0.3629622459,-0.5177953243
1288,1.55965662719e+18,2.483789444,-0.9187217951,-3.290629864
1289,1.55965662724e+18,5.691187859,-0.7650001645,-3.678721905
1290,1.55965662729e+18,4.16999197,-1.636435509,-5.061963081
1291,1.55965662735e+18,1.935744286,-0.7262474895,-7.773236275
1292,1.55965662741e+18,1.804691434,1.050316572,-6.35837698
1293,1.55965662747e+18,4.218930244,-7.751592159,-1.579210281
1294,1.55965662752e+18,7.287939548,-8.437591553,-1.362437248
1295,1.55965662758e+18,11.02621841,-8.44970417,3.364377975
1296,1.55965662763e+18,6.401460648,-9.338624001,-0.2161407471
1297,1.55965662769e+18,13.64280701,-7.042504311,3.588883877
1298,1.55965662774e+18,11.2180109,-1.631928444,0.1760504246
1299,1.5596566278e+18,8.082487106,1.250618935,-1.706611872
1300,1.55965662786e+18,5.859683037,2.000305653,-2.619791508
1301,1.55965662792e+18,4.21414566,1.320697784,-1.663083076
1302,1.55965662798e+18,3.374304533,0.3969192505,-1.222628832
1303,1.55965662803e+18,1.749274015,-0.3324995041,-1.160632849
1304,1.55965662809e+18,0.6660284996,-0.8835906982,-1.570359349
1305,1.55965662815e+18,-0.4935450554,-1.386787415,-1.292448997
1306,1.55965662821e+18,-1.172611237,-1.110254288,-1.353435636
1307,1.55965662827e+18,-1.659150362,-1.340805054,-1.055273294
1308,1.55965662833e+18,-1.688328028,-1.262723923,-0.4785571694
1309,1.55965662839e+18,-2.569500685,-1.046096802,-1.320578337
1310,1.55965662844e+18,-2.15309763,-0.07579517365,-0.5884512067
1311,1.55965662849e+18,-1.43275404,0.08005046844,0.6715052128
1312,1.55965662854e+18,-1.170950174,0.08923339844,0.3231860399
1313,1.5596566286e+18,0.04484033585,-0.5090351105,0.7149049044
1314,1.55965662866e+18,0.2979209423,-0.5929098129,0.6767781973
1315,1.55965662872e+18,0.8713998795,0.00554561615,0.09017521143
1316,1.55965662877e+18,0.8036944866,0.2519779205,0.1800885797
1317,1.55965662883e+18,0.7957069874,0.422542572,0.04968351126
1318,1.55965662889e+18,1.714072943,0.09119224548,0.3852512836
1319,1.55965662895e+18,1.585057259,0.4284305573,0.3654184937
1320,1.559656629e+18,1.360899448,0.2394189835,0.5527704358
1321,1.55965662906e+18,0.8874387741,0.05358982086,-0.2279238105
1322,1.55965662911e+18,0.4486637115,-0.1832151413,0.03385674953
1323,1.55965662917e+18,0.7217614651,0.1245632172,0.4075025916
1324,1.55965662923e+18,0.1441509724,-0.3000574112,-0.1605224013
1325,1.55965662929e+18,-0.1990549564,-0.2819824219,0.05249661207
1326,1.55965662934e+18,-0.4842936993,0.2878341675,0.31739223
1327,1.5596566294e+18,-0.4176192284,-0.3336868286,0.1793090105
1328,1.55965662946e+18,-0.5198435783,-0.2585296631,0.1033599377
1329,1.55965662952e+18,-0.3639860153,-0.1552276611,-0.1047021151
1330,1.55965662958e+18,-0.08683586121,0.1191473007,-0.1157920361
1331,1.55965662964e+18,0.5631890297,-0.1970481873,0.2975852489
1332,1.55965662969e+18,0.8849973679,-0.3354501724,-0.1687629819
1333,1.55965662974e+18,1.424702644,-0.3557004929,0.2516925931
1334,1.55965662979e+18,1.219298363,0.1580276489,0.284165144
1335,1.55965662985e+18,0.7237548828,0.340089798,0.4785565138
1336,1.55965662991e+18,0.1761078835,0.1424980164,-0.5897578001
1337,1.55965662997e+18,0.8929634094,-0.09573078156,-0.1430401802
1338,1.55965663002e+18,0.5833859444,-0.03164720535,-0.4403734803
1339,1.55965663008e+18,1.375108719,0.06029033661,-0.3098304868
1340,1.55965663013e+18,2.133782387,0.424454689,0.6625603437
1341,1.55965663019e+18,3.088105202,0.5052127838,0.9200944901
1342,1.55965663024e+18,3.582531452,0.2627911568,0.1001720428
1343,1.5596566303e+18,3.461162567,0.1744570732,0.2451207638
1344,1.55965663036e+18,4.136701584,-0.9694709778,0.4367682934
1345,1.55965663041e+18,3.47886467,-0.9789206982,0.4486954212
1346,1.55965663047e+18,3.304475784,-2.124229431,-0.6443428993
1347,1.55965663052e+18,-0.1251010895,-1.866334081,-1.320189476
1348,1.55965663058e+18,-4.165689945,-4.673100471,-0.2124601603
1349,1.55965663064e+18,-7.329256535,-4.800526619,-2.282272339
1350,1.5596566307e+18,-0.09971904755,-6.231710434,-1.113687038
1351,1.55965663076e+18,-2.649333954,-3.41648078,-0.6703196764
1352,1.55965663082e+18,-18.97190475,-13.03750038,8.364323616
1353,1.55965663088e+18,-1.128168106,4.268640995,5.606753349
1354,1.55965663093e+18,-4.361340046,0.415766269,-4.059427261
1355,1.55965663099e+18,-3.5696311,-0.4706728458,-3.053227901
1356,1.55965663104e+18,2.817092896,4.590598106,-5.133977413
1357,1.5596566311e+18,7.537276268,7.155584335,-6.411295891
1358,1.55965663116e+18,15.6032486,7.395017624,-1.941178083
1359,1.55965663122e+18,12.85292339,6.059095383,-1.126637101
1360,1.55965663127e+18,8.46574688,3.497617483,-1.841283321
1361,1.55965663133e+18,0.1682395935,0.9337794781,-6.285522938
1362,1.55965663138e+18,-0.7633132935,-1.557394505,-5.813271046
1363,1.55965663144e+18,-2.207975626,-2.889101744,-7.854866505
1364,1.55965663149e+18,-2.683665276,-1.287073731,-7.117820263
1365,1.55965663155e+18,-1.226789236,-2.416148663,-8.052014351
1366,1.55965663161e+18,-0.5672072172,-0.2574763298,-8.294303894
1367,1.55965663167e+18,-4.022173882,6.433560371,0.4667854309
1368,1.55965663173e+18,-17.56268311,9.38168335,8.393719673
1369,1.55965663179e+18,-31.13931847,12.63390732,6.673478127
1370,1.55965663184e+18,-26.57842636,16.3649025,-17.31930542
1371,1.5596566319e+18,0.9337043762,-5.733283043,0.7797708511
1372,1.55965663196e+18,48.24014282,-80.88447571,-12.69410133
1373,1.55965663202e+18,2.042938232,-14.80354691,-37.5694046
1374,1.55965663208e+18,13.7268343,0.87388587,-9.442426682
1375,1.55965663214e+18,7.167261124,1.491914749,-9.91169548
1376,1.55965663219e+18,5.145033836,1.247081757,-2.342127323
1377,1.55965663224e+18,5.001264095,1.697227001,-3.937236786
1378,1.55965663229e+18,6.175534248,-0.6903657913,-4.017183304
1379,1.55965663235e+18,7.210195541,-1.203052044,-3.820833206
1380,1.55965663241e+18,5.363030434,-10.4275198,-0.5884766579
1381,1.55965663247e+18,8.128373146,-18.24711609,4.287824631
1382,1.55965663252e+18,13.18578339,-20.44922638,1.19373703
1383,1.55965663258e+18,24.163908,-12.93420887,6.739942074
1384,1.55965663263e+18,19.80778503,-3.196665764,4.487100601
1385,1.55965663269e+18,16.01328278,0.7554864883,4.322439194
1386,1.55965663274e+18,12.16914177,-0.3940267563,1.574463129
1387,1.5596566328e+18,9.351212502,0.3284673691,-0.2177276611
1388,1.55965663286e+18,6.133067131,-1.586868286,-1.99484849
1389,1.55965663292e+18,3.263407707,-2.52495575,-2.252385855
1390,1.55965663298e+18,1.434118629,-2.501728058,-2.91431284
1391,1.55965663304e+18,-0.4202952385,-1.776909828,-3.381046534
1392,1.55965663309e+18,-1.429894924,-1.27259779,-3.586183548
1393,1.55965663315e+18,-1.121819258,0.1562614441,-3.108882427
1394,1.55965663321e+18,-1.328889847,0.5708451271,-2.364478111
1395,1.55965663327e+18,-1.334250689,1.195016384,-1.438506126
1396,1.55965663333e+18,0.1269710064,0.4229679108,-0.4118306637
1397,1.55965663338e+18,1.088190079,-0.1199588776,0.521812439
1398,1.55965663343e+18,2.639584064,-0.6453971863,0.9520568848
1399,1.55965663349e+18,3.791613102,-0.6956167221,1.033965826
1400,1.55965663354e+18,4.557054996,-0.4209051132,0.7197649479
1401,1.5596566336e+18,4.606668472,-0.006864547729,0.2549548149
1402,1.55965663366e+18,3.984751225,0.3359613419,0.005508303642
1403,1.55965663372e+18,2.964569569,0.8424892426,-0.4182801247
1404,1.55965663377e+18,2.1849823,0.5507450104,-0.4002153873
1405,1.55965663383e+18,1.21913743,0.07054805756,-0.830589056
1406,1.55965663389e+18,0.6622047424,-0.3108301163,-1.000237465
1407,1.55965663395e+18,-0.175491333,-0.5160837173,-1.064555407
1408,1.559656634e+18,-0.5683970451,-0.494597435,-0.82198596
1409,1.55965663406e+18,-0.942081213,-0.2737941742,-0.816399157
1410,1.55965663411e+18,-1.085333824,-0.2742967606,-0.3712177277
1411,1.55965663417e+18,-0.9252810478,0.08809661865,-0.5772382021
1412,1.55965663423e+18,-0.1408472061,-0.07238292694,-0.4333273172
1413,1.55965663429e+18,0.2477259636,-0.3602046967,0.1864266396
1414,1.55965663434e+18,0.4276657104,-0.1971149445,0.2919284105
1415,1.5596566344e+18,0.2987544537,-0.1650943756,0.8143817186
1416,1.55965663446e+18,0.219132185,0.04712486267,0.4259097576
1417,1.55965663452e+18,0.5003466606,0.0705537796,0.5926699638
1418,1.55965663458e+18,0.5754358768,-0.008390426636,0.3741695881
1419,1.55965663464e+18,0.5280334949,0.2187385559,0.1945674419
1420,1.55965663469e+18,0.6322467327,0.08823776245,0.02150666714
1421,1.55965663474e+18,0.7128093243,0.1101808548,-0.1487077475
1422,1.55965663479e+18,0.6077485085,0.1780395508,-0.3151584864
1423,1.55965663485e+18,0.8505961895,0.126994133,-0.2580951452
1424,1.55965663491e+18,1.32578063,0.326294899,-0.04161500931
1425,1.55965663497e+18,1.997356415,-0.1220674515,0.8207017183
1426,1.55965663502e+18,1.208547592,-0.325709343,0.3216284513
1427,1.55965663508e+18,0.433447361,-0.395983696,0.05584335327
1428,1.55965663513e+18,-0.0593829155,-0.3972096443,-0.2096292973
1429,1.55965663519e+18,0.07324028015,-0.2530574799,-0.3171060085
1430,1.55965663524e+18,0.5086579323,-0.4079756737,-1.103217602
1431,1.5596566353e+18,0.3557877541,-1.156185627,-0.2124950886
1432,1.55965663535e+18,-0.4561319351,-0.6309041977,0.4062519073
1433,1.55965663541e+18,1.290397167,0.2424244881,2.545285702
1434,1.55965663546e+18,4.141532421,-0.2933807373,4.443703651
1435,1.55965663551e+18,3.070658207,0.4071516991,3.612313747
1436,1.55965663557e+18,2.66601944,-0.4259552956,1.94733429
1437,1.55965663563e+18,1.402720451,-0.1445696354,-0.4469447136
1438,1.55965663569e+18,0.1503362656,-0.7096632719,-2.210046291
1439,1.55965663575e+18,-2.563252449,-0.6473161578,-3.702757597
1440,1.55965663581e+18,-4.927568436,-2.065216064,-2.988596916
1441,1.55965663587e+18,-1.790042877,-5.382552147,-5.489131927
1442,1.55965663592e+18,3.044027328,-8.109518051,-4.792145729
1443,1.55965663598e+18,-0.8985738754,6.969133854,-10.01235104
1444,1.55965663603e+18,-0.0005655288696,-0.7068889141,4.874603748
1445,1.55965663609e+18,-6.463354111,1.055184364,0.2495170236
1446,1.55965663614e+18,-0.2627038956,1.719510078,0.2823201418
1447,1.5596566362e+18,9.051523209,4.242803097,-2.856983662
1448,1.55965663626e+18,21.86976433,8.379530907,-1.696697831
1449,1.55965663632e+18,15.60797215,7.387617588,2.420353651
1450,1.55965663637e+18,7.916200638,2.40410471,-2.522126675
1451,1.55965663643e+18,1.057757378,0.1561596394,-3.952233076
1452,1.55965663649e+18,-1.741021156,-2.975643396,-5.794293404
1453,1.55965663655e+18,-3.92609477,-3.724242926,-7.544795513
1454,1.55965663661e+18,-2.877727985,-3.995182753,-8.315283775
1455,1.55965663667e+18,-1.65270865,-3.470029354,-9.993281364
1456,1.55965663673e+18,-2.250737667,-1.505301952,-5.842152596
1457,1.55965663679e+18,-7.280841827,6.478787899,3.5032444
1458,1.55965663684e+18,-15.16856384,9.31714344,9.962852478
1459,1.5596566369e+18,-23.8900032,14.52488041,8.918480873
1460,1.55965663696e+18,-30.06275177,8.262371063,-12.42085552
1461,1.55965663702e+18,2.514876604,-5.820144653,8.521125793
1462,1.55965663708e+18,38.90559387,-77.76777649,0.763299942
1463,1.55965663714e+18,6.798015118,-21.80825424,-26.63870239
1464,1.55965663719e+18,10.24812412,2.716048717,-10.5989666
1465,1.55965663724e+18,7.570529938,1.795512438,-10.36946869
1466,1.55965663729e+18,7.305743217,2.997408867,-1.439464927
1467,1.55965663735e+18,5.305116653,0.7470855117,-1.146048427
1468,1.55965663741e+18,2.794342995,2.81008935,0.4166562557
1469,1.55965663747e+18,2.108560085,4.204210281,0.8594436646
1470,1.55965663752e+18,2.101738453,3.149431229,1.87802124
1471,1.55965663758e+18,4.302997589,1.321704984,3.704533577
1472,1.55965663763e+18,3.960512638,-4.612402916,2.622115135
1473,1.55965663769e+18,4.186746597,-2.392212391,3.538640976
1474,1.55965663774e+18,1.376996279,-2.554419041,4.14262867
1475,1.5596566378e+18,5.699532032,-3.774832249,-1.650028229
1476,1.55965663786e+18,15.88762856,-4.670372963,0.9042959213
1477,1.55965663792e+18,7.25610733,-3.200464249,1.262694597
1478,1.55965663798e+18,7.802028656,-0.5139436722,-2.679764271
1479,1.55965663803e+18,5.552834511,-0.3609571457,-2.828537941
1480,1.55965663809e+18,4.935601234,0.5686206818,-1.936260223
1481,1.55965663815e+18,2.553687096,0.1991434097,-1.773819804
1482,1.5596566382e+18,1.03463912,-0.8352270126,-2.321007013
1483,1.55965663826e+18,-0.574244976,-0.6819858551,-2.061863899
1484,1.55965663832e+18,-0.899844408,-1.284538269,-1.178325176
1485,1.55965663838e+18,-2.006970644,-0.3618240356,-1.498908877
1486,1.55965663843e+18,-1.661454439,-0.2332687378,-0.8014911413
1487,1.55965663849e+18,-0.6657903194,0.5533227921,-0.2222062349
1488,1.55965663854e+18,0.9103124142,-0.01892662048,-0.1990611553
1489,1.5596566386e+18,1.171288729,-0.3067941666,-0.5852744579
1490,1.55965663866e+18,1.066482067,-0.2265748978,-0.8525136113
1491,1.55965663872e+18,0.9971356392,-0.1579437256,1.328506827
1492,1.55965663877e+18,1.195879936,0.338104248,-0.07870447636
1493,1.55965663883e+18,1.11036253,0.4846591949,-0.4191461802
1494,1.55965663888e+18,1.497720003,0.1964883804,-0.1047569513
1495,1.55965663894e+18,0.6969459057,-0.207865715,-0.1213501692
1496,1.55965663899e+18,0.2805957794,-0.1747512817,-0.1090182066
1497,1.55965663905e+18,-0.2077388763,-0.03702545166,-0.6206917167
1498,1.55965663911e+18,0.04412007332,0.07707691193,-0.5247546434
1499,1.55965663917e+18,0.8215610981,0.09272193909,0.4752826691
1500,1.55965663923e+18,1.248397112,-0.1460590363,0.1723945141
1501,1.55965663928e+18,0.356975317,0.01622772217,0.3051615953
1502,1.55965663934e+18,0.8893079758,0.2003326416,0.098072052
1503,1.5596566394e+18,1.425586224,0.017121315,0.1194195747
1504,1.55965663946e+18,1.502133846,0.06495189667,0.1204884052
1505,1.55965663952e+18,0.1230425835,0.03059864044,-0.8772336245
1506,1.55965663958e+18,-0.2159523964,-0.3586454391,-1.402599573
1507,1.55965663964e+18,-0.07341766357,-0.08118534088,-1.482568383
1508,1.55965663969e+18,0.8586344719,-0.05459880829,-0.5517032146
1509,1.55965663974e+18,1.348316193,-0.02992725372,0.2118570805
1510,1.55965663979e+18,1.547597885,-0.1400127411,0.216684103
1511,1.55965663985e+18,0.7465581894,-0.2227697372,-0.1718103886
1512,1.55965663991e+18,0.2616424561,-0.268304348,-0.566576004
1513,1.55965663997e+18,-0.1576762199,-0.2932434082,-0.2467358112
1514,1.55965664002e+18,-1.056900501,-0.2875552177,0.4594659805
1515,1.55965664008e+18,-1.304152012,0.3031673431,1.924951077
1516,1.55965664013e+18,-0.3110070229,0.2150602341,1.637455463
1517,1.55965664019e+18,0.05654382706,0.7055640221,0.9062342644
1518,1.55965664024e+18,0.09021282196,0.599619627,1.536240101
1519,1.5596566403e+18,-0.0968914032,0.6753604412,1.089463711
1520,1.55965664036e+18,0.1649980545,0.4267714024,0.5432724953
1521,1.55965664042e+18,0.2935295105,0.1949253082,0.546681881
1522,1.55965664048e+18,0.7471942902,0.3212336302,1.10944891
1523,1.55965664054e+18,0.6740908623,1.000603199,0.578379631
1524,1.55965664059e+18,0.3230462074,1.052542329,0.107632637
1525,1.55965664065e+18,1.420796394,0.6428543329,1.647647858
1526,1.55965664071e+18,1.014137745,1.02599597,0.3356542587
1527,1.55965664077e+18,1.466440678,0.5394061804,0.2254209518
1528,1.55965664083e+18,0.5742359161,0.3827812672,-0.2059745789
1529,1.55965664089e+18,-1.092348576,0.006769657135,-2.39688158
1530,1.55965664094e+18,-2.621925592,-2.113761902,-2.976126432
1531,1.55965664099e+18,-5.726345539,-5.335528374,-4.149517059
1532,1.55965664104e+18,-6.201029301,-10.12608433,-10.28745556
1533,1.5596566411e+18,-1.875779629,-23.96331596,0.6950185299
1534,1.55965664116e+18,-6.123603344,5.54783392,-4.356225967
1535,1.55965664122e+18,-1.835717678,5.767942905,1.051592588
1536,1.55965664127e+18,2.367375374,-0.9410988092,3.55381012
1537,1.55965664133e+18,13.30971336,-3.02516675,2.482021809
1538,1.55965664138e+18,16.76671219,1.968677521,6.520976067
1539,1.55965664144e+18,10.27771854,2.880441904,6.623196602
1540,1.55965664149e+18,6.797179222,0.6287457943,2.211650133
1541,1.55965664155e+18,2.450082779,-3.104502201,-1.485388279
1542,1.55965664161e+18,-0.1509003639,-3.789627075,-4.125370979
1543,1.55965664167e+18,-3.634555817,-5.211802959,-5.206724644
1544,1.55965664173e+18,-2.607863903,-5.341394424,-6.714201927
1545,1.55965664179e+18,-1.040042043,-3.776902676,-8.147151947
1546,1.55965664184e+18,0.6321874857,-1.830835819,-7.652470589
1547,1.5596566419e+18,-3.731546164,1.239795685,-0.324505806
1548,1.55965664196e+18,-10.88901997,6.149661541,6.09428978
1549,1.55965664202e+18,-16.57291794,8.077869415,7.605063438
1550,1.55965664208e+18,-29.4369297,12.04371643,1.845036507
1551,1.55965664214e+18,-21.6102829,6.817359924,-13.16292095
1552,1.55965664219e+18,10.74890804,-16.12707329,7.731884003
1553,1.55965664224e+18,39.56893539,-55.26596832,16.08250618
1554,1.55965664229e+18,6.293126583,-6.523951054,-29.02786255
1555,1.55965664235e+18,3.873845339,-0.6544346809,-7.726179123
1556,1.55965664241e+18,-0.5901589394,6.040924072,-10.65056229
1557,1.55965664247e+18,0.268204689,2.041898966,-2.78810215
1558,1.55965664252e+18,4.885750771,-0.2963759899,0.5795607567
1559,1.55965664258e+18,3.56489563,-3.636182308,-0.5232448578
1560,1.55965664263e+18,3.712887287,-0.2452020645,-0.8730540276
1561,1.55965664269e+18,1.866942883,0.3486231565,-1.590138435
1562,1.55965664274e+18,0.814104557,1.840906858,-2.685267925
1563,1.5596566428e+18,-0.7653250694,5.474444389,0.3433914185
1564,1.55965664286e+18,0.5383443832,4.541481972,4.976459503
1565,1.55965664292e+18,0.3040607572,4.418958664,4.431672096
1566,1.55965664298e+18,2.3161726,2.522331715,5.660243988
1567,1.55965664304e+18,-1.387402773,2.141884089,1.793704987
1568,1.55965664309e+18,0.2259850502,1.827901602,0.7606058121
1569,1.55965664315e+18,1.035842896,1.143360615,-0.2653617859
1570,1.55965664321e+18,1.504290581,0.4234278202,-0.2045545578
1571,1.55965664327e+18,0.71241045,0.0939104557,-0.5470042229
1572,1.55965664333e+18,0.2640237808,-0.1173729897,-0.9025111198
1573,1.55965664339e+18,0.4523224831,-0.3768234253,-1.616884232
1574,1.55965664344e+18,0.8422598839,-0.7708115578,-1.408524513
1575,1.55965664349e+18,1.117650986,-0.8654578924,-1.232934475
1576,1.55965664354e+18,0.540043354,-0.850423336,-0.8316273689
1577,1.5596566436e+18,-0.5372934341,-0.5054138899,-1.782302856
1578,1.55965664366e+18,1.248181343,-0.5316611528,-0.6135544777
1579,1.55965664372e+18,0.4303507805,-0.2083461285,-0.3438997269
1580,1.55965664377e+18,1.447372437,-0.1821818948,-0.0439491272
1581,1.55965664383e+18,1.331088066,0.1706611812,0.142829895
1582,1.55965664388e+18,1.164363861,0.8716905117,0.04253005981
1583,1.55965664394e+18,0.6581134796,1.177305102,-0.224802494
1584,1.55965664399e+18,0.6257286072,1.228595257,-0.5369086266
1585,1.55965664405e+18,0.6215257645,1.031383395,-0.3824477196
1586,1.55965664411e+18,0.7393493652,0.7257965803,0.09335327148
1587,1.55965664417e+18,0.4356999397,0.2125398368,0.06466341019
1588,1.55965664423e+18,0.1457219124,0.1004316062,0.3683290482
1589,1.55965664429e+18,0.1637458801,-0.1801809222,0.4121260643
1590,1.55965664435e+18,0.04243135452,-0.4584621787,0.3155150414
1591,1.55965664441e+18,-0.3646802902,-0.4506017864,-0.493625164
1592,1.55965664447e+18,0.2962875366,-0.4736472964,-0.7453150749
1593,1.55965664453e+18,0.3926820755,-0.4311554134,-0.4320487976
1594,1.55965664458e+18,0.323261261,-0.2037678957,-0.4713640213
1595,1.55965664463e+18,0.2193288803,-0.1197391748,-0.1994204521
1596,1.55965664468e+18,-0.2055344582,-0.0833645761,-0.2302832603
1597,1.55965664474e+18,0.2332134247,-0.1668779403,-0.05504179001
1598,1.55965664479e+18,0.05375003815,-0.1488813907,0.008466243744
1599,1.55965664485e+18,0.241191864,-0.09964731336,-0.04667043686
1600,1.55965664491e+18,-0.01892757416,-0.08756822348,-0.09010648727
1601,1.55965664497e+18,0.02540969849,-0.1909384578,-0.009026527405
1602,1.55965664502e+18,-0.1230387688,-0.2100421041,-0.1425061226
1603,1.55965664508e+18,0.278222084,-0.2263291329,-0.06323385239
1604,1.55965664513e+18,0.04920578003,-0.1363618076,-0.2619009018
1605,1.55965664519e+18,-0.04104804993,-0.04880487919,0.001818656921
1606,1.55965664524e+18,-0.2975530624,0.136482954,-0.2063055038
1607,1.5596566453e+18,0.2551298141,0.2379770279,0.04158306122
1608,1.55965664536e+18,-0.007333755493,0.3120716512,-0.1555290222
1609,1.55965664542e+18,0.08323955536,0.1770503223,-0.2541642189
1610,1.55965664548e+18,-0.234837532,0.1061659157,-0.2141404152
1611,1.55965664553e+18,0.1560258865,0.02520164847,-0.1627616882
1612,1.55965664559e+18,0.3227939606,-0.06573337317,0.01037836075
1613,1.55965664565e+18,0.1803302765,-0.0866099894,0.3152399063
1614,1.55965664571e+18,-0.09442043304,0.06798511744,0.4647073746
1615,1.55965664577e+18,0.02625274658,0.1583585441,0.3894939423
1616,1.55965664583e+18,0.3056192398,0.1930594742,0.3109431267
1617,1.55965664589e+18,0.2122964859,0.1378108859,0.03825044632
1618,1.55965664594e+18,0.0311498642,0.08387234807,-0.1597008705
1619,1.55965664599e+18,0.0688829422,-0.003315538168,-0.1705346107
1620,1.55965664604e+18,0.06312274933,-0.06932282448,-0.3281402588
1621,1.5596566461e+18,0.1472787857,0.01887464523,-0.4430608749
1622,1.55965664616e+18,-0.007743835449,0.04957470298,-0.782886982
1623,1.55965664622e+18,0.5245075226,0.1068191826,-0.2336440086
1624,1.55965664627e+18,-0.2115030289,0.08919242024,-0.1620020866
1625,1.55965664633e+18,0.002419471741,0.03734152392,0.4384975433
1626,1.55965664639e+18,-0.1986179352,-0.06238843501,0.8743796349
1627,1.55965664645e+18,-0.2808923721,-0.2859953046,0.5012955666
1628,1.5596566465e+18,-0.06536960602,-0.2398902029,0.1322250366
1629,1.55965664656e+18,0.04699611664,-0.1497566998,-0.2861270905
1630,1.55965664661e+18,0.002723693848,-0.08446947485,-0.2483129501
1631,1.55965664667e+18,0.05766439438,0.005305849016,-0.1168684959
1632,1.55965664673e+18,-0.25593853,0.005779244006,0.09324741364
1633,1.55965664678e+18,-0.08780813217,0.02001599967,0.1270217896
1634,1.55965664684e+18,-0.4022021294,-0.1393804252,0.04224252701
1635,1.5596566469e+18,-1.158928871,-0.1585474014,-0.08338499069
1636,1.55965664696e+18,-2.054402351,-0.2868841887,-0.5842900276
1637,1.55965664702e+18,-0.7243757248,-0.6384243965,-0.8092198372
1638,1.55965664708e+18,-1.118010521,-0.4514644146,-0.7945065498
1639,1.55965664713e+18,-1.522312164,-0.2287657261,-1.638520241
1640,1.55965664718e+18,-0.695078373,0.3037834167,-0.894464016
1641,1.55965664724e+18,0.6152849197,-0.8664603233,0.5608320236
1642,1.55965664729e+18,-0.07702207565,-0.1466364861,-1.228980303
1643,1.55965664735e+18,-0.1632056236,-2.401599884,0.02860069275
1644,1.55965664741e+18,1.690387726,-2.108765125,-1.232951522
1645,1.55965664747e+18,4.384656429,-1.261478424,0.1903269291
1646,1.55965664752e+18,1.707845211,-0.6230640411,0.3761180639
1647,1.55965664758e+18,1.387424946,-0.510676384,-0.5779163837
1648,1.55965664763e+18,1.164050579,-0.2148990631,-0.03922712803
1649,1.55965664769e+18,-0.3656253815,-0.02335739136,-0.03465616703
1650,1.55965664774e+18,-0.5506906509,-0.4384326935,0.6889772415
1651,1.5596566478e+18,-0.513818264,-0.3516521454,-0.2121908665
1652,1.55965664786e+18,-0.06829929352,-0.3523788452,-0.2394573689
1653,1.55965664792e+18,-0.2729415894,0.1207323074,-0.03762245178
1654,1.55965664798e+18,-0.02967405319,-0.1157741547,0.3085132837
1655,1.55965664804e+18,0.02509593964,-0.3531522751,0.2197149992
1656,1.55965664809e+18,0.5138545036,-0.5755147934,-0.209839344
1657,1.55965664815e+18,-0.3015065193,0.3293848038,-0.1976903677
1658,1.55965664821e+18,-0.3779518604,-0.07791519165,0.1425117254
1659,1.55965664827e+18,-0.2091860771,-0.5253639221,0.04465186596
1660,1.55965664833e+18,0.07447004318,-0.2122220993,-0.4131323695
1661,1.55965664838e+18,-0.07895803452,-0.6271810532,-0.4020957947
1662,1.55965664843e+18,-0.8231430054,-0.1696796417,0.2746914625
1663,1.55965664849e+18,-0.8148725033,-0.1861810684,-0.3391541243
1664,1.55965664854e+18,-0.5141658783,-0.1888303757,-0.6427522302
1665,1.5596566486e+18,-0.851754427,-0.2792291641,-0.6011475325
1666,1.55965664866e+18,-0.8547291756,-0.4940128326,-0.2848466635
1667,1.55965664872e+18,0.5821471214,0.2054376602,0.315692544
1668,1.55965664877e+18,0.6260180473,0.443780899,0.1540719271
1669,1.55965664883e+18,0.9031004906,-0.2095804214,-0.1966539025
1670,1.55965664888e+18,0.7642512321,-0.5599508286,0.1351885796
1671,1.55965664894e+18,0.232105732,0.04688549042,0.653138876
1672,1.55965664899e+18,-0.3404383659,0.153550148,-0.08577668667
1673,1.55965664905e+18,-0.4908399582,-0.2542943954,-0.02839159966
1674,1.55965664911e+18,-0.1832003593,-0.360411644,-0.2717089653
1675,1.55965664917e+18,0.01058459282,-0.2964286804,0.04748678207
1676,1.55965664923e+18,0.04330921173,-0.3178167343,0.2260150909
1677,1.55965664928e+18,0.2544748783,0.02585220337,0.5818490982
1678,1.55965664934e+18,0.7560811043,0.06487560272,0.561414957
1679,1.5596566494e+18,0.07052755356,-0.1748037338,-0.05377960205
1680,1.55965664946e+18,0.05317020416,-0.272482872,-0.3192003965
1681,1.55965664952e+18,-0.2937488556,-0.1555643082,-0.4187772274
1682,1.55965664958e+18,-0.4152326584,-0.2344617844,-0.3268157244
1683,1.55965664963e+18,-0.06644678116,-0.2177438736,0.1076323986
1684,1.55965664968e+18,0.656109333,-0.02056217194,0.719450593
1685,1.55965664974e+18,1.193298817,0.08360004425,1.757399082
1686,1.55965664979e+18,1.678015232,-0.3053665161,1.971191645
1687,1.55965664985e+18,0.771458149,-0.4849386215,1.111294031
1688,1.55965664991e+18,0.8716807365,-0.8100528717,0.3829123974
1689,1.55965664997e+18,0.08065414429,-0.9750857353,-1.051588535
1690,1.55965665002e+18,-0.5610480309,-1.023087502,-1.217391253
1691,1.55965665008e+18,-0.7211847305,-0.2548856735,-1.2522614
1692,1.55965665013e+18,-0.5401287079,-0.2648711205,-0.5770318508
1693,1.55965665019e+18,-0.180949688,0.1969451904,0.4200825691
1694,1.55965665024e+18,0.2029714584,0.1705107689,0.8005628586
1695,1.5596566503e+18,0.4884338379,0.08939313889,0.6362891197
1696,1.55965665036e+18,0.9678368568,0.2131938934,1.394499063
1697,1.55965665042e+18,1.332817078,0.2720422745,1.203353882
1698,1.55965665048e+18,1.424039841,0.4645781517,0.718611002
1699,1.55965665054e+18,1.731912613,0.7697628736,0.9131875038
1700,1.55965665059e+18,1.366888046,0.5381040573,0.7384314537
1701,1.55965665065e+18,0.2710428238,0.387511462,-0.3617916107
1702,1.55965665071e+18,0.5576114655,-0.01833428442,-0.6021237373
1703,1.55965665077e+18,-1.571993351,-0.6648317575,-2.537757635
1704,1.55965665083e+18,-3.253723145,-0.4198787212,-3.086628437
1705,1.55965665089e+18,-2.510632992,-1.822780371,-3.849622488
1706,1.55965665094e+18,-0.8569326401,-4.273358345,-4.827634335
1707,1.559656651e+18,0.2532157898,-2.133712769,-5.518929005
1708,1.55965665105e+18,2.020515442,2.48971653,-0.1719628572
1709,1.55965665111e+18,-6.597747803,1.979283333,-0.7341398001
1710,1.55965665117e+18,-0.9959096909,3.53665185,3.814582109
1711,1.55965665123e+18,1.146697998,2.206635237,2.002450705
1712,1.55965665128e+18,0.5154857635,1.10302639,1.109358072
1713,1.55965665134e+18,-1.166294098,-0.1641229391,-1.674748659
1714,1.55965665139e+18,-3.091769218,-1.026038408,-2.166083336
1715,1.55965665145e+18,0.2880506516,-1.830796242,0.1096460819
1716,1.5596566515e+18,1.565182686,-0.8552997112,1.893887043
1717,1.55965665156e+18,5.426328659,-1.196616173,3.5987432
1718,1.55965665161e+18,10.254632,0.3267240524,3.081305027
1719,1.55965665167e+18,9.619101524,-0.848991394,3.173525572
1720,1.55965665173e+18,6.683059692,-3.092000723,1.271498084
1721,1.55965665179e+18,3.189494133,-5.547471523,-1.278588295
1722,1.55965665184e+18,0.4450454712,-6.575541496,-3.129761696
1723,1.5596566519e+18,-2.623426437,-5.485484123,-5.729552269
1724,1.55965665196e+18,-2.932137489,-5.887690067,-8.913915634
1725,1.55965665202e+18,-3.280942917,-4.789554596,-6.930893898
1726,1.55965665208e+18,-1.072639108,-2.091966152,-2.105743408
1727,1.55965665214e+18,-4.192430496,3.959291458,2.391692162
1728,1.55965665219e+18,-9.776752472,7.47948885,8.165225983
1729,1.55965665224e+18,-18.93523598,8.539375305,11.33839893
1730,1.55965665229e+18,-25.34694099,10.62312126,4.196626186
1731,1.55965665235e+18,-27.5043354,-0.4735107422,-7.765034676
1732,1.55965665241e+18,11.52682304,-18.33149719,12.06503296
1733,1.55965665247e+18,63.64717102,-24.60214615,4.142916679
1734,1.55965665252e+18,-25.13039207,-25.56054878,-22.93296432
1735,1.55965665258e+18,17.19895172,0.2848091125,-4.863557816
1736,1.55965665264e+18,4.158084869,2.707034588,-8.938494682
1737,1.5596566527e+18,3.526099682,-0.769762516,-3.503446579
1738,1.55965665275e+18,4.750661373,2.988010645,1.635797381
1739,1.55965665281e+18,3.063978195,0.3284723759,1.325153589
1740,1.55965665286e+18,1.996441841,-1.709694147,1.649223328
1741,1.55965665292e+18,0.1308765411,1.000487089,-0.2272262573
1742,1.55965665298e+18,1.241099358,0.8359430432,3.239913464
1743,1.55965665304e+18,3.574064016,-2.660242796,6.338674545
1744,1.55965665309e+18,1.306738496,-2.376140118,5.916215897
1745,1.55965665315e+18,3.181143284,-1.505119443,5.581932068
1746,1.55965665321e+18,3.018960953,0.7511352301,2.912973404
1747,1.55965665327e+18,0.5142655373,0.1573439837,0.149892807
1748,1.55965665333e+18,1.675338268,0.3328205347,-0.3238372803
1749,1.55965665339e+18,1.775313377,-0.4121434689,-0.123456955
1750,1.55965665344e+18,1.621490002,-0.7430901527,-1.00535965
1751,1.55965665349e+18,1.123741627,-1.181362152,-0.6666545868
1752,1.55965665354e+18,0.3605041504,-0.864082098,-1.565293312
1753,1.5596566536e+18,0.9391584396,-1.313684464,-0.9550757408
1754,1.55965665366e+18,-0.4535655975,-0.7429945469,-1.681191444
1755,1.55965665372e+18,-0.5251893997,-0.6347198486,-2.188778877
1756,1.55965665377e+18,-2.092288971,-0.5035939217,-2.108514309
1757,1.55965665383e+18,0.06977701187,-1.869309902,-1.100087166
1758,1.55965665389e+18,0.2927823067,-1.4262743,-1.429141045
1759,1.55965665395e+18,1.114767551,-1.584496021,-1.139269352
1760,1.559656654e+18,1.288515091,-1.697857857,-1.443470955
1761,1.55965665406e+18,1.982129335,-2.306271553,-0.5158729553
1762,1.55965665411e+18,2.790541649,-1.128755569,-0.551787138
1763,1.55965665417e+18,0.7499201298,-0.4714403152,-0.469755888
1764,1.55965665423e+18,0.5400676727,0.07738399506,0.06763648987
1765,1.55965665429e+18,-0.2437460423,0.05648136139,0.1275423765
1766,1.55965665434e+18,-0.641875267,-0.4874706268,0.3115273714
1767,1.5596566544e+18,-1.137278557,-0.6056432724,-0.2848705053
1768,1.55965665446e+18,-1.215284586,-0.430850029,-0.6854516268
1769,1.55965665452e+18,-1.009310246,-0.3077535629,-0.5354754925
1770,1.55965665457e+18,-0.8296682835,-0.5039949417,-0.4164870977
1771,1.55965665463e+18,-0.9686527252,-0.3387145996,-0.859582901
1772,1.55965665468e+18,-0.8327901363,-0.4535684586,-0.6609719992
1773,1.55965665474e+18,-0.3534214497,-0.2280273438,-0.7095664144
1774,1.55965665479e+18,-0.4048001766,-0.117401123,-0.565297246
1775,1.55965665485e+18,-0.1691253185,-0.1505947113,-0.1156949997
1776,1.55965665491e+18,0.3585720062,-0.263133049,0.1664654016
1777,1.55965665497e+18,-0.008615493774,-0.08014202118,0.6743896008
1778,1.55965665502e+18,0.4914617538,-0.2008838654,0.8041051626
1779,1.55965665508e+18,0.3436481953,-0.3039064407,-0.1006189585
1780,1.55965665513e+18,-0.1800236702,-0.1406869888,-0.4574935436
1781,1.55965665519e+18,0.03868055344,-0.1430597305,-0.4360930324
1782,1.55965665524e+18,0.1924705505,-0.01944828033,-0.23042202
1783,1.5596566553e+18,0.07305622101,0.01601028442,-0.07969939709
1784,1.55965665536e+18,-0.5825667381,0.05825996399,-0.2181615829
1785,1.55965665542e+18,-0.151599884,-0.1545715332,0.3186336756
1786,1.55965665548e+18,-0.02250742912,-0.1900434494,0.1325278282
1787,1.55965665554e+18,0.08185267448,0.008269309998,-0.1380753517
1788,1.55965665559e+18,0.1406691074,0.3408813477,-0.2137955427
1789,1.55965665565e+18,0.3223290443,0.1735916138,-0.1232807636
1790,1.55965665571e+18,0.675927639,-0.3346672058,0.4445561171
1791,1.55965665577e+18,0.1017529964,-0.2148857117,0.4689576626
1792,1.55965665583e+18,-0.5356626511,-0.1538267136,-0.4323490858
1793,1.55965665589e+18,-0.4497733116,-0.08817958832,-0.3850194216
1794,1.55965665594e+18,-0.4482388496,-0.3304567337,0.03056895733
1795,1.55965665599e+18,-0.8354837894,-0.201333046,-0.123955369
1796,1.55965665604e+18,-0.3007054329,-0.4449834824,0.2975344658
1797,1.5596566561e+18,0.04567527771,-0.04032421112,0.2269767523
1798,1.55965665616e+18,-0.1137826443,0.01494979858,-0.166228652
1799,1.55965665622e+18,0.591520071,-0.08705615997,0.1386021376
1800,1.55965665627e+18,0.2637600899,-0.0666217804,0.0002467632294
1801,1.55965665633e+18,-0.1253795624,-0.2104110718,0.09025037289
1802,1.55965665638e+18,-0.1032538414,-0.2779598236,-0.1022484303
1803,1.55965665644e+18,-0.1296823025,-0.2232666016,-0.003138780594
1804,1.55965665649e+18,-0.1379141808,0.05055332184,-0.09581780434
1805,1.55965665655e+18,-0.3302221298,0.1517829895,-0.3781652451
1806,1.55965665661e+18,0.1449623108,0.0568151474,-0.3652174473
1807,1.55965665667e+18,0.3292863369,-0.02525806427,-0.04862308502
1808,1.55965665673e+18,0.2283613682,-0.0734128952,0.3684715033
1809,1.55965665679e+18,0.1053726673,-0.1917486191,0.578415513
1810,1.55965665684e+18,-0.1772794724,-0.1384553909,-0.0642529726
1811,1.5596566569e+18,0.006509780884,-0.03670501709,-0.2861660719
1812,1.55965665696e+18,-0.1505353451,-0.1044960022,-0.1277675629
1813,1.55965665702e+18,-0.02075839043,-0.1580114365,0.3694657087
1814,1.55965665708e+18,-0.03299736977,0.02627277374,0.3183165789
1815,1.55965665714e+18,0.1897025108,0.2521705627,0.052942276
1816,1.55965665719e+18,0.2949438095,0.7036352158,-0.099655509
1817,1.55965665724e+18,0.5140476227,0.09628391266,-0.03956711292
1818,1.55965665729e+18,0.5965070724,-0.1378965378,-0.01072132587
1819,1.55965665735e+18,0.4599843025,-0.4666604996,0.305547595
1820,1.55965665741e+18,0.7920465469,-0.2126598358,0.6577070951
1821,1.55965665747e+18,0.5398054123,-0.04887580872,0.2718567848
1822,1.55965665752e+18,0.4693841934,-0.008323669434,0.185333848
1823,1.55965665758e+18,-0.09468626976,-0.02959537506,-0.5894424319
1824,1.55965665763e+18,-0.309078455,-0.1422615051,-0.8394238353
1825,1.55965665769e+18,-0.4292831421,-0.5157623291,-0.9896510243
1826,1.55965665774e+18,-1.136517525,-0.4736452103,-0.9464543462
1827,1.55965665779e+18,-0.6384751797,-0.337521553,-0.880693078
1828,1.55965665785e+18,-1.012730598,-0.07603263855,-0.6464923024
1829,1.55965665791e+18,-1.038329601,-0.0971364975,-0.2151833773
1830,1.55965665797e+18,-0.7548186779,0.2401657104,0.263111949
1831,1.55965665802e+18,-0.06086349487,-0.2222757339,0.7796998024
1832,1.55965665808e+18,0.2824406624,-0.5822324753,0.614315629
1833,1.55965665814e+18,0.3404507637,-0.477771759,0.1300801039
1834,1.5596566582e+18,-0.01474475861,0.6477947235,-0.4182817936
1835,1.55965665826e+18,-0.02356505394,0.06017398834,-0.4133272171
1836,1.55965665832e+18,-0.5048630238,-0.05937767029,-1.188185334
1837,1.55965665837e+18,-0.05411124229,-0.3630313873,-0.403270781
1838,1.55965665842e+18,-0.006498575211,-0.4027471542,0.4476737976
1839,1.55965665848e+18,-0.6349821091,0.3221216202,-0.1070001125
1840,1.55965665853e+18,0.4540586472,-0.03375434875,0.7964503765
1841,1.55965665859e+18,1.273814678,-0.5880041122,1.228855968
1842,1.55965665865e+18,1.321916342,0.5089092255,-0.1903361678
1843,1.55965665871e+18,0.7861230373,0.3967561722,-0.4696208835
1844,1.55965665876e+18,0.9577326775,-0.1302747726,0.197031498
1845,1.55965665882e+18,0.8450527191,0.1297559738,0.9737737179
1846,1.55965665887e+18,0.8305613995,0.2771282196,0.64729321
1847,1.55965665893e+18,0.4325654507,0.2200269699,-0.2666330338
1848,1.55965665898e+18,0.4136033058,0.4927082062,-0.4116632938
1849,1.55965665904e+18,0.02092003822,-0.2416830063,-0.365172863
1850,1.5596566591e+18,-0.5857591629,0.2197532654,-0.8524643779
1851,1.55965665916e+18,-0.3335912228,-0.4809474945,-0.02254271507
1852,1.55965665922e+18,-0.5156993866,-0.01383686066,-0.2084807158
1853,1.55965665927e+18,-0.5120186806,-0.2010374069,0.1309366226
1854,1.55965665933e+18,-0.3676240444,-0.4082717896,0.06319224834
1855,1.55965665939e+18,0.01370573044,-0.1556053162,0.3758573532
1856,1.55965665945e+18,0.3090076447,-0.3398723602,0.3675662279
1857,1.55965665951e+18,0.003702878952,-0.3249235153,-0.1685795784
1858,1.55965665957e+18,-0.107104063,0.3868494034,-0.5255852342
1859,1.55965665962e+18,0.4965560436,-0.1564569473,0.01322484016
1860,1.55965665968e+18,0.4816718102,0.02676010132,-0.13258183
1861,1.55965665974e+18,0.6214299202,0.02854156494,-0.06033074856
1862,1.55965665979e+18,0.4307458401,-0.007591247559,0.05360627174
1863,1.55965665985e+18,0.4756629467,0.01776790619,0.04314363003
1864,1.55965665991e+18,0.03068780899,-0.1000490189,-0.4658212662
1865,1.55965665997e+18,0.1089520454,-0.1730051041,0.04888796806
1866,1.55965666002e+18,-0.0875043869,-0.06465530396,-0.1290540695
1867,1.55965666008e+18,-0.02546954155,0.01133537292,-0.008388519287
1868,1.55965666013e+18,-0.3706514835,-0.1517124176,-0.07361853123
1869,1.55965666019e+18,0.03561615944,-0.09231185913,0.5684182644
1870,1.55965666024e+18,0.1595671177,-0.1764640808,0.6390058994
1871,1.5596566603e+18,0.2569112778,-0.1050224304,0.09390163422
1872,1.55965666036e+18,0.05560994148,0.08558750153,-0.4324326515
1873,1.55965666042e+18,0.1803631783,0.1008939743,-0.4046503305
1874,1.55965666048e+18,0.5569913387,0.0102853775,0.2972803116
1875,1.55965666053e+18,0.6390669346,0.1003494263,0.2126066685
1876,1.55965666059e+18,0.4214994907,0.0991563797,0.1488951445
1877,1.55965666065e+18,0.945029974,0.3383083344,1.055257201
1878,1.55965666071e+18,0.1044716835,-0.1978359222,-0.03560209274
1879,1.55965666077e+18,0.9192931652,-0.3077583313,0.7475938797
1880,1.55965666083e+18,0.2405843735,-0.1860389709,0.05046033859
1881,1.55965666088e+18,-0.2022109032,-0.255490303,-0.6914371252
1882,1.55965666093e+18,-1.005332708,-0.08854389191,-1.481040478
1883,1.55965666099e+18,-0.6006872654,0.2523021698,-1.020159364
1884,1.55965666104e+18,-0.5544624329,0.1398000717,-0.3318910599
1885,1.5596566611e+18,0.2158894539,-0.4036226273,0.559720993
1886,1.55965666116e+18,-0.1100859642,-0.2203636169,0.3536491394
1887,1.55965666122e+18,-0.2861218452,-0.02892208099,0.3772799969
1888,1.55965666127e+18,-0.1515479088,0.1587438583,0.21978724
1889,1.55965666133e+18,0.4064950943,0.2153425217,0.8124008179
1890,1.55965666138e+18,1.030045986,0.190246582,0.8258430958
1891,1.55965666144e+18,0.7268633842,-0.06795787811,0.4413690567
1892,1.55965666149e+18,1.093854427,0.1853876114,0.1660584211
1893,1.55965666155e+18,0.8819766045,0.1592736244,-0.1531437635
1894,1.55965666161e+18,0.9845476151,-0.06239843369,0.9497596025
1895,1.55965666167e+18,1.4336586,0.02126073837,1.26442492
1896,1.55965666173e+18,1.791009903,0.1300497055,1.096260548
1897,1.55965666179e+18,1.412652016,0.001706600189,0.372594595
1898,1.55965666184e+18,1.872600079,-0.229370594,0.7223052979
1899,1.5596566619e+18,2.670293808,-0.5595364571,1.278323412
1900,1.55965666196e+18,2.701809883,-0.6986999512,0.4263613224
1901,1.55965666202e+18,2.447842598,-0.866191864,0.6958844662
1902,1.55965666208e+18,2.832317352,-2.1892097,-0.7182891369
1903,1.55965666214e+18,1.422605515,-2.55778861,-1.535243869
1904,1.55965666219e+18,-5.390318871,-6.34589386,-3.506832123
1905,1.55965666224e+18,-2.234284401,-10.30407715,-7.223641396
1906,1.55965666229e+18,-25.45030594,-37.83198547,27.77597618
1907,1.55965666235e+18,-5.329557896,19.22480202,2.545150757
1908,1.55965666241e+18,-4.49287653,5.543669701,4.891508579
1909,1.55965666247e+18,-3.966387749,2.371904135,1.291093826
1910,1.55965666252e+18,-1.729597092,1.069869041,0.7718467712
1911,1.55965666258e+18,1.169589996,0.7990721464,-0.3697357178
1912,1.55965666263e+18,2.214203835,-0.6659018993,-0.1465876102
1913,1.55965666269e+18,2.662769318,-2.272137642,4.463880539
1914,1.55965666274e+18,2.054813385,-0.4340744019,1.785775781
1915,1.5596566628e+18,3.244135857,-1.777552605,-1.454189539
1916,1.55965666286e+18,9.116639137,-1.491969585,0.9377216101
1917,1.55965666292e+18,11.88764668,-1.333750725,2.124332428
1918,1.55965666298e+18,8.87623024,-3.582412004,1.22010541
1919,1.55965666304e+18,6.170402527,-6.565394878,-0.9970770478
1920,1.55965666309e+18,1.354428291,-6.893242836,-3.714938402
1921,1.55965666315e+18,-1.293888569,-6.840641975,-5.346504211
1922,1.55965666321e+18,-2.699364901,-5.840651989,-7.298522472
1923,1.55965666327e+18,-2.636856556,-6.531983376,-8.186044693
1924,1.55965666333e+18,-2.761660099,-6.698169708,-8.316737175
1925,1.55965666338e+18,-2.832377672,-3.179942608,-4.530898094
1926,1.55965666343e+18,-4.18108654,0.7907381058,0.9714183807
1927,1.55965666349e+18,-6.153167725,6.158166409,5.508446693
1928,1.55965666354e+18,-10.76235485,7.132151127,8.396004677
1929,1.5596566636e+18,-18.03777504,8.643033981,7.753084183
1930,1.55965666366e+18,-33.05819321,15.85391426,-7.844946861
1931,1.55965666372e+18,-5.587152958,-3.431668758,-7.839020729
1932,1.55965666377e+18,34.82572937,-40.0946312,-14.68374825
1933,1.55965666383e+18,23.8160038,13.63285446,-24.13983917
1934,1.55965666388e+18,1.561646938,-23.09543419,-16.46319962
1935,1.55965666394e+18,-1.542862415,11.24834442,-8.571565628
1936,1.55965666399e+18,2.510064602,4.962743759,-6.681105614
1937,1.55965666405e+18,0.6079621315,3.903727531,-1.505456924
1938,1.55965666411e+18,0.7174386978,2.000779152,4.500866413
1939,1.55965666417e+18,-1.789806366,2.534132957,2.753437042
1940,1.55965666422e+18,-1.071325302,-0.1063482761,3.741564274
1941,1.55965666427e+18,-1.402326584,0.6291695833,1.108258724
1942,1.55965666433e+18,0.344230175,-0.5262020826,1.385153294
1943,1.55965666439e+18,-0.4238986969,-0.5968981385,-0.5978341103
1944,1.55965666445e+18,0.6558094025,-0.4341493249,-0.3168711662
1945,1.55965666451e+18,0.4724783897,-0.2910517156,-1.540439606
1946,1.55965666457e+18,0.5648970604,0.14748469,-1.514915943
1947,1.55965666463e+18,0.7100205421,0.5652486086,-2.375288963
1948,1.55965666468e+18,0.3840088844,0.5352481604,-1.264262199
1949,1.55965666474e+18,0.7180018425,-0.3706119657,0.203584671
