"Time (s)","Acceleration x (m/s^2)","Acceleration y (m/s^2)","Acceleration z (m/s^2)"
5.199545300E-2,2.650462151E0,8.044763207E-1,9.002472878E0
1.039890670E-1,2.482862949E0,6.033572555E-1,8.949799538E0
1.559831870E-1,2.734261751E0,3.160442710E-1,9.028810501E0
2.079766450E-1,3.045517445E0,-1.419804931E0,9.488511086E0
2.599698710E-1,1.063058019E0,-7.637736797E-1,9.385557175E0
3.119633310E-1,1.807677507E0,-1.826831698E0,1.009665680E1
3.639565570E-1,-2.506805658E0,-1.913025618E0,7.690410614E0
4.159499490E-1,-4.206740856E0,-9.912297726E-1,7.470137596E0
4.679433410E-1,-8.755863190E0,1.424593568E0,7.606611252E0
5.199367320E-1,-6.294548512E0,2.300898075E0,8.039975166E0
5.719310500E-1,-7.197190285E0,3.426207304E0,8.526012421E0
6.239243090E-1,-7.005648136E0,4.719115734E0,7.170853138E0
6.759175690E-1,-8.049551964E0,3.854782343E0,6.205960274E0
7.279109940E-1,-6.715940952E0,3.210722446E0,4.537150860E0
7.799075500E-1,-9.162889481E0,8.858816624E-1,7.108602047E0
8.319058410E-1,-8.011243820E0,-2.001613855E0,6.349617004E0
8.839019320E-1,-6.818894863E0,-2.504411459E0,8.995290756E0
9.358957590E-1,-1.577827096E0,-1.197137356E0,1.166969585E1
9.878887840E-1,-7.127756119E0,-5.267404765E-2,7.879558563E0
1.039882076E0,-5.672037125E0,4.620950520E-1,7.269018173E0
1.091875368E0,-1.508393168E0,-1.098972082E0,1.201447105E1
1.143868694E0,-7.154093266E0,2.451737404E0,8.729525566E0
1.195862284E0,-4.170826912E0,1.158828974E0,7.810124397E0
1.247856437E0,-1.860351562E0,2.573845387E0,7.362394810E0
1.299849662E0,-1.546701550E0,3.593806505E0,6.993676662E0
1.351843055E0,-1.484450400E-1,4.146883965E0,6.873962879E0
1.403836348E0,4.884320498E-1,4.067873001E0,7.937020779E0
1.455829607E0,-6.656084061E-1,3.502824068E0,7.802941799E0
1.507822967E0,2.214704275E0,5.492466450E0,8.028003693E0
1.559816326E0,1.867534399E0,5.619362831E0,8.839662552E0
1.611810315E0,2.334417820E0,5.018400192E0,9.562733650E0
1.663804203E0,2.243435383E0,4.005621910E0,8.370385170E0
1.715797395E0,-8.116591573E-1,3.232270956E0,8.051946640E0
1.767790720E0,-1.790917516E0,4.151672363E0,7.027196407E0
1.819783979E0,1.101366431E-1,3.715914488E0,7.424646378E0
1.871780266E0,-2.609759569E-1,1.994430900E0,7.975329399E0
1.923778821E0,-9.146129489E-1,1.924996972E0,6.871568680E0
1.975773979E0,-4.094209969E-1,3.991255999E0,8.882759094E0
2.027767371E0,-1.699935079E0,4.024775982E0,9.064723969E0
2.079760797E0,-1.781340480E0,2.724684715E0,9.914691925E0
2.131753989E0,-1.209108829E0,1.168406129E0,1.071198559E1
2.183747383E0,-8.930644989E-1,1.963305324E-1,1.134167957E1
2.235740742E0,-1.182771802E0,2.298503816E-1,1.115013790E1
2.287734034E0,-9.648927450E-1,1.580221355E-1,1.068564892E1
2.339727922E0,-1.699935079E0,7.182824612E-2,9.589070320E0
2.391721744E0,-1.300091267E0,-1.005595401E-1,1.017806244E1
2.443715036E0,-3.639297783E-1,7.278595567E-1,1.025946712E1
2.495708528E0,-4.213923812E-1,5.650488734E-1,1.000327969E1
2.547701654E0,-1.640078187E0,1.048692346E0,9.081484795E0
2.599695113E0,-1.582615614E0,1.412622094E0,8.674457550E0
2.651688372E0,-2.719896078E0,1.819648862E0,8.820508003E0
2.703682296E0,-2.796513081E0,9.098244309E-1,8.940221786E0
2.755675949E0,-1.359948039E0,1.534730196E0,1.012299347E1
2.807669408E0,-5.269798756E0,-4.884320498E-1,1.043903828E1
2.859662635E0,-3.387898922E0,5.985686928E-2,1.001046276E1
2.911616262E0,-5.458946824E-1,5.818088055E-1,9.778218269E0
2.963609621E0,-1.740637779E0,7.350423932E-1,7.534782887E0
3.015602980E0,-1.393467903E0,7.134938836E-1,1.101845264E1
3.067596272E0,-2.564268351E0,5.051919818E-1,8.940221786E0
3.119589765E0,-2.513988614E-1,2.705530524E-1,1.342709351E1
3.171583783E0,-1.525153041E0,2.561874092E-1,9.466962814E0
3.223577241E0,9.768640995E-1,8.379961550E-2,7.913078308E0
3.275570600E0,1.479661822E0,3.615354896E-1,7.151699066E0
3.327563992E0,8.906702399E-1,-8.571503758E-1,8.784594536E0
3.379557318E0,-1.460507661E-1,-5.387118459E-1,7.101418972E0
3.431550610E0,3.854782581E-1,-3.519583941E-1,9.064723969E0
3.483544003E0,9.457385540E-1,1.276148438E0,9.040781975E0
3.535537625E0,1.130097747E0,1.776551962E0,9.656110764E0
3.587531646E0,2.197944164E0,1.831620216E0,9.502876282E0
3.639525073E0,2.324840784E0,1.872322917E0,9.663292885E0
3.691518332E0,2.159635782E0,1.336005330E0,9.495694160E0
3.743511624E0,2.983266354E0,7.613793612E-1,9.641744614E0
3.795508113E0,2.770175934E0,1.264177084E0,1.001285744E1
3.847507135E0,1.388679385E0,5.219519138E-1,1.037439251E1
3.899501995E0,1.168406129E0,8.188419938E-1,1.007750225E1
3.951494988E0,4.932205975E-1,7.709565163E-1,9.708784103E0
4.003488380E0,8.667274714E-1,1.608952641E0,1.010862827E1
4.055481707E0,3.208328187E-1,9.217957854E-1,1.061860847E1
4.107475100E0,1.228263021E0,6.201171875E-1,1.133928585E1
4.159468293E0,1.034326673E0,7.853221297E-1,1.035044956E1
4.211461718E0,1.664021015E0,1.211503029E0,9.809344292E0
4.263455375E0,1.977671027E0,1.764580488E0,8.849239349E0
4.315449361E0,2.363149166E0,2.590605259E0,8.442213058E0
4.367442687E0,1.723877907E0,2.432583094E0,8.815719604E0
4.419436046E0,4.292934895E0,1.640078187E0,7.388731956E0
4.471429338E0,4.939388752E0,1.834014535E0,7.122967720E0
4.523422631E0,5.308107376E0,2.925803900E0,4.881926537E0
4.575416090E0,5.832453251E0,2.487651587E0,5.229096413E0
4.627409448E0,5.147690773E0,3.711125851E0,4.585036278E0
4.679403269E0,6.014418125E0,2.921015263E0,5.672037125E0
4.731397024E0,5.391906738E0,2.604970932E0,3.857176781E0
4.783390417E0,5.317684174E0,2.384697676E0,4.142095566E0
4.835383676E0,5.712739468E0,3.019180536E0,4.393494129E0
4.887378898E0,6.143709183E0,3.170019865E0,4.563488007E0
4.939374389E0,7.575485706E0,3.950553417E0,4.788549423E0
4.991367715E0,1.032171917E1,4.362368584E0,5.851607800E0
5.043361108E0,1.192827702E1,4.798126698E0,9.311334610E0
5.095354367E0,1.555320930E1,6.601015568E0,1.036960411E1
5.147347726E0,2.078230476E1,8.272219658E0,1.140393066E1
5.199341153E0,3.969947052E1,1.894829178E1,5.066285610E0
5.251334478E0,3.081910515E1,1.803367805E1,-5.949772835E0
5.303328167E0,3.871542454E0,-6.682421207E0,2.076075745E1
5.355322087E0,3.452544212E0,-4.261809158E1,6.366376877E0
5.407315379E0,-7.223526955E0,-1.995627975E1,-4.829252243E0
5.459308838E0,4.046324492E-1,-2.178790092E0,-4.491659641E0
5.511302031E0,8.032792091E0,7.987300873E0,-4.573064744E-1
5.563295524E0,4.127729893E0,7.144515991E0,-2.633702159E-1
5.615288750E0,-2.585816681E-1,3.907456398E0,-9.433442950E-1
5.667282109E0,5.099805593E-1,3.404658794E0,1.843591630E-1
5.719276131E0,-5.961744189E-1,-2.154847383E0,8.253065109E0
5.771269718E0,-1.005595401E-1,-5.628940105E0,8.696005821E0
5.823263044E0,1.659232497E0,-7.666468143E0,1.351089287E1
5.875256637E0,3.143682718E0,-5.059102535E0,1.315414619E1
5.927251891E0,1.793311834E0,-3.950553417E0,1.672161484E1
5.979250615E0,-7.733507752E-1,-2.518777132E0,1.287401581E1
6.031247206E0,-4.223500729E0,-4.180403709E0,1.022594738E1
6.083240700E0,-1.156913567E1,-3.778165579E0,7.410280704E0
6.135234126E0,-1.213418484E1,-7.278595567E-1,-1.288119793E0
6.187227452E0,-1.476788712E1,1.005595401E-1,2.068653345E0
6.239220778E0,-1.285007286E1,2.909043789E0,1.120520592E0
6.291214104E0,-1.339357281E1,2.090201855E0,2.842004299E0
6.343207860E0,-1.245022869E1,1.242628574E0,2.614548206E0
6.395201814E0,-1.056354046E1,7.182824612E-1,2.923409462E0
6.447195040E0,-1.239037228E1,-4.070267081E-1,1.699935049E-1
6.499188466E0,-9.845257759E0,-1.101366401E0,1.189954638E0
6.551181959E0,-9.670475960E0,-1.781340480E0,1.304879785E0
6.603175051E0,-8.229122162E0,-2.226675510E0,2.264983892E0
6.655168577E0,-7.460560322E0,-1.364736676E0,2.051893473E0
6.707161837E0,-8.080677032E0,-1.374313712E0,2.183578730E0
6.759155657E0,-7.929838181E0,-1.987248063E-1,3.888302326E0
6.811149479E0,-1.130576611E1,1.628106833E-1,5.030371189E0
6.863142838E0,-1.208869362E1,1.556278586E0,5.497254848E0
6.915136131E0,-1.201207638E1,3.723097324E0,4.525179386E0
6.967129524E0,-1.321160793E1,5.209941864E0,4.024775982E0
7.019124677E0,-1.253881741E1,5.545140266E0,4.008016109E0
7.071123600E0,-1.018285084E1,4.257020473E0,3.313676357E0
7.123119558E0,-9.828497887E0,3.538738251E0,2.990449190E0
7.175112984E0,-6.890722752E0,4.024775982E0,3.050306082E0
7.227106243E0,-4.235472202E0,4.637710094E0,3.732674360E0
7.279099536E0,-3.792531252E0,7.529994488E0,7.793364525E0
7.331092895E0,-8.025609016E0,7.328875065E0,4.558699131E0
7.383086221E0,-8.712765694E0,6.021601200E0,6.371165276E0
7.435079481E0,-6.296942711E0,4.223500729E0,3.421418667E0
7.487073467E0,-5.492466450E0,5.121353626E0,2.724684715E0
7.539067222E0,-4.958543301E0,4.137306690E0,2.346389294E0
7.591060681E0,-3.914639235E0,5.643305779E0,2.557085514E0
7.643053939E0,-2.944957912E-1,6.591438770E0,9.002473354E-1
7.695047299E0,8.140534163E-1,6.088640690E0,1.386285067E0
7.747040657E0,2.609759569E-1,3.131711483E0,-6.057515144E-1
7.799033916E0,1.336005330E0,7.470137477E-1,-1.300091267E0
7.851027241E0,-1.814860344E0,-3.256213665E-1,-2.779752970E0
7.903021064E0,1.932658577E1,-2.359318352E1,5.830059052E1
7.955014952E0,-6.438204765E0,1.645106316E1,9.002473354E-1
8.007008211E0,-9.474145889E0,5.590631485E0,-3.098191500E0
8.059001637E0,-7.623371124E0,1.073832226E1,-6.732700825E0
8.110995994E0,-1.147815323E1,8.535589218E0,-6.725517750E0
8.162992217E0,-9.668081284E0,8.332076073E0,-2.949746609E0
8.214985577E0,-1.493788052E1,6.201171875E0,-2.683982134E0
8.266979069E0,-1.216291618E1,6.110189438E0,-1.549095750E0
8.318972295E0,-1.463859653E1,2.978477955E0,4.309694469E-2
8.370965588E0,-1.388439941E1,2.672010660E0,-1.108549237E0
8.422958914E0,-1.350131607E1,-1.460507661E-1,5.123748183E-1
8.474952407E0,-1.305119228E1,-4.956148863E-1,1.941756845E0
8.526946426E0,-1.414298153E1,-1.963305354E0,1.594586968E0
8.578939984E0,-1.037199879E1,-5.411061049E-1,2.047105074E0
8.630933276E0,-9.452596664E0,3.591412306E-1,2.846792698E0
8.682926535E0,-9.976943016E0,1.343188167E0,2.506805658E0
8.734919928E0,-1.019482231E1,1.398256540E0,2.377514839E0
8.786913187E0,-8.336864471E0,1.989642382E0,5.897099018E0
8.838906546E0,-7.192401409E0,8.906702399E-1,6.158074856E0
8.890899972E0,-5.521197796E0,9.577099085E-1,5.976109982E0
8.942894123E0,-1.723877907E0,1.381496549E0,6.905088425E0
8.994887615E0,-3.414235830E0,2.703136206E0,8.181237221E0
9.046880975E0,3.653663397E0,2.004008055E0,5.997658253E0
9.098874467E0,7.015225291E-1,1.843591571E0,1.063057995E1
9.150868724E0,4.826858044E0,1.726272106E0,3.952947617E0
9.202867513E0,6.057515144E0,1.359948039E0,7.218738556E0
9.254864406E0,5.942590237E0,2.911438227E0,3.969707727E0
9.306858800E0,8.303344727E0,1.450930476E0,5.949772835E0
9.358852060E0,7.051139355E0,3.933793545E0,5.346415520E0
9.410845353E0,6.431022167E0,3.146077156E0,4.951360226E0
9.462838579E0,7.249864101E0,2.142875910E0,5.681613922E0
9.514832105E0,6.993676662E0,2.995237827E0,4.383917332E0
9.566825728E0,5.952167034E0,2.264983892E0,3.359167576E0
9.618819649E0,5.226701736E0,2.494834423E0,4.187586784E0
9.670812976E0,5.693585396E0,2.650462151E0,4.292934895E0
9.722806269E0,6.991282463E0,2.628913641E0,5.791750908E0
9.774799561E0,7.951386452E0,2.645673752E0,7.029590607E0
9.826792987E0,1.030495834E1,3.110162973E0,8.590658188E0
9.878786313E0,1.263937664E1,3.131711483E0,1.176307201E1
9.930779639E0,1.805762100E1,4.132518291E0,1.333371639E1
9.982773527E0,3.093642426E1,8.894730568E0,9.550762177E0
1.003470726E1,3.600510406E1,1.856999588E1,2.873129770E-2
1.008670045E1,2.197704887E1,3.189173937E0,-1.031932473E0
1.013869385E1,4.848406315E0,-7.331269264E0,9.213169098E0
1.019068711E1,-1.102802944E1,-3.574652100E1,6.258634567E0
1.024268146E1,-8.116591573E-1,-9.665687561E0,-8.497281075E0
1.029468038E1,2.308080912E0,5.205153465E0,-3.981678963E0
1.034667684E1,6.268211365E0,5.844424725E0,-5.674431324E-1
1.039867050E1,4.108575344E0,5.616968632E0,1.999219418E0
1.045066383E1,6.225114316E-2,8.882759809E-1,4.034353256E0
1.050265722E1,1.197137356E0,-2.420611858E0,5.758230686E0
1.055465048E1,4.075055599E0,-6.572284222E0,9.519637108E0
1.060664384E1,7.879558563E0,-3.486064196E0,1.060663700E1
1.065863716E1,6.658478260E0,3.806896806E-1,8.810931206E0
1.071063092E1,3.809291124E0,1.903448462E0,1.000327969E1
1.076262491E1,1.223474383E0,3.857176781E0,1.081972790E1
1.081461823E1,-2.853975534E0,4.740664065E-1,1.534251308E1
1.086661149E1,-4.817280769E0,5.626545548E-1,1.323555088E1
1.091860488E1,-9.864412308E0,2.169213057E0,1.272557068E1
1.097059821E1,-1.068325424E1,2.695953369E0,1.145660496E1
1.102259144E1,-8.588263512E0,1.675992370E0,9.055147171E0
1.107458490E1,-9.062330246E0,2.241041183E0,7.975329399E0
1.112657901E1,-1.040791225E1,1.261782765E0,5.444581032E0
1.117857250E1,-8.511647224E0,1.048692346E0,4.510813713E0
1.123056593E1,-7.144515991E0,6.296942830E-1,4.802915096E0
1.128255922E1,-8.463761330E0,-2.178790122E-1,4.565882206E0
1.133455308E1,-8.669669151E0,-1.024749637E0,4.881926537E0
1.138654937E1,-8.109408379E0,-1.367130876E0,4.726298332E0
1.143854320E1,-6.383136749E0,-9.385557175E-1,5.604997158E0
1.149053652E1,-6.500456333E0,-8.858817071E-2,4.869955063E0
1.154252985E1,-7.398309231E0,1.388679445E-1,4.762212753E0
1.159452321E1,-7.453377247E0,2.322446555E-1,4.757423878E0
1.164651650E1,-8.245882034E0,2.466102988E-1,4.417437077E0
1.169850979E1,-9.581888199E0,4.261809289E-1,3.727885962E0
1.175050381E1,-1.096817303E1,3.567469418E-1,3.059883118E0
1.180249750E1,-1.070959091E1,-4.166038036E-1,3.895485163E0
1.185449086E1,-9.134158134E0,-6.632141471E-1,4.826858044E0
1.190648422E1,-7.776604652E0,-4.477293789E-1,5.018400192E0
1.195847751E1,-7.331269264E0,-2.394274808E-2,4.790944099E0
1.201047090E1,-8.071100235E0,-1.268965602E-1,4.922628880E0
1.206246430E1,-9.646533012E0,-3.232271075E-1,4.723904133E0
1.211445749E1,-9.828497887E0,5.387118459E-1,5.154873848E0
1.216645168E1,-1.070001411E1,6.057515144E-1,5.219519138E0
1.221844537E1,-7.458166122E0,2.178790122E-1,6.366376877E0
1.227043856E1,-5.449369431E0,2.178790122E-1,5.731894016E0
1.232243192E1,-3.636903524E0,-9.648927450E-1,7.099024773E0
1.237442561E1,-3.404658794E0,-1.807677507E0,8.478127480E0
1.242642409E1,-2.600182533E0,-2.377514839E0,8.959376335E0
1.247842132E1,-2.011190891E0,-1.850774407E0,8.846845627E0
1.253041524E1,-1.455719113E0,-1.369525194E0,8.317710876E0
1.258240857E1,-3.301704884E0,-8.523618579E-1,7.422251701E0
1.263440186E1,-3.962524891E0,-1.939362586E-1,7.750267506E0
1.268639529E1,-5.066285610E0,-3.591412306E-2,8.475732803E0
1.273838864E1,-5.743865490E0,-2.777358890E-1,9.323306084E0
1.279038187E1,-5.652883053E0,1.580221355E-1,9.124581337E0
1.284237533E1,-5.250644684E0,5.411061049E-1,8.214756966E0
1.289436948E1,-5.059102535E0,8.547561169E-1,7.348029613E0
1.294636291E1,-6.069486618E0,9.888355136E-1,6.991282463E0
1.299835630E1,-8.557138443E0,1.553884387E0,5.827664852E0
1.305034959E1,-8.669669151E0,1.259388566E0,5.504437923E0
1.310234288E1,-8.707977295E0,6.488484740E-1,5.257827282E0
1.315433638E1,-8.949799538E0,-1.221080124E-1,4.987274647E0
1.320632960E1,-8.746285439E0,2.178790122E-1,5.118959427E0
1.325832336E1,-7.676044941E0,6.153286099E-1,5.377541065E0
1.331031731E1,-7.115784645E0,1.043903828E0,5.870761871E0
1.336231074E1,-7.800547123E0,1.110943556E0,5.854001999E0
1.341430400E1,-8.643332481E0,8.427847624E-1,5.056708336E0
1.346629755E1,-8.827691078E0,1.501210332E0,5.669642925E0
1.351829381E1,-8.418270111E0,2.672010660E0,6.186806202E0
1.357028790E1,-8.497281075E0,3.205934048E0,6.766220570E0
1.362228130E1,-9.004867554E0,2.988054991E0,5.964138508E0
1.367427465E1,-7.877163887E0,2.791724443E0,5.633728504E0
1.372626795E1,-8.442213058E0,2.188367128E0,4.781366825E0
1.377826131E1,-7.553936958E0,2.336812258E0,4.644893169E0
1.383025470E1,-5.700768471E0,3.170019865E0,5.504437923E0
1.388224812E1,-4.515602112E0,3.735068798E0,5.451763630E0
1.393424238E1,-4.118152618E0,4.328848839E0,5.226701736E0
1.398623570E1,-3.356773376E0,4.364762783E0,5.463735104E0
1.403822893E1,-3.510006905E0,3.723097324E0,6.040755272E0
1.409022239E1,-5.595420361E0,2.135693073E0,6.835654736E0
1.414221565E1,-4.687990189E0,2.202732861E-1,7.637736797E0
1.419420901E1,-6.984099388E0,-1.367130876E0,6.395108223E0
1.424620260E1,-6.304125786E0,-8.739103079E-1,6.074275017E0
1.429819622E1,-7.515628815E0,-2.516382933E0,5.027976990E0
1.435019004E1,-7.015225410E0,-2.913832426E0,7.573091030E0
1.440218337E1,-8.300951004E0,-4.709538460E0,7.709564686E0
1.445417679E1,-6.725517750E0,-4.036747456E0,6.799740195E-1
1.450617048E1,-9.150918007E0,-1.436564885E-2,7.992089272E0
1.455816787E1,-5.911464691E0,2.760598898E0,8.743891716E0
1.461016573E1,-6.375953674E0,1.831620216E0,8.870788574E0
1.466216102E1,-6.112583637E0,1.944151163E0,1.063297462E1
1.471415448E1,-6.186806202E0,1.491633177E0,9.170072556E0
1.476614771E1,-4.458139896E0,2.466103077E0,9.088666916E0
1.481814104E1,-4.187586784E0,2.686376333E0,8.382355690E0
1.487013436E1,-2.638490915E0,3.450150013E0,7.733507633E0
1.492212769E1,3.375927508E-1,4.285751820E0,7.826884270E0
1.497412161E1,1.431776285E0,6.023995399E0,6.138920784E0
1.502611540E1,3.237059593E0,4.778972626E0,4.194769382E0
1.507810872E1,6.442993641E0,3.220299721E0,4.865166187E0
1.513010212E1,3.761405706E0,3.905062199E0,3.967313290E0
1.518209537E1,4.908263206E0,3.881119490E0,3.945764780E0
1.523408880E1,4.992063046E0,3.648874760E0,5.114171028E0
1.528608206E1,5.624151707E0,4.266597748E0,4.850800991E0
1.533807558E1,7.225921154E0,4.063084126E0,4.817280769E0
1.539006977E1,7.357606411E0,4.491659641E0,5.585843086E0
1.544206323E1,8.257853508E0,4.326454639E0,8.138139725E0
1.549405642E1,1.234727478E1,5.365570068E0,9.991309166E0
1.554604975E1,1.673119164E1,6.792557716E0,1.199531651E1
1.559804330E1,3.071136284E1,1.223474407E1,1.311104870E1
1.565004066E1,3.628523636E1,2.260674286E1,-2.502017260E0
1.570203861E1,2.353093338E1,5.207547665E0,2.154847234E-2
1.575403324E1,6.273000240E-1,-3.435784340E0,4.462928295E0
1.580602640E1,-2.624125242E0,-5.732133484E1,2.096187592E1
1.585801973E1,-1.409270191E1,-1.401368999E1,-1.199531651E1
1.591001329E1,8.916279793E0,1.412622094E0,-6.031178474E0
1.596200645E1,1.402566147E1,1.373116589E1,5.985686779E-1
1.601399980E1,4.166038036E0,3.917033672E0,3.759011507E0
1.606599339E1,4.546727657E0,4.494053841E0,1.448536277E0
1.611798741E1,4.304905891E0,1.249811411E0,5.628940105E0
1.616998094E1,7.271412373E0,9.529213905E-1,5.844424725E0
1.622197420E1,6.988888264E0,-2.006402254E0,6.895511627E0
1.627396743E1,5.707951069E0,-6.967339516E-1,6.933819771E0
1.632596075E1,4.024775982E0,-5.842030644E-1,6.122160912E0
1.637795414E1,1.256994247E0,1.419804931E0,7.695199013E0
1.642994750E1,-4.429408312E-1,3.220299721E0,7.269018173E0
1.648194106E1,-3.512401104E0,3.660846233E0,1.557715225E1
1.653393511E1,-4.063084126E0,6.057515144E0,1.341512203E1
1.658592850E1,-6.581861496E0,3.751828671E0,1.122675419E1
1.663792196E1,-1.032411289E1,3.478881359E0,9.500482559E0
1.668991529E1,-1.272557068E1,2.044710636E0,6.550735950E0
1.674191091E1,-1.303443241E1,4.000833035E0,7.259441376E0
1.679390584E1,-1.079817963E1,4.338426113E0,5.475706577E0
1.684589923E1,-9.167677879E0,2.683982134E0,5.549929142E0
1.689789242E1,-8.439818382E0,8.786988258E-1,3.689577579E0
1.694988592E1,-8.415876389E0,-7.182824425E-3,2.968900681E0
1.700187917E1,-8.530800819E0,6.225114316E-2,2.188367128E0
1.705387243E1,-7.477320194E0,4.357580245E-1,2.039922237E0
1.710586622E1,-7.453377247E0,9.601042271E-1,2.202732801E0
1.715786038E1,-8.885153770E0,8.499675393E-1,1.970488191E0
1.720985347E1,-1.067128277E1,1.053480864E0,8.523618579E-1
1.726184706E1,-1.038397026E1,8.427847624E-1,1.594586968E0
1.731384019E1,-9.751881599E0,7.422251701E-1,1.618529797E0
1.736580709E1,-9.744698524E0,5.099805593E-1,1.388679385E0
1.741780038E1,-1.051565456E1,-1.795706153E-1,1.697540879E0
1.746979354E1,-1.133689117E1,-1.527547359E0,1.486844659E0
1.752178733E1,-8.995290756E0,-7.134938836E-1,2.152452946E0
1.757378122E1,-7.063110828E0,4.549122229E-2,2.739050388E0
1.762577458E1,-7.577879906E0,6.320885420E-1,2.509200096E0
1.767776790E1,-9.660899162E0,-3.974496126E-1,2.494834423E0
1.772976116E1,-9.711178780E0,4.549122229E-2,2.449343204E0
1.778175782E1,-9.088666916E0,1.003201127E0,2.719896078E0
1.783375630E1,-9.919480324E0,4.812492430E-1,3.129317284E0
1.788575123E1,-8.875576973E0,1.110943556E0,3.694365978E0
1.793774459E1,-8.389538765E0,1.503604531E0,3.682394743E0
1.798973785E1,-8.265036583E0,1.012778282E0,3.713520288E0
1.804173124E1,-9.095849991E0,1.163617611E0,3.158048391E0
1.809372477E1,-9.672870636E0,1.218685865E0,2.887495518E0
1.814571793E1,-1.011102295E1,1.699935079E0,2.911438227E0
1.819771129E1,-9.936240196E0,2.413429022E0,3.940976381E0
1.824970528E1,-1.030735302E1,3.670423269E0,4.975303173E0
1.830169896E1,-1.074790001E1,2.971295118E0,3.907456398E0
1.835369226E1,-9.203592300E0,2.547508478E0,2.703136206E0
1.840568555E1,-7.206767082E0,2.935380936E0,2.786935806E0
1.845767891E1,-5.760625362E0,2.557085514E0,3.629720688E0
1.850967240E1,-6.469330311E0,1.865140080E0,2.858764172E0
1.856166583E1,-1.041270161E1,-2.298503816E-1,2.748627424E0
1.861365909E1,-9.799766541E0,-6.177229285E-1,5.250644684E0
1.866565320E1,-7.975329399E0,1.316851139E0,7.393520832E0
1.871764666E1,-6.569890022E0,2.123721838E0,6.179623127E0
1.876964006E1,-5.839636326E0,1.668809533E0,4.110970020E0
1.882163325E1,-6.675238132E0,1.019961119E0,3.385504484E0
1.887362860E1,-8.121379852E0,4.812492430E-1,3.945764780E0
1.892562396E1,-7.537177086E0,4.213923812E-1,5.379935265E0
1.897761729E1,-6.615381241E0,-8.858816624E-1,5.604997158E0
1.902961075E1,-6.208354473E0,-1.575432777E0,4.506025314E0
1.908160391E1,-8.930644989E0,-6.330462456E0,6.871568680E0
1.913359727E1,-5.303318501E0,-9.873989105E0,3.554540253E1
1.918559076E1,-1.653725624E1,-6.512427330E-1,5.221913338E0
1.923758398E1,-3.122134447E0,7.685621977E-1,1.004158878E1
1.928957800E1,-8.073494911E0,-1.580221355E-1,1.016848469E1
1.934157169E1,-1.077184200E1,2.430188894E0,6.538764477E0
1.939356495E1,-4.788549423E0,1.889082789E0,8.674457550E0
1.944555835E1,-5.066285610E0,3.454938650E0,8.375173569E0
1.949755171E1,-3.411841631E0,4.668835640E0,6.897905827E0
1.954954500E1,1.479661822E0,4.043930054E0,7.510839939E0
1.960153832E1,7.278595567E-1,3.876330853E0,6.890722752E0
1.965353208E1,3.244242430E0,4.345608711E0,7.110996246E0
1.970552613E1,4.412648678E0,3.038334846E0,6.553130150E0
1.975751932E1,3.342407703E0,3.756617069E0,7.661679268E0
1.980951265E1,3.138894320E0,3.718308687E0,5.734288216E0
1.986150608E1,6.933819771E0,1.750214934E0,6.186806202E0
1.991350166E1,4.563488007E0,2.243435383E0,4.905869007E0
1.996550022E1,4.297723293E0,2.619336605E0,4.781366825E0
2.001749671E1,4.697566986E0,3.270579338E0,5.238673210E0
2.006949051E1,5.482889175E0,3.124528646E0,5.942590237E0
2.012148397E1,7.479714394E0,3.299310684E0,5.514014721E0
2.017347719E1,7.688016415E0,4.000833035E0,6.790163517E0
2.022547035E1,9.402317047E0,4.110970020E0,9.050358772E0
2.027746381E1,1.265134811E1,5.037554264E0,1.112140656E1
2.032945740E1,1.629064560E1,6.490879059E0,1.272078228E1
2.038145139E1,3.463079071E1,1.375271416E1,1.182532310E1
2.043344471E1,3.455417252E1,1.990121269E1,-3.189173937E0
2.048543800E1,2.075118065E1,-2.296109438E0,2.126116037E0
2.053743143E1,2.825244367E-1,-1.882857704E1,-1.719089270E0
2.058942472E1,-4.233078003E0,-3.064192963E1,1.207672215E1
2.064141815E1,-9.909903526E0,-8.640937805E0,-7.690410614E0
2.069341141E1,8.379961967E0,7.211555958E0,-3.337619066E0
2.074540516E1,9.354432106E0,9.967366219E0,3.112557158E-2
2.079739912E1,3.842811108E0,4.886714935E0,2.078230619E0
2.084939241E1,3.328042030E0,2.801301479E0,3.399870157E0
2.090138570E1,4.673624516E0,1.137280583E0,4.520390987E0
2.095337909E1,5.298530102E0,-1.963305324E-1,5.889915943E0
2.100537451E1,6.943397045E0,-9.816526622E-2,6.366376877E0
2.105737347E1,6.629746914E0,-3.519583941E-1,7.532388687E0
2.110936913E1,5.375146866E0,1.017566800E0,8.411087036E0
2.116136239E1,3.799714088E0,2.901860952E0,8.597841263E0
2.121335575E1,1.379102230E0,2.645673752E0,1.391552544E1
2.126534911E1,-1.326428294E0,2.336812258E0,1.148773098E1
2.131734247E1,-6.780586243E0,1.884294271E0,1.135843945E1
2.136933572E1,-8.013637543E0,3.311282158E0,8.140534401E0
2.142132905E1,-1.225150394E1,1.685569525E0,7.405491829E0
2.147332300E1,-1.194024849E1,3.926610708E0,6.680026531E0
2.152531676E1,-1.352765274E1,2.233858347E0,8.123774529E0
2.157731019E1,-1.106633854E1,1.450930476E0,5.806116581E0
2.162930355E1,-9.732727051E0,2.394274808E-3,6.445387840E0
2.168129670E1,-8.609811783E0,3.830839694E-2,4.922628880E0
2.173329040E1,-7.321692467E0,2.681587934E-1,3.742251635E0
2.178528376E1,-7.427040577E0,3.375927508E-1,3.095797300E0
2.183727678E1,-8.188420296E0,5.027977005E-2,2.707924843E0
2.188927094E1,-8.281796455E0,3.543526828E-1,3.198751211E0
2.194126449E1,-8.806142807E0,-6.225114316E-2,3.897879362E0
2.199325778E1,-9.960183144E0,6.249057055E-1,4.855589390E0
2.204525164E1,-1.737046432E1,6.976916790E0,4.173221111E0
2.209724557E1,-1.730342484E1,6.780586243E0,2.897072554E0
2.214924166E1,-1.179180336E1,5.837242126E0,2.801301479E0
2.220123519E1,-1.057790565E1,3.584229469E0,5.363175869E-1
2.225322848E1,-9.974549294E0,2.394274771E-1,-3.730280161E0
2.230522180E1,-2.648067951E0,1.915419847E-1,-1.764580488E0
2.235721516E1,1.300091267E0,1.331216812E0,-7.901106775E-2
2.240920849E1,2.947352171E0,3.289733648E0,1.367130876E0
2.246120208E1,3.095797300E0,3.778165579E0,2.054287672E0
2.251319623E1,1.517970204E0,5.439792156E0,2.174001455E0
2.256518949E1,4.261809289E-1,3.181991339E0,1.295302629E0
2.261718275E1,-3.397475958E0,1.980065227E0,3.770982742E0
2.266917611E1,-9.809344292E0,3.773377180E0,4.980091453E-1
2.272116957E1,-1.831620216E1,1.005595401E-1,1.436564922E-1
2.277316280E1,-1.780382729E1,3.998438835E0,-3.098191500E0
2.282515616E1,-1.574953938E1,6.507638931E0,-2.130904645E-1
2.287714961E1,-1.158110714E1,5.595420361E0,-4.525179267E-1
2.292914377E1,-9.692024231E0,4.846012115E0,-1.079817891E0
2.298113722E1,-9.445414543E0,4.122941017E0,-1.692752242E0
2.303313055E1,-7.987300873E0,3.816473961E0,-1.486844659E0
2.308512394E1,-7.132544518E0,3.330436230E0,-5.770202279E-1
2.313711843E1,-9.926663399E0,2.018373728E0,-2.181184292E0
2.318911742E1,-1.037918091E1,2.796513081E0,-1.345582485E0
2.324111378E1,-1.046298122E1,2.006402254E0,3.519583941E-1
2.329310724E1,-7.683228016E0,3.093403101E0,2.032739401E0
2.334510050E1,-1.251726913E1,1.199531674E0,1.747820616E0
2.339709386E1,-8.540378571E0,1.350371003E0,1.884294271E0
2.344908728E1,-8.499675751E0,1.723877907E0,2.178790092E0
2.350108057E1,-8.320104599E0,2.624125242E0,1.690358043E0
2.355307413E1,-8.181237221E0,3.363956213E0,2.554691315E0
2.360506756E1,-8.087860107E0,3.780560017E0,2.921015263E0
2.365706158E1,-8.842057228E0,3.768588543E0,3.038334846E0
2.370905490E1,-8.585869789E0,3.605777979E0,3.105374336E0
2.376104826E1,-1.019482231E1,4.087027073E0,2.044710636E0
2.381304162E1,-8.583475113E0,4.896292210E0,2.427794695E0
2.386503488E1,-7.630553722E0,5.090228081E0,2.341600657E0
2.391702827E1,-6.514821529E0,5.190787792E0,2.810878515E0
2.396902156E1,-7.793364525E0,4.676018715E0,2.628913641E0
2.402101542E1,-7.980117798E0,3.337619066E0,3.383110285E0
2.407300941E1,-8.327287674E0,-3.759011328E-1,2.571451187E0
2.412500283E1,-1.182292938E1,-3.902667999E0,2.707924843E0
2.417699589E1,-9.735121727E0,-4.352791786E0,2.794118643E0
2.422898988E1,-9.392740250E0,-4.692778587E0,3.177202702E0
2.428098631E1,-8.166871071E0,-2.595393896E0,2.743839025E0
2.433297993E1,-7.427040577E0,-1.606558442E0,3.320859194E0
2.438497326E1,-9.613013268E0,-2.578634024E0,4.522785187E0
2.443696688E1,-1.077423668E1,-3.974496126E0,-4.441379547E0
2.448895994E1,-1.614220047E1,-1.917814136E0,3.680000305E0
2.454095327E1,-7.072687626E0,-1.367130876E0,8.075888634E0
2.459096878E1,-1.021397591E1,-4.357580245E-1,6.919454098E0
2.464296260E1,-9.766246796E0,1.106154919E0,6.050332546E0
2.469495625E1,-5.241067410E0,3.481275558E0,5.475706577E0
2.474694964E1,-3.421418667E0,4.273780346E0,8.808537483E0
2.479894307E1,-3.744645834E0,4.355185986E0,7.161275864E0
2.485093633E1,-5.506832153E-2,4.036747456E0,8.707977295E0
2.490292972E1,1.051086664E0,4.359974384E0,7.752661705E0
2.495492305E1,3.993650436E0,4.661653042E0,6.239480019E0
2.500691641E1,5.085439682E0,4.400677204E0,5.614574432E0
2.505891023E1,5.983292580E0,4.350397110E0,5.557111740E0
2.511090405E1,6.105400562E0,3.572257996E0,5.324867249E0
2.516289734E1,5.102199554E0,3.680000305E0,4.630527496E0
2.521489074E1,5.971321583E0,2.906649590E0,5.092622280E0
2.526688459E1,6.287365437E0,3.553103924E0,4.699961662E0
2.531888315E1,5.219519138E0,2.408640385E0,5.039948463E0
2.537088034E1,5.430215359E0,2.736656189E0,5.068679810E0
2.542287403E1,4.972908974E0,1.941756845E0,5.360781193E0
2.547486746E1,6.447782040E0,1.661626697E0,6.033572674E0
2.552686082E1,7.400703430E0,1.470084786E0,6.620169640E0
2.557885408E1,7.881952763E0,1.865140080E0,7.968146324E0
2.563084740E1,9.031204224E0,1.644866824E0,1.008468533E1
2.568284069E1,1.161223316E1,2.794118643E0,1.083409309E1
2.573483419E1,1.374553204E1,3.095797300E0,1.190912247E1
2.578682834E1,2.268096542E1,5.621757030E0,1.360426903E1
2.583882170E1,3.556695175E1,1.290274715E1,4.422225475E0
2.589081516E1,2.969140244E1,1.123393726E1,-2.334417820E0
2.594280838E1,4.405465603E0,-1.099929810E1,1.982220078E1
2.599480174E1,-1.385806274E1,-4.417676544E1,9.895537376E0
2.604679513E1,-3.967313290E0,-1.560827732E1,-3.213116884E0
2.609878843E1,2.279349566E0,9.816526622E-2,-5.078257084E0
2.615078198E1,8.861210823E0,1.127224541E1,-5.719922543E0
2.620277623E1,6.469330311E0,6.091034889E0,5.267404765E-2
2.625476946E1,4.453351021E0,2.976083517E0,2.473285913E0
2.630676279E1,3.703943014E0,2.825244367E-1,4.472505569E0
2.635875644E1,4.446168423E0,1.266571403E0,5.439792156E0
2.641075263E1,5.707951069E0,2.394274771E-1,7.496474266E0
2.646274673E1,6.112583637E0,3.447755575E-1,7.889135361E0
2.651474012E1,5.178816319E0,4.501236677E-1,9.854835510E0
2.656673348E1,3.861965179E0,2.844398499E0,8.114197731E0
2.661872670E1,2.513988614E-1,1.836408734E0,1.377905178E1
2.667072023E1,-1.230657220E0,2.650462151E0,8.607418060E0
2.672271349E1,-1.064494610E1,1.386285067E0,3.960130453E0
2.677470698E1,-1.584291649E1,3.368744612E0,-1.470084786E0
2.682670116E1,-1.914941025E1,5.473312378E0,-1.161223292E0
2.687869446E1,-1.302485466E1,4.407859802E0,3.316070557E0
2.693068782E1,-9.505270958E0,2.305686712E0,4.850800991E0
2.698268118E1,-8.458972931E0,2.576239586E0,3.095797300E0
2.703467447E1,-1.093704700E1,1.932179809E0,2.171607256E0
2.708666783E1,-1.128421688E1,4.788549542E-1,2.324840784E0
2.713866125E1,-8.832479477E0,1.158828974E0,2.985660791E0
2.719065484E1,-7.424646378E0,1.240234375E0,3.308887720E0
2.724264890E1,-6.718335152E0,2.037527800E0,2.973689318E0
2.729464219E1,-8.109408379E0,2.264983892E0,2.997632027E0
2.734663555E1,-1.147575951E1,3.102980137E0,7.084659100E0
2.739862910E1,-2.246069145E1,7.312115192E0,1.588361931E1
2.745062693E1,-1.577827072E1,5.451763630E0,1.165293503E1
2.750262472E1,-1.022115898E1,7.309720993E0,5.011217117E0
2.755461981E1,-7.881952763E0,2.870735407E0,-3.483669758E0
2.760661327E1,-3.586623669E0,1.015172482E0,-5.363175392E0
2.765860656E1,1.156434774E0,1.709512234E0,-2.777358890E-1
2.771059979E1,1.642472506E0,6.871568561E-1,2.394274712E0
2.776259318E1,-2.801301479E0,3.375927448E0,2.566662550E0
2.781458661E1,-3.438178539E0,4.652075768E0,2.423006058E0
2.786658033E1,-4.280963421E0,3.802108288E0,4.199557781E0
2.791857425E1,-4.462928295E0,3.074248791E0,3.890696526E0
2.797056754E1,-4.324060440E0,2.109356165E0,2.494834423E0
2.802256087E1,-4.587430477E0,3.153259993E0,3.708731651E0
2.807455436E1,-4.455745220E0,7.316903591E0,3.502824068E0
2.812654752E1,-5.743865490E0,7.470137596E0,6.811711788E0
2.817854085E1,-1.132731438E1,7.218738556E0,6.296942711E0
2.823053427E1,-1.616374969E1,5.930618763E0,4.278569221E0
2.828252839E1,-1.614220047E1,3.447755814E0,3.189173937E0
2.833452188E1,-1.052523232E1,3.603383541E0,-3.806896806E-1
2.838651524E1,-1.035523891E1,8.403904438E-1,3.100585938E0
2.843850860E1,-1.010623360E1,-1.130097747E0,4.486870766E0
2.849050209E1,-7.980117798E0,-1.067846537E0,4.029564381E0
2.854249971E1,-5.083045483E0,3.663240373E-1,4.180403709E0
2.859449753E1,-5.949772835E0,1.127703428E0,3.404658794E0
2.864649189E1,-7.769421577E0,2.080624819E0,3.265790939E0
2.869848515E1,-1.088197899E1,1.771763325E0,3.897879362E0
2.875047858E1,-9.553156853E0,3.124528646E0,3.179596901E0
2.880247190E1,-8.746285439E0,2.645673752E0,3.790137053E0
2.885446530E1,-8.899519920E0,1.992036581E0,3.663240433E0
2.890645882E1,-8.195602417E0,2.025556564E0,3.864359617E0
2.895845185E1,-8.130957603E0,2.135693073E0,3.359167576E0
2.901044597E1,-6.126949310E0,2.011190891E0,2.791724443E0
2.906243963E1,-8.571503639E0,-9.026415944E-1,4.314483166E0
2.911443288E1,-9.445414543E0,-1.010383964E0,4.398283005E0
2.916642628E1,-1.040791225E1,1.508393139E-1,4.800520897E0
2.921841960E1,-7.206767082E0,1.343188167E0,6.998465061E0
2.927041293E1,-7.139727592E0,5.554717779E-1,6.356799603E0
2.932240629E1,-8.511647224E0,8.547561169E-1,5.480494976E0
2.937439991E1,-9.471751213E0,8.092648983E-1,3.948159218E0
2.942639400E1,-9.340065956E0,1.058269501E0,2.966506481E0
2.947838719E1,-8.861210823E0,8.810931444E-1,3.809291124E0
2.953038052E1,-7.642525196E0,1.039115310E0,4.632921696E0
2.958237407E1,-7.874769688E0,9.696813226E-1,5.427821159E0
2.963436983E1,-9.553156853E0,3.854782581E-1,5.604997158E0
2.968636465E1,-9.572310448E0,7.158881426E-1,5.241067410E0
2.973835795E1,-1.105436707E1,3.088614643E-1,4.199557781E0
2.979035141E1,-9.574705124E0,3.471698463E-1,4.252232075E0
2.984234467E1,-8.032792091E0,5.937801600E-1,4.814886570E0
2.989433796E1,-7.113390446E0,6.943397224E-2,4.465322495E0
2.994633125E1,-6.680026531E0,-1.484450400E-1,4.843617916E0
2.999832504E1,-8.822902679E0,2.264983892E0,5.607391834E0
3.005031909E1,-9.586676598E0,3.239453793E0,3.962524891E0
3.010231238E1,-8.186025620E0,3.026363373E0,4.788549423E0
3.015430588E1,-7.110996246E0,7.206767201E-1,4.297723293E0
3.020629910E1,-6.124555111E0,-4.333637357E-1,3.392687321E0
3.025829243E1,-6.545947552E0,-2.157241583E0,4.173221111E0
3.031028599E1,-6.871568680E0,-2.315263748E0,2.382303476E0
3.036227915E1,-9.138946533E0,-5.928224564E0,-1.702329397E0
3.041427251E1,-1.551490116E1,-4.376734257E0,7.915472507E0
3.046626662E1,-1.004398251E1,1.024749637E0,7.853221416E0
3.051826005E1,-1.036960411E1,-5.051919818E-1,5.959350109E0
3.057025354E1,-8.717555046E0,-9.098244458E-2,6.160469055E0
3.062224694E1,-6.538764477E0,1.438959122E0,7.805335999E0
3.067424349E1,-6.569890022E0,2.849187136E0,5.980898380E0
3.072624178E1,-6.629746914E0,3.780560017E0,5.097411156E0
3.077823771E1,-4.601796150E0,3.311282158E0,6.828471661E0
3.083023104E1,-2.401457548E0,4.553910732E0,6.715940952E0
3.088222433E1,-3.615354896E-1,4.151672363E0,8.231516838E0
3.093421789E1,5.746259540E-2,3.979284763E0,8.976136208E0
3.098621108E1,-4.549122229E-2,5.317684174E0,4.429408550E0
3.103820434E1,3.442967176E0,4.637710094E0,9.227535248E0
3.109019839E1,3.847599506E0,4.431802750E0,5.897099018E0
3.114219212E1,4.134912491E0,4.419831276E0,9.052753448E0
3.119418534E1,2.171607256E0,5.236279011E0,4.211529255E0
3.124617883E1,7.242681503E0,4.589824677E0,7.565908432E0
3.129817212E1,3.869148016E0,4.699961662E0,1.045579815E1
3.135016565E1,6.050332546E0,2.956929445E0,9.172467232E0
3.140215891E1,5.140508175E0,3.203539610E0,7.903501034E0
3.145415204E1,5.305713177E0,2.456526041E0,6.488484859E0
3.150614605E1,4.783761024E0,1.879505754E0,6.375953674E0
3.155813968E1,5.511620522E0,2.267378330E0,4.307300568E0
3.161013314E1,5.360781193E0,1.994430900E0,3.895485163E0
3.166212646E1,5.607391834E0,2.384697676E0,5.004034519E0
3.171412009E1,5.276981831E0,2.827638626E0,4.494053841E0
3.176611631E1,6.462147713E0,2.746233225E0,6.052726746E0
3.181811473E1,7.494080067E0,3.335224867E0,6.033572674E0
3.187009609E1,7.527599812E0,3.634509087E0,7.568302631E0
3.192208948E1,9.478934288E0,4.307300568E0,8.554743767E0
3.197408271E1,1.147336483E1,5.348809719E0,1.022594738E1
3.202607610E1,1.537603283E1,5.791750908E0,1.224911022E1
3.207806950E1,2.586056137E1,9.739910126E0,1.224192715E1
3.213006285E1,3.687662125E1,2.028908539E1,3.397475958E0
3.218205635E1,2.431625557E1,4.525179267E-1,5.016005516E0
3.223405046E1,3.081431627E0,-9.613013268E0,8.913885117E0
3.228604379E1,-1.118605232E1,-3.172414207E1,7.798152924E0
3.233803718E1,-5.279376030E0,-1.173434067E1,-6.790163517E0
3.239003044E1,3.502824068E0,1.585009933E0,-5.437397957E0
3.244202380E1,7.419857502E0,8.612206459E0,-2.394274712E0
3.249401706E1,4.252232075E0,1.628106833E0,3.419024467E0
3.254601049E1,1.910631299E0,3.591412306E-2,4.436591148E0
3.259800398E1,2.080624819E0,-1.496421814E0,7.764633179E0
3.264999806E1,3.794925690E0,7.254652381E-1,8.595446587E0
3.270199152E1,6.842837334E0,4.048718929E0,9.313729286E0
3.275398481E1,8.581081390E0,6.016812801E0,9.086273193E0
3.280597814E1,7.972935200E0,6.229903221E0,1.225150394E1
3.285797356E1,4.005621910E0,3.672817469E0,1.114774323E1
3.290996885E1,-2.947352171E0,1.568249941E0,1.079339123E1
3.296196214E1,-1.288359261E1,3.591412306E-2,6.636929989E0
3.301395554E1,-1.079817963E1,3.131711483E0,6.069486618E0
3.306594880E1,-1.010144520E1,2.106961727E0,6.538764477E0
3.311794209E1,-8.209968567E0,2.384697676E0,7.321692467E0
3.316993558E1,-9.129369736E0,6.249057055E-1,6.689603806E0
3.322192894E1,-9.581888199E0,-4.453351200E-1,6.366376877E0
3.327392332E1,-8.238699913E0,-3.711125851E-1,5.528380394E0
3.332591658E1,-7.106207848E0,-9.050358534E-1,5.988081455E0
3.337791001E1,-6.591438770E0,-2.418217510E-1,4.872349262E0
3.342990340E1,-7.012830734E0,-5.315290093E-1,4.213923454E0
3.348189663E1,-7.158881664E0,2.322446555E-1,4.276175022E0
3.353388989E1,-7.125361919E0,7.158881426E-1,4.676018715E0
3.358588321E1,-8.463761330E0,1.213897347E0,4.889109135E0
3.363787684E1,-8.171659470E0,1.843591571E0,5.169239521E0
3.368987089E1,-9.328094482E0,3.045517445E0,5.027976990E0
3.374186418E1,-9.996097565E0,1.838803053E0,4.987274647E0
3.379385761E1,-8.921068192E0,2.432583094E0,4.067873001E0
3.384585093E1,-7.960963726E0,3.114951611E0,4.046324253E0
3.389784659E1,-1.028341007E1,2.497228622E0,3.629720688E0
3.394984538E1,-1.105676079E1,1.915419817E0,3.917033672E0
3.400184090E1,-1.039833546E1,1.364736676E0,3.275367975E0
3.405383419E1,-8.387145042E0,2.195549965E0,2.621730804E0
3.410582762E1,-9.541185379E0,1.424593568E0,2.250618219E0
3.415782091E1,-9.694418907E0,1.084606528E0,2.013585091E0
3.420981424E1,-8.468549728E0,1.010383964E0,1.711906433E0
3.426180763E1,-8.121379852E0,1.055875182E0,1.783734679E0
3.431380092E1,-8.985713005E0,6.273000240E-1,1.118126392E0
3.436579471E1,-8.818114281E0,6.368771195E-1,1.824437380E0
3.441778857E1,-8.260248184E0,1.288119793E0,2.712713242E0
3.446978189E1,-8.880365372E0,1.458113313E0,3.045517445E0
3.452177529E1,-9.885960579E0,2.109356165E0,2.018373728E0
3.457376858E1,-1.044622135E1,1.671203852E0,1.462901950E0
3.462576194E1,-9.323306084E0,1.429382086E0,1.857957244E0
3.467775530E1,-8.865999222E0,1.067846537E0,2.351177931E0
3.472974852E1,-9.323306084E0,1.209108829E0,2.451737404E0
3.478174264E1,-9.414288521E0,1.496421814E0,2.944957972E0
3.483373626E1,-9.644139290E0,2.071047783E0,2.755810261E0
3.488572959E1,-9.608224869E0,2.595393896E0,2.758204460E0
3.493772298E1,-8.504464149E0,3.055094719E0,2.566662550E0
3.498971754E1,-6.086246490E0,3.859570980E0,2.250618219E0
3.504171360E1,-9.720755577E0,9.409499764E-1,2.006402254E0
3.509370699E1,-9.194015503E0,1.680780888E0,1.975276709E0
3.514570032E1,-9.811738014E0,3.548315287E0,3.471698523E0
3.519769358E1,-8.571503639E0,4.199557781E0,3.222693920E0
3.524968697E1,-9.270631790E0,3.105374336E0,1.774157643E0
3.530168030E1,-9.500482559E0,-8.212362528E-1,5.458946824E-1
3.535367362E1,-1.179419804E1,-4.486870766E0,5.650488734E-1
3.540566761E1,-6.241874218E0,-2.561874151E0,5.267404556E0
3.545766146E1,-8.341653824E0,-1.747820616E0,1.932179809E0
3.550965459E1,-1.630501175E1,-7.855615616E0,-8.818114281E0
3.556164808E1,-8.063917160E0,7.697593689E0,-1.091789365E0
3.561364137E1,-5.679219723E0,1.446141958E0,5.195576191E0
3.566563460E1,-9.912297249E0,1.915419847E-2,5.315289974E0
3.571762806E1,-1.241192055E1,1.668809533E0,4.762212753E0
3.576962145E1,-9.735121727E0,2.351177931E0,6.909877300E0
3.582161570E1,-1.097535610E1,2.499622822E0,7.307326794E0
3.587360903E1,-7.340846539E0,3.246636629E0,6.967339516E0
3.592560236E1,-4.793338299E0,3.653663397E0,8.485309601E0
3.597759565E1,-3.998438835E0,4.479688168E0,5.578660488E0
3.602959061E1,-1.055875182E0,4.393494129E0,6.409473896E0
3.608158916E1,-5.889915824E-1,5.815693378E0,4.534756660E0
3.613358599E1,3.531555414E0,5.027976990E0,5.420638084E0
3.618558012E1,6.280182838E0,2.937775135E0,6.859597206E0
3.623757331E1,4.316877365E0,4.058295727E0,3.931399345E0
3.628956667E1,4.359974384E0,3.960130453E0,6.320885658E0
3.634156006E1,6.668055534E0,3.842811108E0,4.642498970E0
3.639355332E1,5.332049847E0,3.172414064E0,5.159662247E0
3.644554714E1,5.490072250E0,3.385504484E0,5.921041489E0
3.649754100E1,3.538738251E0,3.363956213E0,4.113364220E0
3.654953442E1,4.597007751E0,2.604970932E0,4.580247879E0
3.660152795E1,6.629746914E0,2.585816860E0,5.327261448E0
3.665352101E1,7.362394810E0,2.449343204E0,6.572284222E0
3.670551436E1,7.185218811E0,3.627326250E0,7.714353561E0
3.675750769E1,7.913078308E0,3.524372578E0,8.832479477E0
3.680950112E1,1.007510853E1,4.194769382E0,9.249083519E0
3.686149490E1,1.345582485E1,4.826858044E0,1.206235695E1
3.691348892E1,2.104567528E1,7.146910191E0,1.346540165E1
3.696548215E1,3.733632278E1,1.698498535E1,8.396721840E0
3.701747551E1,3.085262489E1,1.079339123E1,6.919454336E-1
3.706946867E1,4.781366825E0,-1.469366455E1,2.520213699E1
3.712146332E1,-9.512454033E0,-4.755029678E1,9.708784103E0
3.717346215E1,-1.001285744E1,-1.775354767E1,1.738243461E0
3.722545870E1,-1.065452337E0,-1.388679385E0,-5.054314137E0
3.727745213E1,2.810878515E0,3.754222870E0,-2.063864946E0
3.732944536E1,4.685595989E0,5.063891411E0,8.930644989E-1
3.738143875E1,2.552296877E0,3.189173937E0,3.383110285E0
3.743343201E1,4.063084126E0,1.031932473E0,6.150891781E0
3.748542537E1,6.232297421E0,6.919454336E-1,6.538764477E0
3.753741876E1,5.755836487E0,2.154847383E-1,9.313729286E0
3.758941262E1,6.718335152E0,2.346389294E0,1.010623360E1
3.764140637E1,4.939388752E0,4.137306690E0,1.230657291E1
3.769339980E1,2.655250788E0,3.735068798E0,9.821314812E0
3.774539302E1,-3.000026226E0,2.379909277E0,9.799766541E0
3.779738705E1,-1.143505669E1,1.544307232E0,2.973689318E0
3.784937971E1,-1.394904518E1,3.490852594E0,4.328848839E0
3.790137313E1,-1.066649437E1,4.192375183E0,5.588237286E0
3.795336669E1,-1.087719059E1,4.309694767E0,6.816500187E0
3.800536048E1,-1.166251278E1,2.729473352E0,4.620950222E0
3.805735410E1,-1.087240219E1,2.667222023E0,4.862771988E0
3.810934752E1,-1.043424988E1,1.087000728E0,4.304905891E0
3.816134072E1,-9.414288521E0,1.807677507E0,4.039141655E0
3.821333478E1,-8.705583572E0,1.752609134E0,3.366350412E0
3.826533110E1,-9.572310448E0,2.423006058E0,4.130124092E0
3.831732472E1,-7.865192890E0,2.535537004E0,3.047911882E0
3.836931812E1,-7.398309231E0,1.913025618E0,3.565075159E0
3.842131141E1,-6.739883423E0,2.889889717E0,3.543526649E0
3.847330483E1,-8.485309601E0,2.693559170E0,3.289733648E0
3.852529806E1,-1.094183540E1,1.740637779E0,3.050306082E0
3.857729152E1,-9.814132690E0,1.355159521E0,2.710319042E0
3.862928544E1,-7.824490070E0,1.252205729E0,2.983266354E0
3.868127910E1,-7.539571285E0,1.934574008E0,2.636096478E0
3.873327256E1,-9.296969414E0,1.568249941E0,2.741444588E0
3.878526598E1,-1.077902508E1,1.264177084E0,1.812466025E0
3.883725941E1,-9.476539612E0,1.415016413E0,2.114144564E0
3.888925253E1,-8.480521202E0,1.443747759E0,2.712713242E0
3.894124583E1,-8.765439987E0,1.371919513E0,2.578634024E0
3.899323949E1,-9.146129608E0,1.400650740E0,2.686376333E0
3.904523364E1,-9.057541847E0,1.527547359E0,2.164424419E0
3.909722683E1,-9.081484795E0,1.802888989E0,2.063864946E0
3.914931697E1,-9.399923325E0,1.628106833E0,1.826831698E0
3.920131046E1,-9.464568138E0,1.632895470E0,1.704723716E0
3.925330435E1,-9.440625191E0,1.240234375E0,1.939362645E0
3.930530290E1,-9.019232750E0,1.295302629E0,2.114144564E0
3.935729999E1,-9.069513321E0,1.316851139E0,2.071047783E0
3.940929365E1,-9.378374100E0,1.249811411E0,1.867534399E0
3.946128705E1,-9.399923325E0,1.383890867E0,1.687963724E0
3.951328037E1,-9.194015503E0,1.410227895E0,1.766974807E0
3.956527370E1,-9.507665634E0,1.161223292E0,1.652049661E0
3.961726702E1,-9.536396980E0,1.376708031E0,1.577827096E0
3.966926042E1,-9.505270958E0,1.283331275E0,1.395862222E0
3.972125384E1,-9.387951851E0,1.441353440E0,1.556278586E0
3.977324799E1,-9.397528648E0,1.319245458E0,1.403045058E0
3.982524139E1,-9.229928970E0,1.312062621E0,1.347976685E0
3.987723478E1,-9.366402626E0,1.134886265E0,1.374313712E0
3.992922807E1,-9.330489159E0,1.144463301E0,1.419804931E0
3.998122146E1,-9.512454033E0,1.082212210E0,1.371919513E0
4.003321476E1,-9.208380699E0,1.292908430E0,1.438959122E0
4.008520805E1,-9.229928970E0,1.256994247E0,1.558672905E0
4.013720171E1,-9.534002304E0,1.271359921E0,1.438959122E0
4.018919579E1,-9.459779739E0,1.340793848E0,1.472478986E0
4.024118905E1,-9.598648071E0,1.204320192E0,1.790917516E0
4.029318258E1,-9.569916725E0,1.067846537E0,2.090201855E0
4.034517614E1,-9.296969414E0,1.055875182E0,2.075836182E0
4.039717239E1,-9.191620827E0,1.048692346E0,2.164424419E0
4.044916645E1,-9.182044029E0,1.012778282E0,1.960911036E0
4.050115974E1,-9.306546211E0,9.289786220E-1,1.752609134E0
4.055315314E1,-9.330489159E0,8.715160489E-1,1.757397652E0
4.060514646E1,-9.352037430E0,8.691217303E-1,1.733454943E0
4.065713979E1,-9.323306084E0,9.050358534E-1,1.747820616E0
4.070913318E1,-9.129369736E0,1.089395046E0,1.707117915E0
4.076112660E1,-9.134158134E0,1.115732074E0,1.889082789E0
4.081312082E1,-9.385557175E0,1.103760719E0,1.728666425E0
4.086511408E1,-9.601041794E0,9.648927450E-1,1.707117915E0
4.091710741E1,-9.699207306E0,1.029538155E0,1.771763325E0
4.096910080E1,-9.553156853E0,1.089395046E0,1.838803053E0
4.102109406E1,-9.229928970E0,1.118126392E0,1.893871427E0
4.107308745E1,-9.220352173E0,1.218685865E0,1.836408734E0
4.112508085E1,-9.450202942E0,1.189954638E0,1.613741279E0
4.117707480E1,-9.507665634E0,1.189954638E0,1.697540879E0
4.122906842E1,-9.538790703E0,1.194743156E0,1.932179809E0
4.128106191E1,-8.961771011E0,1.508393168E0,1.908236980E0
4.133305514E1,-9.088666916E0,1.326428294E0,1.953728199E0
4.138504866E1,-9.356825829E0,8.595446348E-1,1.810071707E0
4.143704679E1,-9.196409225E0,8.786988258E-1,1.812466025E0
4.148904445E1,-8.990502357E0,8.212362528E-1,1.743032098E0
4.154103944E1,-9.122186661E0,8.763045669E-1,1.860351562E0
4.159303283E1,-9.359220505E0,1.012778282E0,1.903448462E0
4.164502616E1,-9.450202942E0,1.098972082E0,1.812466025E0
4.169701942E1,-9.529213905E0,1.043903828E0,1.771763325E0
4.174901291E1,-9.531607628E0,8.786988258E-1,1.738243461E0
4.180100630E1,-9.407105446E0,7.134938836E-1,1.776551962E0
4.185300045E1,-9.182044029E0,5.171633363E-1,1.898659945E0
4.190499388E1,-8.351230621E0,4.046324492E-1,2.121327400E0
4.195698730E1,-9.232323647E0,7.757450342E-1,1.891477108E0
4.200898060E1,-1.095380688E1,4.070267081E-1,1.529941559E0
4.206097392E1,-1.090113354E1,1.508393139E-1,1.498816013E0
4.211296715E1,-8.557138443E0,3.232271075E-1,1.704723716E0
4.216496051E1,-7.292961121E0,6.991282701E-1,1.489238977E0
4.221695397E1,-8.636149406E0,-1.125309169E-1,2.171607256E0
4.226894809E1,-1.017806244E1,-1.053480953E-1,2.549902678E0
4.232094155E1,-1.020200539E1,6.273000240E-1,3.093403101E0
4.237293490E1,-1.002004051E1,1.146857619E0,3.371139050E0
4.242492816E1,-8.662486076E0,9.409499764E-1,3.383110285E0
4.247692169E1,-8.181237221E0,5.698373914E-1,3.665634632E0
4.252891964E1,-7.958569527E0,5.746259689E-1,4.228289127E0
4.258091733E1,-8.169265747E0,4.740664065E-1,4.319271564E0
4.263291153E1,-7.881952763E0,4.094209969E-1,4.199557781E0
4.268490485E1,-8.224333763E0,4.405465722E-1,4.053507328E0
4.273689825E1,-8.549955368E0,3.232271075E-1,4.245049000E0
4.278889150E1,-8.497281075E0,1.460507661E-1,3.972101927E0
4.284088490E1,-8.241093636E0,2.944957912E-1,3.945764780E0
4.289287832E1,-8.842057228E0,-4.429408312E-1,3.845205307E0
4.294487172E1,-8.581081390E0,-7.063110471E-1,3.665634632E0
4.299686600E1,-9.344854355E0,-1.371919513E0,3.311282158E0
4.304885929E1,-9.246688843E0,-1.529941559E0,3.280156374E0
4.310085252E1,-8.765439987E0,-1.697540879E0,3.258608103E0
4.315284598E1,-9.000079155E0,-2.075836182E0,3.249030828E0
4.320483927E1,-9.419076920E0,-2.238646984E0,3.407052994E0
4.325683256E1,-9.229928970E0,-2.217098475E0,3.725491524E0
4.330882596E1,-8.940221786E0,-2.063864946E0,3.677606106E0
4.336081951E1,-8.945011139E0,-2.063864946E0,3.651269197E0
4.341281357E1,-8.827691078E0,-1.994430900E0,3.727885962E0
4.346480696E1,-8.921068192E0,-1.999219418E0,3.675211906E0
4.351680028E1,-8.786988258E0,-1.963305354E0,3.756617069E0
4.356879381E1,-8.403904915E0,-1.865140080E0,3.998438835E0
4.362078963E1,-8.827691078E0,-2.051893473E0,3.586623669E0
4.367278426E1,-8.877970695E0,-2.097384691E0,3.553103924E0
4.372477758E1,-8.379961967E0,-1.948939681E0,3.533949614E0
4.377677091E1,-7.714353561E0,-1.776551962E0,3.349590540E0
4.382876484E1,-8.111803055E0,-1.623318315E0,3.569863796E0
4.388075760E1,-8.506858826E0,-1.347976685E0,3.888302326E0
4.393275102E1,-9.079090118E0,-1.307274103E0,4.304905891E0
4.398474491E1,-9.086273193E0,-8.116591573E-1,3.768588543E0
4.403673853E1,-9.608224869E0,-5.051919818E-1,3.220299721E0
4.408873202E1,-9.435836792E0,-8.044763207E-1,3.407052994E0
4.414072532E1,-8.636149406E0,-1.007989645E0,3.533949614E0
4.419271867E1,-8.447001457E0,-9.337671995E-1,3.062277555E0
4.424471203E1,-8.511647224E0,-1.115732074E0,3.004814863E0
4.429670543E1,-8.549955368E0,-1.012778282E0,3.313676357E0
4.434869865E1,-9.234718323E0,-7.757450342E-1,3.620143414E0
4.440069264E1,-9.577098846E0,-6.009629965E-1,3.749434233E0
4.445268633E1,-9.074301720E0,-4.070267081E-2,4.431802750E0
4.450467972E1,-8.995290756E0,1.532335877E-1,4.620950222E0
4.455667295E1,-8.791776657E0,6.488484740E-1,4.716721535E0
4.460866637E1,-8.880365372E0,9.146129489E-1,4.455745220E0
4.466066339E1,-9.383162498E0,2.250618339E-1,3.814079762E0
4.471266168E1,-9.938634872E0,-6.656084061E-1,3.428601503E0
4.476465647E1,-8.643332481E0,-1.151646137E0,3.950553417E0
4.481664967E1,-7.937020779E0,-3.711125851E-1,3.651269197E0
4.486864292E1,-7.556331158E0,-1.388679445E-1,3.627326250E0
4.492063638E1,-6.988888264E0,5.578660369E-1,4.652075768E0
4.497262968E1,-7.319298267E0,6.440598965E-1,5.030371189E0
4.502462307E1,-1.016848469E1,-2.657644987E0,3.680000305E0
4.507661640E1,-9.083878517E0,-2.540325642E0,3.866753817E0
4.512861035E1,-8.619389534E0,-1.333611012E0,3.249030828E0
4.518060400E1,-8.166871071E0,-5.818088055E-1,4.525179386E0
4.523259743E1,-8.470944405E0,-3.351984918E-2,4.103786945E0
4.528459069E1,-8.789382935E0,6.201171875E-1,4.968120098E0
4.533658408E1,-9.136552811E0,1.201925993E0,4.788549423E0
4.538857748E1,-9.342460632E0,4.716721475E-1,4.486870766E0
4.544057070E1,-8.729525566E0,1.963305324E-1,4.419831276E0
4.549256399E1,-7.678439140E0,-1.096577883E0,5.633728504E0
4.554455818E1,-7.446194649E0,-2.688770533E0,5.854001999E0
4.559655167E1,-7.218738556E0,-7.685621977E-1,5.159662247E0
4.564854503E1,-8.324893951E0,-2.777358890E-1,3.328042030E-1
4.570053839E1,-1.156434727E1,-1.747820616E0,-3.775771379E0
4.575253391E1,-1.122914886E1,-5.506832004E-1,4.225894928E0
4.580452904E1,-6.761432171E0,-4.884320498E-1,9.881172180E0
4.585652236E1,-9.088666916E0,8.260248303E-1,7.733507633E0
4.590851595E1,-6.325674057E0,3.351984620E-1,8.066311836E0
4.596050931E1,-7.676044941E0,1.673598051E0,6.924242973E0
4.601250244E1,-7.115784645E0,1.984853864E0,8.025609016E0
4.606449570E1,-6.419050694E0,2.451737404E0,8.782199860E0
4.611648916E1,-5.212336063E0,3.835628271E0,7.776604652E0
4.616848338E1,-2.741444588E0,4.209135056E0,7.008042336E0
4.622047673E1,-1.166011810E0,4.427014351E0,6.107795238E0
4.627247052E1,1.817254543E0,4.352791786E0,4.817280769E0
4.632446388E1,5.126142502E0,4.450956821E0,6.481301785E0
4.637645674E1,4.022381783E0,2.765387297E0,6.431022167E0
4.642839973E1,9.031204224E0,3.768588543E0,7.084659100E0
4.648039312E1,6.141314983E0,2.827638626E0,6.873962879E0
4.653238651E1,6.366376877E0,3.256213665E0,7.834067345E0
4.658438073E1,6.249057293E0,2.822849989E0,5.952167034E0
4.663637406E1,6.344828129E0,1.879505754E0,4.846012115E0
4.668836751E1,6.313702583E0,1.728666425E0,5.384724140E0
4.674036124E1,4.427014351E0,4.027170181E0,3.799714088E0
4.679235679E1,5.253038883E0,1.369525194E0,4.606584549E0
4.684435529E1,5.549929142E0,1.268965602E0,4.836435318E0
4.689635161E1,6.651295185E0,1.295302629E0,4.218712330E0
4.694834507E1,6.407079220E0,2.396669149E0,6.330462456E0
4.700033846E1,7.266623974E0,2.499622822E0,6.653689861E0
4.705233172E1,9.356825829E0,2.015979290E0,8.288979530E0
4.710432512E1,1.070001411E1,2.813272953E0,9.445414543E0
4.715631851E1,1.331695652E1,2.710319042E0,1.082212257E1
4.720831236E1,1.415495300E1,4.008016109E0,1.100408745E1
4.726030612E1,2.825723076E1,5.657671452E0,1.247177792E1
4.731229948E1,3.666113663E1,1.844788742E1,1.503604531E0
4.736429294E1,2.467539597E1,7.838855743E0,-1.484450340E0
4.741628630E1,5.940196037E0,-9.816526413E0,2.023641014E1
4.746827942E1,-1.778467369E1,-4.118392181E1,1.390594769E1
4.752027282E1,-8.176448822E0,-1.383411980E1,-5.147690773E0
4.757226611E1,2.427794695E0,-2.633702382E-2,-3.299310684E0
4.762426006E1,7.213950157E0,4.249837875E0,-8.834874034E-1
4.767625382E1,7.460560322E0,2.039922237E0,3.134105682E0
4.772824708E1,6.500456333E0,3.991255999E0,2.420611858E0
4.778024054E1,7.127756119E0,1.891477108E0,6.009629726E0
4.783223396E1,9.660899162E0,3.225088120E0,6.857203007E0
4.788422968E1,9.387951851E0,2.717501879E0,8.514040947E0
4.793622844E1,8.655303001E0,2.705530643E0,7.237892628E0
4.798822376E1,5.243461609E0,3.459727049E0,9.320911407E0
4.804021719E1,1.517970204E0,1.968093872E0,1.095859623E1
4.809221058E1,-2.255406857E0,1.850774407E0,7.532388687E0
4.814420381E1,-1.154279900E1,-5.674431324E-1,8.346442223E0
4.819619723E1,-8.597841263E0,4.312088966E0,5.334444046E0
4.824819063E1,-1.146378803E1,3.167625666E0,7.211555958E0
4.830018398E1,-1.233051491E1,2.051893473E0,7.836461544E0
4.835217814E1,-8.504464149E0,1.350371003E0,7.951386452E0
4.840417159E1,-8.164477348E0,5.937801600E-1,7.017619610E0
4.845616482E1,-6.672843933E0,4.836435020E-1,4.752635479E0
4.850815821E1,-5.899493217E0,1.388679385E0,4.740664005E0
4.856015154E1,-6.744672298E0,1.254600048E0,4.822069645E0
4.861214487E1,-7.405491829E0,2.633702278E0,5.415849686E0
4.866413819E1,-7.822095871E0,2.272166729E0,4.711932659E0
4.871613158E1,-7.628159523E0,4.084632874E0,4.989668846E0
4.876812584E1,-7.513234138E0,3.828445435E0,5.801327705E0
4.882011916E1,-8.403904915E0,4.738269806E0,5.674431324E0
4.887211259E1,-8.346442223E0,4.391099930E0,5.063891411E0
4.892410588E1,-7.886741161E0,3.521978140E0,5.006428719E0
4.897610060E1,-7.146910191E0,3.632114887E0,4.714327335E0
4.902809659E1,-8.202785492E0,3.117345810E0,4.058295727E0
4.908008992E1,-7.702382088E0,3.141288519E0,4.218712330E0
4.913208325E1,-8.025609016E0,3.189173937E0,3.950553417E0
4.918407667E1,-8.851634026E0,2.796513081E0,3.387898922E0
4.923606996E1,-9.012050629E0,2.379909277E0,3.268185139E0
4.928806326E1,-8.166871071E0,2.159635782E0,3.225088120E0
4.934005662E1,-8.202785492E0,2.219492674E0,3.198751211E0
4.939205073E1,-8.480521202E0,2.150058746E0,3.067065954E0
4.944404426E1,-8.401510239E0,2.212309837E0,3.155654192E0
4.949603762E1,-8.526012421E0,2.585816860E0,3.150865555E0
4.954803098E1,-9.083878517E0,2.786935806E0,3.392687321E0
4.960002430E1,-9.287391663E0,2.909043789E0,3.416630268E0
4.965201756E1,-9.375980377E0,2.923409462E0,3.510006905E0
4.970401096E1,-8.827691078E0,3.802108288E0,4.194769382E0
4.975600441E1,-7.324086666E0,4.161249638E0,4.537150860E0
4.980799853E1,-7.067899227E0,3.830839634E0,4.259414673E0
4.985999196E1,-7.036773682E0,2.880312681E0,3.292127848E0
4.991198535E1,-6.883540154E0,1.766974807E0,4.036747456E0
4.996397861E1,-5.039948463E0,1.015172482E0,6.038361073E0
5.001597353E1,-1.215573311E1,-1.254600048E0,-2.442160249E-1
5.006797242E1,-1.436804295E1,1.333611012E0,-3.162837029E0
5.011996861E1,-1.028580475E1,9.074301720E-1,8.739103079E-1
5.017196203E1,-8.006455421E0,1.235445857E0,3.272973776E0
5.022395523E1,-8.399115562E0,7.996878028E-1,2.480468750E0
5.027594862E1,-8.571503639E0,5.913859010E-1,2.047105074E0
5.032794198E1,-9.028810501E0,4.716721475E-1,1.309668303E0
5.037993537E1,-8.772623062E0,1.051086664E0,2.102173328E0
5.043192863E1,-8.616994858E0,1.450930476E0,2.806090117E0
5.048392255E1,-9.581888199E0,1.886688590E0,2.576239586E0
5.053591627E1,-9.471751213E0,1.802888989E0,3.663240433E0
5.058790960E1,-9.378374100E0,1.972882390E0,3.718308687E0
5.063990309E1,-9.615407944E0,1.845985889E0,3.402264595E0
5.069189645E1,-9.064723969E0,1.685569525E0,3.332830429E0
5.074388964E1,-8.947404861E0,1.719089270E0,3.167625666E0
5.079588297E1,-8.796566010E0,1.546701550E0,2.853975534E0
5.084787663E1,-8.731920242E0,2.008796453E0,3.591412306E0
5.089987025E1,-9.780612946E0,3.421418667E0,3.043123245E0
5.095186414E1,-8.317710876E0,3.153259993E0,3.785348415E0
5.100385726E1,-8.011243820E0,2.358360767E0,2.983266354E0
5.105585062E1,-7.142121792E0,2.633702382E-2,1.596981287E0
5.110784495E1,-7.889135361E0,-4.233078003E0,3.354378939E0
5.115984110E1,-7.149304390E0,-3.967313290E0,3.550709486E0
5.121183463E1,-8.849239349E0,-2.722290516E0,2.425400496E0
5.126382809E1,-7.269018173E0,-4.082238674E0,4.465322495E0
5.131582135E1,-1.420044422E1,-3.210722446E0,1.321639657E0
5.136781477E1,-9.086273193E0,-8.332076073E-1,1.879505754E0
5.141980817E1,-8.980924606E0,-4.556304932E0,2.159635782E0
5.147180139E1,-1.006313705E1,-3.210722446E0,3.390293121E0
5.152379542E1,-9.615407944E0,-1.122914910E0,2.475680113E0
5.157578900E1,-9.435836792E0,1.192348838E0,4.395888329E0
5.162778243E1,-9.696812630E0,4.544333458E0,5.209941864E0
5.167977576E1,-8.533195496E0,6.778192043E0,4.527573586E0
5.173176912E1,-7.807730198E0,7.419857502E0,5.758230686E0
5.178376238E1,-7.276201248E0,5.901887417E0,4.008016109E0
5.183575570E1,-7.666468143E0,5.545140266E0,3.955342054E0
5.188774903E1,-7.034379482E0,4.925023079E0,4.498842239E0
5.193974301E1,-7.812518597E0,4.374340057E0,4.848406315E0
5.199173667E1,-6.203566074E0,4.982485771E0,6.232297421E0
5.204373020E1,-6.186806202E0,4.130124092E0,5.564294815E0
5.209572356E1,-6.150891781E0,5.154873848E0,6.584255695E0
5.214771758E1,-4.424619675E0,5.355992794E0,6.792557716E0
5.219971640E1,-3.897879362E0,3.747040033E0,5.051919937E0
5.225171349E1,-1.249811411E0,4.407859802E0,6.107795238E0
5.230370789E1,8.499675393E-1,4.254626274E0,6.514821529E0
5.235570118E1,1.381496549E0,2.901860952E0,8.693612099E0
5.240769444E1,4.221106529E0,2.446948767E0,8.863605499E0
5.245968783E1,2.245829821E0,4.173221111E0,5.894704342E0
5.251168106E1,5.980898380E0,4.292934895E0,6.026389599E0
5.256367445E1,6.517216206E0,3.687183142E0,6.883540154E0
5.261566870E1,7.472531796E0,3.907456398E0,8.877970695E0
5.266766200E1,5.511620522E0,3.581835032E0,6.680026531E0
5.271965546E1,5.312895775E0,2.585816860E0,6.840443134E0
5.277164878E1,5.868367672E0,3.040729046E0,6.205960274E0
5.282364221E1,6.818894863E0,3.241847992E0,6.785374641E0
5.287563560E1,5.655277252E0,2.842004299E0,4.668835640E0
5.292762876E1,6.045543671E0,2.909043789E0,5.729499817E0
5.297962232E1,5.202759266E0,1.932179809E0,4.271386147E0
5.303161647E1,4.814886570E0,1.223474383E0,4.817280769E0
5.308360976E1,5.485283375E0,1.383890867E0,5.255433083E0
5.313560312E1,7.980117798E0,1.733454943E0,5.564294815E0
5.318759651E1,7.319298267E0,1.898659945E0,7.051139355E0
5.323959057E1,8.552350044E0,2.231464148E0,7.300143719E0
5.329158932E1,9.747093201E0,2.557085514E0,8.595446587E0
5.334358624E1,1.358511543E1,2.566662550E0,9.761458397E0
5.339557984E1,1.628825188E1,3.569863796E0,1.006792545E1
5.344757313E1,3.611524200E1,1.029777622E1,1.006553173E1
5.349956656E1,3.610087585E1,1.821324921E1,-8.557138443E0
5.355155978E1,1.531378174E1,-5.291347504E-1,-7.685621977E-1
5.360355308E1,4.635315895E0,-1.414776993E1,-1.280937076E0
5.365554650E1,-9.205986977E0,-4.250077057E1,1.121957207E1
5.370748604E1,-1.257473087E1,-7.206767082E0,-1.097535610E1
5.375947986E1,7.901106834E0,1.891477108E0,-4.625739098E0
5.381147329E1,1.250769138E1,1.403045082E1,7.541965842E-1
5.386346671E1,4.455745220E0,5.545140266E0,1.237840056E0
5.391545994E1,1.412622184E-1,5.339232683E-1,1.395862222E0
5.396745333E1,-1.819648862E0,-2.928198099E0,3.945764780E0
5.401944669E1,-1.312062621E0,-6.378347874E0,4.422225475E0
5.407143992E1,-1.371919513E0,-1.026425648E1,8.674457550E0
5.412343440E1,-1.127703428E0,-1.370961761E1,1.222756100E1
5.417542763E1,-2.420611858E0,-1.117647457E1,1.510548019E1
5.422742095E1,-3.428601503E0,-8.329682350E0,1.503604603E1
5.427941441E1,-7.273807049E0,-6.380742550E0,1.136083412E1
5.433140814E1,-1.882378769E1,-7.716747761E0,-3.790137053E0
5.438340436E1,-1.922363281E1,-2.444554567E0,-9.435836792E0
5.443539839E1,-2.117975426E1,9.337671995E-1,-6.766220570E0
5.448739164E1,-1.332174492E1,3.852388144E0,-8.164477348E-1
5.453938507E1,-7.829278469E0,1.015172482E0,2.554691315E0
5.459137840E1,-9.914691925E0,-4.012804508E0,3.419024467E0
5.464337169E1,-1.020439911E1,-6.952973843E0,1.766974807E0
5.469536505E1,-1.005834866E1,-7.336058140E0,3.399870098E-1
5.474735887E1,-9.047964096E0,-8.109408379E0,1.699935049E-1
5.479935296E1,-6.251451492E0,-6.454965115E0,1.656838179E0
5.485134602E1,-4.659258842E0,-4.448562622E0,2.296109438E0
5.490333938E1,-5.944984436E0,-2.530748367E0,1.709512234E0
5.495533267E1,-7.467742920E0,-1.733454943E0,2.183578730E0
5.500732600E1,-8.961771011E0,-5.004034638E-1,2.810878515E0
5.505931942E1,-9.830892563E0,-3.040728867E-1,3.296916485E0
5.511131281E1,-9.893143654E0,3.064671755E-1,3.110162973E0
5.516330670E1,-1.040312386E1,1.563461423E0,3.383110285E0
5.521530036E1,-1.260825157E1,1.127703428E0,2.394274712E0
5.526729372E1,-1.125069714E1,8.858816624E-1,2.406246185E0
5.531928707E1,-8.901913643E0,3.974496126E-1,2.875524044E0
5.537128066E1,-7.968146324E0,1.005595446E0,2.851581335E0
5.542327888E1,-1.112858963E1,8.140534163E-2,1.661626697E0
5.547527634E1,-1.245022869E1,-7.901106775E-2,1.034326673E0
5.552727050E1,-1.011341667E1,-5.291347504E-1,2.118933201E0
5.557926376E1,-8.092648506E0,-4.213923812E-1,2.552296877E0
5.563125705E1,-7.194795609E0,2.968900800E-1,3.119740009E0
5.568325041E1,-9.007262230E0,-6.464541703E-2,2.394274712E0
5.573524377E1,-8.640937805E0,2.873129845E-1,2.332023621E0
5.578723707E1,-8.628966331E0,-1.652049571E-1,3.249030828E0
5.583923032E1,-8.705583572E0,-7.948992252E-1,3.390293121E0
5.589122464E1,-7.527599812E0,-4.980091453E-1,3.684788942E0
5.594321807E1,-7.822095871E0,-1.987248063E-1,4.022381783E0
5.599521140E1,-8.444606781E0,-1.436564885E-2,3.735068798E0
5.604720479E1,-9.258660316E0,-4.477293789E-1,4.211529255E0
5.609919808E1,-9.668081284E0,-4.309694767E-1,5.068679810E0
5.615119137E1,-9.687235832E0,-2.921015322E-1,4.280963421E0
5.620318483E1,-8.490098000E0,9.577099234E-2,3.773377180E0
5.625517822E1,-7.917866707E0,2.849186957E-1,3.466909885E0
5.630717241E1,-8.303344727E0,-1.675992459E-2,3.411841631E0
5.635916580E1,-9.105426788E0,-6.943397224E-2,3.404658794E0
5.641115909E1,-9.150918007E0,5.506832153E-2,3.359167576E0
5.646315265E1,-8.444606781E0,1.077423692E-1,3.316070557E0
5.651514871E1,-8.485309601E0,-1.005595401E-1,2.954535007E0
5.656714310E1,-6.847625732E0,1.915419847E-2,2.621730804E0
5.661913642E1,-9.217958450E0,-1.580221415E0,3.102980137E0
5.667112985E1,-7.106207848E0,-7.901107073E-1,3.098191500E0
5.672312314E1,-4.941783428E0,-1.127703428E0,3.205934048E0
5.677511640E1,-2.961717844E0,-1.144463301E0,2.595393896E0
5.682710976E1,-2.365543604E0,-3.035940409E0,1.810071707E0
5.687910346E1,-7.295355320E0,-9.615407944E0,1.596981287E0
5.693109744E1,-9.050358772E0,-1.356117249E1,3.249030828E0
5.698309083E1,-7.333663940E0,-1.386045647E1,4.764606953E0
5.703508419E1,-4.534756660E0,-1.210305882E1,4.834040642E0
5.708707742E1,-2.573845387E0,-9.976943016E0,3.778165579E0
5.713907098E1,-3.409447432E0,-8.387145042E0,2.930592299E0
5.719106414E1,-5.059102535E0,-7.877163887E0,1.379102230E0
5.724305746E1,-5.940196037E0,-8.291373253E0,1.242628574E0
5.729505138E1,-5.418243885E0,-8.669669151E0,1.726272106E0
5.734704514E1,-4.757423878E0,-8.707977295E0,1.834014535E0
5.739903850E1,-4.635315895E0,-8.782199860E0,1.881899953E0
5.745103192E1,-4.637710094E0,-8.576292038E0,1.678386688E0
5.750302525E1,-5.118959427E0,-9.129369736E0,2.126116037E0
5.755502264E1,-4.685595989E0,-9.110215187E0,2.327235222E0
5.760702076E1,-4.189980984E0,-8.669669151E0,2.820455790E0
5.765901619E1,-4.259414673E0,-7.692804813E0,2.463708878E0
5.771100948E1,-4.338426113E0,-7.254652500E0,1.994430900E0
5.776300284E1,-4.084632874E0,-7.415069103E0,2.152452946E0
5.781499623E1,-3.687183142E0,-7.968146324E0,2.478074312E0
5.786698953E1,-3.481275558E0,-8.583475113E0,3.000026226E0
5.791898289E1,-3.196356773E0,-9.105426788E0,3.684788942E0
5.797097727E1,-3.172414064E0,-9.095849991E0,3.708731651E0
5.802297050E1,-3.447755814E0,-8.514040947E0,3.181991339E0
5.807496406E1,-4.005621910E0,-8.516435623E0,2.703136206E0
5.812695725E1,-4.721509933E0,-8.636149406E0,2.413429022E0
5.817895051E1,-5.250644684E0,-8.533195496E0,1.884294271E0
5.823094390E1,-5.954561234E0,-8.518829346E0,1.915419817E0
5.828293723E1,-6.138920784E0,-8.466156006E0,2.032739401E0
5.833493065E1,-5.767807961E0,-8.051946640E0,2.233858347E0
5.838692470E1,-5.980898380E0,-7.680833817E0,2.174001455E0
5.843891819E1,-6.301731110E0,-7.465348721E0,1.869928598E0
5.849091162E1,-6.557918549E0,-7.266623974E0,1.836408734E0
5.854290481E1,-6.866780281E0,-7.185218811E0,1.843591571E0
5.859489854E1,-7.321692467E0,-7.182824612E0,1.822043180E0
5.864689562E1,-7.314509392E0,-6.938608170E0,2.001613855E0
5.869889378E1,-7.328875065E0,-6.435810566E0,1.992036581E0
5.875088837E1,-7.336058140E0,-5.997658253E0,2.176395893E0
5.880288163E1,-7.228315830E0,-5.626545906E0,2.267378330E0
5.885487492E1,-7.355212212E0,-5.279376030E0,2.343995094E0
5.890686825E1,-7.496474266E0,-4.893897533E0,2.293715239E0
5.895886168E1,-7.360000610E0,-4.302511692E0,2.181184292E0
5.901085480E1,-7.589851379E0,-3.974496126E0,1.915419817E0
5.906284826E1,-7.683228016E0,-3.735068798E0,1.905842781E0
5.911484248E1,-8.186025620E0,-3.766194344E0,1.750214934E0
5.916683587E1,-8.253065109E0,-3.634509087E0,1.826831698E0
5.921882933E1,-8.652909279E0,-3.699154615E0,1.886688590E0
5.927082259E1,-8.897125244E0,-3.545921087E0,2.039922237E0
5.932281595E1,-9.356825829E0,-3.519583941E0,2.221887112E0
5.937480944E1,-9.320911407E0,-3.021574736E0,2.075836182E0
5.942680257E1,-9.225140572E0,-2.949746609E0,2.291321039E0
5.947879619E1,-8.980924606E0,-2.870735407E0,2.099778891E0
5.953079021E1,-8.619389534E0,-2.913832426E0,1.625712633E0
5.958278357E1,-8.255459785E0,-2.940169573E0,1.438959122E0
5.963477696E1,-9.469356537E0,-3.428601503E0,2.710319042E0
5.968677032E1,-1.131294823E1,-2.411034822E0,2.332023621E0
5.973876591E1,-1.151406765E1,-2.633702159E-1,1.628106833E0
5.979076090E1,-1.208869362E1,-2.083019018E-1,1.221080184E0
5.984275430E1,-1.122436047E1,7.182824425E-3,2.130904645E-1
5.989474776E1,-8.830085754E0,-2.346389294E-1,1.261782765E0
5.994674108E1,-7.218738556E0,2.059076279E-1,1.975276709E0
5.999873437E1,-9.352037430E0,-1.149251908E-1,1.886688590E0
6.005072773E1,-8.145322800E0,3.567469418E-1,4.264203548E0
6.010272136E1,-8.988107681E0,1.256994247E0,4.395888329E0
6.015471538E1,-8.207573891E0,1.158828974E0,5.588237286E0
6.020670864E1,-7.115784645E0,1.213897347E0,4.182797909E0
6.025870193E1,-8.039975166E0,5.339232683E-1,2.035133600E0
6.031069539E1,-8.075888634E0,-9.241901040E-1,1.438959122E0
6.036268861E1,-8.363202095E0,-2.059076309E0,5.770202279E-1
6.041468201E1,-8.375173569E0,-2.631308079E0,2.612153769E0
6.046667540E1,-8.171659470E0,-4.405465722E-1,3.996044636E0
6.051866905E1,-8.863605499E0,-2.466102988E-1,3.857176781E0
6.057066308E1,-9.771035194E0,-1.003201127E0,3.653663397E0
6.062265660E1,-8.356019020E0,-3.375927508E-1,5.470917702E0
6.067464973E1,-8.868393898E0,1.580221355E-1,1.790917516E0
6.072664302E1,-1.025946712E1,-5.075862408E-1,1.716695070E0
6.077863924E1,-1.301288319E1,-3.253819466E0,-2.171607256E0
6.083063786E1,-8.557138443E0,1.103760719E0,4.668835640E0
6.088263299E1,-6.636929989E0,-1.776551962E0,6.924242973E0
6.093462631E1,-1.236642933E1,8.164477348E-1,4.352791786E0
6.098657095E1,-8.351230621E0,3.854782581E-1,7.333663940E0
6.103856421E1,-8.447001457E0,2.245829821E0,6.232297421E0
6.109055767E1,-6.869174480E0,2.631308079E0,6.545947552E0
6.114255103E1,-5.542746067E0,1.618529797E0,6.522004604E0
6.119454425E1,-5.248250484E0,1.975276709E0,8.265036583E0
6.124653831E1,-4.587430477E0,1.901054144E0,7.958569527E0
6.129853216E1,-4.010410309E0,1.879505754E0,8.542772293E0
6.135052526E1,-2.727078915E0,2.976083517E0,6.268211365E0
6.140251872E1,7.254652381E-1,3.316070557E0,9.294574738E0
6.145451191E1,1.029538155E0,4.252232075E0,8.956981659E0
6.150650527E1,3.026363373E0,4.666441441E0,6.799740314E0
6.155849866E1,5.229096413E0,4.118152618E0,8.418270111E0
6.161049208E1,4.513207912E0,4.137306690E0,8.657697678E0
6.166248624E1,5.612180233E0,2.825244188E0,8.039975166E0
6.171447963E1,5.126142502E0,3.126922846E0,6.684815407E0
6.176647299E1,5.537957668E0,2.990449190E0,6.423839092E0
6.181846635E1,6.517216206E0,3.114951611E0,6.459753513E0
6.187046134E1,5.056708336E0,3.009603500E0,4.266597748E0
6.192245699E1,5.760625362E0,1.359948039E0,4.307300568E0
6.197445035E1,5.013611317E0,2.054287672E0,3.888302326E0
6.202644365E1,5.652883053E0,1.934574008E0,4.822069645E0
6.207843707E1,6.522004604E0,1.644866824E0,5.200365067E0
6.213043030E1,5.796539307E0,1.393467903E0,5.528380394E0
6.218242362E1,6.524398804E0,1.606558442E0,5.772596359E0
6.223441708E1,7.106207848E0,1.659232497E0,6.689603806E0
6.228641104E1,8.353624344E0,1.374313712E0,6.897905827E0
6.233840463E1,8.389538765E0,9.002473354E-1,8.746285439E0
6.239039805E1,1.149730778E1,1.901054144E0,9.512454033E0
6.244239134E1,1.358511543E1,2.025556564E0,1.119802284E1
6.249438477E1,1.967375565E1,3.543526649E0,1.425551224E1
6.254637806E1,3.776010895E1,1.053480911E1,1.325709915E1
6.259837139E1,3.746800613E1,1.517730808E1,-2.159635782E0
6.265036468E1,1.613262367E1,-7.075081825E0,-3.553103924E0
6.270235890E1,8.870788574E0,-4.229246902E1,7.599428177E0
6.275435242E1,-1.646063995E1,-1.992515564E1,-7.467742920E0
6.280634558E1,-3.830839634E0,-1.092028713E1,-5.514014721E0
6.285833901E1,8.197997093E0,5.291347504E-1,-3.330436230E0
6.291033443E1,1.228262997E1,5.523591995E0,-1.800494671E0
6.296233302E1,5.157268047E0,1.177983165E0,-1.374313712E0
6.301432968E1,5.162056446E0,8.212362528E-1,2.741444588E0
6.306632347E1,6.014418125E0,-2.825244367E-1,6.409473896E0
6.311831670E1,9.277814865E0,8.356019258E-1,1.175110054E1
6.317031016E1,8.200390816E0,5.458946824E-1,1.288119888E1
6.322230338E1,4.731087208E0,5.674431324E-1,1.117408085E1
6.327429674E1,1.352765322E0,4.221106529E0,5.595420361E0
6.332629037E1,-1.041988373E1,3.062277555E0,6.071880817E0
6.337828438E1,-8.595446587E0,6.332856655E0,4.197163582E0
6.343027774E1,-1.833296204E1,4.692778587E0,-1.891477108E-1
6.348227114E1,-1.774397087E1,5.818087578E0,2.152452946E0
6.353426453E1,-1.533293629E1,2.552296877E0,1.644866824E0
6.358625772E1,-9.284997940E0,1.932179809E0,3.392687321E0
6.363825115E1,-5.870761871E0,1.549095750E0,3.095797300E0
6.369024454E1,-5.442186832E0,2.217098475E0,2.147664547E0
6.374223843E1,-8.628966331E0,2.231464148E0,2.621730804E0
6.379423208E1,-1.193546009E1,1.115732074E0,1.185166001E0
6.384622548E1,-9.687235832E0,1.098972082E0,1.608952641E0
6.389821874E1,-8.487704277E0,4.261809289E-1,1.211503029E0
6.395021219E1,-6.301731110E0,1.063058019E0,1.666415215E0
6.400220725E1,-6.703969479E0,1.252205729E0,2.032739401E0
6.405420610E1,-7.951386452E0,1.280937076E0,2.434977531E0
6.410620223E1,-9.957788467E0,1.362342358E0,2.660039425E0
6.415819552E1,-1.150927925E1,2.209915638E0,3.323253393E0
6.421018875E1,-1.209348202E1,2.087807655E0,4.522785187E0
6.426218217E1,-1.125309181E1,1.604164124E0,3.342407703E0
6.431417550E1,-8.427846909E0,1.505998850E0,2.798907280E0
6.436616886E1,-6.763826370E0,2.037527800E0,2.956929445E0
6.441816225E1,-9.258660316E0,1.675992370E0,1.936968327E0
6.447015607E1,-1.163378143E1,6.775797606E-1,9.864411950E-1
6.452214976E1,-1.021397591E1,9.744698405E-1,1.719089270E0
6.457414318E1,-9.105426788E0,1.312062621E0,1.968093872E0
6.462613648E1,-8.590658188E0,1.137280583E0,2.346389294E0
6.467812993E1,-8.801354408E0,7.589851022E-1,2.049499273E0
6.473012316E1,-9.244295120E0,1.388679445E-1,2.032739401E0
6.478211659E1,-8.190814018E0,6.560313106E-1,2.109356165E0
6.483410994E1,-7.280989647E0,8.451790214E-1,2.899466753E0
6.488610413E1,-6.713546753E0,1.441353440E0,2.832427025E0
6.493809749E1,-8.976136208E0,1.089395046E0,3.284945011E0
6.499009091E1,-1.007989693E1,2.133298874E0,2.446948767E0
6.504208417E1,-1.334568787E1,6.751855016E-1,2.959323645E0
6.509407870E1,-1.093225861E1,2.221887112E0,2.961717844E0
6.514607468E1,-8.032792091E0,1.920208454E0,2.719896078E0
6.519806811E1,-9.663292885E0,3.184385598E-1,1.429382086E0
6.525006160E1,-8.329682350E0,5.770202279E-1,1.216291547E0
6.530205486E1,-8.830085754E0,7.972934842E-1,2.015979290E0
6.535404812E1,-9.153312683E0,1.958516836E0,2.825244188E0
6.540604152E1,-9.428654671E0,2.078230619E0,2.940169573E0
6.545803497E1,-9.771035194E0,1.379102230E0,3.105374336E0
6.551002919E1,-9.399923325E0,1.103760719E0,3.253819466E0
6.556202255E1,-9.361614227E0,1.505998850E0,2.853975534E0
6.561401598E1,-8.777411461E0,2.882706881E0,3.102980137E0
6.566600917E1,-8.765439987E0,2.739050388E0,3.426207304E0
6.571800250E1,-8.497281075E0,3.110162973E0,4.288146019E0
6.576999589E1,-1.069043732E1,6.344828010E-1,4.494053841E0
6.582198908E1,-1.050847244E1,-6.129343510E-1,3.423812866E0
6.587398261E1,-8.444606781E0,-1.139674783E0,3.196356773E0
6.592597686E1,-6.378347874E0,-1.209108829E0,3.102980137E0
6.597797018E1,-6.981705189E0,-1.517970204E0,2.925803900E0
6.602996361E1,-9.921875000E0,-4.683201313E0,2.923409462E0
6.608195687E1,-1.004877090E1,-9.481328130E-1,1.910631299E0
6.613395122E1,-9.627379417E0,-4.070267081E-1,-5.056708336E0
6.618595008E1,-8.090254784E0,1.956122518E0,3.237059593E0
6.623794690E1,-6.107795238E0,-1.704723716E0,8.593051910E0
6.628994016E1,-1.272317600E1,-4.046324492E-1,5.497254848E0
6.634193362E1,-9.474145889E0,-3.639297783E-1,8.250671387E0
6.639392685E1,-1.056114578E1,2.190761566E0,6.112583637E0
6.644592034E1,-5.442186832E0,2.664827824E0,6.323279858E0
6.649791370E1,-5.669642925E0,3.816473961E0,9.229928970E0
6.654990703E1,-3.715914488E0,4.565882206E0,4.194769382E0
6.660190065E1,-3.256213665E-1,5.767807961E0,5.707951069E0
6.665389470E1,3.469304085E0,4.752635479E0,5.561900616E0
6.670588793E1,3.263396502E0,5.451763630E0,4.051113129E0
6.675788126E1,6.246663094E0,5.030371189E0,5.083045483E0
6.680987455E1,6.328068256E0,3.672817469E0,6.423839092E0
6.686186798E1,5.205153465E0,2.834821463E0,6.012023926E0
6.691386123E1,5.937801361E0,3.960130453E0,6.562707424E0
6.696585469E1,4.996851444E0,3.040729046E0,5.504437923E0
6.701784855E1,6.249057293E0,3.749434233E0,4.551516533E0
6.706984220E1,5.782173634E0,2.217098475E0,4.680807114E0
6.712183570E1,4.687990189E0,3.119740009E0,5.889915943E0
6.717382892E1,6.397502422E0,2.154847383E0,4.793338299E0
6.722582288E1,7.012830734E0,2.097384691E0,5.770202160E0
6.727781917E1,7.132544518E0,2.466103077E0,6.452570438E0
6.732981293E1,8.547560692E0,3.440572977E0,7.944203854E0
6.738180629E1,1.205277920E1,2.856369734E0,9.244295120E0
6.743379975E1,1.371919441E1,4.338426113E0,1.091789341E1
6.748579297E1,2.503932571E1,5.856396198E0,1.555081463E1
6.753778623E1,3.712802124E1,1.693231201E1,7.185218811E0
6.758977966E1,3.304817581E1,1.054917526E1,-3.426207304E0
6.764177335E1,8.940221786E0,-1.137519932E1,2.141678810E1
6.769376730E1,-9.294574738E0,-7.835742950E1,2.010233116E1
6.774576063E1,-1.524913597E1,-1.550053501E1,-9.512454033E0
6.779775409E1,5.224307537E0,-4.771789551E0,-8.569109917E0
6.784974735E1,1.430100346E1,1.250290298E1,1.829225898E0
6.790174067E1,7.889135361E0,3.507612705E0,-2.300898075E0
6.795373400E1,3.900273561E0,3.009603500E0,4.189980924E-1
6.800572749E1,4.592218876E0,-1.053480953E-1,3.342407703E0
6.805772148E1,6.122160912E0,7.589851022E-1,6.684815407E0
6.810971497E1,6.718335152E0,1.752609134E0,8.238699913E0
6.816170833E1,2.971295118E0,2.549902678E0,1.025467873E1
6.821172918E1,-2.147664547E0,1.075029373E0,6.409473896E0
6.826372287E1,-1.166011810E1,5.363175869E-1,4.529967785E0
6.831572119E1,-1.831141281E1,3.040729046E0,-7.015225291E-1
6.836771875E1,-1.611347008E1,5.815693378E0,6.153286457E0
6.841971358E1,-1.381017685E1,3.150865555E0,6.256239891E0
6.847170677E1,-1.105915546E1,4.671230316E0,5.516408920E0
6.852370033E1,-1.259867382E1,2.846792698E0,3.838022470E0
6.857569349E1,-1.079339123E1,1.726272106E0,3.921822071E0
6.862768678E1,-9.289786339E0,1.362342358E0,3.828445435E0
6.867968034E1,-8.135746002E0,1.994430900E0,3.220299721E0
6.873167442E1,-8.789382935E0,1.611346960E0,3.131711483E0
6.878366785E1,-8.449396133E0,1.695146561E0,2.446948767E0
6.883566111E1,-8.332076073E0,2.528354168E0,2.731867552E0
6.888765453E1,-8.231516838E0,2.458920240E0,2.643279314E0
6.893964789E1,-9.115004539E0,1.929785490E0,3.600989342E0
6.899164122E1,-9.287391663E0,1.910631299E0,2.925803900E0
6.904363464E1,-9.476539612E0,1.817254543E0,2.662433624E0
6.909562823E1,-9.237112045E0,1.881899953E0,2.858764172E0
6.914762219E1,-9.797372818E0,8.092648983E-1,2.530748367E0
6.919961561E1,-9.771035194E0,2.322446555E-1,2.547508478E0
6.925160884E1,-8.537983894E0,4.189980924E-1,3.600989342E0
6.930360220E1,-7.879558563E0,4.309694767E-1,3.610566378E0
6.935559582E1,-9.098244667E0,6.751855016E-1,3.344801903E0
6.940759417E1,-8.425453186E0,1.029538155E0,3.433390141E0
6.945959146E1,-8.597841263E0,1.769369125E0,2.482862949E0
6.951158552E1,-8.976136208E0,1.589798450E0,2.597788095E0
6.956357882E1,-9.284997940E0,1.544307232E0,2.343995094E0
6.961557221E1,-9.263449669E0,1.108549237E0,2.729473352E0
6.966756547E1,-9.313729286E0,1.278542757E0,2.655250788E0
6.971955890E1,-9.421471596E0,1.146857619E0,2.478074312E0
6.977155219E1,-8.909096718E0,1.316851139E0,2.700742006E0
6.982354578E1,-8.942616463E0,1.455719113E0,2.643279314E0
6.987553986E1,-9.529213905E0,1.424593568E0,2.528354168E0
6.992753319E1,-9.143735886E0,1.161223292E0,2.743839025E0
6.997952655E1,-8.775016785E0,1.015172482E0,2.676799297E0
7.003151994E1,-8.571503639E0,8.308133483E-1,2.681587696E0
7.008351320E1,-8.332076073E0,5.267404318E-1,3.498035431E0
7.013550656E1,-8.648120880E0,6.129343510E-1,4.230683804E0
7.018749998E1,-1.003201103E1,1.163617611E0,4.192375183E0
7.023949361E1,-1.021876526E1,1.379102230E0,4.331243038E0
7.029148756E1,-9.565128326E0,1.781340480E0,4.091815472E0
7.034348096E1,-1.010144520E1,1.297696948E0,3.541132450E0
7.039547428E1,-9.277814865E0,2.071047783E0,3.170019865E0
7.044746774E1,-8.229122162E0,2.533142805E0,4.017592907E0
7.049946386E1,-7.862798691E0,2.231464148E0,3.677606106E0
7.055145829E1,-7.948992252E0,1.235445857E0,2.116539001E0
7.060345155E1,-7.726325035E0,1.024749637E0,3.014391899E0
7.065544494E1,-8.197997093E0,1.465296149E0,3.126922846E0
7.070743830E1,-6.821289062E0,3.340013266E0,3.478881359E0
7.075943159E1,-7.261835575E0,4.053507328E0,4.585036278E0
7.081142505E1,-9.220352173E0,2.774964571E0,3.225088120E0
7.086341871E1,-1.068325424E1,3.806896806E-1,3.993650436E0
7.091541249E1,-1.123872566E1,-1.410227895E0,4.221106529E0
7.096740592E1,-7.611399651E0,-2.083019018E0,6.270605564E0
7.101939928E1,-7.333663940E0,-2.561874151E0,5.197970390E0
7.107139270E1,-8.229122162E0,-3.742251635E0,6.308914185E0
7.112338600E1,-8.344047546E0,-3.062277555E0,2.578634024E0
7.117537922E1,-8.916279793E0,-3.043123245E0,2.208718491E1
7.122737258E1,-1.365215492E1,-1.632895470E0,6.608198285E-1
7.127936660E1,-5.312895775E0,2.992843390E-1,7.867587090E0
7.133136029E1,-7.216344357E0,-3.845205307E0,9.988914490E0
7.138335362E1,-1.255557728E1,-4.788549542E-1,7.367183685E0
7.143534701E1,-6.375953674E0,-1.036720991E0,1.044622135E1
7.148734037E1,-6.792557716E0,1.489238977E0,8.827691078E0
7.153933792E1,-6.960156918E0,2.425400496E0,7.788576126E0
7.159133591E1,-2.260195494E0,3.797319889E0,6.035966873E0
7.164333034E1,3.064671755E-1,5.451763630E0,4.412648678E0
7.169532363E1,3.799714088E0,5.581054688E0,5.722316742E0
7.174731695E1,5.430215359E0,3.833234072E0,6.193988800E0
7.179931048E1,3.945764780E0,5.528380394E0,4.240260601E0
7.185130364E1,7.510839939E0,3.050306082E0,3.735068798E0
7.190329703E1,6.478907585E0,3.342407703E0,4.905869007E0
7.195529046E1,6.098217964E0,4.108575344E0,6.682421207E0
7.200728428E1,7.168458939E0,2.174001455E0,5.820482254E0
7.205927803E1,7.477320194E0,1.951334000E0,6.332856655E0
7.211127136E1,7.520417213E0,2.427794695E0,5.578660488E0
7.216326468E1,6.562707424E0,1.565855742E0,4.944177628E0
7.221525811E1,6.699181080E0,1.386285067E0,4.652075768E0
7.226725164E1,5.758230686E0,1.067846537E0,3.014391899E0
7.231924466E1,6.354405403E0,7.733507752E-1,3.972101927E0
7.237123829E1,6.313702583E0,1.403045058E0,3.584229469E0
7.242323227E1,8.001666069E0,1.297696948E0,4.575459003E0
7.247522567E1,1.013017654E1,5.315290093E-1,7.613793850E0
7.252721916E1,1.190433407E1,1.503604531E0,7.556331158E0
7.257921245E1,1.356356716E1,1.654443860E0,8.557138443E0
7.263120807E1,1.614698982E1,2.094990492E0,1.035044956E1
7.268320296E1,3.673535919E1,4.046324253E0,8.976136208E0
7.273519642E1,4.043211746E1,1.662105560E1,-7.647313595E0
7.278718968E1,2.341600800E1,2.964112282E0,-8.226728439E0
7.283918311E1,4.752635479E0,-9.323306084E0,1.547180367E1
7.289117637E1,-1.106394386E1,-5.289910889E1,1.525392437E1
7.294316969E1,-1.801212883E1,-6.895511627E0,-9.842864037E0
7.299516305E1,7.233104229E0,5.818088055E-1,-8.803748131E0
7.304715727E1,1.787086678E1,1.059945488E1,-2.904255390E0
7.309915069E1,5.825270653E0,1.743032098E0,-5.075862408E-1
7.315114412E1,4.553910732E0,1.278542757E0,2.099778891E0
7.320313745E1,5.482889175E0,-9.864411950E-1,3.940976381E0
7.325513084E1,6.208354473E0,-1.817254543E0,5.944984436E0
7.330712413E1,6.668055534E0,-7.805336118E-1,9.435836792E0
7.335911742E1,6.160469055E0,5.770202279E-1,9.416683197E0
7.341111098E1,2.834821463E0,1.201925993E0,1.195700836E1
7.346310510E1,1.312062621E0,1.400650740E0,1.164335823E1
7.351509839E1,-2.322446585E0,1.060663700E0,1.501210308E1
7.356709172E1,-8.475732803E-1,5.913859010E-1,1.212221336E1
7.361908504E1,-4.345608711E0,4.309694469E-2,1.298654652E1
7.367108163E1,-4.398283005E0,1.036720991E0,9.569916725E0
7.372308005E1,-7.060716629E0,5.219519138E-1,8.784594536E0
7.377507518E1,-6.483695984E0,9.816526771E-1,7.551542759E0
7.382706847E1,-6.859597206E0,-3.304099143E-1,8.363202095E0
7.387906180E1,-6.344828129E0,-5.339232683E-1,7.728719234E0
7.393105506E1,-7.776604652E0,-1.127703428E0,8.863605499E0
7.398304845E1,-6.840443134E0,-2.011190802E-1,7.671256542E0
7.403504181E1,-7.388731956E0,-5.004034638E-1,7.757450581E0
7.408703504E1,-7.302538395E0,7.422251999E-2,7.757450581E0
7.413902883E1,-8.102226257E0,-4.764606953E-1,6.952973843E0
7.419102281E1,-7.314509392E0,4.549122229E-2,6.196382999E0
7.424301597E1,-6.938608170E0,-2.154847234E-2,5.401484013E0
7.429500963E1,-7.386337757E0,3.375927508E-1,5.300924301E0
7.434700279E1,-8.861210823E0,-3.998439014E-1,5.727105141E0
7.439899618E1,-8.854028702E0,-2.537931204E-1,5.533169270E0
7.445098961E1,-8.480521202E0,-1.292908341E-1,4.654470444E0
7.450298277E1,-8.765439987E0,-4.573064744E-1,4.237866402E0
7.455497673E1,-7.858009815E0,-4.692778587E-1,4.225894928E0
7.460697048E1,-7.829278469E0,-4.836435020E-1,4.683201313E0
7.465896397E1,-7.654496670E0,-4.189980924E-1,4.671230316E0
7.471095713E1,-7.688016415E0,-1.460507661E-1,4.750241280E0
7.476295229E1,-7.620976925E0,2.059076279E-1,4.831646442E0
7.481494791E1,-7.704776287E0,5.339232683E-1,4.850800991E0
7.486694111E1,-7.714353561E0,8.667274714E-1,5.296135902E0
7.491893450E1,-8.291373253E0,8.906702399E-1,5.027976990E0
7.497092786E1,-8.801354408E0,1.015172482E0,4.556304932E0
7.502292105E1,-9.045570374E0,7.948992252E-1,4.798126698E0
7.507491454E1,-8.638543129E0,5.554717779E-1,4.862771988E0
7.512690794E1,-8.013637543E0,7.350423932E-1,4.630527496E0
7.517890152E1,-7.776604652E0,8.260248303E-1,4.529967785E0
7.523089558E1,-8.121379852E0,4.094209969E-1,4.618556023E0
7.528288890E1,-8.961771011E0,-1.245022863E-1,4.946571827E0
7.533488216E1,-8.430241585E0,6.464541703E-2,4.824463844E0
7.538687556E1,-8.190814018E0,1.580221355E-1,4.884320736E0
7.543886885E1,-8.200390816E0,2.059076279E-1,5.145296574E0
7.549086221E1,-8.650514603E0,1.580221355E-1,5.245856285E0
7.554091068E1,-8.269824982E0,4.381522834E-1,5.293741703E0
7.559290467E1,-7.968146324E0,4.094209969E-1,5.236279011E0
7.564489836E1,-8.257853508E0,5.746259540E-2,4.822069645E0
7.569689159E1,-8.162082672E0,-4.788549617E-3,4.767001152E0
7.574888508E1,-8.305739403E0,3.639297783E-1,4.549122334E0
7.580088040E1,-9.593858719E0,5.123748183E-1,3.694365978E0
7.585287909E1,-1.010383987E1,7.948992252E-1,3.703943014E0
7.590487568E1,-5.514014721E0,7.063110471E-1,6.739883423E0
7.595686938E1,-3.876330853E0,4.908263385E-1,6.519610405E0
7.600886274E1,-6.821289062E0,-9.050358534E-1,6.143709183E0
7.606085610E1,-7.874769688E0,-9.026415944E-1,5.214730740E0
7.611284936E1,-8.219545364E0,-3.926610649E-1,4.166038036E0
7.616484268E1,-7.422251701E0,-2.657645047E-1,4.702355862E0
7.621683614E1,-7.836461544E0,-2.729473412E-1,4.537150860E0
7.626883026E1,-8.760651588E0,-1.580221355E-1,3.857176781E0
7.632082372E1,-9.110215187E0,-1.292908341E-1,3.950553417E0
7.637281708E1,-8.715160370E0,-5.746259540E-2,4.245049000E0
7.642481047E1,-8.755863190E0,-1.556278616E-1,5.138113976E0
7.647680379E1,-8.832479477E0,-2.202732861E-1,5.377541065E0
7.652879709E1,-8.971347809E0,-1.963305324E-1,4.841223717E0
7.658079045E1,-8.909096718E0,2.777358890E-1,4.965725899E0
7.663278387E1,-1.029777622E1,2.992843390E-1,3.189173937E0
7.668477812E1,-1.077663136E1,7.661679387E-2,1.944151163E0
7.673677145E1,-9.318517685E0,-3.088614643E-1,2.746233225E0
7.678876471E1,-8.521224022E0,-3.854782581E-1,3.320859194E0
7.684075810E1,-8.466156006E0,-5.674431324E-1,3.158048391E0
7.689275322E1,-8.664880753E0,1.867534369E-1,3.107768774E0
7.694475208E1,-8.657697678E0,7.518022656E-1,3.442967176E0
7.699674820E1,-8.959376335E0,1.245022893E0,4.398283005E0
7.704874146E1,-9.948211670E0,9.529213905E-1,4.525179386E0
7.710073478E1,-9.629773140E0,1.352765322E0,4.580247879E0
7.715272818E1,-9.991309166E0,1.685569525E0,4.039141655E0
7.720472147E1,-9.098244667E0,2.051893473E0,4.125335693E0
7.725671476E1,-8.763046265E0,1.309668303E0,4.427014351E0
7.730870816E1,-7.558725357E0,1.280937076E0,4.563488007E0
7.736070175E1,-5.516408920E0,6.440598965E-1,4.331243038E0
7.741269590E1,-6.510033131E0,-1.316851079E-1,4.767001152E0
7.746468932E1,-8.976136208E0,-1.766974807E0,4.613767624E0
7.751668268E1,-6.969734192E0,-6.081457734E-1,5.042342663E0
7.756867594E1,-7.144515991E0,-1.115732074E0,4.259414673E0
7.762066910E1,-8.162082672E0,-1.393467903E0,4.118152618E0
7.767266250E1,-8.667274475E0,1.137280583E0,1.084606528E0
7.772465586E1,-9.416683197E0,1.359948039E0,3.926610708E0
7.777664961E1,-9.610619545E0,1.460507631E0,2.504411459E0
7.782864346E1,-1.119323444E1,-5.004034638E-1,2.789330244E0
7.788063676E1,-8.415876389E0,-1.422199249E0,7.482108593E0
7.793263025E1,-9.792584419E0,-1.924996972E0,8.861210823E0
7.798462454E1,-6.653689861E0,-1.098972082E0,7.968146324E0
7.803662083E1,-6.167652130E0,3.998439014E-1,7.513234138E0
7.808861416E1,-8.243488312E0,1.573038578E0,7.379155159E0
7.814060758E1,-7.898712635E0,3.311282158E0,6.811711788E0
7.819260084E1,-4.690384388E0,3.232270956E0,7.259441376E0
7.824459413E1,-2.183578730E0,3.450150013E0,9.316123009E0
7.829658756E1,8.020820618E-1,3.462121487E0,9.976943016E0
7.834858089E1,5.913859010E-1,4.350397110E0,6.565101624E0
7.840057487E1,3.869148016E0,3.244242430E0,3.548315287E0
7.845256856E1,4.494053841E0,1.759791970E0,7.048745155E0
7.850456186E1,7.518023014E0,4.041535854E0,5.897099018E0
7.855655521E1,5.877944469E0,3.787742853E0,6.933819771E0
7.860854857E1,6.486090660E0,3.165231228E0,6.002447128E0
7.866054200E1,7.127756119E0,3.069460392E0,3.565075159E0
7.871253512E1,7.580274105E0,2.940169573E0,5.688796997E0
7.876452862E1,7.259441376E0,1.635289669E0,4.395888329E0
7.881652280E1,7.168458939E0,9.792584181E-1,3.330436230E0
7.886851616E1,4.611373425E0,5.842030644E-1,2.992843628E0
7.892050962E1,3.569863796E0,1.577827096E0,2.545114040E0
7.897250291E1,5.092622280E0,7.278595567E-1,2.897072554E0
7.902449727E1,8.061523438E0,7.733507752E-1,3.833234072E0
7.907649602E1,1.093944168E1,1.036720991E0,6.541158676E0
7.912849305E1,1.288359261E1,2.245829821E0,7.386337757E0
7.918048718E1,1.595544720E1,1.683175206E0,9.263449669E0
7.923248064E1,1.892913628E1,2.585816860E0,9.311334610E0
7.928447393E1,3.546160507E1,5.715134144E0,5.916253090E0
7.933646732E1,3.797319794E1,1.697540855E1,-5.796539307E0
7.938846061E1,2.615505791E1,6.249057293E0,-7.889135361E0
7.944045397E1,1.169124413E1,-1.317808819E1,1.811029434E1
7.949244822E1,-1.477267551E1,-4.238345337E1,2.631308079E0
7.954444158E1,-1.251966286E1,-1.031453609E1,-1.036242104E1
7.959643491E1,7.867587090E0,1.065452337E0,-7.166064739E0
7.964842827E1,1.392270756E1,1.228023529E1,1.915419847E-2
7.970042189E1,4.862771988E0,6.483695984E0,-1.151646137E0
7.975241498E1,-5.554717779E-1,2.178790122E-1,-1.053480953E-1
7.980440821E1,-1.285725594E0,-3.416630268E0,3.905062199E0
7.985640187E1,7.063110471E-1,-8.576292038E0,8.894730568E0
7.990839599E1,3.624932051E0,-1.129139996E1,1.111422348E1
7.996038935E1,5.090228081E0,-8.281796455E0,1.319245434E1
8.001238264E1,6.883540154E0,-3.493247032E0,1.351568127E1
8.006437596E1,7.003253937E0,-2.530748367E0,1.586685944E1
8.011637015E1,4.853195190E0,-1.735849261E0,1.441353416E1
8.016836898E1,-1.817254543E0,-3.514795303E0,1.376708031E1
8.022036593E1,-7.182824612E0,-2.727078915E0,6.488484859E0
8.027235933E1,-1.306795216E1,-2.071047783E0,4.180403709E0
8.032435265E1,-1.282612991E1,-1.012778282E0,3.553103924E0
8.037634591E1,-9.639349937E0,-2.727078915E0,5.219519138E0
8.042833934E1,-5.952167034E0,-5.145296574E0,8.755863190E0
8.048033270E1,-5.695979595E0,-6.577073097E0,8.751074791E0
8.053232602E1,-6.153286457E0,-4.956148624E0,6.208354473E0
8.058431978E1,-7.695199013E0,-5.212336063E0,4.992063046E0
8.063631363E1,-7.494080067E0,-4.865166187E0,5.468523502E0
8.068830699E1,-7.003253937E0,-4.683201313E0,5.616968632E0
8.074030032E1,-6.759037971E0,-4.106181145E0,5.150084972E0
8.079229358E1,-6.495667458E0,-3.105374336E0,4.836435318E0
8.084428714E1,-6.632141113E0,-2.391880512E0,4.462928295E0
8.089628036E1,-6.912271500E0,-2.020767927E0,4.558699131E0
8.094827385E1,-7.371972084E0,-1.197137356E0,4.324060440E0
8.100026784E1,-7.740690231E0,-5.458946824E-1,4.460534096E0
8.105226139E1,-7.817307472E0,-4.644893110E-1,3.754222870E0
8.110425462E1,-6.912271500E0,-6.081457734E-1,3.988861799E0
8.115624805E1,-7.096630573E0,6.823683381E-1,4.374340057E0
8.120824187E1,-1.008229160E1,-2.394274808E-3,4.747847080E0
8.126023809E1,-1.080775642E1,6.727912426E-1,3.464515686E0
8.131223209E1,-1.037678719E1,9.050358534E-1,3.701548815E0
8.136422535E1,-9.792584419E0,1.596981287E0,3.799714088E0
8.141621874E1,-1.025228500E1,1.474873304E0,3.098191500E0
8.146821203E1,-9.660899162E0,1.209108829E0,3.071854591E0
8.152020539E1,-8.933039665E0,1.503604531E0,2.818061352E0
8.157219862E1,-9.976943016E0,9.936240315E-1,2.406246185E0
8.162419287E1,-1.023791885E1,6.033572555E-1,2.221887112E0
8.167618643E1,-1.023313046E1,3.232271075E-1,2.399063349E0
8.172817955E1,-8.068706512E0,2.250618339E-1,2.169213057E0
8.178017315E1,-8.037580490E0,8.595446348E-1,2.291321039E0
8.183216664E1,-9.885960579E0,5.889915824E-1,1.503604531E0
8.188415966E1,-1.064494610E1,-4.549122229E-2,1.707117915E0
8.193615306E1,-8.475732803E0,5.435003638E-1,2.478074312E0
8.198814642E1,-8.782199860E0,6.464542150E-1,2.183578730E0
8.204014050E1,-9.007262230E0,4.908263385E-1,2.209915638E0
8.209213443E1,-8.945011139E0,7.613793612E-1,2.458920240E0
8.214412752E1,-9.287391663E0,7.685621977E-1,2.358360767E0
8.219612088E1,-9.454991341E0,8.667274714E-1,2.015979290E0
8.224811440E1,-9.644139290E0,5.889915824E-1,1.759791970E0
8.230011282E1,-9.186832428E0,6.608198285E-1,1.972882390E0
8.235211008E1,-9.074301720E0,3.136500120E-1,1.989642382E0
8.240410411E1,-8.736708641E0,3.687183261E-1,2.353572130E0
8.245609736E1,-8.978530884E0,3.519583941E-1,2.183578730E0
8.250809072E1,-9.320911407E0,2.777358890E-1,1.776551962E0
8.256008408E1,-9.364008904E0,3.495641351E-1,1.881899953E0
8.261207738E1,-9.495694160E0,2.873129845E-1,1.884294271E0
8.266407087E1,-9.284997940E0,4.429408312E-1,1.994430900E0
8.271606426E1,-9.153312683E0,3.304099143E-1,2.075836182E0
8.276805831E1,-8.918673515E0,2.705530524E-1,2.276955366E0
8.282001303E1,-8.411087036E0,-4.788549617E-2,2.803695917E0
8.287200646E1,-8.985713005E0,-9.553156495E-1,2.798907280E0
8.292399988E1,-9.771035194E0,-1.505998850E0,2.820455790E0
8.297599311E1,-9.840469360E0,-1.671203852E0,2.312869549E0
8.302798653E1,-9.562733650E0,-1.312062621E0,2.619336605E0
8.307997979E1,-9.536396980E0,-1.345582485E0,2.858764172E0
8.313197325E1,-9.419076920E0,-1.599375606E0,2.918621063E0
8.318396754E1,-9.349642754E0,-1.738243461E0,2.102173328E0
8.323596083E1,-9.124581337E0,-1.769369125E0,2.145270348E0
8.328795412E1,-9.012050629E0,-1.762186289E0,1.922602654E0
8.333994778E1,-9.071907043E0,-1.766974807E0,1.867534399E0
8.339194383E1,-9.129369736E0,-1.723877907E0,1.958516836E0
8.344393829E1,-9.486116409E0,-1.867534399E0,2.075836182E0
8.349593152E1,-9.414288521E0,-1.721483588E0,2.229069948E0
8.354792485E1,-9.366402626E0,-1.697540879E0,2.150058746E0
8.359991814E1,-9.024022102E0,-1.733454943E0,2.363149166E0
8.365191143E1,-9.026415825E0,-1.807677507E0,2.308080912E0
8.370390492E1,-9.105426788E0,-1.781340480E0,2.126116037E0
8.375589831E1,-9.136552811E0,-1.759791970E0,2.116539001E0
8.380789243E1,-9.158101082E0,-1.757397652E0,2.094990492E0
8.385988586E1,-9.201197624E0,-1.764580488E0,2.118933201E0
8.391187918E1,-9.189227104E0,-1.585009933E0,1.812466025E0
8.396387248E1,-9.414288521E0,-1.563461423E0,1.630501151E0
8.401586587E1,-9.510059357E0,-1.474873304E0,1.369525194E0
8.406785916E1,-9.416683197E0,-1.501210332E0,1.479661822E0
8.411985255E1,-9.222746849E0,-1.649655342E0,1.795706153E0
8.417184628E1,-9.407105446E0,-1.635289669E0,1.728666425E0
8.422384016E1,-9.373585701E0,-1.628106833E0,1.766974807E0
8.427583349E1,-9.447808266E0,-1.501210332E0,2.051893473E0
8.432782692E1,-9.524425507E0,-1.539518714E0,1.920208454E0
8.437982037E1,-9.352037430E0,-1.424593568E0,2.023162127E0
8.443181786E1,-9.641744614E0,-1.376708031E0,1.561067224E0
8.448381581E1,-1.003680038E1,-1.235445857E0,2.382303476E0
8.453581024E1,-9.998491287E0,-1.149251938E0,2.332023621E0
8.458780350E1,-9.725543976E0,-4.573064744E-1,3.229876757E0
8.463979686E1,-9.284997940E0,-3.878725171E-1,3.009603500E0
8.469179029E1,-9.818921089E0,-2.561874092E-1,2.873129845E0
8.474378348E1,-9.632167816E0,-9.888355136E-1,2.174001455E0
8.479577694E1,-9.126976013E0,-3.711125851E-1,2.858764172E0
8.484777023E1,-8.638543129E0,6.584255695E-1,3.816473961E0
8.489976395E1,-9.794978142E0,2.600182533E0,4.304905891E0
8.495175794E1,-1.018763924E1,3.342407703E0,3.790137053E0
8.500375126E1,-9.043175697E0,2.712713242E0,4.364762783E0
8.505574459E1,-7.118178844E0,1.307274103E0,4.031958580E0
8.510773795E1,-7.362394810E0,-1.987248063E-1,3.435784340E0
8.515973118E1,-6.603409767E0,-1.304879785E0,4.053507328E0
8.521172457E1,-8.071100235E0,-3.581835032E0,4.788549423E0
8.526371800E1,-8.499675751E0,-2.274561167E0,2.509200096E0
8.531571211E1,-1.177743816E1,-3.466909885E0,-4.668835640E0
8.536770557E1,-1.172476387E1,-3.577046633E0,5.104593754E0
8.541969896E1,-5.894704342E0,1.429382086E0,9.249083519E0
8.547169232E1,-9.969759941E0,-9.337671846E-2,5.324867249E0
8.552368818E1,-1.001764584E1,-5.075862408E-1,6.296942711E0
8.557568300E1,-8.248276711E0,1.034326673E0,6.313702583E0
8.562767630E1,-7.640130997E0,2.241041183E0,6.847625732E0
8.567966966E1,-6.936213970E0,2.106961727E0,8.854028702E0
8.573166295E1,-5.473312378E0,4.146883965E0,6.270605564E0
8.578365634E1,1.316851079E-1,3.986467600E0,9.213169098E0
8.583564963E1,-2.873129845E-1,4.872349262E0,6.222720146E0
8.588764309E1,1.810071707E0,5.308107376E0,5.035160065E0
8.593963698E1,4.704750061E0,4.936994553E0,5.710345268E0
8.599163060E1,3.713520288E0,4.661653042E0,5.607391834E0
8.604362399E1,6.392713547E0,4.180403709E0,4.247443676E0
8.609561732E1,6.850020409E0,4.343214512E0,4.427014351E0
8.614761058E1,8.035185814E0,3.775771379E0,7.271412373E0
8.619960404E1,7.606611252E0,3.529160976E0,4.608979225E0
8.625159736E1,7.482108593E0,1.642472506E0,5.336838722E0
8.630359062E1,5.928224564E0,2.609759569E0,4.534756660E0
8.635558478E1,5.827664852E0,1.762186289E0,3.517189741E0
8.640757827E1,5.293741703E0,9.146129489E-1,2.772570133E0
8.645957169E1,5.614574432E0,1.393467903E0,3.660846233E0
8.651156498E1,6.359193802E0,1.661626697E0,4.388705730E0
8.656356171E1,7.632947922E0,1.647261024E0,4.747847080E0
8.661555996E1,8.593051910E0,1.764580488E0,5.193181992E0
8.666755596E1,1.067846584E1,2.257801056E0,6.500456333E0
8.671954938E1,1.291471863E1,2.157241583E0,7.510839939E0
8.677154264E1,1.693709946E1,2.803695917E0,9.692024231E0
8.682353593E1,2.750303459E1,3.253819466E0,1.059945488E1
8.687552956E1,3.943610001E1,1.369285774E1,5.638517380E0
8.692752282E1,3.203300095E1,1.105915546E1,-8.214756966E0
8.697951621E1,9.498087883E0,-1.263458824E1,1.281655312E1
8.703151033E1,9.845257759E0,-4.500518417E1,1.228263021E0
8.708350372E1,-1.021637058E1,-1.737764740E1,-7.134938717E0
8.713549698E1,1.517970204E0,-3.332830429E0,-1.282852459E1
8.718749040E1,1.637684059E1,1.479661846E1,7.951386452E0
8.723948370E1,3.991255999E0,5.413455486E0,-8.667274714E-1
8.729147699E1,-2.183578730E0,1.340793967E-1,1.391073704E0
8.734347061E1,-1.010383964E0,-1.197137356E0,5.542746067E0
8.739546427E1,3.423812866E0,-1.551490068E0,9.263449669E0
8.744745802E1,6.794951916E0,5.147690773E-1,1.013975334E1
8.749945132E1,4.948966026E0,2.118933201E0,1.057551193E1
8.755144471E1,6.864386082E0,2.341600657E0,1.195940304E1
8.760343797E1,4.984879971E0,4.975303173E0,1.072874546E1
8.765543466E1,3.045517445E0,4.331243038E0,1.064494610E1
8.770743298E1,-7.589851022E-1,1.941756845E0,1.195221996E1
8.775942820E1,-6.172440529E0,1.271359921E0,8.176448822E0
8.781142136E1,-1.167208958E1,-4.429408312E-1,8.698400497E0
8.786341472E1,-1.048213482E1,2.540325642E0,6.210748672E0
8.791540801E1,-1.058987713E1,1.946545362E0,8.221940041E0
8.796740147E1,-1.013496494E1,5.961744189E-1,7.946598053E0
8.801939476E1,-9.766246796E0,-1.510787368E0,5.403878212E0
8.807138816E1,-8.480521202E0,-1.209108829E0,5.080651283E0
8.812338228E1,-7.709564686E0,-1.173194647E0,4.647287369E0
8.817537567E1,-7.522811413E0,-3.375927508E-1,4.565882206E0
8.822736943E1,-7.118178844E0,3.735068738E-1,2.980872154E0
8.827936252E1,-7.467742920E0,7.302538157E-1,2.497228622E0
8.833135571E1,-8.035185814E0,-1.077423692E-1,2.997632027E0
8.838334904E1,-7.795758724E0,-6.225114316E-2,5.449369431E0
8.843534246E1,-8.327287674E0,5.746259689E-1,6.035966873E0
8.848733586E1,-9.562733650E0,6.608198285E-1,5.779779434E0
8.853932984E1,-1.217728138E1,-4.573064744E-1,4.558699131E0
8.859132343E1,-9.249083519E0,1.065452337E0,4.197163582E0
8.864331689E1,-1.026904488E1,7.901106775E-2,4.884320736E0
8.869531012E1,-9.548367500E0,1.388679445E-1,4.556304932E0
8.874730531E1,-8.183630943E0,4.046324492E-1,3.996044636E0
8.879930077E1,-8.427846909E0,4.549122229E-2,3.622537851E0
8.885129402E1,-8.516435623E0,-7.853221297E-1,3.402264595E0
8.890328758E1,-8.322499275E0,-5.865973234E-1,3.744645834E0
8.895528088E1,-8.976136208E0,-9.864411950E-1,3.854782343E0
8.900727407E1,-1.062100315E1,-9.289786220E-1,3.744645834E0
8.905926750E1,-1.018045616E1,-1.405439258E0,5.583448887E0
8.911126095E1,-7.544359684E0,-2.226675510E0,5.375146866E0
8.916325491E1,-4.963331699E0,-1.285725594E0,6.031178474E0
8.921524863E1,-4.235472202E0,-5.075862408E-1,6.548341751E0
8.926724179E1,-5.341627121E0,-1.029538155E0,7.343240738E0
8.931923515E1,-7.043956280E0,-1.407833576E0,6.993676662E0
8.937122851E1,-7.190007210E0,-7.853221297E-1,6.335251331E0
8.942322180E1,-7.395915031E0,-2.226675600E-1,5.940196037E0
8.947521513E1,-7.257047176E0,5.865973234E-1,5.442186832E0
8.952720862E1,-7.802941799E0,9.098244309E-1,5.530774593E0
8.957920264E1,-8.509252548E0,6.967339516E-1,5.334444046E0
8.963119630E1,-8.523618698E0,3.543526828E-1,5.901887417E0
8.968318942E1,-7.364789486E0,7.110996246E-1,5.312895775E0
8.973518292E1,-6.905088425E0,3.639297783E-1,6.905088425E0
8.978717840E1,-6.284971237E0,-1.412622184E-1,7.149304390E0
8.983917706E1,-7.276201248E0,1.915419847E-1,7.024802208E0
8.989117352E1,-7.786181450E0,8.786988258E-1,5.296135902E0
8.994316718E1,-8.200390816E0,8.763045669E-1,4.932206154E0
8.999516044E1,-8.245882034E0,1.283331275E0,5.106987953E0
9.004715390E1,-7.877163887E0,9.098244309E-1,5.396695614E0
9.009914716E1,-7.419857502E0,4.573064744E-1,5.174027920E0
9.015113832E1,-8.308133125E0,4.860377908E-1,4.391099930E0
9.020313201E1,-8.990502357E0,-7.805336118E-1,5.458946705E0
9.025512593E1,-7.846038342E0,-1.707117915E0,5.145296574E0
9.030711926E1,-6.033572674E0,-1.247417212E0,4.707144260E0
9.035911265E1,-8.145322800E0,-2.355966330E0,4.429408550E0
9.041110601E1,-8.650514603E0,-2.305686712E0,4.206740856E0
9.046309934E1,-9.708784103E0,-2.391880512E0,4.419831276E0
9.051509273E1,-8.504464149E0,-1.661626697E0,4.676018715E0
9.056708606E1,-8.059128761E0,-1.582615614E0,5.602602959E0
9.061908004E1,-7.673650742E0,-1.944151163E0,5.087833881E0
9.067107373E1,-7.285778046E0,-1.783734679E0,4.872349262E0
9.072306702E1,-7.371972084E0,-2.518777132E0,5.739076614E0
9.077506025E1,-7.350423813E0,-2.461314440E0,5.181210518E0
9.082705364E1,-8.712765694E0,-2.703136206E0,4.905869007E0
9.087904897E1,-7.889135361E0,-2.961717844E0,5.686402798E0
9.093104782E1,-7.716747761E0,-2.660039425E0,6.847625732E0
9.098304368E1,-7.585062504E0,-2.291321039E0,6.806923389E0
9.103503704E1,-8.693612099E0,-1.745426297E0,6.536370277E0
9.108703036E1,-8.775016785E0,-1.199531674E0,5.394300938E0
9.113902376E1,-8.238699913E0,-5.794144869E-1,5.511620522E0
9.119101698E1,-9.261054993E0,-4.477293789E-1,5.327261448E0
9.124301034E1,-8.691217422E0,4.812492430E-1,4.407859802E0
9.129500377E1,-7.891529560E0,1.620923996E0,2.940169573E0
9.134699805E1,-7.065505028E0,2.334417820E0,3.466909885E0
9.139899138E1,-7.644919395E0,2.849186957E-1,4.142095566E0
9.145098474E1,-6.071880817E0,7.158881426E-1,5.308107376E0
9.150297799E1,-6.517216206E0,1.683175206E0,4.640104771E0
9.155497142E1,-9.115004539E0,5.004034638E-1,5.205153465E0
9.160696471E1,-1.087958431E1,7.278595567E-1,5.504437923E0
9.165895804E1,-6.988888264E0,8.523618579E-1,5.633728504E0
9.171095156E1,-4.465322495E0,9.313728809E-1,7.606611252E0
9.176294571E1,-8.344047546E0,-3.711125851E-1,7.168458939E0
9.181493914E1,-7.415069103E0,1.364736706E-1,8.616994858E0
9.186693236E1,-5.645699978E0,2.174001455E0,7.039167881E0
9.191892572E1,-5.736682415E0,3.550709486E0,7.278595448E0
9.197092022E1,-5.980898380E0,3.129317284E0,7.647313595E0
9.202291624E1,-5.415849686E0,3.691971779E0,8.166871071E0
9.207490980E1,-4.922628880E0,3.739857197E0,6.263422966E0
9.212690312E1,-4.790944099E0,3.526766777E0,9.387951851E0
9.217889642E1,-4.568276405E0,4.211529255E0,6.086246490E0
9.223088981E1,-2.329629421E0,3.759011507E0,6.823683262E0
9.228288310E1,-4.266597748E0,3.126922846E0,8.928250313E0
9.233487656E1,-3.840416908E0,3.318464994E0,7.932232380E0
9.238687085E1,-1.647261024E0,3.373533249E0,8.037580490E0
9.243886404E1,-5.435003638E-1,3.301704884E0,7.915472507E0
9.249085743E1,1.690358043E0,2.542719841E0,1.004158878E1
9.254285076E1,6.751855016E-1,1.881899953E0,1.034326744E1
9.259484408E1,2.751021862E0,2.317657948E0,7.747873306E0
9.264683741E1,4.266597748E0,2.427794695E0,9.100638390E0
9.269883077E1,4.575459003E0,3.098191500E0,7.163670063E0
9.275082426E1,4.570670605E0,3.002420664E0,6.557918549E0
9.280281845E1,5.226701736E0,3.126922846E0,6.541158676E0
9.285481170E1,6.380742550E0,3.433390141E0,4.977697372E0
9.290680510E1,7.300143719E0,4.154066563E0,5.408666611E0
9.295879842E1,6.790163517E0,3.495641232E0,5.358386993E0
9.301079298E1,7.637736797E0,3.766194344E0,4.788549423E0
9.306279183E1,6.617775440E0,2.054287672E0,4.546727657E0
9.311478826E1,6.545947552E0,1.573038578E0,5.135719299E0
9.316678182E1,4.807703972E0,1.704723716E0,4.168432236E0
9.321877518E1,5.245856285E0,4.716721475E-1,4.058295727E0
9.327076847E1,7.477320194E0,1.139674783E0,5.078257084E0
9.332276176E1,7.185218811E0,1.003201127E0,5.296135902E0
9.337475519E1,8.420664787E0,1.324033976E0,6.517216206E0
9.342674848E1,9.591464996E0,1.458113313E0,7.817307472E0
9.347874200E1,1.296020985E1,1.750214934E0,1.002722263E1
9.353073616E1,1.656359291E1,2.729473352E0,1.131055450E1
9.358272955E1,3.099867630E1,3.143682718E0,1.301048946E1
9.363472278E1,3.714477921E1,1.478704166E1,2.286532402E0
9.368671620E1,3.193483734E1,7.079870701E0,-8.284191132E0
9.373870950E1,5.786962032E0,-9.498087883E0,2.476159096E1
9.379070279E1,-6.146103382E0,-5.297811890E1,3.000026226E0
9.384269611E1,-1.344864178E1,-1.617811394E1,-1.429860878E1
9.389468987E1,4.252232075E0,-3.950553536E-1,-1.119562912E1
9.394668379E1,1.790199280E1,1.277585030E1,3.430995703E0
9.399867718E1,3.387898922E0,5.111776829E0,9.457385540E-1
9.405067051E1,-2.734261751E0,1.982459545E0,1.582615614E0
9.410266447E1,-9.313728809E-1,1.915419847E-1,5.849213123E0
9.415466079E1,5.032765865E0,-1.177983165E0,9.196409225E0
9.420665452E1,8.854028702E0,-3.318464994E0,9.043175697E0
9.425864787E1,1.008947372E1,-3.454938650E0,1.007750225E1
9.431064130E1,9.876383781E0,8.619388938E-2,6.586649895E0
9.436263449E1,7.908289909E0,-2.466102988E-1,8.631361008E0
9.441462785E1,8.676852226E0,2.731867552E0,8.456578255E0
9.446662118E1,7.740690231E0,-1.652049571E-1,1.073353386E1
9.451861487E1,5.612180233E0,5.363175869E-1,1.137519932E1
9.457060899E1,4.477293968E0,1.084606528E0,9.641744614E0
9.462260221E1,-3.854782581E-1,-1.515576005E0,1.308710575E1
9.467459554E1,-1.592192769E0,-2.346389294E-1,1.011341667E1
9.472658890E1,-5.537957668E0,-1.879505754E0,1.057311726E1
9.477858219E1,-5.552323341E0,-7.015225291E-1,8.564320564E0
9.483057558E1,-5.317684174E0,-1.151646137E0,8.425453186E0
9.488256884E1,-4.802915096E0,-1.168406129E0,8.753468513E0
9.493456280E1,-6.217931747E0,-2.296109438E0,7.929838181E0
9.498655649E1,-5.241067410E0,-1.237840056E0,7.360000610E0
9.503854988E1,-5.494860649E0,-2.394274712E0,6.519610405E0
9.509054331E1,-5.379935265E0,-2.389486313E0,7.075081825E0
9.514253720E1,-5.942590237E0,-4.048718929E0,7.168458939E0
9.519453572E1,-7.652102470E0,-3.011997700E0,7.350423813E0
9.524653304E1,-7.510839939E0,-1.716695070E0,6.210748672E0
9.529852757E1,-8.020820618E0,4.381522834E-1,5.937801361E0
9.535052090E1,-9.143735886E0,6.680026650E-1,5.339232922E0
9.540251429E1,-8.698400497E0,8.619388938E-2,5.832453251E0
9.545450755E1,-7.180429935E0,2.394274808E-3,6.505244732E0
9.550650094E1,-5.842030525E0,-8.140534163E-2,7.077476501E0
9.555849427E1,-5.767807961E0,-1.316851079E-1,8.018425941E0
9.561048842E1,-6.533976078E0,-1.173194647E0,7.647313595E0
9.566248204E1,-8.013637543E0,-1.352765322E0,6.387925148E0
9.571447524E1,-7.769421577E0,-1.608952641E0,6.359193802E0
9.576646866E1,-7.070293427E0,-1.666415215E0,6.325674057E0
9.581846202E1,-6.780586243E0,-2.004008055E0,6.004841328E0
9.587045522E1,-6.845231533E0,-1.678386688E0,5.674431324E0
9.592244881E1,-7.151699066E0,-1.647261024E0,5.549929142E0
9.597444207E1,-7.343240738E0,-1.723877907E0,5.456552505E0
9.602643622E1,-7.719141960E0,-2.087807655E0,6.519610405E0
9.607842961E1,-6.143709183E0,-3.002420664E0,6.646506786E0
9.613042304E1,-6.519610405E0,-3.581835032E0,6.747066498E0
9.618241640E1,-7.012830734E0,-2.925803900E0,5.511620522E0
9.623441012E1,-8.356019020E0,-2.837215662E0,4.989668846E0
9.628640854E1,-9.002472878E0,-2.652856588E0,4.951360226E0
9.633840570E1,-8.648120880E0,-2.581028223E0,4.893897533E0
9.639039973E1,-7.077476501E0,-1.889082789E0,4.834040642E0
9.644239315E1,-7.161275864E0,-1.625712633E0,4.587430477E0
9.649438631E1,-7.115784645E0,-1.513181686E0,4.470110893E0
9.654637987E1,-7.628159523E0,-1.417410731E0,4.874743462E0
9.659837296E1,-7.683228016E0,-1.417410731E0,5.241067410E0
9.665036632E1,-7.767027378E0,-1.288119793E0,5.504437923E0
9.670235997E1,-7.659285069E0,-1.065452337E0,5.873156071E0
9.675435396E1,-7.668862343E0,-1.096577883E0,5.528380394E0
9.680634725E1,-8.200390816E0,-1.122914910E0,5.430215359E0
9.685834081E1,-8.657697678E0,-1.154040456E0,4.970514297E0
9.691033410E1,-9.864412308E0,-1.965699673E0,5.025582790E0
9.696232733E1,-9.452596664E0,-2.451737404E0,4.929811954E0
9.701432096E1,-7.403097630E0,-1.992036581E0,5.552323341E0
9.706631408E1,-7.458166122E0,-2.248224020E0,5.803721905E0
9.711830777E1,-7.589851379E0,-2.751021862E0,5.968926907E0
9.717030169E1,-7.051139355E0,-2.861158371E0,6.119766235E0
9.722229498E1,-6.435810566E0,-2.264983892E0,5.980898380E0
9.727428828E1,-6.859597206E0,-2.171607256E0,6.253845692E0
9.732628200E1,-6.272999763E0,-2.032739401E0,5.832453251E0
9.737827816E1,-6.304125786E0,-1.843591571E0,5.782173634E0
9.743023266E1,-7.415069103E0,-2.217098475E0,5.660065651E0
9.748222595E1,-7.508445740E0,-2.564268351E0,5.585843086E0
9.753421914E1,-7.264229774E0,-2.178790092E0,5.935407162E0
9.758621250E1,-7.338452339E0,-2.320052385E0,5.482889175E0
9.763820583E1,-8.176448822E0,-2.073441982E0,5.193181992E0
9.769019912E1,-8.238699913E0,-1.527547359E0,4.659258842E0
9.774219314E1,-7.922655106E0,-7.709565163E-1,5.265010357E0
9.779418680E1,-7.558725357E0,-9.409499764E-1,6.191594601E0
9.784618032E1,-7.482108593E0,-8.763045669E-1,6.198777676E0
9.789817362E1,-7.553936958E0,-1.319245458E0,6.790163517E0
9.795016684E1,-7.838855743E0,-1.752609134E0,6.033572674E0
9.800216020E1,-7.946598053E0,-1.807677507E0,5.765413761E0
9.805415346E1,-8.379961967E0,-9.936240315E-1,5.911464691E0
9.810614696E1,-7.731113434E0,-2.130904645E-1,5.810904980E0
9.815814081E1,-8.140534401E0,4.237866402E-1,6.567495823E0
9.821013446E1,-8.765439987E0,4.094209969E-1,7.218738556E0
9.826212816E1,-7.958569527E0,9.624984860E-1,6.883540154E0
9.831412158E1,-6.766220570E0,1.362342358E0,5.600208759E0
9.836611467E1,-4.620950222E0,9.505270720E-1,5.691191196E0
9.841811246E1,-8.492492676E0,-2.442160249E-1,4.046324253E0
9.847011022E1,-1.034566116E1,-9.170072675E-1,2.255406857E0
9.852210458E1,-8.001666069E0,-1.326428294E0,4.359974384E0
9.857409807E1,-7.336058140E0,2.873129845E-1,3.660846233E0
9.862609116E1,-7.838855743E0,1.699935049E-1,4.336031914E0
9.867808449E1,-8.557138443E0,-9.864411950E-1,-3.112557232E-1
9.873007785E1,-1.235685253E1,-4.908263385E-1,7.422251701E-1
9.878207121E1,-7.247469902E0,1.448536277E0,7.635342598E0
9.883406473E1,-6.627352715E0,1.113337755E0,7.735901833E0
9.888605892E1,-8.775016785E0,2.798907280E0,6.387925148E0
9.893805218E1,-6.620169640E0,3.091008663E0,8.145322800E0
9.899004570E1,-4.494053841E0,3.610566378E0,7.604216576E0
9.904203886E1,-6.567495823E0,4.240260601E0,7.264229774E0
9.909403225E1,-6.239480019E0,4.268991947E0,5.549929142E0
9.914602551E1,-6.847625732E0,4.158855438E0,6.026389599E0
9.919801897E1,-4.800520897E0,4.163643837E0,5.743865490E0
9.925001233E1,-4.948966026E0,4.142095566E0,6.876357079E0
9.930200641E1,-4.506025314E0,4.213923454E0,7.817307472E0
9.935399987E1,-2.530748367E0,3.811685562E0,8.458972931E0
9.940599326E1,-2.135693073E0,3.718308687E0,1.028580475E1
9.945798672E1,-2.264983892E0,4.312088966E0,8.095043182E0
9.950998258E1,6.823683381E-1,2.413429022E0,9.909903526E0
9.956197727E1,1.381496549E0,2.834821463E0,9.514847755E0
9.961397056E1,2.983266354E0,2.770175934E0,7.759844780E0
9.966596392E1,4.082238674E0,3.146077156E0,6.945791245E0
9.971795728E1,5.604997158E0,2.068653345E0,8.061523438E0
9.976995064E1,4.764606953E0,1.288119793E0,7.201978683E0
9.982194383E1,5.698374271E0,2.288926601E0,6.110189438E0
9.987393726E1,6.864386082E0,-6.225114316E-2,6.347222328E0
9.992593155E1,6.000052452E0,2.909043789E0,6.174834728E0
9.997792497E1,8.123774529E0,2.197944164E0,6.124555111E0
1.000299183E2,8.650514603E0,2.683982134E0,5.882733345E0
1.000819116E2,7.807730198E0,2.683982134E0,5.727105141E0
1.001339049E2,8.593051910E0,2.075836182E0,3.531555414E0
1.001858984E2,7.237892628E0,1.678386688E0,2.767781734E0
1.002378916E2,7.802941799E0,1.245022893E0,2.703136206E0
1.002898852E2,6.986494064E0,1.336005330E0,2.798907280E0
1.003418793E2,6.711152077E0,1.046298146E0,2.423006058E0
1.003938726E2,6.332856655E0,8.858816624E-1,2.626519442E0
1.004458660E2,7.695199013E0,1.762186289E0,2.351177931E0
1.004978594E2,9.217958450E0,1.094183564E0,4.336031914E0
1.005498562E2,1.210545349E1,1.410227895E0,4.142095566E0
1.006018545E2,1.454282475E1,1.498816013E0,5.394300938E0
1.006538503E2,1.889322281E1,2.001613855E0,6.883540154E0
1.007058437E2,2.590126419E1,2.822849989E0,7.527599812E0
1.007578370E2,4.323820877E1,1.303682613E1,-2.351177931E0
1.008098303E2,3.629959869E1,1.132252598E1,-1.189715195E1
1.008618237E2,8.856422424E0,-7.570696831E0,1.310386562E1
1.009138170E2,1.078381348E1,-5.901647949E1,4.149278164E0
1.009658111E2,-1.500013161E1,-1.370243454E1,-1.148054790E1
1.010178047E2,6.780586243E0,-6.653689861E0,-8.152505875E0
1.010697979E2,1.184687138E1,4.443774223E0,-1.972882390E0
1.011217914E2,5.921041489E0,5.976109982E0,-1.802888989E0
1.011737847E2,2.379909277E0,5.351204395E0,-1.929785490E0
1.012257780E2,3.962524891E0,9.457385540E-1,1.759791970E0
1.012777714E2,3.888302326E0,1.271359921E0,6.002447128E0
1.013297649E2,5.897099018E0,3.476486921E0,9.804554939E0
1.013817590E2,6.435810566E0,4.537150860E0,1.102563572E1
1.014337524E2,6.658478260E0,5.657671452E0,1.160505009E1
1.014857457E2,5.456552505E0,6.136526108E0,1.077423668E1
1.015377392E2,6.967339516E-1,4.678412914E0,1.105915546E1
1.015897326E2,-2.751021862E0,3.720703125E0,8.116591454E0
1.016417291E2,-1.081254482E1,2.248224020E0,5.633728504E0
1.016937274E2,-9.311334610E0,5.430215359E0,6.442993641E0
1.017457223E2,-9.100638390E0,5.865973473E0,8.645726204E0
1.017977157E2,-1.069522572E1,2.284138203E0,9.100638390E0
1.018497093E2,-1.130815983E1,6.440598965E-1,7.434223175E0
1.019017025E2,-9.107821465E0,-5.985686779E-1,6.821289062E0
1.019536957E2,-6.890722752E0,-1.146857619E0,6.567495823E0
1.020056891E2,-6.167652130E0,-5.147690773E-1,5.858790398E0
1.020576824E2,-6.088640690E0,-2.178790122E-1,5.901887417E0
1.021096766E2,-7.343240738E0,-6.775797606E-1,5.621757030E0
1.021616701E2,-7.259441376E0,-4.597007632E-1,5.303318501E0
1.022136633E2,-6.498061657E0,8.595446348E-1,5.466129303E0
1.022656568E2,-6.112583637E0,8.810931444E-1,4.948966026E0
1.023176503E2,-7.216344357E0,3.806896806E-1,5.355992794E0
1.023696437E2,-7.707170486E0,7.661679387E-1,5.154873848E0
1.024216368E2,-8.042368889E0,9.840469360E-1,4.448562622E0
1.024736302E2,-8.736708641E0,1.043903828E0,4.261809349E0
1.025256244E2,-9.301757812E0,1.491633177E0,3.849993944E0
1.025776178E2,-9.797372818E0,1.314456820E0,3.536343813E0
1.026296112E2,-9.562733650E0,8.786988258E-1,3.668029070E0
1.026816045E2,-1.010862827E1,1.029538140E-1,4.537150860E0
1.027335997E2,-8.576292038E0,5.889915824E-1,4.288146019E0
1.027855951E2,-8.698400497E0,9.194015265E-1,5.166844845E0
1.028375884E2,-8.607418060E0,1.527547359E0,5.255433083E0
1.028895818E2,-1.001764584E1,1.264177084E0,6.148497581E0
1.029415751E2,-9.249083519E0,1.388679385E0,5.348809719E0
1.029935684E2,-8.688823700E0,2.557085514E0,6.749460697E0
1.030455619E2,-6.275394440E0,4.936994553E0,7.513234138E0
1.030975552E2,-5.791750908E0,4.122941017E0,7.266623974E0
1.031495493E2,-1.039833546E1,9.840469360E-1,4.417437077E0
1.032015429E2,-1.177743816E1,-7.589851022E-1,5.142902374E0
1.032535361E2,-1.126745701E1,-1.170800328E0,3.663240433E0
1.033055296E2,-4.769395351E0,7.446194887E-1,5.777385235E0
1.033575228E2,-5.782173634E0,-8.140534163E-2,5.178816319E0
1.034095163E2,-7.249864101E0,4.261809289E-1,3.610566378E0
1.034615099E2,-6.780586243E0,1.149251908E-1,5.281770229E0
1.035135032E2,-6.665660858E0,5.746259540E-2,4.577853203E0
1.035654971E2,-7.142121792E0,-1.738243461E0,5.995264053E0
1.036174905E2,-5.810904980E0,-2.715107679E0,7.862798691E0
1.036694838E2,-4.070267200E0,-3.660846233E0,1.914462090E1
1.037214772E2,-9.759063721E0,-6.510033131E0,3.011997700E0
1.037734729E2,-3.998438835E0,-2.487651587E0,1.069761944E1
1.038254719E2,-6.866780281E0,-2.027950764E0,1.035523891E1
1.038774672E2,-4.680807114E0,-1.137280583E0,6.732700825E0
1.039294605E2,-1.810071707E0,1.532335877E-1,1.264895344E1
1.039814539E2,-5.770202160E0,3.399870098E-1,1.112619495E1
1.040334473E2,-4.642498970E0,1.989642382E0,9.941028595E0
1.040854405E2,1.642472506E0,1.687963724E0,1.054917526E1
1.041374340E2,-5.818088055E-1,2.403851986E0,9.706390381E0
1.041894272E2,3.306493521E0,3.038334846E0,7.075081825E0
1.042414210E2,6.541158676E0,3.775771379E0,6.976916790E0
1.042934149E2,5.566689014E0,4.039141655E0,4.867560863E0
1.043454082E2,6.428627968E0,3.105374336E0,5.614574432E0
1.043974015E2,5.722316742E0,3.600989342E0,2.051893473E0
1.044493949E2,7.266623974E0,1.841197371E0,1.963305354E0
1.045013886E2,8.032792091E0,2.200338602E0,2.236252785E0
1.045533816E2,6.651295185E0,2.473285913E0,2.473285913E0
1.046053749E2,5.411061287E0,1.206714511E0,2.842004299E0
1.046554216E2,6.452570438E0,1.328822494E0,3.390293121E0
1.047074151E2,7.259441376E0,1.108549237E0,3.565075159E0
1.047594084E2,8.775016785E0,9.864411950E-1,4.089421272E0
1.048114019E2,9.332882881E0,1.089395046E0,4.063084126E0
1.048633963E2,1.081493950E1,1.625712633E0,5.466129303E0
1.049153923E2,1.442071724E1,1.388679385E0,7.482108593E0
1.049673858E2,2.132101631E1,2.595393896E0,9.718361855E0
1.050193791E2,4.053507233E1,7.142121792E0,6.890722752E0
1.050713724E2,3.952947617E1,1.438719749E1,-7.094236374E0
1.051233658E2,1.687005997E1,3.828445435E0,-9.182044029E0
1.051753591E2,8.262641907E0,-1.261064529E1,1.614459419E1
1.052273524E2,-8.016032219E0,-4.016156387E1,8.277008057E0
1.052793464E2,-1.876393127E1,-6.658478260E0,-1.049650097E1
1.053313401E2,6.620169640E0,-2.018373728E0,-2.092596292E0
1.053833334E2,1.181574631E1,6.442993641E0,-2.257801056E0
1.054353269E2,6.720729351E0,4.257020473E0,1.204320192E0
1.054873201E2,4.436591148E0,1.881899953E0,3.325647593E0
1.055393136E2,4.496448040E0,-7.182824425E-3,6.172440529E0
1.055913069E2,6.028783798E0,8.906702399E-1,6.012023926E0
1.056433003E2,6.201171875E0,3.682394743E0,7.146910191E0
1.056952945E2,4.563488007E0,2.949746609E0,1.453564262E1
1.057472879E2,1.812466025E0,1.381496549E0,1.314217472E1
1.057992812E2,-5.753442287E0,4.549122155E-1,8.729525566E0
1.058512745E2,-1.491393757E1,2.241041183E0,6.636929989E0
1.059032692E2,-1.413819313E1,3.447755814E0,5.104593754E0
1.059552680E2,-1.082691097E1,3.249030828E0,7.996877670E0
1.060072648E2,-8.068706512E0,4.699961662E0,7.948992252E0
1.060592589E2,-9.639349937E0,2.683982134E0,5.547534943E0
1.061112522E2,-9.876383781E0,2.327235222E0,4.017592907E0
1.061632455E2,-9.696812630E0,7.087053657E-1,4.491659641E0
1.062152390E2,-1.033608437E1,-2.059076279E-1,4.460534096E0
1.062672322E2,-8.662486076E0,3.328042030E-1,3.871542454E0
1.063192260E2,-7.853221416E0,3.615354896E-1,3.888302326E0
1.063712199E2,-7.280989647E0,1.237840056E0,3.430995703E0
1.064232132E2,-7.067899227E0,1.699935079E0,3.768588543E0
1.064752066E2,-7.824490070E0,2.545114040E0,4.697566986E0
1.065271998E2,-8.889942169E0,2.485257149E0,4.544333458E0
1.065791932E2,-7.788576126E0,3.244242430E0,4.798126698E0
1.066311865E2,-7.228315830E0,3.581835032E0,4.472505569E0
1.066831799E2,-9.031204224E0,3.490852594E0,3.888302326E0
1.067351738E2,-1.147815323E1,2.042316437E0,3.538738251E0
1.067871676E2,-1.062100315E1,1.623318315E0,3.871542454E0
1.068391608E2,-6.866780281E0,8.236305118E-1,4.575459003E0
1.068911543E2,-6.421444893E0,1.450930476E0,4.786155224E0
1.069431476E2,-8.605023384E0,1.324033976E0,3.466909885E0
1.069951421E2,-1.006792545E1,4.620950520E-1,3.533949614E0
1.070471409E2,-8.083071709E0,9.864411950E-1,3.727885962E0
1.070991374E2,-8.456578255E0,9.744698405E-1,4.230683804E0
1.071511309E2,-7.582668304E0,8.763045669E-1,5.219519138E0
1.072031243E2,-7.781393051E0,8.691217303E-1,5.573871613E0
1.072551175E2,-8.305739403E0,1.324033976E0,4.415042877E0
1.073071110E2,-8.672063828E0,1.221080184E0,4.072661400E0
1.073591043E2,-8.660092354E0,1.022355318E0,4.371945858E0
1.074110977E2,-8.808537483E0,8.954587579E-1,4.424619675E0
1.074630914E2,-8.789382935E0,7.877163887E-1,4.304905891E0
1.075150853E2,-8.300951004E0,1.005595446E0,4.276175022E0
1.075670786E2,-8.473338127E0,9.002473354E-1,4.247443676E0
1.076190719E2,-8.564320564E0,6.440598965E-1,4.314483166E0
1.076710653E2,-8.286584854E0,5.363175869E-1,4.474899769E0
1.077230586E2,-8.138139725E0,4.166038036E-1,4.529967785E0
1.077750519E2,-8.145322800E0,3.016786277E-1,4.525179386E0
1.078270453E2,-8.255459785E0,3.663240373E-1,4.740664005E0
1.078790393E2,-8.126168251E0,6.033572555E-1,4.388705730E0
1.079310329E2,-8.547560692E0,4.381522834E-1,4.611373425E0
1.079830264E2,-8.554743767E0,5.123748183E-1,4.486870766E0
1.080350196E2,-8.372778893E0,4.597007632E-1,4.625739098E0
1.080870136E2,-8.552350044E0,3.974496126E-1,4.328848839E0
1.081390099E2,-8.691217422E0,2.059076279E-1,4.189980984E0
1.081910036E2,-8.696005821E0,3.160442710E-1,4.178009510E0
1.082429969E2,-8.758256912E0,1.723877788E-1,3.907456398E0
1.082949904E2,-8.420664787E0,2.753416002E-1,4.130124092E0
1.083469837E2,-8.430241585E0,7.302538157E-1,4.592218876E0
1.083989770E2,-8.770228386E0,7.613793612E-1,4.551516533E0
1.084509704E2,-8.968953133E0,6.512427330E-1,4.491659641E0
1.085029642E2,-9.004867554E0,9.194015265E-1,4.769395351E0
