"Time (s)","Gyroscope x (rad/s)","Gyroscope y (rad/s)","Gyroscope z (rad/s)"
5.199252700E-2,-9.595166147E-2,1.381593943E-1,-1.290617883E-1
1.039857950E-1,-3.547599912E-2,-6.586959958E-2,-2.032776177E-2
1.559789880E-1,-4.952589795E-2,-3.105027974E-2,-1.712114662E-1
2.079726470E-1,-1.045037657E-1,1.265529543E-1,-3.275929987E-1
2.599661700E-1,-1.655903012E-1,1.613722742E-1,-3.813491166E-1
3.119601910E-1,-2.535548806E-1,4.264878035E-1,-5.707173347E-1
3.639534840E-1,-1.185536757E-1,1.418532968E0,-9.121910334E-1
4.159467430E-1,-1.020603105E-1,1.445410967E0,-1.071015954E0
4.679401030E-1,-8.739954233E-2,3.785024881E0,-1.202962875E0
5.199334630E-1,1.227381006E-1,3.132620811E0,-1.218234539E0
5.719268540E-1,1.716073155E-1,2.674471855E0,-1.622627378E0
6.239201130E-1,3.793015182E-1,1.693135202E-1,-1.573758006E0
6.759140670E-1,5.920811370E-2,1.405704856E0,-1.477852345E0
7.279079220E-1,4.210388660E-2,2.378202200E0,-9.341821671E-1
7.799011810E-1,-6.357580423E-2,3.334817171E0,-2.463479042E-1
8.318944740E-1,-1.258840561E-1,2.677526236E0,1.029749632E0
8.838886640E-1,-3.280804455E-1,1.220612526E0,7.347016335E-1
9.358871180E-1,1.349553913E-1,-1.986429930E0,3.077068925E-1
9.878843780E-1,1.917658746E-1,-3.191056252E0,9.604634717E-3
1.039879038E0,6.157063842E-1,-3.021846533E0,-4.296074808E-1
1.091872363E0,1.390283465E0,-1.655951738E0,-1.326357722E0
1.143865656E0,1.011547089E0,-5.484531522E-1,-5.749934316E-1
1.195859015E0,8.154593110E-1,-3.589340448E0,-1.104613543E0
1.247852173E0,1.072633505E0,-1.496515989E0,-1.114998341E0
1.299845532E0,7.769747972E-1,-1.990705967E0,-5.322328210E-1
1.351839620E0,6.028781533E-1,-2.451909065E0,-3.300364316E-1
1.403833208E0,4.611574411E-1,-1.333415031E0,-2.060307860E-1
1.455826668E0,3.695276380E-1,-1.619910717E0,-1.577724516E-1
1.507819927E0,1.563356966E-1,-9.271895885E-1,-1.082923561E-1
1.559813153E0,1.282358915E-1,-2.753964067E-1,-3.544710279E-1
1.611806546E0,5.065600201E-2,-6.724588275E-1,-7.958168536E-2
1.663799839E0,-1.069472358E-1,-1.251235306E-1,-1.027945727E-1
1.715793231E0,-2.144595236E-1,1.491549611E-1,-7.530563325E-2
1.767787551E0,-3.119994141E-2,1.314398795E-1,-2.439044565E-1
1.819780908E0,1.276250184E-1,9.817642570E-1,-3.892903626E-1
1.871774233E0,3.041650653E-1,5.315566659E-1,-3.153756857E-1
1.923767525E0,8.181012422E-2,-3.713022172E-1,-1.852613837E-1
1.975761348E0,1.156062540E-2,-4.387845099E-2,-2.170263678E-1
2.027759835E0,2.039831728E-1,3.751751184E-1,-5.163503289E-1
2.079756958E0,-2.101834565E-1,1.253312230E-1,-5.927084684E-1
2.131750951E0,-7.422470450E-1,1.126539350E0,-8.541588187E-1
2.183744209E0,-9.407783151E-1,9.762665033E-1,-1.009318590E0
2.235737569E0,-1.294469237E0,8.797498345E-1,-5.688847899E-1
2.287730995E0,-1.232771873E0,8.253828287E-1,-5.285676122E-1
2.339724155E0,-9.835388660E-1,4.729135334E-1,-3.660774827E-1
2.391717646E0,-7.398036718E-1,3.800620437E-1,-2.243567556E-1
2.443711006E0,-3.971082270E-1,5.132306814E-1,-2.671173215E-1
2.495705157E0,-2.889850736E-1,1.503766924E-1,-2.799454927E-1
2.547698582E0,-1.778075993E-1,-1.807122678E-1,-1.278400421E-1
2.599691940E0,-3.711006371E-3,9.234450012E-2,-9.790764749E-2
2.651685300E0,3.212693036E-1,2.010785043E-1,-1.541072577E-1
2.703678526E0,4.581031203E-1,2.059654444E-1,3.648270294E-2
2.755671952E0,5.033071637E-1,5.601634271E-3,1.085648015E-1
2.807665743E0,3.640298843E-1,2.026239969E-2,3.309197426E-1
2.859658998E0,1.752725095E-1,-3.493110538E-1,4.567579925E-1
2.911652921E0,-1.173319370E-1,5.004025102E-1,-6.277862005E-3
2.963646214E0,-3.958865106E-1,1.314398795E-1,5.202879906E-1
3.014184470E0,-4.129907191E-1,-4.998710379E-2,7.066018581E-1
3.066178160E0,-1.881923079E-1,1.076161265E-1,7.127104998E-1
3.118174249E0,-1.869705766E-1,-7.317126989E-1,7.224843502E-1
3.170168443E0,-2.627178729E-1,-3.053287566E-1,9.063547850E-1
3.222161970E0,-1.075581014E-1,-1.539276600E0,8.580964208E-1
3.274155262E0,3.438712955E-1,-7.683646083E-1,5.850396752E-1
3.326148555E0,2.540741265E-1,-6.003767252E-1,5.062380433E-1
3.378141914E0,4.458858073E-1,-6.840652227E-1,3.321414888E-1
3.430135273E0,5.845522285E-1,-1.112892628E0,3.174807131E-1
3.482128864E0,8.838762045E-1,-7.683646083E-1,-1.760984063E-1
3.534122882E0,9.614560604E-1,-1.356627822E0,-1.076814979E-1
3.586116175E0,4.574922621E-1,-1.112892628E0,-3.263712525E-1
3.638109567E0,-4.097378626E-2,-6.388611794E-1,-9.592276812E-1
3.690102926E0,-2.468353659E-1,-1.434494853E-1,-1.421041727E0
3.742096219E0,-4.313166738E-1,-9.302439094E-1,-1.678216100E0
3.794089611E0,-8.094422817E-1,-7.078889608E-1,-1.650116205E0
3.846082837E0,-1.124648690E0,-8.147904277E-1,-1.555432081E0
3.898076757E0,-1.109987974E0,-4.354430735E-1,-1.184636950E0
3.950070647E0,-1.062340498E0,-5.832724571E-1,-9.445669055E-1
4.002063940E0,-8.259356022E-1,-3.838066384E-2,-5.676630139E-1
4.054057299E0,-5.687613487E-1,-4.006237388E-1,-4.461008310E-1
4.106050691E0,-2.767677605E-1,-2.118663937E-1,-3.520275950E-1
4.158048479E0,-1.607033759E-1,3.085907996E-1,-2.768911719E-1
4.210046802E0,4.821253940E-2,7.697940469E-1,9.329317510E-2
4.262040562E0,3.078302741E-1,6.909924150E-1,5.044054985E-1
4.314033888E0,5.613393784E-1,1.687026471E-1,8.813093305E-1
4.366027348E0,7.244403958E-1,2.090197653E-1,1.120157599E0
4.418020608E0,8.789892793E-1,2.114632279E-1,1.278371692E0
4.470013934E0,1.141050458E0,-1.150259282E-2,1.380997062E0
4.522007260E0,1.350577235E0,-4.861449003E-1,1.329684496E0
4.574000685E0,1.359129429E0,-7.396540046E-1,1.108551264E0
4.625994407E0,1.268721342E0,-1.068910241E0,8.898614645E-1
4.677988295E0,9.455736279E-1,-1.279658794E0,6.290220022E-1
4.729981621E0,8.771566749E-1,-1.716427445E0,6.284111142E-1
4.781974913E0,4.263381362E-1,-1.199024677E0,3.865084946E-1
4.833968272E0,4.086230397E-1,-1.395723224E0,6.015330553E-1
4.885961665E0,7.203628868E-2,-1.044475675E0,4.897447228E-1
4.937954957E0,2.866485156E-2,-7.427083254E-1,3.015982509E-1
4.989948415E0,-2.731025815E-1,-4.140627682E-1,1.861446798E-1
5.041942435E0,-2.370615304E-1,-3.593720123E-2,2.618919611E-1
5.093935891E0,-2.700482607E-1,5.630345270E-2,3.168698549E-1
5.145929351E0,-2.590526640E-1,9.662055224E-2,3.376392722E-1
5.197922709E0,-1.680337489E-1,-2.057577372E-1,1.061213464E-1
5.249918563E0,-1.362687647E-1,1.137247831E-1,5.939442664E-3
5.301913390E0,-1.191645339E-1,-2.973875105E-1,-1.150118783E-1
5.353906649E0,-2.437810451E-1,-3.499219418E-1,-1.455551386E-1
5.405899975E0,-2.193464339E-1,-4.061215520E-1,-8.507947624E-2
5.457893401E0,-2.321746051E-1,-6.162591577E-1,1.568231732E-1
5.509886660E0,-1.637577116E-1,-2.793382883E0,2.264617980E-1
5.561880087E0,5.075832009E-1,-6.259432316E0,-1.207849860E0
5.613873445E0,-2.376311541E0,-3.786649942E0,-3.841289759E0
5.665867266E0,-5.161857128E0,4.218128204E0,-5.355625153E0
5.717861021E0,-2.069046497E0,3.909030437E0,-6.802153587E0
5.769854313E0,1.024986029E0,3.785635710E0,-1.556042910E0
5.821847772E0,3.994600475E-1,-1.873419762E0,1.366947293E0
5.873840965E0,1.099099293E-1,5.559912324E-1,1.598774940E-1
5.925834458E0,-8.332660198E-1,2.570624828E0,-3.508058488E-1
5.977827684E0,-1.532706618E0,1.940822721E0,-2.243567556E-1
6.029821043E0,-2.543077946E0,-1.593319923E-1,5.154010653E-1
6.081815163E0,-2.989009619E0,-5.667791367E-1,7.444755435E-1
6.133808719E0,-2.912040472E0,-4.904209673E-1,2.382205248E0
6.185801978E0,-2.030561924E0,4.692483544E-1,2.493993759E0
6.237795571E0,-1.585241079E0,2.265802860E0,2.109148502E0
6.289792091E0,-1.493000507E0,4.429487705E0,1.307082415E0
6.341790484E0,-1.533928514E0,5.694589615E0,9.023884684E-2
6.393786441E0,-4.447557032E-1,7.963953972E0,-7.423704863E-1
6.445779634E0,1.028651237E0,7.361640930E0,-1.383168101E0
6.497773060E0,1.541167259E0,4.260889053E0,-2.314737558E0
6.549766386E0,1.854541063E0,2.013515711E0,-1.162645698E0
6.601759712E0,7.977442145E-1,1.069118023E0,-7.826875448E-1
6.653753038E0,-9.167559445E-2,-6.098267809E-2,8.718451858E-2
6.705747026E0,-9.969779253E-1,-1.077462435E0,7.487515807E-1
6.757740748E0,-9.236740470E-1,-1.282102346E0,6.754477620E-1
6.809734074E0,-9.468869567E-1,-1.028593302E0,7.347016335E-1
6.861727333E0,-6.048024297E-1,-1.761020660E0,6.827781200E-1
6.913720893E0,-2.847090065E-1,-8.746551871E-1,8.580964208E-1
6.965714085E0,1.135751158E-1,-1.150259282E-2,4.665318429E-1
7.017707378E0,3.909079432E-1,9.988685250E-1,3.046525717E-1
7.069700870E0,5.387372971E-1,5.810366869E-1,1.604883373E-1
7.121694656E0,6.590777636E-1,4.967373013E-1,-1.137901470E-1
7.173688346E0,1.148991704E0,1.293201745E-2,-1.046271697E-1
7.225681839E0,1.500239253E0,-7.014565170E-2,4.188843369E-1
7.277675065E0,1.632797003E0,4.379903898E-3,1.072510123E0
7.329668391E0,1.539334536E0,-3.260982037E-1,1.748738050E0
7.381664878E0,5.295743346E-1,-3.768000305E-1,2.100596428E0
7.433663399E0,3.634189963E-1,-1.105562210E0,2.289353848E0
7.485658425E0,4.300033152E-1,-1.642512798E0,2.264308453E0
7.537651918E0,4.855920374E-1,-2.315686226E0,2.132361412E0
7.589645177E0,5.778326988E-1,-1.875252485E0,1.622899771E0
7.641638436E0,8.545547128E-1,6.212499458E-3,9.711065292E-1
7.693631829E0,7.421554327E-1,-1.012997851E-1,6.467370391E-1
7.745625122E0,1.087905169E0,-7.628667951E-1,6.601761580E-1
7.797618348E0,1.511845708E0,-6.577980518E-1,6.962171793E-1
7.849612599E0,1.296210170E0,-7.769167423E-1,5.758767128E-1
7.901606289E0,1.381120443E0,-5.515074730E-1,9.375089407E-1
7.953599481E0,1.457478642E0,-2.034077406E0,7.970099449E-1
8.005593040E0,1.441596150E0,-2.048738241E0,2.056923807E-1
8.057586233E0,1.337749004E0,-9.626197219E-1,-5.530022383E-1
8.109579524E0,1.221073866E0,-1.306213289E-1,-8.175069094E-1
8.161572850E0,1.006660104E0,-1.813231409E-1,-5.945410728E-1
8.213566175E0,5.986021161E-1,1.011085868E0,-6.745644808E-1
8.265560229E0,-1.610897422E0,-7.142132759E0,-6.702883840E-1
8.317553986E0,-2.798220813E-1,8.699759245E-1,-3.772262096E0
8.369547112E0,3.640298843E-1,-1.947945476E0,-2.199894905E0
8.421540537E0,-3.329673707E-1,-1.330647767E-1,-3.289678574E0
8.473535760E0,-4.649142623E-1,-6.052635908E-1,-2.799153805E0
8.525531285E0,-1.491167903E0,1.735895723E-1,-3.083817005E0
8.577524611E0,-2.007959843E0,-2.130881250E-1,-2.756393194E0
8.629518003E0,-3.053150415E0,3.965553939E-1,-2.385597944E0
8.681511229E0,-3.149667025E0,-5.670661852E-2,-1.509006381E0
8.733504522E0,-3.723269463E0,-3.224330246E-1,-5.591108799E-1
8.785497815E0,-3.488086462E0,-8.624378443E-1,2.252400666E-1
8.837491473E0,-3.121567249E0,-1.159929156E0,1.322353959E0
8.889485558E0,-2.220541000E0,-1.235065699E0,2.038898945E0
8.941478884E0,-1.992688179E0,-1.473913908E0,2.366933584E0
8.993472210E0,-1.565693498E0,-6.156483293E-1,2.307068825E0
9.045465469E0,-1.320736408E0,-9.064201713E-1,2.239873648E0
9.097458862E0,-9.377239347E-1,-1.364569068E0,2.045618534E0
9.149452221E0,-9.682672024E-1,-1.423212171E0,1.992473245E0
9.201445480E0,-8.595331907E-1,-1.991927743E0,1.947269201E0
9.253439104E0,-7.025408149E-1,-2.979085922E0,1.749348879E0
9.305433190E0,-5.583766699E-1,-3.092095852E0,1.133596659E0
9.357426549E0,-3.842800558E-1,-3.508706093E0,1.530659080E0
9.409419942E0,-5.846438408E-1,-4.475705624E0,4.075876251E-2
9.461413434E0,4.300033152E-1,-3.396917820E0,1.148257494E0
9.513408791E0,-9.839511663E-2,-3.483049870E0,6.247459054E-1
9.565407382E0,2.204765379E-1,-1.699934125E0,3.950605989E-1
9.617403907E0,-1.808619201E-1,-1.277826309E0,8.477117419E-1
9.669397734E0,-1.600925177E-1,-6.712370515E-1,3.345849216E-1
9.721390894E0,-2.578309774E-1,-9.180266261E-1,4.136962444E-2
9.773384287E0,-3.763388097E-1,2.780475318E-1,1.946968138E-1
9.825377580E0,-3.225826621E-1,4.955155551E-1,2.808288038E-1
9.877371039E0,-5.272225142E-1,3.299710751E-1,3.516891897E-1
9.929364794E0,-8.302116990E-1,6.134125590E-1,3.913954198E-1
9.981358650E0,-8.204378486E-1,6.653361320E-1,2.136336267E-1
1.003335184E1,-5.748699903E-1,3.183646500E-1,1.488819122E-1
1.008534520E1,-3.671758473E-1,2.969843447E-1,4.381308705E-2
1.013733853E1,-2.792112529E-1,1.936442801E-3,-6.125573441E-2
1.018933185E1,-2.578309774E-1,-2.417987883E-1,-3.010160662E-2
1.024132531E1,-2.046856731E-1,-7.653102875E-1,-9.332188405E-3
1.029331857E1,5.554292351E-2,-1.912515283E0,-7.469476759E-2
1.034531283E1,4.177860022E-1,-6.641222954E0,-1.037418365E0
1.039724606E1,-8.522028327E-1,-4.928967953E0,-2.412476063E0
1.044923939E1,-5.138033390E0,-1.874641657E0,-5.398995876E0
1.050123271E1,-3.334759235E0,5.062954903E0,-6.437467098E0
1.055322604E1,1.465618461E-1,3.718440771E0,-3.705677748E0
1.060522153E1,1.287047267E0,3.631697655E0,-3.660774827E-1
1.065722038E1,3.108845949E-1,-9.754479527E-1,1.002871513E0
1.070921604E1,-3.690084219E-1,-7.442171127E-2,2.606702447E-1
1.076120943E1,-1.229717493E0,1.617064238E0,2.460094839E-1
1.081320269E1,-1.738568306E0,-2.295814753E-1,1.122601032E0
1.086519612E1,-1.874791265E0,-2.539873838E0,2.832412958E0
1.091718944E1,-7.385818958E-1,-2.258264780E0,3.008342028E0
1.096918270E1,-3.537367880E-1,1.645163894E0,2.731620073E0
1.102117610E1,-8.088313937E-1,5.841808319E0,1.814100623E0
1.107317018E1,-1.458791971E0,5.192458630E0,4.622557759E-1
1.112516367E1,-1.734903097E0,4.590756416E0,-9.213539958E-1
1.117715717E1,-1.286528111E0,4.641458035E0,-1.975707412E0
1.122915039E1,-9.927018285E-1,4.802726746E0,-2.110708714E0
1.128114375E1,-1.472643465E-1,3.246241808E0,-1.508395553E0
1.133313711E1,-2.468353659E-1,8.864693046E-1,-9.702231884E-1
1.138513037E1,3.110831231E-2,6.861055493E-1,-2.463479042E-1
1.143712396E1,-4.484209120E-1,1.250545025E0,7.008029521E-2
1.148911815E1,-3.464064002E-1,3.922793269E-1,8.147250414E-1
1.154111144E1,-3.482390046E-1,-5.319597721E-1,7.438646555E-1
1.159310486E1,-3.702301681E-1,-3.639718294E-1,9.979846478E-1
1.164509812E1,-4.966792464E-1,-3.731348217E-1,9.631652832E-1
1.169709261E1,-3.800039887E-1,-5.325706005E-1,1.059682012E0
1.174908874E1,-2.871524692E-1,-3.108265698E-1,9.869890213E-1
1.180108210E1,-1.820836663E-1,4.130487740E-1,7.670775056E-1
1.185307549E1,-2.468353659E-1,1.192512870E0,3.492456973E-1
1.190506878E1,-3.958865106E-1,9.035735726E-1,6.824769825E-2
1.195706214E1,-4.508643746E-1,9.035735726E-1,-2.933845222E-1
1.200905543E1,-4.722446501E-1,1.355002880E0,-3.776839375E-1
1.206104873E1,-5.950285792E-1,1.303690314E0,-1.938134879E-1
1.211304294E1,-6.524499059E-1,3.592925966E-1,2.270726562E-1
1.216503654E1,-5.192812681E-1,-4.006237388E-1,5.239531994E-1
1.221702979E1,-2.413375825E-1,-3.566414416E-1,7.597471476E-1
1.226902319E1,-1.209971309E-1,-1.929295659E-1,7.004932165E-1
1.232101651E1,-1.723098159E-1,-4.632190987E-2,3.535217643E-1
1.237300980E1,-3.714518845E-1,-1.862100512E-1,2.130227685E-1
1.242500323E1,-4.734663665E-1,-4.898100793E-1,3.645173311E-1
1.247699649E1,-4.068820775E-1,-1.051195145E0,5.997004509E-1
1.252899084E1,-3.360216916E-1,-2.015751362E0,9.448392987E-1
1.258098430E1,-3.916104436E-1,-2.803767681E0,1.043799400E0
1.263297753E1,-7.648491263E-1,-2.991303205E0,1.187963724E0
1.268497085E1,-9.310044646E-1,-2.644942522E0,1.115881562E0
1.273696534E1,-7.880619764E-1,-1.666947365E0,9.875999093E-1
1.278896426E1,-4.386470616E-1,-6.339743137E-1,6.839998960E-1
1.284096068E1,-6.296493858E-2,1.491549611E-1,2.618919611E-1
1.289295411E1,1.661095321E-1,1.268260121E0,-2.518456876E-1
1.294494753E1,1.874898225E-1,1.513217092E0,-5.420066714E-1
1.299694083E1,1.508379132E-1,1.088665724E0,-7.814658880E-1
1.304893415E1,1.160185859E-1,5.187284350E-1,-7.698594332E-1
1.310092758E1,1.911550164E-1,3.110342622E-1,-7.014424801E-1
1.315292080E1,1.771050990E-1,4.118270278E-1,-4.638159275E-1
1.320491440E1,1.752725095E-1,5.706519485E-1,-5.065764785E-1
1.325690858E1,1.716073155E-1,1.151584864E0,-5.933193564E-1
1.330890184E1,9.830348939E-2,1.938379288E0,-4.326618016E-1
1.336089517E1,-2.631301992E-2,1.032466054E0,-1.235639900E-1
1.341288859E1,-6.052147225E-2,2.200153321E-1,1.617100835E-1
1.346488182E1,-7.396051288E-2,1.354288310E-2,2.307378501E-1
1.351687524E1,-1.203862652E-1,2.218479365E-1,3.975040615E-1
1.356886854E1,-1.472643465E-1,1.965153590E-2,4.897447228E-1
1.362086249E1,-1.472643465E-1,1.705352515E-1,5.966461301E-1
1.367285618E1,-5.441282317E-2,7.276443243E-1,6.064199805E-1
1.372484967E1,1.398423314E-1,7.850656509E-1,4.146082997E-1
1.377684290E1,1.514487565E-1,6.292950511E-1,2.967112958E-1
1.382883686E1,4.943427071E-2,1.125030518E-1,5.361704826E-1
1.388083324E1,-9.778425843E-2,6.790988892E-2,7.823491693E-1
1.393282694E1,-2.875648066E-2,-2.747855186E-1,8.269423246E-1
1.398482016E1,-1.267545391E-3,-5.783855319E-1,9.307894111E-1
1.403681362E1,5.004513636E-2,-5.576161742E-1,9.167395234E-1
1.408880691E1,7.203628868E-2,-6.907847524E-1,9.197938442E-1
1.414080017E1,9.586003423E-2,-9.894978404E-1,8.617616296E-1
1.419279363E1,8.608618379E-2,-8.044056892E-1,6.632304788E-1
1.424478726E1,5.493205786E-2,-4.421626031E-1,2.924352288E-1
1.429678124E1,-1.142776161E-1,-4.916426837E-1,-2.096959800E-1
1.434877460E1,-3.311347663E-1,-2.204184979E-1,-7.106054425E-1
1.440076786E1,-3.635106385E-1,-1.006889194E-1,-1.030088067E0
1.445276125E1,-1.435991526E-1,-6.968933940E-1,-1.221899629E0
1.450475468E1,1.092990637E-1,3.000386953E-1,-1.136989355E0
1.455674804E1,2.235308737E-1,3.953336477E-1,-8.004027009E-1
1.460874153E1,1.679421216E-1,-3.561344463E-3,-1.008096814E0
1.466073525E1,-3.152522743E-1,1.241094917E-1,-6.654015183E-1
1.471272898E1,-1.216080040E-1,-7.396540046E-1,-5.029113293E-1
1.476472227E1,1.068556085E-1,-7.042237520E-1,6.641510129E-2
1.481671576E1,-2.731025815E-1,1.517493129E0,8.183901906E-1
1.486870982E1,-3.547599912E-2,-2.053625107E0,4.506493509E-1
1.492070817E1,-1.796402037E-1,-9.235244393E-1,5.099032521E-1
1.497270546E1,-1.790293306E-1,-8.832072616E-1,2.600593865E-1
1.502469999E1,3.347083330E-1,-1.097620964E0,1.867555529E-1
1.507669342E1,5.637827516E-1,-1.543552637E0,4.811925888E-1
1.512868664E1,6.230367422E-1,-1.805002928E0,4.231604040E-1
1.518068004E1,7.048926950E-1,-2.184961081E0,4.677535594E-1
1.523267330E1,6.841232181E-1,-2.721911669E0,3.144263923E-1
1.528466662E1,6.951188445E-1,-3.633322477E0,2.906026542E-1
1.533666081E1,5.252982974E-1,-3.992511511E0,3.675716519E-1
1.538865433E1,5.187772959E-2,-2.981529236E0,5.404465199E-1
1.544064766E1,-2.407267094E-1,-9.797239900E-1,2.056923807E-1
1.549264108E1,-3.079219162E-1,-1.066466928E0,-1.266183108E-1
1.554463431E1,-3.708409965E-1,-9.803348780E-1,-1.455551386E-1
1.559662773E1,-3.696192801E-1,-3.450350165E-1,-6.614265591E-2
1.564862103E1,-2.700482607E-1,-2.729529142E-1,-5.087102577E-2
1.570061478E1,-2.676047981E-1,-1.544450521E-1,1.204809546E-2
1.575260870E1,-3.164739907E-1,-1.953730285E-1,-1.177564915E-2
1.580460220E1,-1.881923079E-1,-4.048998058E-1,-6.186660007E-2
1.585659539E1,-9.961685538E-2,-5.930463076E-1,-4.720583186E-2
1.590858868E1,-1.313818395E-1,-1.516674519E0,1.189495176E-1
1.596058260E1,4.324467778E-1,-5.719427109E0,-6.220300198E-1
1.601258096E1,-5.052313805E-1,-4.662019730E0,-1.854756117E0
1.606457821E1,-4.381782055E0,-6.675718427E-1,-6.056287289E0
1.611657218E1,-4.938280106E0,1.098439574E0,-7.149735928E0
1.616856533E1,-1.099603295E0,6.879668236E0,-8.027549744E0
1.622055856E1,1.687774897E0,4.023873329E0,5.547098160E0
1.627255232E1,1.089737773E0,-4.677291393E0,5.275263309E0
1.632454538E1,2.235308737E-1,-9.449046850E-1,-1.324524999E0
1.637653867E1,-7.960032225E-1,2.074602365E0,1.676655889E0
1.642853259E1,-1.146639943E0,-3.077722490E-1,6.479588151E-1
1.648052635E1,-9.377239347E-1,-2.029190540E0,1.484844208E0
1.653251984E1,-9.102350473E-1,-1.528280973E0,1.533713341E0
1.658451310E1,-2.761569023E-1,1.086833119E0,1.573419690E0
1.663650633E1,-4.704120457E-1,3.414840460E0,1.758511782E0
1.668849965E1,-3.470172584E-1,5.460628510E0,1.016310573E0
1.674049304E1,-7.966140509E-1,5.772169590E0,3.529108763E-1
1.679248640E1,-1.033629775E0,4.886415005E0,-5.731608272E-1
1.684448012E1,-5.479919314E-1,3.772196770E0,-1.324524999E0
1.689647404E1,-1.110598922E0,3.670793295E0,-1.276266694E0
1.694846750E1,-6.481738091E-1,4.491796017E0,-1.355068326E0
1.700046073E1,-9.853714705E-1,3.985388756E0,-1.077735424E0
1.705245442E1,-2.645504773E-1,2.747164726E0,-6.122561693E-1
1.710445054E1,-5.333311558E-1,2.023900509E0,-5.560565591E-1
1.715644474E1,-3.848909438E-1,4.674157798E-1,3.187024593E-1
1.720843816E1,-3.317456245E-1,-1.385625601E-1,8.141141534E-1
1.726043132E1,-2.144595236E-1,4.990769085E-3,7.518059015E-1
1.731242482E1,-8.068002760E-2,2.872105241E-1,5.147902369E-1
1.736441808E1,5.798638240E-2,2.774366736E-1,1.592666209E-1
1.741641143E1,2.133446932E-2,3.495187759E-1,-2.949074097E-2
1.746840529E1,-1.930792332E-1,1.075837493E0,-2.988823354E-1
1.752039934E1,-2.749351859E-1,1.353170395E0,-3.691318035E-1
1.757239260E1,-3.189174831E-1,5.620998740E-1,-3.385885656E-1
1.762438573E1,-3.665649593E-1,-6.648045778E-2,-2.610086799E-1
1.767635257E1,-4.899597466E-1,-1.721601635E-1,-3.437766433E-2
1.772834599E1,-5.339420438E-1,-3.816869259E-1,3.770443797E-2
1.778033915E1,-3.567911088E-1,-2.509617507E-1,6.336077303E-2
1.783233248E1,-1.161102131E-1,-2.454639673E-1,4.298799038E-1
1.788432650E1,-1.959350146E-2,-3.633609712E-1,6.265785694E-1
1.793632012E1,1.950187236E-2,-2.552378178E-1,4.616449177E-1
1.798831351E1,-6.907358766E-2,2.090197653E-1,-6.614265591E-2
1.804030684E1,-1.715004072E-2,2.780475318E-1,-1.528855264E-1
1.809230026E1,1.013578176E-1,1.659720764E-2,4.381308705E-2
1.814429812E1,1.092990637E-1,-1.028086152E-2,-9.302072972E-2
1.819629600E1,1.764942408E-1,-3.028853238E-1,-9.668592364E-2
1.824829013E1,1.850463599E-1,-5.221859217E-1,1.326982584E-2
1.830028353E1,1.899332702E-1,-2.521834970E-1,-8.141428232E-2
1.835227682E1,3.279888332E-1,1.048855577E-2,-2.268002182E-1
1.840427018E1,3.011107445E-1,3.702881634E-1,-2.897193432E-1
1.845626367E1,2.644588351E-1,3.037038743E-1,-7.897082716E-2
1.850825690E1,1.196837798E-1,-1.550559253E-1,8.290845901E-2
1.856025019E1,6.409504265E-2,-6.486350894E-1,3.455805182E-1
1.861224441E1,6.714936346E-2,-4.030672014E-1,5.997004509E-1
1.866423790E1,5.248859897E-2,-2.509617507E-1,9.533914328E-1
1.871623119E1,2.072360367E-2,-9.204701185E-1,7.182083130E-1
1.876822448E1,-3.608686477E-2,-1.033480048E0,3.095394671E-1
1.882021784E1,-1.545947194E-1,-1.733818799E-1,-1.357813030E-1
1.887221144E1,-1.173319370E-1,8.440325409E-2,-6.159213781E-1
1.892420453E1,-2.492788434E-1,-9.907196164E-1,-7.167141438E-1
1.897619822E1,3.599523380E-2,-1.503846407E0,-3.404211402E-1
1.902819220E1,-4.952589795E-2,-4.220040143E-1,2.289052606E-1
1.908018556E1,7.936666906E-2,8.867930621E-2,1.855338216E-1
1.913217899E1,1.025795415E-1,1.253312230E-1,-1.589941680E-1
1.918417231E1,-6.968445331E-2,-2.075903267E-1,-3.801273704E-1
1.923616827E1,-3.299130499E-1,-7.726407051E-1,-3.263712525E-1
1.928816296E1,-4.459774494E-1,-8.465553522E-1,-2.750585675E-1
1.934015629E1,-2.737134397E-1,-2.295814753E-1,-2.316871285E-1
1.939214962E1,-2.346180677E-1,1.399919838E-1,-3.141539395E-1
1.944414291E1,1.410640627E-1,1.363268048E-1,2.121107467E-2
1.949613623E1,1.972636580E-1,-2.515726388E-1,7.188192010E-1
1.954812963E1,2.760652900E-1,-2.419533491E0,2.031568527E0
1.960012295E1,-8.876329660E-1,-2.324849367E0,4.017801285E-1
1.965211714E1,-3.207500577E-1,8.430979252E-1,1.644890904E0
1.970411059E1,-2.828764319E-1,-1.705431938E0,1.209344029E0
1.975610389E1,-7.029531896E-2,-2.508108854E0,1.280815244E0
1.980809728E1,-3.119994141E-2,-2.047516584E0,9.857672453E-1
1.986009057E1,1.233489588E-1,-3.276577473E0,1.024251819E0
1.991208393E1,2.546849847E-1,-3.363931179E0,3.309197426E-1
1.996407732E1,5.198005438E-1,-3.053000689E0,3.889519572E-1
2.001607125E1,6.890102029E-1,-3.002909660E0,5.343378782E-1
2.006806507E1,4.507727325E-1,-1.594865322E0,4.585905671E-1
2.012005833E1,2.418568283E-1,-1.086014509E0,2.582267821E-1
2.017205152E1,1.099099293E-1,-1.792174816E0,3.584086895E-1
2.022404504E1,-1.826945245E-1,-4.684298038E-1,3.162589669E-1
2.027604186E1,-4.362035990E-1,-4.097867310E-1,2.576159239E-1
2.032804009E1,-5.522680283E-1,-1.318430454E-1,2.625028491E-1
2.038003592E1,-4.655251503E-1,-3.480893672E-1,9.390404075E-2
2.043202944E1,-1.100015566E-1,-4.207823277E-1,3.495981684E-3
2.048402277E1,-3.181080893E-2,-1.953730285E-1,-1.266183108E-1
2.053601606E1,-1.930792332E-1,-1.150259282E-2,-6.369919330E-2
2.058800928E1,-1.185536757E-1,-2.228619754E-1,-9.974024445E-2
2.064000271E1,-1.466534734E-1,-3.499219418E-1,-4.231891409E-2
2.069199660E1,-3.433520794E-1,-1.659006119E0,4.256038368E-1
2.074399035E1,4.617682993E-1,-6.922832012E0,-7.594747543E-1
2.079598364E1,-1.420918345E0,-5.114059925E0,-2.732569218E0
2.084797704E1,-5.485615730E0,-2.433076315E-2,-6.276198864E0
2.089997030E1,-3.404397726E0,9.072387218E-1,-6.803375721E0
2.095196366E1,6.714936346E-2,7.925469875E0,-6.051400185E0
2.100395705E1,2.083615541E0,2.336663246E0,4.262448311E0
2.105595034E1,6.535800099E-1,-4.280229092E0,1.899010897E0
2.110794429E1,-2.712699771E-1,-4.311670363E-1,9.998171926E-1
2.115993805E1,-7.550752759E-1,1.338509679E0,1.116492391E0
2.121193141E1,-8.784700036E-1,-8.514423370E-1,9.784368873E-1
2.126392463E1,-8.888547421E-1,-1.509344101E0,1.582582593E0
2.131591803E1,-6.072458625E-1,-9.559002519E-1,2.343109846E0
2.136791478E1,-6.243500710E-1,4.466463327E-1,2.003468752E0
2.141991317E1,-9.022937417E-1,3.424614429E0,1.553261161E0
2.147190806E1,-1.014082074E0,3.989664793E0,7.169865966E-1
2.152390139E1,-1.367162228E0,4.924899578E0,-7.558094859E-1
2.157589465E1,-7.440797091E-1,5.103271961E0,-1.953716278E0
2.162788804E1,-1.307297468E0,5.965814114E0,-2.510214567E0
2.167988140E1,-4.117689729E-1,5.169856548E0,-1.810163021E0
2.173187466E1,-6.585585475E-1,4.143602848E0,-1.887131929E0
2.178386798E1,-3.555693924E-1,2.584674835E0,-1.179749966E0
2.183586220E1,-1.125259638E0,1.386767983E0,-6.690666676E-1
2.188785573E1,-9.988104701E-1,1.289964169E-1,4.213278294E-1
2.193984905E1,-9.059590101E-1,-5.148555040E-1,7.066018581E-1
2.199184238E1,-3.855017722E-1,-1.752144843E-1,9.515588284E-1
2.204383574E1,2.499966137E-2,1.558744758E-1,9.210155606E-1
2.209582923E1,1.654986739E-1,4.729135334E-1,7.108779550E-1
2.214782249E1,-1.531744562E-2,8.192741871E-1,5.166227818E-1
2.219981585E1,-1.387122124E-1,5.523260236E-1,4.469841719E-1
2.225181000E1,-1.093906909E-1,3.037038743E-1,1.898098737E-1
2.230380349E1,1.520596296E-1,7.923960686E-1,6.091731787E-2
2.235579675E1,6.645755768E-1,2.955470085E0,4.445406795E-1
2.240779048E1,4.416097701E-1,1.927994490E0,1.617401958E0
2.245978540E1,1.483944356E-1,-1.698712349E0,3.300335646E0
2.251178066E1,1.642769277E-1,-1.904573917E0,3.304611921E0
2.256377405E1,-1.179428101E-1,5.688194036E-1,3.409680605E0
2.261576745E1,-3.793931305E-1,-1.718870997E0,3.753597736E0
2.266776074E1,-2.077400088E-1,-2.904560328E0,3.296059608E0
2.271975406E1,3.049744852E-2,-2.410370350E0,2.267362595E0
2.277174739E1,-6.846272200E-2,-9.522350430E-1,7.224843502E-1
2.282374121E1,-4.746881127E-1,9.903163910E-1,-4.021185338E-1
2.287573503E1,-7.446905375E-1,2.091706514E0,-1.480295658E0
2.292772839E1,-6.829931736E-1,3.009836912E0,-2.885896683E0
2.297972168E1,6.165157259E-2,3.601154566E0,-4.162604809E0
2.303171498E1,6.010456085E-1,4.684829712E0,-4.204144001E0
2.308370850E1,1.411052823E0,4.983542442E0,-2.938431263E0
2.313570180E1,1.535669446E0,1.546203732E0,-1.642785907E0
2.318769499E1,1.219241261E0,-1.487963915E0,-5.823237896E-1
2.323968878E1,9.364106059E-1,-1.560656905E0,1.085648015E-1
2.329168276E1,6.731277108E-1,-7.304909825E-1,4.201060832E-1
2.334367609E1,4.116773605E-1,-4.562124908E-1,5.227314234E-1
2.339566965E1,-1.961335540E-1,-8.832072616E-1,3.749020398E-1
2.344766271E1,-4.313166738E-1,-4.213931561E-1,3.587184101E-2
2.349965863E1,-4.215428531E-1,-2.729529142E-1,-4.900831282E-1
2.355165748E1,-4.557512701E-1,-8.874833584E-1,-3.923446834E-1
2.360365284E1,-4.087146521E-1,-2.174576521E0,4.106846638E-3
2.365564610E1,-2.816546857E-1,-4.783074837E-3,-8.691207319E-2
2.370763950E1,-1.888031811E-1,-2.921768464E-2,3.083177507E-1
2.375963282E1,1.135751158E-1,-1.025215164E-1,4.695861638E-1
2.381162618E1,1.428966522E-1,9.662055224E-2,3.132046461E-1
2.386361951E1,1.337336749E-1,-1.196257398E-1,1.989728510E-1
2.391561307E1,5.065600201E-2,-2.839484811E-1,1.598774940E-1
2.396760652E1,8.669704944E-2,-4.501038492E-1,-8.263601363E-2
2.401960051E1,1.874898225E-1,-6.455807090E-1,-1.736549437E-1
2.407159387E1,2.876717150E-1,-1.171822846E-1,-1.669354290E-1
2.412358720E1,2.595719099E-1,-5.777746439E-1,-2.399295382E-2
2.417558055E1,1.850463599E-1,-7.646994591E-1,3.342837840E-2
2.422757388E1,9.891435504E-2,-5.783855319E-1,-4.720583186E-2
2.427956721E1,-1.409571525E-2,-1.202366054E-1,-3.288146853E-1
2.433156050E1,-1.820836663E-1,-3.071613908E-1,-4.564855397E-1
2.438355462E1,-1.423774064E-1,-1.611645818E-1,-7.154924273E-1
2.443554817E1,2.438879572E-2,7.820113301E-1,-8.382763267E-1
2.448754177E1,2.039831728E-1,-3.462567329E-1,-4.864179492E-1
2.453953483E1,7.509060949E-2,-1.728748670E-3,-1.877048314E-1
2.459152955E1,1.783268452E-1,-3.945150971E-1,2.099684328E-1
2.464352557E1,-2.682156563E-1,-3.212112784E-1,6.885856390E-2
2.469551887E1,-2.944828570E-1,-7.909666896E-1,-1.363921613E-1
2.474751219E1,-1.362687647E-1,-1.154431462E0,-1.260074526E-1
2.479950582E1,-9.749867320E-1,1.707472205E0,7.438646555E-1
2.485149888E1,-1.820836663E-1,-1.737807751E0,9.069656730E-1
2.490349224E1,-6.658889055E-1,-1.889913201E0,1.186741948E0
2.495350764E1,-3.690084219E-1,1.171028707E-2,1.376110196E0
2.500550173E1,-4.093255401E-1,-2.832478285E0,1.974758148E0
2.505749525E1,-5.583766699E-1,-2.823926210E0,1.922223806E0
2.510948854E1,-1.148884818E-1,-2.318129539E0,1.592356443E0
2.516148200E1,9.647089243E-2,-3.066439629E0,1.677266717E0
2.521347526E1,3.133280575E-1,-3.880112410E0,1.049908161E0
2.526546859E1,7.146664858E-1,-3.490990877E0,1.295475960E0
2.531746205E1,7.537618876E-1,-3.328500986E0,1.110994577E0
2.536945534E1,4.886463881E-1,-1.845320106E0,1.169637680E0
2.542144930E1,1.862680763E-1,-1.261943698E0,9.625544548E-1
2.547344305E1,-1.959350146E-2,-6.779565811E-1,6.131395102E-1
2.552543628E1,-2.871524692E-1,-1.014543295E0,5.392248034E-1
2.557742967E1,-5.571548939E-1,-2.503508925E-1,5.862613916E-1
2.562942432E1,-6.677215695E-1,-5.365229398E-2,5.141793489E-1
2.568142331E1,-8.008901477E-1,6.372363567E-1,7.169865966E-1
2.573341960E1,-8.118857145E-1,4.545875788E-1,6.589543819E-1
2.578541296E1,-8.186052442E-1,7.062640786E-1,6.455153823E-1
2.583740652E1,-5.797569752E-1,2.462825477E-1,3.468022346E-1
2.588939962E1,-4.026060104E-1,6.363382936E-2,8.840624988E-2
2.594139301E1,-2.633287311E-1,-2.271380275E-1,-2.213024348E-1
2.599338634E1,3.171917796E-2,-4.586559534E-1,-5.175721049E-1
2.604537963E1,1.948202103E-1,-7.445408702E-1,-5.914867520E-1
2.609737332E1,1.233489588E-1,-1.513620257E0,-3.825708628E-1
2.614936740E1,2.962238193E-1,-5.001049995E0,-6.409668326E-1
2.620136063E1,3.725819588E-1,-6.063955784E0,-2.067337275E0
2.625335406E1,-2.956633568E0,-3.864229679E0,-4.852882862E0
2.630534732E1,-4.690268993E0,4.290210247E0,-6.127147675E0
2.635734067E1,-1.202228665E0,9.328950644E-1,-4.682451248E0
2.640933410E1,2.566199064E0,3.319545746E0,-1.965933561E0
2.646132733E1,1.537501931E0,5.059002638E-1,3.132347584E0
2.651332112E1,1.545030922E-1,-1.597919703E0,1.220339656E0
2.656531517E1,-7.966140509E-1,7.135944963E-1,8.654268384E-1
2.661730839E1,-1.207115531E0,8.119437695E-1,7.548602223E-1
2.666930172E1,-8.106639981E-1,-1.067975685E-1,1.421314240E0
2.672129574E1,-6.212957501E-1,-4.030672014E-1,2.119533300E0
2.677329207E1,-4.966792464E-1,8.217176199E-1,2.114646196E0
2.682528573E1,-6.469520926E-1,3.323821545E0,1.962540746E0
2.687727898E1,-8.509810567E-1,4.848541737E0,1.220339656E0
2.692927241E1,-1.481394053E0,5.959704876E0,-2.704728208E-2
2.698126570E1,-2.132377923E-1,7.042768955E0,-1.664166093E0
2.703325910E1,-1.845271140E-1,9.290143013E0,-3.386195421E0
2.708525242E1,1.940062284E0,9.907115936E0,-1.849869132E0
2.713724614E1,1.965107679E0,5.344563961E0,-2.829697132E0
2.718924003E1,8.356178403E-1,-2.494162694E-2,-7.374835610E-1
2.724123346E1,-7.000974417E-1,-2.056068659E0,1.824794859E-1
2.729322675E1,-1.249265313E0,-1.283324003E0,1.375499249E0
2.734522004E1,-1.139309406E0,-6.889521480E-1,1.011423588E0
2.739721347E1,-9.884257913E-1,-7.225497365E-1,7.108779550E-1
2.744920676E1,-6.530607939E-1,-1.403664470E0,6.418501735E-1
2.750120012E1,-1.912466437E-1,-6.761239767E-1,4.280473292E-1
2.755319404E1,1.086882055E-1,2.279565930E-1,1.055104733E-1
2.760518783E1,1.355662644E-1,9.860403538E-1,-2.377957851E-1
2.765718106E1,7.570147514E-2,1.154028296E0,-4.607616067E-1
2.770917448E1,-2.570215613E-2,7.557441592E-1,-4.351052642E-1
2.776116864E1,1.033889409E-2,-2.330347061E0,1.778670430E0
2.781316716E1,4.715421498E-1,-4.085362911E0,3.264905453E0
2.786516435E1,8.179027438E-1,-1.991316915E0,2.341277361E0
2.791715885E1,1.191141367E0,-2.647997141E0,1.120768547E0
2.796915214E1,1.371957541E0,-7.489103794E0,8.779538423E-2
2.802114546E1,5.741675496E-1,-4.307106972E0,-7.136597633E-1
2.807313879E1,3.255453408E-1,1.484506369E0,-7.649724483E-1
2.812513205E1,-2.205681652E-1,3.009836912E0,3.626847565E-1
2.817712564E1,-4.368144572E-1,8.082785606E-1,1.275016218E-1
2.822911940E1,-5.369963646E-1,5.205610394E-1,5.129575729E-1
2.828111308E1,-4.545295835E-1,1.054457307E0,8.648159504E-1
2.833310654E1,-2.676047981E-1,1.948153019E0,9.008570313E-1
2.838509980E1,3.835775554E-1,3.390405893E0,2.783853412E-1
2.843709323E1,5.295743346E-1,3.563280821E0,-1.418598294E0
2.848908652E1,1.026207805E0,4.221793652E0,-3.559680939E0
2.854107978E1,9.840580821E-1,4.774015427E0,-4.480865955E0
2.859307337E1,-8.186052442E-1,9.225103855E-1,-2.689808846E0
2.864506749E1,-1.687866449E0,-8.056274652E-1,-6.116453409E-1
2.869706082E1,-1.885786891E0,-4.682178020E0,-2.982714474E-1
2.874905414E1,-1.160078883E0,-3.349270344E0,7.591363192E-1
2.880104753E1,7.142541558E-2,-1.578982830E0,1.195603758E-1
2.885304149E1,9.015913010E-1,-2.656225264E-1,4.463732839E-1
2.890504004E1,1.186254501E0,4.124378860E-1,6.641510129E-2
2.895703703E1,1.224738955E0,9.884838462E-1,-5.065764785E-1
2.900903083E1,8.160701394E-1,8.730302453E-1,-9.879382849E-1
2.906102409E1,3.805232346E-1,4.161030948E-1,-5.413957834E-1
2.911301761E1,-1.900248975E-1,-1.495581418E-1,-1.437225491E-1
2.916501091E1,-3.726736009E-1,-2.698985934E-1,3.587184101E-2
2.921700426E1,-3.378542960E-1,-3.761891425E-1,2.215748727E-1
2.926899776E1,-2.566092312E-1,-2.124772668E-1,1.849229634E-1
2.932099092E1,-1.839162558E-1,-1.287887245E-1,-1.095140949E-1
2.937298510E1,-1.930792332E-1,-3.346503079E-1,-5.872107148E-1
2.942497856E1,-1.118341535E-1,-2.790615857E-1,-9.488429427E-1
2.947697182E1,-2.688265145E-1,-9.180266261E-1,-5.902650356E-1
2.952896518E1,-4.044385850E-1,-1.093955755E0,-2.213024348E-1
2.958095854E1,-2.902068198E-1,-7.023911476E-1,-1.113466844E-1
2.963295186E1,-1.161102131E-1,1.170521617E0,-9.912937880E-2
2.968494522E1,-2.081523277E-2,1.422809005E0,-7.499592844E-3
2.973693904E1,7.997753471E-2,8.223285079E-1,5.236519873E-2
2.978893290E1,-2.753474936E-2,-2.564595640E-1,7.374548167E-2
2.984092619E1,-1.802510619E-1,-1.038977861E0,2.130227685E-1
2.989291942E1,-2.895959616E-1,-4.647646248E-1,7.008029521E-2
2.994491324E1,-2.071291357E-1,7.462941110E-2,8.382904343E-3
2.999690943E1,1.062447354E-1,4.802439213E-1,2.429551482E-1
3.004890352E1,3.866319060E-1,7.410833836E-1,3.504674435E-1
3.010089688E1,4.599356949E-1,2.087326534E-2,6.986606717E-1
3.015289037E1,2.479654700E-1,-5.637248158E-1,6.461262107E-1
3.020488353E1,2.168113440E-1,-9.638414979E-1,5.777093172E-1
3.025687693E1,3.872427344E-1,-5.508965850E-1,2.063032389E-1
3.030887028E1,3.756363094E-1,4.942938089E-1,-1.412790865E-1
3.036086421E1,3.701385260E-1,1.072783232E0,-1.192879304E-1
3.041285809E1,2.430785596E-1,-5.399010181E-1,2.854145691E-2
3.046485135E1,2.015397251E-1,-1.208798409E0,-6.553179026E-2
3.051684474E1,2.406350821E-1,-8.062382936E-1,-1.052380279E-1
3.056883804E1,1.422857791E-1,-6.584088802E-1,-2.432935834E-1
3.062083133E1,4.454734921E-2,-4.082412273E-2,-4.503768981E-1
3.067282482E1,-5.253899693E-1,2.536129355E-1,-2.591760755E-1
3.072481808E1,-7.672925591E-1,2.880944252E0,2.942678630E-1
3.077681164E1,8.914051205E-2,3.989988267E-1,7.145431638E-1
3.082880549E1,-4.581947625E-1,-1.091512322E0,1.029138684E0
3.088079898E1,-4.209319651E-1,1.906937957E-1,1.200791836E0
3.093279248E1,-6.671106815E-1,-1.375564694E0,1.697425246E0
3.098478593E1,-4.111581147E-1,-9.858326316E-1,1.580749989E0
3.103678382E1,-3.097544909E-1,-1.673056006E0,1.387716651E0
3.108878162E1,-5.033987761E-1,-2.068285942E0,1.293032527E0
3.114077658E1,-5.467702150E-1,-2.629060030E0,1.271041393E0
3.119276997E1,-2.608852983E-1,-2.799491405E0,1.197126746E0
3.124476323E1,2.499966137E-2,-2.858745575E0,7.695209980E-1
3.129675675E1,3.982383013E-1,-1.588145733E0,8.037294149E-1
3.134874998E1,1.636660695E-1,-1.142214060E0,9.924868345E-1
3.140074337E1,3.475365043E-1,-2.288197279E0,2.716658413E-1
3.145273736E1,-1.503186673E-1,-1.459253192E0,3.394718766E-1
3.150473112E1,-9.208793752E-3,-2.045360059E-1,2.399008274E-1
3.155672427E1,-8.051661849E-1,-8.825964332E-1,5.581616163E-1
3.160871787E1,-9.841496944E-1,-7.219388485E-1,1.507145017E-1
3.166071109E1,-6.982647777E-1,-8.410575986E-1,4.640883803E-1
3.171270455E1,3.721696511E-2,-1.191694260E0,2.973221838E-1
3.176469778E1,1.667204052E-1,-1.369456053E0,2.906026542E-1
3.181669094E1,1.862680763E-1,-1.278437138E0,2.539507151E-1
3.186868522E1,1.661095321E-1,-5.594487190E-1,3.138155341E-1
3.192067861E1,4.332561791E-2,-4.244475067E-1,2.814396620E-1
3.197267207E1,-1.759750098E-1,1.552636325E-1,2.032489181E-1
3.202466536E1,-1.997987479E-1,5.566021204E-1,1.085648015E-1
3.207665919E1,-1.936900914E-1,5.938648582E-1,-1.849516667E-2
3.212865661E1,-2.814561687E-2,6.641143560E-1,4.717712291E-3
3.218065443E1,-7.334964722E-2,7.279681414E-2,-1.284509152E-1
3.223263502E1,-6.357580423E-2,-8.114122599E-2,-1.089032218E-1
3.228462842E1,-5.013676360E-2,-4.782036543E-1,-1.730440706E-1
3.233662171E1,-1.503186673E-1,-4.751493335E-1,-1.849516667E-2
3.238861504E1,-2.633287311E-1,-1.454366326E0,2.179096788E-1
3.244060843E1,1.380097419E-1,-5.147047043E0,-2.182481140E-1
3.249260179E1,-9.187871814E-1,-4.824509621E0,-2.125980139E0
3.254459548E1,-4.233952522E0,-1.760409832E0,-5.870584011E0
3.259658940E1,-1.985968709E0,2.559018373E0,-7.083762646E0
3.264858272E1,4.715421498E-1,3.832672358E0,-4.642745018E0
3.270057612E1,1.838658571E0,2.430736542E0,1.976590753E0
3.275256938E1,7.507075667E-1,-1.589978337E0,2.962527275E0
3.280456274E1,-1.723098159E-1,-7.897449136E-1,1.981477618E0
3.285655610E1,-6.157979965E-1,1.592018723E0,1.839146018E0
3.290854935E1,-1.097770572E0,2.197386265E0,2.836688995E0
3.296054311E1,-6.200740337E-1,1.182739019E0,2.494604588E0
3.301253703E1,-2.804329395E-1,6.250189543E-1,2.194058895E0
3.306453039E1,-2.535548806E-1,1.367220163E0,1.131153226E0
3.311652375E1,-7.752338052E-1,3.084362507E0,-2.689499259E-1
3.316851724E1,-8.735831380E-1,5.219947338E0,-1.737469912E0
3.322051323E1,-8.699179292E-1,6.758105755E0,-3.008680344E0
3.327250782E1,6.837109476E-2,7.753205776E0,-3.042278051E0
3.332450108E1,4.049578607E-1,4.124055386E0,-2.151636600E0
3.337649440E1,3.224910200E-1,8.046134114E-1,-1.822380304E0
3.342848780E1,-1.362687647E-1,7.434229832E-3,-6.250843406E-1
3.348048102E1,-7.367493510E-1,3.037038743E-1,3.281751275E-2
3.353247445E1,-1.011638641E0,3.928901851E-1,6.510131359E-1
3.358446827E1,-8.735831380E-1,-1.868209243E-1,9.326220155E-1
3.363646232E1,-4.557512701E-1,-6.229786873E-1,1.041966915E0
3.368845545E1,2.927571721E-2,7.434229832E-3,9.228482246E-1
3.374044911E1,2.278069109E-1,5.089545846E-1,8.190010786E-1
3.379244214E1,3.395952880E-1,4.081618488E-1,5.123467445E-1
3.384443549E1,1.911550164E-1,1.595396698E-1,2.521181405E-1
3.389642879E1,-1.653917693E-2,2.713280022E-1,2.365453541E-2
3.394842221E1,-1.607033759E-1,4.942938089E-1,-4.320509434E-1
3.400041590E1,-1.283275187E-1,6.457883716E-1,-8.370545506E-1
3.405240986E1,-1.368796229E-1,1.101493955E0,-1.315362096E0
3.410440315E1,1.300684810E-1,1.151584864E0,-1.183415174E0
3.415639647E1,1.532813609E-1,8.907453418E-1,-6.941121221E-1
3.420838993E1,-5.258022621E-2,6.738882065E-1,-3.508058488E-1
3.426038682E1,-8.862127364E-2,1.180008426E-1,2.548713051E-2
3.431238504E1,2.785087228E-1,-1.410060227E-1,9.023884684E-2
3.436437987E1,4.849812090E-1,-6.831305474E-2,4.298799038E-1
3.441637313E1,2.705674767E-1,1.112813205E-1,4.408755004E-1
3.446836652E1,-1.837177202E-2,3.311928213E-1,6.180264354E-1
3.452035991E1,-8.434522152E-2,-1.239017919E-1,7.230952382E-1
3.457235317E1,-1.197754070E-1,-2.066557109E-2,6.088634729E-1
3.462434653E1,-1.429882795E-1,6.036387086E-1,3.156481385E-1
3.467633989E1,-2.401158661E-1,3.898358643E-1,1.806468964E-1
3.472833384E1,-2.101834565E-1,1.858068854E-1,6.397163868E-2
3.478032750E1,-8.556694537E-2,2.896539569E-1,-1.901482940E-1
3.483232083E1,4.230241757E-3,5.938648582E-1,-2.268002182E-1
3.488431422E1,-1.564273238E-1,5.211718678E-1,-1.021837071E-1
3.493630751E1,-2.010204792E-1,-2.845593691E-1,5.236519873E-2
3.498830090E1,-5.074762926E-2,-5.832724571E-1,8.168672770E-2
3.504029423E1,1.752725095E-1,-4.519364238E-1,-6.277862005E-3
3.509228746E1,3.072193861E-1,-2.234728336E-1,-4.109717906E-2
3.514428178E1,3.621972799E-1,-1.074084416E-1,-5.636881292E-2
3.519627527E1,3.939622939E-1,-1.849883199E-1,1.055104733E-1
3.524826856E1,3.664733171E-1,-1.636080295E-1,1.873664260E-1
3.530026188E1,3.389844000E-1,-5.008056760E-1,1.983619928E-1
3.535225734E1,2.241417170E-1,-4.342213571E-1,-2.384066582E-1
3.540425253E1,3.023324907E-1,4.857417345E-1,-3.086561561E-1
3.545624596E1,3.896862268E-1,-3.364829123E-1,-4.528203309E-1
3.550823925E1,4.739856124E-1,3.959445059E-1,-2.420718521E-1
3.556023251E1,5.362938643E-1,3.751751184E-1,-2.805563807E-1
3.561222590E1,5.491220951E-1,1.936442801E-3,-4.015076756E-1
3.566421923E1,2.730109692E-1,-1.636080295E-1,-4.515986443E-1
3.571621256E1,2.669022679E-1,-1.527059317E0,8.382904343E-3
3.576820674E1,4.690986872E-1,3.165320456E-1,8.993769065E-3
3.582020030E1,5.564524531E-1,8.101111650E-1,-9.485332668E-2
3.587219356E1,-3.549585342E-1,7.795678973E-1,1.426201224E0
3.592418698E1,-9.762085080E-1,-3.886220932E0,1.586557478E-1
3.597618024E1,-1.114264011E0,-6.504676342E-1,2.942678630E-1
3.602817360E1,-4.630816579E-1,1.289964169E-1,3.003765047E-1
3.608016689E1,-6.848257184E-1,-9.870544076E-1,9.442284703E-1
3.613216065E1,-2.529440224E-1,-1.021262765E0,1.196515799E0
3.618415464E1,3.966042772E-2,-1.765907645E0,1.920391083E0
3.623614790E1,3.538436815E-2,-2.677318573E0,2.306457996E0
3.628814133E1,4.232838154E-1,-2.180074215E0,2.205054522E0
3.634013475E1,2.443002760E-1,-2.585077763E0,2.187339067E0
3.639213064E1,1.490053087E-1,-3.049946308E0,1.790276885E0
3.644412903E1,-1.154993474E-1,-3.786039114E0,1.790276885E0
3.649612539E1,-1.991878748E-1,-3.816582203E0,1.010812759E0
3.654811898E1,-4.563621581E-1,-2.246047497E0,6.030644849E-2
3.660011224E1,-2.303420156E-1,-1.670612574E0,1.055405855E0
3.665210560E1,-2.291202843E-1,-9.638414979E-1,8.135033250E-1
3.670409890E1,-3.983299434E-1,-5.863267779E-1,4.573688805E-1
3.675609225E1,-3.366325796E-1,5.065111518E-1,5.569398999E-1
3.680808627E1,-2.767677605E-1,6.402906775E-1,4.646992385E-1
3.686007986E1,-5.296659470E-1,5.254479647E-1,5.709897876E-1
3.691207336E1,-3.690084219E-1,1.430463046E-1,4.408755004E-1
3.696406691E1,-3.390760124E-1,4.057183862E-1,-1.390940160E-3
3.701605987E1,-3.855017722E-1,3.684555888E-1,-5.026016012E-2
3.706805333E1,-3.702301681E-1,-1.287887245E-1,-8.630120754E-2
3.712004669E1,-1.716989428E-1,-7.152193785E-1,-1.003511101E-1
3.717203995E1,-1.472643465E-1,-7.573691010E-1,-6.308832765E-2
3.722403404E1,-1.234406009E-1,-8.520531654E-1,-6.277862005E-3
3.727602786E1,5.650503444E-4,-3.217323542E0,-2.469587773E-1
3.732802102E1,1.172403097E-1,-6.131761551E0,-1.860253930E0
3.738001438E1,-2.986565828E0,-3.931424856E0,-4.701388359E0
3.743200760E1,-4.632847786E0,2.494877338E0,-6.576133728E0
3.748400336E1,-1.718409777E0,3.433166504E0,-5.141211033E0
3.753600221E1,1.769019842E0,4.063579559E0,-8.022353053E-1
3.758799777E1,1.280938625E0,-3.719130754E-1,2.522093534E0
3.763999100E1,6.169281006E-1,-1.316310763E0,2.497658730E0
3.769198436E1,3.524234295E-1,5.364435315E-1,2.556301832E0
3.774397765E1,-3.091436028E-1,9.243429303E-1,2.625940323E0
3.779597094E1,-9.228646755E-2,6.018061042E-1,2.630827427E0
3.784796430E1,-1.411556900E-1,2.219988108E0,2.791484833E0
3.789995769E1,6.653849781E-2,3.712942839E0,1.931386709E0
3.795195171E1,4.271475226E-2,4.381229401E0,7.285929918E-1
3.800394530E1,-1.226312015E-2,5.182684422E0,-1.044748783E0
3.805593873E1,2.473546118E-1,5.822871685E0,-2.665374279E0
3.810793206E1,6.792363524E-1,7.682956219E0,-3.548074484E0
3.815992588E1,8.515003920E-1,6.024456978E0,-2.914607286E0
3.821191877E1,8.991478086E-1,1.281088233E0,-2.416141272E0
3.826391206E1,-9.595166147E-2,8.632563949E-1,-1.714867949E0
3.831590559E1,-7.226994038E-1,1.226110339E0,-7.497008443E-1
3.836789957E1,-1.171074510E0,-4.134519398E-1,3.584086895E-1
3.841989303E1,-1.130757332E0,-6.535219550E-1,5.099032521E-1
3.847188642E1,-8.173834682E-1,-7.152193785E-1,8.244988918E-1
3.852387965E1,-5.180595517E-1,-2.271380275E-1,4.958533645E-1
3.857587444E1,-3.952756226E-1,5.278913975E-1,3.785672188E-1
3.862787033E1,-5.624542013E-2,4.558093250E-1,2.976318821E-2
3.867986369E1,9.769262373E-2,5.358326435E-1,-1.724332124E-1
3.873185705E1,5.451972596E-3,7.087075114E-1,-1.040163040E-1
3.878385034E1,-3.372434378E-1,1.100883007E0,-7.835996151E-2
3.883584377E1,-5.980829000E-1,5.346109867E-1,-2.032776177E-2
3.888783706E1,-4.331492484E-1,-8.908247948E-2,2.093575746E-1
3.893983035E1,-1.173319370E-1,-5.667791367E-1,3.495981684E-3
3.899182464E1,9.891435504E-2,-1.202366054E-1,1.684295982E-1
3.904381810E1,-2.936734632E-2,5.663759112E-1,-3.376679868E-2
3.909581149E1,-1.649794281E-1,8.186632395E-1,-2.093862742E-2
3.914780498E1,-1.686446220E-1,2.646085024E-1,2.056923807E-1
3.919979834E1,-7.334964722E-2,-3.853521049E-1,2.331813276E-1
3.925179140E1,8.730791509E-2,-1.697166860E-1,1.165060475E-1
3.930378483E1,1.532813609E-1,2.026239969E-2,2.274251310E-3
3.935577862E1,1.887115538E-1,1.167791039E-1,-2.765814587E-2
3.940777250E1,1.911550164E-1,-5.976094678E-2,-2.154949307E-2
3.945976583E1,1.428966522E-1,3.431230038E-2,-5.148189142E-2
3.950985617E1,9.036224335E-2,5.141652748E-2,1.265896019E-2
3.956184959E1,6.348416954E-2,5.569258332E-2,3.220665082E-2
3.961384422E1,9.402743727E-2,-1.455691922E-2,5.969558284E-2
3.966584307E1,9.708175808E-2,9.906401485E-2,4.870000854E-2
3.971783946E1,1.038012803E-1,1.595396698E-1,-1.055391878E-2
3.976983285E1,1.245706975E-1,1.210551709E-1,-2.582555078E-2
3.982182625E1,1.312902123E-1,2.820364758E-2,-5.759054050E-2
3.987381951E1,1.526705027E-1,-9.059132077E-3,-1.040163040E-1
3.992581290E1,1.465618461E-1,8.379238844E-2,-1.034054309E-1
3.997780629E1,1.239598319E-1,2.026239969E-2,-1.473877430E-1
4.002979955E1,8.730791509E-2,-4.021326080E-2,-8.752293885E-2
4.008179324E1,9.341656417E-2,-6.648045778E-2,-1.064597592E-1
4.013378726E1,1.019686833E-1,-9.396939725E-2,-5.209275335E-2
4.018578052E1,1.044121385E-1,-1.581102461E-1,-5.453621596E-2
4.023777398E1,1.044121385E-1,-1.208474711E-1,-5.881227553E-2
4.028976727E1,9.769262373E-2,-1.577864960E-2,-3.926458210E-2
4.034176056E1,8.119926602E-2,1.038470946E-4,-1.692096703E-4
4.039375399E1,5.493205786E-2,-7.226535585E-3,2.885116497E-3
4.044574725E1,2.072360367E-2,7.646200806E-2,-2.399295382E-2
4.049774104E1,-5.929974467E-2,1.082269996E-1,5.328577477E-3
4.054973499E1,-1.765858829E-1,6.424469501E-2,5.939442664E-3
4.060172829E1,-2.474462390E-1,9.877691045E-3,-1.692096703E-4
4.065372171E1,-1.997987479E-1,6.823364645E-3,6.397163868E-2
4.070571570E1,-1.381013691E-1,-8.236295730E-2,6.336077303E-2
4.075771199E1,-6.052147225E-2,-9.946718812E-2,4.503481835E-2
4.080970565E1,-3.711006371E-3,-1.287887245E-1,-8.110457100E-3
4.086169888E1,6.673702504E-3,-1.587211192E-1,-4.537323862E-2
4.091369234E1,1.156062540E-2,-1.214583367E-1,-6.186660007E-2
4.096568566E1,2.683225647E-2,-1.455691922E-2,-5.697967857E-2
4.101767896E1,4.210388660E-2,3.797749430E-2,-4.292977601E-2
4.106967235E1,4.821253940E-2,8.929017931E-2,-4.964929447E-2
4.112166597E1,9.830348939E-2,1.167791039E-1,-5.270362273E-2
4.117365996E1,1.257924289E-1,1.479332447E-1,-4.476236925E-2
4.122565335E1,1.325119436E-1,4.530787840E-2,-8.110457100E-3
4.127764661E1,1.490053087E-1,2.942537889E-2,2.060020901E-2
4.132963994E1,1.679421216E-1,-2.860681899E-2,5.358693376E-2
4.138163333E1,1.807702929E-1,-6.403700262E-2,7.130202651E-2
4.143362665E1,1.716073155E-1,-4.632190987E-2,3.465010971E-2
4.148562001E1,1.062447354E-1,-4.998710379E-2,4.992173985E-2
4.153761416E1,3.538436815E-2,-7.564344257E-2,3.953703493E-2
4.158960762E1,7.203628868E-2,-1.391734332E-1,9.084970504E-2
4.164160105E1,2.133446932E-2,-1.458929479E-1,5.175433680E-2
4.169359434E1,-2.325869352E-2,-1.330647767E-1,-1.421911083E-2
4.174558843E1,-2.753474936E-2,-1.568885148E-1,-5.575794727E-2
4.179758708E1,-2.203696407E-2,-2.555249445E-2,-9.974024445E-2
4.184958425E1,2.133446932E-2,6.974248588E-2,-1.699897498E-1
4.190157871E1,4.210388660E-2,1.693135202E-1,-1.950352192E-1
4.195357197E1,3.599523380E-2,1.943589896E-1,-1.883157045E-1
4.200556536E1,1.400408521E-2,1.192225739E-1,-1.394464821E-1
4.205755872E1,-3.303254023E-2,7.768373191E-2,-1.125684157E-1
4.210955204E1,-6.846272200E-2,4.347528145E-2,-7.530563325E-2
4.216154567E1,-1.069472358E-1,2.392759174E-2,-4.598410428E-2
4.221353969E1,-6.113233790E-2,-1.822211035E-2,-1.040163040E-1
4.226553301E1,1.583668217E-2,1.595396698E-1,-2.726151049E-1
4.231752654E1,-4.280637950E-2,1.289964169E-1,-3.068235815E-1
4.236951980E1,-6.663012505E-2,8.045095019E-3,-9.668592364E-2
4.242151302E1,2.744312026E-2,-6.089287996E-1,1.641535312E-1
4.247350642E1,1.990962476E-1,-7.592016459E-1,2.765527368E-1
4.252549974E1,1.923767328E-1,-6.755131483E-1,6.550308317E-3
4.257749327E1,1.734399050E-1,5.630345270E-2,-6.308832765E-2
4.262948742E1,1.392314583E-1,1.894720793E-1,-8.110457100E-3
4.268148071E1,1.709964573E-1,-2.534052134E-1,4.931087419E-2
4.273347404E1,1.752725095E-1,-1.029814959E0,2.539507151E-1
4.278546733E1,2.015397251E-1,-1.232622147E0,1.830903590E-1
4.283746142E1,2.204765379E-1,-1.032258391E0,2.274251310E-3
4.288945991E1,2.149787396E-1,-5.050817132E-1,-2.799454927E-1
4.294145700E1,1.764942408E-1,-2.454639673E-1,-3.391994238E-1
4.299345073E1,1.887115538E-1,1.668700576E-1,-3.697426617E-1
4.304544399E1,2.485763431E-1,2.566672266E-1,-5.077981949E-1
4.309743745E1,2.100918293E-1,1.961915940E-1,-6.403559446E-1
4.314943077E1,1.367879957E-1,1.253312230E-1,-6.763970256E-1
4.320142403E1,2.011273801E-2,1.399919838E-1,-7.839093208E-1
4.325341752E1,-5.685628206E-2,5.324912444E-2,-6.818948388E-1
4.330541108E1,-1.729206890E-1,2.035219669E-1,-6.513515711E-1
4.335740513E1,-2.321746051E-1,2.499477416E-1,-5.310111046E-1
4.340939846E1,-2.889850736E-1,1.748113036E-1,-4.063946009E-1
4.346139169E1,-2.590526640E-1,2.633867860E-1,-3.330907524E-1
4.351338511E1,-1.387122124E-1,2.615541816E-1,-3.117104769E-1
4.356537847E1,-9.289733320E-2,1.659720764E-2,-2.225241512E-1
4.361737176E1,-6.357580423E-2,4.103181884E-2,-7.652736455E-2
4.366936509E1,-5.746714771E-2,4.958393052E-2,-2.826900966E-2
4.372135888E1,-7.945829630E-2,-1.642189026E-1,5.908472091E-2
4.377335277E1,-1.051146388E-1,-2.222511023E-1,1.354428679E-1
4.382534616E1,-3.181080893E-2,-2.472965717E-1,2.020271868E-1
4.387733948E1,1.178511828E-1,-2.857810855E-1,2.227966040E-1
4.392933324E1,1.972636580E-1,-1.098518968E-1,1.861446798E-1
4.398132933E1,1.667204052E-1,-1.385625601E-1,2.741092741E-1
4.403332339E1,1.141859889E-1,-2.014816850E-1,2.899917960E-1
4.408531678E1,9.036224335E-2,-1.739927530E-1,2.399008274E-1
4.413731024E1,3.782783076E-2,-2.005470730E-2,1.116191298E-1
4.418930394E1,5.451972596E-3,1.118921861E-1,-8.110457100E-3
4.424129686E1,-1.287398487E-2,3.049255908E-1,-3.071247041E-2
4.429329022E1,8.181012422E-2,6.830512285E-1,-2.612670651E-3
4.434528421E1,1.514487565E-1,7.496355176E-1,6.641510129E-2
4.439727780E1,8.425358683E-2,1.509875655E-1,1.293342263E-1
4.444927122E1,4.332561791E-2,-3.389263749E-1,2.130227685E-1
4.450126445E1,4.637994245E-2,-1.471146643E-1,2.221857458E-1
4.455325791E1,-2.264782973E-2,-7.625430822E-2,1.097865403E-1
4.460525123E1,-1.063363627E-1,-1.807122678E-1,5.939442664E-3
4.465724453E1,-1.344361752E-1,-7.747603953E-2,-8.507947624E-2
4.470923788E1,-1.191645339E-1,7.707286626E-2,-1.828179210E-1
4.476123204E1,-7.945829630E-2,-9.396939725E-2,2.121107467E-2
4.481322550E1,4.027128965E-2,-1.067975685E-1,1.012344211E-1
4.486521889E1,2.186439335E-1,-6.004805677E-3,1.134517267E-1
4.491721221E1,3.047759533E-1,3.125797585E-2,1.183386445E-1
4.496920570E1,3.066085577E-1,5.813604221E-2,8.718451858E-2
4.502120372E1,2.809522152E-1,-3.670261502E-1,9.207144380E-2
4.507320141E1,2.772870064E-1,-9.504024386E-1,1.073430702E-1
4.512519561E1,3.243236244E-1,-6.095396876E-1,1.690404713E-1
4.517718883E1,3.151606321E-1,-2.790615857E-1,1.244473010E-1
4.522918212E1,2.675131559E-1,-4.085650146E-1,3.281751275E-2
4.528117552E1,2.271960676E-1,-1.700037904E-2,-1.718223393E-1
4.533316894E1,3.359300792E-1,3.770076931E-1,-3.850143254E-1
4.538516227E1,5.234656930E-1,2.065762877E-1,-6.736438721E-2
4.543715556E1,5.271309018E-1,3.959445059E-1,4.992173985E-2
4.548914975E1,3.878535926E-1,-9.152594209E-2,2.130227685E-1
4.554114317E1,1.917658746E-1,1.406028569E-1,7.741067559E-2
4.559313656E1,-6.566801458E-4,6.241210178E-2,1.128408611E-1
4.564512989E1,-6.357580423E-2,-3.083830774E-1,1.556014270E-1
4.569712335E1,-6.052147225E-2,-2.491291612E-1,2.069141120E-1
4.574911661E1,4.515821487E-2,-2.515726388E-1,3.730694652E-1
4.580110990E1,1.697747260E-1,-5.032491088E-1,4.488167465E-1
4.585310329E1,4.605465829E-1,3.431230038E-2,4.048344493E-1
4.590509748E1,8.405047655E-1,6.940467358E-1,4.549253881E-1
4.595709087E1,5.986021161E-1,6.598383188E-1,1.843120903E-1
4.600908426E1,-2.407267094E-1,-2.045360059E-1,-6.888727192E-3
4.606107769E1,-1.131979108E0,5.901996493E-1,6.467370391E-1
4.611307374E1,-1.185735226E0,-3.210603714E0,6.332980394E-1
4.616506830E1,-9.377239347E-1,-1.403951496E-1,1.092057824E0
4.621706150E1,-7.239211202E-1,-4.818688333E-1,1.227059126E0
4.626905529E1,-6.915453076E-1,-6.944499612E-1,1.415205598E0
4.632104851E1,-5.974720716E-1,-4.452169240E-1,1.462853074E0
4.637304157E1,-4.869054258E-1,-7.500386834E-1,1.516609311E0
4.642503490E1,-1.075581014E-1,-1.036534429E0,1.748738050E0
4.647702842E1,-4.891503602E-2,-1.874030709E0,1.811657071E0
4.652902254E1,2.133446932E-2,-2.384714127E0,1.892902255E0
4.658101603E1,-2.437810451E-1,-3.451284647E0,1.633284450E0
4.663300979E1,-4.099363983E-1,-4.136675835E0,1.418259859E0
4.668500275E1,-5.852547288E-1,-3.949139833E0,7.206518054E-1
4.673699588E1,-3.323565125E-1,-2.836754322E0,9.094091058E-1
4.678893893E1,-4.899597466E-1,-1.040199757E0,5.728223920E-1
4.684093229E1,-2.932611406E-1,-1.092734098E0,3.003765047E-1
4.689292581E1,-1.784184724E-1,-6.504676342E-1,2.582267821E-1
4.694492000E1,-2.346180677E-1,-5.331815481E-1,3.156481385E-1
4.699691329E1,-4.215428531E-1,-4.818688333E-1,4.408755004E-1
4.704890665E1,-4.942358136E-1,1.015074775E-1,4.127756953E-1
4.710090051E1,-3.335782588E-1,1.100595966E-1,2.637245655E-1
4.715289709E1,-1.979661584E-1,-1.520016044E-1,2.060020901E-2
4.720489526E1,-1.063363627E-1,1.790873557E-1,-1.394464821E-1
4.725689101E1,-3.115870953E-1,3.757859766E-1,-2.420718521E-1
4.730888427E1,-3.121979535E-1,1.882503331E-1,-1.577724516E-1
4.736087760E1,-2.840981483E-1,-2.876136899E-1,-1.015728414E-1
4.741287099E1,-1.429882795E-1,-1.978164911E-1,-1.504420638E-1
4.746486432E1,-4.708243906E-2,4.469700903E-2,-1.651028246E-1
4.751685764E1,7.692319900E-2,-4.946970046E-1,-1.455551386E-1
4.756885173E1,-8.556694537E-2,-1.034701943E0,1.659861356E-1
4.762084532E1,1.618334800E-1,-5.753635883E0,-6.708992124E-1
4.767283861E1,-6.066350341E-1,-5.392004013E0,-1.976318240E0
4.772483214E1,-4.381171227E0,-1.130607724E0,-5.155871868E0
4.777682536E1,-3.714106560E0,3.210200787E0,-7.512589931E0
4.782881856E1,1.766927727E-2,4.213241100E0,-4.512630939E0
4.788081202E1,2.497782230E0,3.078864813E0,1.952767015E0
4.793280538E1,1.228404164E0,-1.042643070E0,3.612487793E0
4.798479936E1,7.580379844E-1,-1.913126111E0,3.411513090E0
4.803679302E1,7.403228879E-1,1.043461680E0,2.684583426E0
4.808878634E1,1.911550164E-1,6.470101476E-1,2.474445820E0
4.814077967E1,3.599523380E-2,2.902648449E-1,2.031568527E0
4.819277313E1,-2.358397990E-1,1.781386852E0,1.753624916E0
4.824476998E1,-1.338253021E-1,2.778319120E0,8.550421000E-1
4.829676820E1,-6.151871085E-1,5.165580750E0,5.480866134E-2
4.834876303E1,-5.150051713E-1,6.034231186E0,-9.470103383E-1
4.840075639E1,-4.893488884E-1,6.456338406E0,-1.896905780E0
4.845274968E1,5.248859897E-2,7.723883629E0,-2.592070580E0
4.850474311E1,1.195417523E0,5.262097359E0,-1.108889699E0
4.855673643E1,1.508180380E0,2.222431660E0,-1.908512235E0
4.860872976E1,6.804580688E-1,9.799317122E-1,-1.620794654E0
4.866072335E1,-3.164739907E-1,-5.111903548E-1,-4.748114944E-1
4.871271737E1,-9.206197262E-1,-5.789964199E-1,5.948135257E-1
4.876471073E1,-5.162269473E-1,-2.405770570E-1,1.040745139E0
4.881670402E1,-1.649794281E-1,-6.632958651E-1,9.277350903E-1
4.886869741E1,7.570147514E-2,-6.730696559E-1,7.310364842E-1
4.892069067E1,2.559067309E-1,-2.265271544E-1,5.856505632E-1
4.897268407E1,2.278069109E-1,5.871453285E-1,2.924352288E-1
4.902467739E1,2.626262605E-1,7.032096982E-1,2.001945972E-1
4.907667088E1,-1.287398487E-2,6.763316393E-1,-1.229531243E-1
4.912866514E1,-2.517222762E-1,1.077670217E0,-2.860541344E-1
4.918065846E1,-3.702301681E-1,1.094163418E0,-3.159865439E-1
4.923265172E1,-4.117689729E-1,8.388218284E-1,-2.842215598E-1
4.928464508E1,-3.848909438E-1,6.268515587E-1,-1.449442804E-1
4.933664054E1,-3.763388097E-1,5.315566659E-1,-5.697967857E-2
4.938863573E1,-3.366325796E-1,6.668815762E-2,8.107586950E-2
4.944062915E1,-1.949118376E-1,-1.574993879E-1,1.617100835E-1
4.949262245E1,-6.174320728E-2,1.980241835E-1,1.446058452E-1
4.954461584E1,-2.489275998E-3,1.271638125E-1,1.287233531E-1
4.959660916E1,6.673702504E-3,-2.616335824E-2,1.891990155E-1
4.964860246E1,-2.814561687E-2,8.806844056E-2,2.179096788E-1
4.970059592E1,-5.441282317E-2,2.334543765E-1,1.409406513E-1
4.975259007E1,-3.364340216E-2,2.224587947E-1,2.548713051E-2
4.980458346E1,3.008511383E-3,3.311928213E-1,-6.858611852E-2
4.985657685E1,-7.987063378E-3,3.678447306E-1,-1.534963846E-1
4.990857008E1,-4.524984211E-2,4.234334826E-1,-1.021837071E-1
4.996056350E1,-4.708243906E-2,2.285674512E-1,1.021549944E-2
5.001255676E1,-3.853032738E-2,-1.935404390E-1,1.177277863E-1
5.006455009E1,1.786780776E-3,-6.132048368E-1,1.659861356E-1
5.011654378E1,-3.975205496E-2,-1.122055650E0,1.207821146E-1
5.016853773E1,-6.540839374E-2,-1.064634323E0,-1.730440706E-1
5.022053109E1,-2.908176482E-1,-1.404886246E0,-5.102416873E-1
5.027252458E1,-3.085327744E-1,-2.741746604E-1,-7.606964111E-1
5.032451777E1,-6.663012505E-2,3.683621407E0,-1.056355238E0
5.037651370E1,5.931043029E-1,4.277382374E0,2.808288038E-1
5.042851248E1,3.939622939E-1,-5.918245912E-1,-3.868469298E-1
5.048050781E1,3.843869269E-2,-2.935103655E0,1.635426730E-1
5.053250117E1,-1.332144290E-1,-8.777095079E-1,3.022090793E-1
5.058449443E1,-5.929974467E-2,5.071219802E-1,1.867555529E-1
5.063648782E1,2.866485156E-2,4.955155551E-1,1.061213464E-1
5.068848111E1,-1.165225450E-2,1.406028569E-1,8.596279472E-2
5.074047457E1,-1.668120325E-1,-1.593319923E-1,5.328577477E-3
5.079246783E1,-2.908176482E-1,1.632048637E-1,-8.935553581E-2
5.084446185E1,-3.836691976E-1,-1.355082393E-1,-1.394464821E-1
5.089645547E1,-2.584418058E-1,-3.908499181E-1,-4.415150732E-2
5.094844887E1,-1.833053827E-1,-1.822211035E-2,6.458250433E-2
5.100044223E1,-5.991061032E-2,-1.917078346E-1,1.843120903E-1
5.105243569E1,4.841106944E-3,-2.417987883E-1,2.142444849E-1
5.110442888E1,3.660609946E-2,-1.318430454E-1,1.916424781E-1
5.115642210E1,2.133446932E-2,-3.157134652E-1,1.250581592E-1
5.120841580E1,1.339322049E-2,8.806844056E-2,1.815674827E-2
5.126040952E1,-3.100140952E-3,-2.931114733E-1,1.021549944E-2
5.131240321E1,8.791878074E-2,-2.149207145E-1,-9.302072972E-2
5.136439647E1,1.233489588E-1,-6.339743137E-1,-4.241096675E-1
5.141638982E1,1.025795415E-1,-6.694045067E-1,-6.311929822E-1
5.146838475E1,2.186439335E-1,-3.755782843E-1,-6.892251968E-1
5.152038057E1,1.343445480E-1,6.671686769E-1,-5.316219330E-1
5.157237383E1,-1.301601082E-1,5.969191790E-1,-3.184300065E-1
5.162436722E1,-3.219718039E-1,7.001553774E-1,1.998934336E-2
5.167636065E1,-2.877633274E-1,7.646200806E-2,7.560819983E-1
5.172835398E1,-4.508643746E-1,-9.265787601E-1,7.194300294E-1
5.178034733E1,-3.152522743E-1,-2.063686103E-1,8.580964208E-1
5.183234063E1,-1.393230855E-1,2.804909945E-1,1.137872815E0
5.188433478E1,1.551139504E-1,2.096306235E-1,1.034025669E0
5.193632817E1,1.453401148E-1,1.277746856E-1,1.089614391E0
5.198832163E1,3.933514059E-1,8.134892583E-2,8.135033250E-1
5.204031492E1,2.316706441E-2,-5.618921518E-1,4.451515377E-1
5.209230825E1,3.294090554E-2,-6.944499612E-1,2.527289987E-1
5.214430161E1,1.766927727E-2,-1.159929156E0,3.098491952E-2
5.219629494E1,4.576907679E-2,-8.404467106E-1,1.012344211E-1
5.224828816E1,2.011273801E-2,-7.824145555E-1,2.447877526E-1
5.230028238E1,-1.191645339E-1,-1.125110030E0,5.361704826E-1
5.235227594E1,-3.134196699E-1,-1.709707975E0,5.569398999E-1
5.240426933E1,-1.924683750E-1,-5.130229592E-1,7.285929918E-1
5.245626276E1,-2.773786187E-1,-1.710318804E0,4.836360812E-1
5.250825758E1,-2.932611406E-1,-2.156250477E0,5.392248034E-1
5.256025640E1,-6.005263925E-1,-2.779943943E0,5.294509530E-1
5.261225313E1,-6.396216750E-1,-3.482439041E0,3.681825399E-1
5.266424709E1,-4.740772545E-1,-3.393863440E0,1.326982584E-2
5.271624032E1,8.364272118E-2,-2.914945126E0,1.299450845E-1
5.276823357E1,4.513836205E-1,-2.664490223E0,1.085648015E-1
5.282022703E1,6.737385392E-1,-2.201454639E0,6.094743013E-1
5.287222023E1,7.142541558E-2,-2.370664120E0,3.125938177E-1
5.292421375E1,-1.594816446E-1,-9.852218032E-1,2.487626486E-2
5.297620797E1,-4.258188903E-1,-1.782688051E-1,4.625654966E-2
5.302820120E1,-4.746881127E-1,-5.832724571E-1,1.220038384E-1
5.308019462E1,-4.435339868E-1,-7.824145555E-1,1.360537410E-1
5.313218798E1,-5.461593866E-1,-7.048346400E-1,2.386791110E-1
5.318418141E1,-5.241681933E-1,-3.224330246E-1,2.838831246E-1
5.323617473E1,-6.041915417E-1,-2.198076546E-1,4.109431207E-1
5.328816803E1,-4.979009926E-1,7.105401158E-1,5.709897876E-1
5.334016168E1,-4.184885025E-1,-2.222511023E-1,3.498565555E-1
5.339215563E1,-2.773786187E-1,2.059654444E-1,3.150372505E-1
5.344414899E1,-2.767677605E-1,3.623469174E-1,2.295161337E-1
5.349614232E1,-3.213609457E-1,9.051190317E-2,-5.820140988E-2
5.354813564E1,-2.016313523E-1,-1.849883199E-1,-2.292436808E-1
5.360013050E1,-2.022422254E-1,-2.338575423E-1,-2.713933587E-1
5.365212946E1,-2.645504773E-1,-3.896281719E-1,-1.211205274E-1
5.370412568E1,-3.818365932E-1,-4.061215520E-1,7.772038691E-3
5.375611901E1,-4.893488884E-1,-1.657784462E0,-2.612670651E-3
5.380811233E1,2.866485156E-2,-7.570960045E0,-1.373394251E0
5.386010569E1,-1.924882174E0,-4.680345535E0,-2.948815584E0
5.391209898E1,-5.610843182E0,1.352559447E0,-5.356235981E0
5.396409231E1,-3.542453289E0,2.582231283E0,-7.412408352E0
5.401608567E1,-1.236436963E0,6.102036476E0,-5.731917858E0
5.406802537E1,2.194182158E0,3.446318507E-1,2.804924011E0
5.412001913E1,1.929876059E-1,-4.219142437E0,4.440821171E0
5.417201242E1,-4.716337919E-1,1.214503884E0,5.514420867E-1
5.422400591E1,-1.577910781E0,4.001271248E0,8.697028756E-1
5.427599911E1,-1.830808997E0,2.589561462E0,3.932279944E-1
5.432799247E1,-2.204047680E0,1.298192501E0,2.003468752E0
5.437998589E1,-2.769708633E0,9.066278934E-1,3.272235870E0
5.443197942E1,-2.863171101E0,1.130204558E0,3.745656490E0
5.448397370E1,-2.454502344E0,3.317101955E0,3.577668428E0
5.453596690E1,-1.638386369E0,5.646942616E0,2.979020596E0
5.458796015E1,-6.805496812E-1,7.591937065E0,6.473479867E-1
5.463995355E1,1.199693441E0,1.103049850E1,-2.273809671E0
5.469194767E1,3.075049877E0,1.029623699E1,-2.599400997E0
5.474394393E1,3.301069975E0,6.385478020E0,-2.964087486E0
5.479593752E1,1.880808234E0,1.986350566E-1,-5.468935966E-1
5.484793085E1,-2.871524692E-1,-2.910668850E0,5.740441084E-1
5.489992427E1,-1.623114705E0,-2.015140533E0,1.390771031E0
5.495191753E1,-1.268202066E0,-1.611969471E0,1.679099321E0
5.500391089E1,3.591429591E-1,-2.246658564E0,2.068831205E0
5.505590425E1,1.105620265E0,-2.799491405E0,1.784779072E0
5.510789817E1,1.156932950E0,-3.200219154E0,1.431087971E0
5.515989216E1,1.021931767E0,-2.121431112E0,1.063347220E0
5.521188525E1,8.624958992E-1,1.253312230E-1,7.401994467E-1
5.526387851E1,3.292105496E-1,7.783461809E-1,5.709897876E-1
5.531587187E1,1.276250184E-1,7.111510038E-1,1.268907636E-1
5.536786526E1,-1.283275187E-1,7.557441592E-1,-1.852613837E-1
5.541985856E1,-2.853198946E-1,1.116154671E0,-7.051077485E-1
5.547185202E1,-5.412724018E-1,1.150363207E0,-6.806731224E-1
5.552384607E1,-6.799388528E-1,1.613398910E0,-9.274626374E-1
5.557583949E1,-8.247138858E-1,7.801787853E-1,-5.927084684E-1
5.562783292E1,-9.499412775E-1,-4.348322153E-1,-8.110457100E-3
5.567982628E1,-9.108458757E-1,-5.478422642E-1,4.384320378E-1
5.573182046E1,-6.842148900E-1,-2.127643675E-2,3.907845318E-1
5.578381912E1,-3.867235184E-1,-1.434494853E-1,7.090453506E-1
5.583581594E1,-6.785185635E-2,-1.361514807E0,8.758115172E-1
5.588780970E1,1.514487565E-1,-1.394501448E0,9.692739248E-1
5.593980289E1,8.425358683E-2,-8.129577637E-1,8.611507416E-1
5.599179625E1,-2.126269192E-1,2.261239886E-1,6.125286222E-1
5.604378961E1,-5.876981616E-1,3.476861715E-1,4.201060832E-1
5.609578291E1,-9.218415022E-1,-3.260982037E-1,5.288400650E-1
5.614777627E1,-7.434688210E-1,-5.576161742E-1,2.606702447E-1
5.619976969E1,-2.761569023E-1,-4.989730418E-1,8.046500385E-2
5.625176394E1,8.242098987E-2,6.823364645E-3,-7.774908841E-2
5.630375734E1,2.766761482E-1,6.213538051E-1,-1.742658019E-1
5.635575060E1,3.689167798E-1,4.478680789E-1,-3.446972072E-1
5.640774396E1,3.902970850E-1,3.769038711E-3,-2.988823354E-1
5.645973735E1,4.037361145E-1,-3.166114539E-2,-2.463479042E-1
5.651173057E1,4.275598526E-1,-2.509617507E-1,-1.583832949E-1
5.656372397E1,4.373337030E-1,-3.456458747E-1,-8.874467015E-2
5.661571759E1,4.196186364E-1,-2.295814753E-1,-1.534963846E-1
5.666771161E1,3.615863919E-1,-2.982855029E-2,-1.883157045E-1
5.671970494E1,2.815630436E-1,1.161682457E-1,-1.003511101E-1
5.677169830E1,1.813811660E-1,2.291783094E-1,8.474105597E-2
5.682369215E1,1.705841348E-2,2.566672266E-1,6.152817979E-2
5.687568834E1,-1.148884818E-1,2.694954276E-1,-1.101249531E-1
5.692768230E1,-2.828764319E-1,-2.534052134E-1,-5.120742917E-1
5.697967569E1,-2.847090065E-1,-5.875484943E-1,-6.165322065E-1
5.703166898E1,-3.964973390E-1,-8.990897536E-1,-1.013594627E0
5.708366234E1,-4.594164789E-1,-8.663901687E-2,-1.554210424E0
5.713565567E1,-6.506173015E-1,7.594093680E-1,-2.477227688E0
5.718764886E1,-7.911163568E-1,1.256042838E0,-3.759433746E0
5.723964282E1,-8.613657951E-1,3.537948430E-1,-4.405729294E0
5.729163664E1,-3.671758473E-1,-1.594865322E0,-4.053259850E0
5.734362997E1,-3.109762371E-1,-1.749414206E0,-3.199881315E0
5.739562339E1,-3.058907762E-2,-2.033142895E-1,-1.431426525E0
5.744761662E1,1.520596296E-1,1.599349022E0,-2.939953804E-1
5.749961011E1,4.868137836E-1,3.055041075E0,-2.414609790E-1
5.755160340E1,5.698914528E-1,2.473497391E0,-4.033402801E-1
5.760359666E1,5.033071637E-1,1.013529301E0,-4.711463153E-1
5.765559072E1,4.055686891E-1,2.963735163E-1,-2.872758806E-1
5.770758441E1,2.216982692E-1,3.006495237E-1,1.183386445E-1
5.775957770E1,1.644754596E-2,3.586817384E-1,4.860795140E-1
5.781157103E1,-1.533729881E-1,-7.930862904E-2,6.278002262E-1
5.786356462E1,-2.016313523E-1,-5.484531522E-1,8.251097202E-1
5.791556297E1,-2.144595236E-1,-6.309199333E-1,1.176357269E0
5.796756056E1,-2.474462390E-1,-1.568885148E-1,1.265543580E0
5.801955539E1,-3.378542960E-1,-4.082412273E-2,1.063958049E0
5.807154868E1,-4.930140674E-1,-5.747203231E-1,6.870542169E-1
5.812354198E1,-5.993046165E-1,-1.157485843E0,2.521181405E-1
5.817553544E1,-6.029697657E-1,-1.412827492E0,-1.479986012E-1
5.822752879E1,-4.997335672E-1,-1.227124333E0,-3.868469298E-1
5.827952225E1,-2.749351859E-1,-5.325706005E-1,-4.076163471E-1
5.833151660E1,1.339322049E-2,4.551984668E-1,-2.787237465E-1
5.838350973E1,2.497980595E-1,1.133869767E0,-3.642449081E-1
5.843550319E1,3.487582505E-1,1.301857710E0,-4.204444885E-1
5.848749642E1,3.945731223E-1,1.313464165E0,-3.935664296E-1
5.853948974E1,3.493691087E-1,8.870801926E-1,-2.402392626E-1
5.859148303E1,2.956129909E-1,4.393159449E-1,-4.231891409E-2
5.864347646E1,2.210873961E-1,1.253312230E-1,3.162589669E-1
5.869546988E1,1.752725095E-1,2.468934059E-1,5.551072955E-1
5.874746400E1,1.606117338E-1,4.014423192E-1,7.206518054E-1
5.879945746E1,1.227381006E-1,3.525730968E-1,8.196119666E-1
5.885145082E1,4.882340506E-2,2.377304286E-1,9.020787477E-1
5.890344404E1,-2.631301992E-2,1.570962220E-1,9.863781929E-1
5.895543787E1,-9.289733320E-2,-1.333518792E-2,1.132375002E0
5.900743582E1,-1.350470334E-1,-6.159354374E-2,1.244774222E0
5.905943348E1,-1.539838612E-1,-9.274767339E-2,1.272873878E0
5.911142750E1,-1.912466437E-1,-1.788796633E-1,1.231335044E0
5.916342080E1,-1.808619201E-1,-9.519112855E-2,1.141537905E0
5.921541412E1,-1.655903012E-1,-4.998710379E-2,9.906542301E-1
5.926740752E1,-1.289383918E-1,6.823364645E-3,8.501552343E-1
5.931940094E1,-1.081689596E-1,3.858835623E-2,6.271893978E-1
5.937139400E1,-8.801040798E-2,1.293201745E-2,3.901736736E-1
5.942338760E1,-6.052147225E-2,6.180123612E-2,1.617100835E-1
5.947538182E1,-3.547599912E-2,1.232115179E-2,3.831529990E-2
5.952737507E1,-3.608686477E-2,3.858835623E-2,-7.774908841E-2
5.957936847E1,-1.592831127E-2,1.234986261E-1,-8.630120754E-2
5.963136186E1,1.583668217E-2,1.888612062E-1,-6.675352156E-2
5.968335515E1,1.227381006E-1,2.694954276E-1,3.465010971E-2
5.973534858E1,2.045940459E-1,1.735895723E-1,1.403298080E-1
5.978734177E1,2.394133657E-1,-5.393940024E-3,2.570050657E-1
5.983933556E1,2.656805813E-1,-1.006889194E-1,2.942678630E-1
5.989132934E1,1.428966522E-1,-1.300104558E-1,2.191314101E-1
5.994332280E1,-3.100140952E-3,1.705352515E-1,1.397189349E-1
5.999531620E1,-4.321871791E-3,1.172965050E0,2.661680281E-1
6.004730962E1,4.055686891E-1,1.204119205E0,6.271893978E-1
6.009930571E1,2.766761482E-1,4.591874033E-2,8.428248167E-1
6.015130017E1,1.514487565E-1,-4.427734613E-1,1.150090098E0
6.020329343E1,-2.264782973E-2,-1.461696625E0,1.357173324E0
6.025528696E1,-1.653917693E-2,-1.144657612E0,1.224004745E0
6.030728025E1,5.371032655E-2,-4.989730418E-1,7.805166245E-1
6.035927351E1,7.020369172E-2,-9.687284827E-1,4.805817306E-1
6.041126690E1,2.314721048E-1,-4.439951777E-1,3.309197426E-1
6.046326072E1,2.552958429E-1,-2.066557109E-2,3.626847565E-1
6.051525454E1,6.236475706E-1,-1.638951525E-2,2.350139171E-1
6.056724790E1,7.830834389E-1,4.729135334E-1,4.442395270E-2
6.061924113E1,8.246222734E-1,-4.507146776E-1,-3.019366562E-1
6.067123452E1,6.786254644E-1,-1.024317145E0,-4.063946009E-1
6.072322788E1,2.247525901E-1,-1.400610089E0,-2.597869337E-1
6.077522121E1,6.531676650E-2,-6.174808741E-1,-4.598410428E-2
6.082721450E1,-1.045037657E-1,2.756040692E-1,-2.704728208E-2
6.087920845E1,-9.595166147E-2,7.410833836E-1,-1.217313930E-1
6.093120228E1,-1.234406009E-1,-1.507798582E-1,-5.697967857E-2
6.098319574E1,2.717892230E-1,6.842729449E-1,6.763683259E-2
6.103518893E1,-3.189174831E-1,7.099292874E-1,-1.663245559E-1
6.108718235E1,-4.948466420E-1,-4.995839298E-1,1.052520820E-3
6.113917954E1,-1.035462379E0,-1.440603435E-1,9.387306571E-1
6.119117769E1,-7.758446932E-1,-2.297360420E0,3.736803234E-1
6.124317225E1,-5.797569752E-1,3.745642304E-1,1.029138684E0
6.129511669E1,-8.186052442E-1,-1.012997851E-1,1.176357269E0
6.134711015E1,-5.162269473E-1,-7.042237520E-1,1.402377486E0
6.139910348E1,-3.751170635E-1,-8.386141062E-1,1.480568171E0
6.145109680E1,-4.911814630E-1,-1.495294333E0,1.337014794E0
6.150309023E1,-6.396216750E-1,-1.886858940E0,1.181854963E0
6.155508345E1,-3.879452646E-1,-1.738418698E0,1.311969399E0
6.160707761E1,-2.132377923E-1,-1.908239126E0,1.200181007E0
6.165907113E1,-1.878410578E-3,-1.742694736E0,1.156198740E0
6.171106446E1,-3.054784238E-1,-2.558810472E0,1.162918210E0
6.176305785E1,-2.236225009E-1,-2.971755505E0,5.789310336E-1
6.181505111E1,-8.129089326E-2,-1.972990870E0,6.198589802E-1
6.186704450E1,-3.347999454E-1,-2.214893579E0,7.939556241E-1
6.191903786E1,-3.983299434E-1,-2.075005293E0,-1.849516667E-2
6.197103138E1,1.001360863E-1,-2.027968645E0,3.003765047E-1
6.202302550E1,-2.203696407E-2,-1.831880927E0,1.012344211E-1
6.207501883E1,-1.710880846E-1,-1.873419762E0,7.802154869E-2
6.212701212E1,-1.332144290E-1,-1.343799710E0,3.052634299E-1
6.217900561E1,-9.472993016E-2,-8.325054646E-1,3.187024593E-1
6.223100120E1,-2.570215613E-2,-7.048346400E-1,4.256038368E-1
6.228299616E1,-4.524984211E-2,3.003624268E-2,4.604232013E-1
6.233498962E1,-2.737134397E-1,-1.611645818E-1,4.268255830E-1
6.238698285E1,-4.032168984E-1,5.052893758E-1,7.108779550E-1
6.243897621E1,-4.594164789E-1,8.950214386E-1,3.645173311E-1
6.249096957E1,-3.720627427E-1,7.142053246E-1,1.397189349E-1
6.254296283E1,-3.665649593E-1,5.743172169E-1,8.413019776E-2
6.259495622E1,-2.883742154E-1,3.861706853E-1,2.148553580E-1
6.264695040E1,-2.920393944E-1,6.180123612E-2,7.435635477E-2
6.269894383E1,-2.297311425E-1,4.530787840E-2,-8.385775238E-2
6.275093719E1,-1.338253021E-1,-5.325706005E-1,-2.414609790E-1
6.280293054E1,-6.968445331E-2,-7.103324533E-1,-1.559398472E-1
6.285492397E1,-2.217898965E-1,-2.233219385E0,-3.071247041E-2
6.290691720E1,3.267670870E-1,-6.708418369E0,-1.036807537E0
6.295891059E1,-2.004905462E0,-5.181866169E0,-3.680021524E0
6.301090405E1,-6.894881725E0,2.328435034E-1,-7.610939503E0
6.306289820E1,-2.570566654E0,6.591340065E0,-9.662224770E0
6.311489159E1,1.506347895E0,6.616996288E0,4.592014551E-1
6.316688485E1,1.755580902E0,-5.585037231E0,4.927069664E0
6.321887821E1,1.200915337E0,-2.522769451E0,3.666854620E0
6.327087466E1,1.365848899E0,1.877903581E0,3.037663460E0
6.332287299E1,7.623140216E-1,4.205911160E0,3.572781563E0
6.337486921E1,-1.918575019E-1,3.080697298E0,3.309498787E0
6.342686267E1,-4.166559279E-1,1.744124174E0,2.586234093E0
6.347885590E1,-3.042567074E-1,2.576122522E0,8.892506361E-1
6.353084929E1,6.859558821E-1,7.359197140E0,-6.427994370E-1
6.358284265E1,1.410441995E0,8.237010956E0,-1.349570513E0
6.363483594E1,1.418994188E0,9.811210632E0,-2.389263153E0
6.368682967E1,1.805671930E0,5.877849102E0,-7.521443367E-1
6.373882365E1,1.975492477E0,4.882749557E0,-7.338183522E-1
6.379081694E1,8.533329368E-1,1.746567607E0,-1.352624893E0
6.384281024E1,-8.069987893E-1,7.890546322E-2,-9.580059052E-1
6.389480373E1,-1.670762181E0,-9.461264014E-1,1.299450845E-1
6.394679692E1,-1.370827436E0,-1.473913908E0,5.373921990E-1
6.399879028E1,-7.721794844E-1,-1.442149043E0,8.904722929E-1
6.405078374E1,-4.795750380E-1,-1.056082129E0,7.909013033E-1
6.410277779E1,-1.545947194E-1,-4.720950127E-1,4.836360812E-1
6.415477122E1,6.592763215E-2,-3.041070700E-1,6.082525849E-1
6.420676468E1,2.937803566E-1,-2.198076546E-1,4.146082997E-1
6.425875800E1,4.409989119E-1,-2.173641771E-1,1.788143069E-1
6.431075133E1,2.943912446E-1,2.236805260E-1,-2.176372409E-1
6.436274745E1,-6.765332539E-3,1.115543842E0,-5.499479175E-1
6.441474607E1,-5.258022621E-2,1.482673883E0,-1.110722184E0
6.446674136E1,-7.376197726E-3,1.450908780E0,-1.510838985E0
6.451873472E1,-1.287398487E-2,9.988685250E-1,-1.469300151E0
6.457072798E1,-1.081689596E-1,1.010474920E0,-1.090563774E0
6.462272127E1,-5.135849491E-2,1.662591994E-1,-5.694956183E-1
6.467471470E1,1.111316606E-1,-8.349488974E-1,-8.385775238E-2
6.472670802E1,3.206584454E-1,-3.102157116E-1,-1.015728414E-1
6.477870138E1,3.536451757E-1,3.501296341E-1,-1.950352192E-1
6.483069540E1,1.349553913E-1,-1.929295659E-1,1.293342263E-1
6.488268896E1,-1.423774064E-1,-2.973875105E-1,4.488167465E-1
6.493468238E1,-3.671758473E-1,-3.755782843E-1,5.703788996E-1
6.498667561E1,-3.824474514E-1,-3.438133001E-1,5.410573483E-1
6.503866914E1,-4.313166738E-1,-2.271380275E-1,4.384320378E-1
6.509066233E1,-4.569730163E-1,-2.485183179E-1,4.329342246E-1
6.514265572E1,-4.746881127E-1,-4.910317957E-1,2.496746778E-1
6.519464934E1,-3.653432429E-1,-3.315959871E-1,-1.315052360E-1
6.524664333E1,-1.729206890E-1,4.775133356E-2,-6.110345125E-1
6.529863665E1,1.123533919E-1,5.511043072E-1,-7.038859725E-1
6.535063018E1,2.381916344E-1,1.131139174E-1,-6.867817640E-1
6.540262337E1,3.157715201E-1,2.853779197E-1,-8.813380450E-2
6.545461850E1,3.310431540E-1,-2.870028019E-1,2.502855361E-1
6.550661409E1,4.116773605E-1,-6.892392784E-2,2.991547585E-1
6.555860728E1,3.854101598E-1,6.241210178E-2,2.796070874E-1
6.561060080E1,1.294576079E-1,-4.754364118E-2,6.824769825E-2
6.566259410E1,-2.509128861E-2,4.411485493E-1,2.915232256E-2
6.571458733E1,-1.582599133E-1,4.319855571E-1,-9.851851314E-2
6.576658068E1,-1.808619201E-1,8.073806018E-2,-2.460381947E-2
6.581857434E1,-1.607033759E-1,-3.706913590E-1,-6.277862005E-3
6.587056839E1,-1.295492351E-1,-1.287887245E-1,4.747828096E-2
6.592256168E1,-2.456136495E-1,-2.515726388E-1,9.023884684E-2
6.597455518E1,-3.958865106E-1,-3.395372331E-1,-3.010160662E-2
6.602654837E1,-4.166559279E-1,-4.708732665E-1,-1.315052360E-1
6.607854163E1,-2.187355608E-1,-6.113722324E-1,-2.133611739E-1
6.613053509E1,9.586003423E-2,-6.107614040E-1,1.326982584E-2
6.618252838E1,3.200475872E-1,-2.912788689E-1,1.690404713E-1
6.623452191E1,4.501618743E-1,-4.800362289E-1,4.011692405E-1
6.628651616E1,3.957948685E-1,-9.335853904E-2,7.374548167E-2
6.633850939E1,3.982383013E-1,1.980241835E-1,-3.703535497E-1
6.639050271E1,4.104556143E-1,4.887960553E-1,1.904207468E-1
6.644249607E1,2.589610517E-1,2.041328400E-1,4.769165218E-1
6.649449129E1,-1.313818395E-1,-6.284765005E-1,4.066670537E-1
6.654649021E1,-7.212791592E-2,-2.834310770E0,2.426539920E-2
6.659848637E1,5.126686394E-2,-8.367815614E-1,2.722766995E-1
6.665047936E1,1.868789494E-1,-8.703791499E-1,7.719644904E-1
6.670247279E1,3.121063113E-1,-1.948556304E0,9.741608500E-1
6.675446612E1,4.330576360E-1,-2.100661516E0,1.169637680E0
6.680645954E1,1.661095321E-1,-3.301012039E0,1.190407157E0
6.685845284E1,6.957296729E-1,-1.748192549E0,1.142148852E0
6.691044616E1,8.058839291E-2,-4.138508320E0,1.103053451E0
6.696244002E1,-6.846272200E-2,-3.943642139E0,8.764224052E-1
6.701443384E1,-3.525150716E-1,-3.405469894E0,1.794251651E-1
6.706642713E1,-6.628345847E-1,-2.857523680E0,2.918243706E-1
6.711842046E1,-9.139001966E-1,-2.482452393E0,1.220038384E-1
6.717041372E1,-2.034639418E-1,-1.260111213E0,2.050815076E-1
6.722240721E1,-7.518224418E-2,-1.297373891E0,-1.553289741E-1
6.727440050E1,-2.639396191E-1,-5.063034296E-1,-9.302072972E-2
6.732639386E1,-2.303420156E-1,-3.285416663E-1,2.533398867E-1
6.737838791E1,-4.710229039E-1,-1.458929479E-1,3.015982509E-1
6.743038147E1,-5.473811030E-1,9.234450012E-2,2.954895496E-1
6.748237476E1,-3.977190852E-1,3.309056908E-2,2.863265872E-1
6.753436819E1,-4.038277268E-1,1.729787141E-1,4.084996283E-1
6.758636255E1,-3.732844889E-1,1.809199452E-1,2.221857458E-1
6.763835864E1,-1.472643465E-1,-3.022744358E-1,-1.394464821E-1
6.769035213E1,-4.321871791E-3,-3.248764575E-1,-2.176372409E-1
6.774234549E1,-1.776090637E-2,-4.641537368E-1,3.403924406E-2
6.779433888E1,-3.335782588E-1,-2.491291612E-1,2.851048708E-1
6.784633214E1,2.204765379E-1,-4.136675835E0,-5.456718802E-1
6.789832547E1,5.900499821E-1,-5.389560223E0,-1.319638133E0
6.795031886E1,-3.568720341E0,-2.911890984E0,-4.229189396E0
6.800231265E1,-5.439800739E0,1.008031487E0,-8.001893044E0
6.805430650E1,-5.064530969E-1,7.687842846E0,-6.779551983E0
6.810629983E1,2.412261009E0,3.031217337E0,4.123782158E0
6.815829326E1,1.805671930E0,-6.306468964E0,3.466490984E0
6.821028655E1,2.385383129E0,-1.156874895E0,2.429852724E0
6.826227987E1,1.148380876E0,4.880306244E0,1.733466268E0
6.831427313E1,-1.503186673E-1,2.653702497E0,2.297905684E0
6.836626679E1,-5.284442902E-1,1.620729327E0,1.923445463E0
6.841826071E1,-4.698011875E-1,2.329943895E0,1.589302182E0
6.847025414E1,-7.147581577E-1,5.231553555E0,-3.987545148E-2
6.852224759E1,-6.567259431E-1,8.599864960E0,-1.577423215E0
6.857226841E1,-1.191645339E-1,1.064076519E1,-2.743564844E0
6.862426270E1,1.564380169E0,9.129485130E0,-2.273809671E0
6.867626146E1,1.668227196E0,3.388573170E0,-3.060604095E0
6.872825848E1,6.853449941E-1,3.159211874E-1,-1.978761673E0
6.878025264E1,1.923767328E-1,2.383412868E-1,-1.136989355E0
6.883224597E1,-4.636925459E-1,1.949698627E-1,-2.500130832E-1
6.888423953E1,-9.810953736E-1,-6.553545594E-1,3.681825399E-1
6.893623262E1,-1.052566648E0,-1.112281680E0,4.488167465E-1
6.898822598E1,-7.019299865E-1,-7.091107368E-1,5.007402897E-1
6.904021970E1,-4.093255401E-1,-3.041070700E-1,1.647644043E-1
6.909221356E1,-2.834872603E-1,3.489078879E-1,2.885116497E-3
6.914420705E1,-3.201391995E-1,7.178704739E-1,-1.116478443E-2
6.919620038E1,-3.922213018E-1,7.282552719E-1,6.763683259E-2
6.924819367E1,-4.142124653E-1,4.729135334E-1,-6.369919330E-2
6.930018713E1,-3.103653491E-1,7.642962933E-1,5.328577477E-3
6.935218042E1,-3.909995854E-1,9.225103855E-1,8.351932466E-2
6.940417378E1,-4.710229039E-1,3.434101343E-1,2.038597912E-1
6.945616760E1,-4.667468667E-1,-4.378865361E-1,1.488819122E-1
6.950816139E1,-4.789641798E-1,-7.634777427E-1,1.574340165E-1
6.956015475E1,-5.351637602E-1,-1.122055650E0,4.072779119E-1
6.961214804E1,-3.958865106E-1,-9.418503642E-1,3.797889650E-1
6.966414140E1,-1.448208839E-1,7.890546322E-2,2.820505500E-1
6.971613562E1,1.129642576E-1,6.485556066E-2,1.439950019E-1
6.976813441E1,2.998889983E-1,3.910576105E-1,7.069116086E-2
6.982013106E1,2.155896127E-1,3.574600220E-1,-4.231891409E-2
6.987212472E1,9.158396721E-2,4.417594373E-1,-1.299738046E-2
6.992411795E1,-9.167559445E-2,9.478796273E-2,-2.521468513E-2
6.997611138E1,-2.511114478E-1,7.035334408E-2,2.304366790E-2
7.002810470E1,-3.372434378E-1,2.132958174E-1,2.976318821E-2
7.008009803E1,-3.262478709E-1,-2.677422389E-2,2.243280411E-2
7.013209139E1,-2.865416408E-1,7.434229832E-3,-5.056131631E-3
7.018408514E1,-2.224007547E-1,1.283855438E-1,-2.277122252E-2
7.023607900E1,-1.863597035E-1,-1.257343888E-1,1.663386123E-3
7.028807249E1,-1.833053827E-1,-1.862100512E-1,2.609799616E-2
7.034006575E1,-1.967444271E-1,-2.344684154E-1,-2.093862742E-2
7.039205907E1,-2.602744102E-1,-5.521183610E-1,-1.895374358E-1
7.044405243E1,-2.443919033E-1,-4.665971994E-1,-2.805563807E-1
7.049604579E1,-1.295492351E-1,2.823235691E-1,-3.172082901E-1
7.054803912E1,9.524916112E-2,1.876394749E-1,-1.767092645E-1
7.060003301E1,1.600008905E-1,1.537547819E-2,1.323885471E-1
7.065202673E1,2.314721048E-1,-5.792835355E-2,2.637245655E-1
7.070402009E1,2.467437387E-1,-2.167533040E-1,4.848577976E-1
7.075601342E1,1.764942408E-1,-5.484531522E-1,4.903555810E-1
7.080800727E1,7.997753471E-2,-3.395372331E-1,4.701970220E-1
7.086000349E1,1.889100857E-2,1.143356487E-1,3.217567801E-1
7.091199749E1,4.515821487E-2,-2.020925432E-1,9.329317510E-2
7.096399081E1,1.545030922E-1,-1.293995827E-1,-8.996640146E-2
7.101598407E1,1.545030922E-1,2.881451324E-2,-1.162336022E-1
7.106797753E1,1.001360863E-1,2.392759174E-2,-4.296074808E-1
7.111997086E1,-1.118341535E-1,3.941119313E-1,-7.124381065E-1
7.117196422E1,-1.826945245E-1,3.476861715E-1,-8.779825568E-1
7.122395807E1,-4.463897645E-2,-6.547437310E-1,-4.613724649E-1
7.127595169E1,1.881006807E-1,-2.049349070E0,-2.151937783E-1
7.132794509E1,3.664733171E-1,-9.571220279E-1,-6.553179026E-2
7.137993858E1,7.452097535E-1,1.619831324E-1,-4.231891409E-2
7.143193190E1,1.206413031E0,4.069401026E-1,-2.704728208E-2
7.148392513E1,7.818617225E-1,3.727316558E-1,9.512577206E-2
7.153591849E1,1.228404164E0,-5.319597721E-1,4.075876251E-2
7.158791178E1,-1.565693498E0,-2.341953516E0,5.404465199E-1
7.163990590E1,-8.540353775E-1,-3.236871004E0,1.794251651E-1
7.169189949E1,8.730791509E-2,3.446318507E-1,6.632304788E-1
7.174389282E1,4.027128965E-2,-1.515452862E0,1.234389424E0
7.179588614E1,3.426496089E-1,-2.258264780E0,1.462853074E0
7.184787973E1,7.653683424E-1,-1.626630306E0,1.468961716E0
7.189987826E1,7.140556574E-1,-2.580190897E0,1.419481516E0
7.195187558E1,5.283526182E-1,-3.632100821E0,1.186131120E0
7.200386954E1,-1.173319370E-1,-3.989457130E0,9.039113522E-1
7.205586283E1,-3.244152665E-1,-3.898438215E0,1.183386445E-1
7.210785619E1,-3.464064002E-1,-3.163567066E0,-6.409668326E-1
7.215984968E1,-5.064530969E-1,-2.335844994E0,2.832722664E-1
7.221184291E1,-7.300297618E-1,-1.554548264E0,1.482710391E-1
7.226383617E1,-6.903235316E-1,-4.470494986E-1,2.026380450E-1
7.231582966E1,-5.675396323E-1,-8.337272406E-1,2.753310204E-1
7.236782371E1,-6.713867188E-1,-5.747203231E-1,4.365994334E-1
7.241981717E1,-5.046204925E-1,-1.599428356E-1,4.873012602E-1
7.247181059E1,-4.850728214E-1,-3.743565381E-1,5.483877659E-1
7.252380389E1,-4.068820775E-1,-1.746036112E-1,5.135684609E-1
7.257579728E1,-1.197754070E-1,-3.120482862E-1,3.828432858E-1
7.262779080E1,-2.175138444E-1,-4.018454850E-1,3.162589669E-1
7.267978386E1,-1.020603105E-1,1.008966118E-1,2.056923807E-1
7.273177759E1,-8.434522152E-2,1.057835296E-1,4.416555748E-4
7.278377147E1,-1.411556900E-1,1.699243933E-1,-1.486094594E-1
7.283576490E1,-4.158465192E-2,-7.014565170E-2,-1.119575500E-1
7.288775839E1,-9.717338532E-2,-9.641286731E-2,-1.116478443E-2
7.293975175E1,-7.029531896E-2,-3.957368433E-1,-2.887987718E-2
7.299174784E1,-1.545947194E-1,-7.378213406E-1,-4.170804471E-2
7.304374216E1,8.975137025E-2,-6.657716274E0,-1.187080264E0
7.309573556E1,-1.340895057E0,-5.500126839E0,-2.632387400E0
7.314772888E1,-6.542412758E0,-9.259678125E-1,-5.807664871E0
7.319972231E1,-4.548548222E0,4.568154335E0,-7.923702240E0
7.325171547E1,1.494130611E0,1.126140404E1,-5.097839832E0
7.330370896E1,2.182575703E0,-7.854688764E-1,5.805494308E0
7.335570235E1,1.195417523E0,-6.996135712E0,3.269792557E0
7.340769657E1,9.846689701E-1,-9.946718812E-2,2.178176165E0
7.345968996E1,2.255620062E-2,4.392836094E0,1.749348879E0
7.351168332E1,-7.147581577E-1,1.412424326E0,1.877019644E0
7.356367658E1,-8.558680415E-1,-6.199243665E-1,1.684597135E0
7.361567014E1,-8.350986242E-1,1.459460974E0,2.172678471E0
7.366766333E1,-7.416362166E-1,3.147892237E0,1.620456338E0
7.371965659E1,-1.019579887E0,4.960940361E0,5.770984292E-1
7.377165035E1,-9.603260159E-1,4.993927479E0,-5.334545970E-1
7.382364430E1,-9.829279780E-1,4.075797081E0,-1.337353230E0
7.387563746E1,-1.064783931E0,2.788092852E0,-1.420430899E0
7.392763092E1,-5.510462523E-1,2.515036106E0,-1.971431375E0
7.397962441E1,-2.840981483E-1,2.560240030E0,-1.802221656E0
7.403162193E1,3.782783076E-2,3.051375628E0,-1.709370136E0
7.408361985E1,-3.730859235E-2,2.490601540E0,-1.011151195E0
7.413561445E1,5.493205786E-2,1.155860782E0,-5.157395005E-1
7.418760761E1,-3.486513346E-2,5.517151356E-1,-2.643641457E-2
7.423960100E1,-2.095725983E-1,6.482318640E-1,3.938388526E-1
7.429159426E1,-3.115870953E-1,6.274624467E-1,6.345197558E-1
7.434358762E1,-4.044385850E-1,5.975300074E-1,1.458275914E-1
7.439558101E1,-4.441448450E-1,2.187936157E-1,-8.080342412E-2
7.444757424E1,-4.099363983E-1,5.236153603E-1,-3.391994238E-1
7.449956816E1,-2.132377923E-1,4.979590178E-1,-3.049909770E-1
7.455156201E1,-5.543602165E-3,3.470753133E-1,-2.139720470E-1
7.460355527E1,9.830348939E-2,2.658302188E-1,-4.903842881E-2
7.465554877E1,8.058839291E-2,1.070052609E-1,-5.087102577E-2
7.470754196E1,2.516306639E-1,6.668815762E-2,4.992173985E-2
7.475953538E1,5.106375217E-1,2.804909945E-1,2.304366790E-2
7.481152868E1,5.338504314E-1,3.776185513E-1,2.270726562E-1
7.486352197E1,4.141208231E-1,1.008966118E-1,4.989076853E-1
7.491551609E1,2.772870064E-1,-1.006889194E-1,6.186372638E-1
7.496750961E1,2.571284473E-1,7.768373191E-2,4.860795140E-1
7.501950317E1,3.285996914E-1,2.267348468E-1,3.009873629E-1
7.507149643E1,2.901151776E-1,2.835453153E-1,1.916424781E-1
7.512349212E1,2.247525901E-1,3.904467523E-1,1.226147115E-1
7.517548711E1,8.975137025E-2,4.136596024E-1,1.663386123E-3
7.522748034E1,-7.823656499E-2,4.020531774E-1,-5.697967857E-2
7.527947366E1,-1.967444271E-1,2.084088922E-1,-3.865372017E-2
7.533146706E1,-3.097544909E-1,-1.574993879E-1,-9.790764749E-2
7.538346032E1,-2.950937152E-1,-3.560305834E-1,-7.835996151E-2
7.543545361E1,-2.547766268E-1,-1.477255374E-1,5.175433680E-2
7.548744714E1,-2.578309774E-1,3.769038711E-3,1.311668307E-1
7.553944089E1,-2.407267094E-1,-2.310903184E-2,7.008029521E-2
7.559143474E1,-2.205681652E-1,1.048855577E-2,-1.238651481E-2
7.564342810E1,-1.301601082E-1,-1.638951525E-2,3.220665082E-2
7.569542136E1,-8.129089326E-2,2.820364758E-2,7.191288471E-2
7.574741469E1,-4.647157341E-2,9.478796273E-2,4.136962444E-2
7.579940805E1,6.653849781E-2,3.858835623E-2,-6.277862005E-3
7.585140141E1,1.752725095E-1,-1.239017919E-1,-2.612670651E-3
7.590144995E1,1.703855842E-1,-2.949440479E-1,6.580423564E-2
7.595344394E1,1.508379132E-1,-1.220691949E-1,5.297606811E-2
7.600543756E1,1.600008905E-1,-1.257343888E-1,-3.223536070E-3
7.605743086E1,1.764942408E-1,3.006495237E-1,-3.437766433E-2
7.610942425E1,2.443002760E-1,6.433449984E-1,-8.874467015E-2
7.616142060E1,3.059976697E-1,-3.474784791E-1,6.213904545E-2
7.621341902E1,7.875579596E-2,-3.368206978E0,2.289052606E-1
7.626541515E1,3.110831231E-2,-2.286364794E0,1.959185302E-1
7.631740864E1,-1.405448169E-1,1.454897821E-1,-5.759054050E-2
7.636940194E1,-7.212791592E-2,1.486949801E0,-2.322980016E-1
7.642139523E1,1.441183835E-1,1.548036337E0,-2.750585675E-1
7.647338862E1,2.632370889E-1,6.470101476E-1,-3.202626109E-1
7.652538188E1,2.565175891E-1,7.545223832E-1,-3.837925792E-1
7.657737544E1,1.838246286E-1,1.308577180E0,-4.063946009E-1
7.662936959E1,6.409504265E-2,1.123484969E0,-3.202626109E-1
7.668136292E1,-1.038929075E-1,2.499477416E-1,-3.892903626E-1
7.673335621E1,-2.572200894E-1,-7.564344257E-2,-3.575253785E-1
7.678534970E1,-1.716989428E-1,2.698191814E-2,-3.337016404E-1
7.683734300E1,7.020369172E-2,1.796982288E-1,-3.251495063E-1
7.688933622E1,2.491872162E-1,3.482970297E-1,-2.964388430E-1
7.694132965E1,2.455220222E-1,1.132648110E0,-1.156227440E-1
7.699332330E1,2.076483667E-1,9.041844010E-1,3.639064729E-1
7.704531726E1,1.844354868E-1,-6.284765005E-1,1.995837241E-1
7.709731065E1,1.960419267E-1,-1.104340553E0,2.588376403E-1
7.714930398E1,2.253634632E-1,-4.904209673E-1,2.405117005E-1
7.720129723E1,2.070375085E-1,-1.025215164E-1,1.256690323E-1
7.725329342E1,6.470590085E-2,-4.448931664E-2,7.618895173E-2
7.730529211E1,-1.497077942E-1,-2.149207145E-1,1.513253748E-1
7.735728733E1,-2.767677605E-1,-3.377046287E-1,2.209639996E-1
7.740928066E1,-7.457137108E-2,-3.309850991E-1,4.298799038E-1
7.746127399E1,-7.640396804E-2,-1.782688051E-1,5.679354668E-1
7.751326731E1,-8.923213929E-2,-1.721601635E-1,7.487515807E-1
7.756526067E1,-1.533729881E-1,-6.187026501E-1,8.507660627E-1
7.761725396E1,-8.739954233E-2,-5.240185261E-1,8.788658977E-1
7.766924729E1,-2.509128861E-2,-8.263968229E-1,6.577326655E-1
7.772124115E1,-5.013676360E-2,-5.050817132E-1,8.962798119E-2
7.777323510E1,-1.081689596E-1,3.580708802E-1,-2.689499259E-1
7.782522846E1,-7.151705027E-2,1.207173586E0,1.513253748E-1
7.787722169E1,3.334866166E-1,6.057950482E-2,-1.577724516E-1
7.792921504E1,3.878535926E-1,8.962431550E-1,-2.109177262E-1
7.798120830E1,1.257924289E-1,1.408148170E0,1.403298080E-1
7.803320163E1,-4.380362034E-1,-1.006889194E-1,2.182194032E-2
7.808519506E1,-5.211138725E-1,-7.378213406E-1,-1.339486986E-1
7.813718898E1,-1.175350547E0,-6.443589926E-1,-1.437225491E-1
7.818918260E1,-1.484448314E0,-1.808057308E0,4.286582172E-1
7.824117606E1,-1.235826135E0,-1.242396116E0,6.882759333E-1
7.829316945E1,-4.172667861E-1,-1.006602049E0,1.128098845E0
7.834516434E1,-3.018132448E-1,-4.391082823E-1,1.337625742E0
7.839716020E1,-2.676047981E-1,-1.171822846E-1,1.159863949E0
7.844915336E1,-3.134196699E-1,-5.313489437E-1,1.123211980E0
7.850114672E1,-5.608201027E-1,-2.417089939E0,1.490342021E0
7.855314004E1,-5.272225142E-1,-3.075602770E0,1.544708967E0
7.860513334E1,1.339322049E-2,-2.684648991E0,1.416427255E0
7.865712669E1,6.022673249E-1,-3.116530418E0,8.342726827E-1
7.870912009E1,6.602994800E-1,-3.132413149E0,7.603580356E-1
7.876111424E1,-1.185536757E-1,-5.237454414E0,3.132046461E-1
7.881310770E1,3.041650653E-1,-3.062163591E0,6.888867617E-1
7.886510109E1,1.709964573E-1,-1.601584792E0,3.852867782E-1
7.891709445E1,2.155896127E-1,-2.238717318E0,1.788143069E-1
7.896908771E1,1.392314583E-1,-1.200246334E0,5.386139750E-1
7.902108117E1,-4.624707997E-1,-1.454977155E0,6.644521356E-1
7.907307439E1,-6.805496812E-1,-3.395372331E-1,8.086163998E-1
7.912506792E1,-5.767026544E-1,-5.197424889E-1,7.011040449E-1
7.917706207E1,-6.884909868E-1,-4.195605814E-1,4.500384927E-1
7.922905536E1,-6.945996284E-1,-3.041070700E-1,3.217567801E-1
7.928104872E1,-6.732193232E-1,4.442028701E-1,3.321414888E-1
7.933304215E1,-4.643034041E-1,3.818946183E-1,2.020271868E-1
7.938503733E1,-4.129907191E-1,6.793859601E-1,1.079539433E-1
7.943703599E1,-1.888031811E-1,2.481151372E-1,2.060020901E-2
7.948903275E1,-1.478752047E-1,-1.700037904E-2,-1.351704299E-1
7.954102634E1,2.316706441E-2,-4.171171188E-1,-2.347414643E-1
7.959301980E1,-5.502368510E-2,-8.282294273E-1,-1.626593620E-1
7.964501316E1,-1.814727932E-1,-5.680943012E0,-1.100948334E0
7.969700649E1,-1.549200058E0,-3.959524632E0,-1.818715096E0
7.974899975E1,-5.952927589E0,-1.826383233E0,-5.589586258E0
7.980099334E1,-3.576050997E0,6.560796261E0,-8.529068947E0
7.985298746E1,6.450278759E-1,1.110685539E1,-4.231632710E0
7.990498072E1,1.018266559E0,-1.756133795E0,2.946033955E0
7.995697411E1,2.683225647E-2,-6.045018673E0,2.406028986E0
8.000896753E1,-3.409086168E-1,1.911501169E0,1.060903668E0
8.006096099E1,-1.393429399E0,4.387337685E0,2.426539920E-2
8.011295422E1,-2.189386845E0,1.493669271E0,2.227966040E-1
8.016494745E1,-2.664029121E0,-1.517285347E0,1.770118237E0
8.021694117E1,-2.099589586E0,-2.067064285E0,2.880671501E0
8.026893519E1,-1.722074986E0,8.803606629E-1,4.195864201E0
8.032092855E1,-8.234921694E-1,2.009850502E0,3.913033485E0
8.037292177E1,-1.270034671E0,2.750219345E0,2.326616526E0
8.042491516E1,-1.630445242E0,4.433763504E0,-1.009619758E-1
8.047691015E1,-1.029964566E0,5.830812454E0,-1.816271663E0
8.052890924E1,-6.585585475E-1,7.855831146E0,-2.757615089E0
8.058090527E1,1.905441433E-1,6.930370331E0,-2.066115379E0
8.063289853E1,1.612226069E-1,3.656132221E0,-1.463802338E0
8.068489178E1,-5.644853115E-1,-1.062190771E0,-1.003511101E-1
8.073688514E1,-8.534245491E-1,-3.229540825E0,1.011423588E0
8.078887850E1,-5.815895200E-1,-1.730477452E0,1.459798694E0
8.084087190E1,1.551139504E-1,1.014751077E0,1.614347696E0
8.089286509E1,5.625610948E-1,1.051402926E0,1.476902962E0
8.094485914E1,6.902319193E-1,-4.172209650E-3,1.159253001E0
8.099685283E1,6.334214211E-1,-4.727058411E-1,1.065179825E0
8.104884613E1,5.375156403E-1,-5.487402529E-2,9.943193793E-1
8.110083952E1,4.611574411E-1,2.768258154E-1,7.823491693E-1
8.115283278E1,3.597538173E-1,3.018712699E-1,6.387958527E-1
8.120482627E1,3.243236244E-1,1.467114985E-1,3.877302110E-1
8.125681966E1,2.320829779E-1,2.548346519E-1,2.069141120E-1
8.130881305E1,1.013578176E-1,3.568491638E-1,1.384972036E-1
8.136080714E1,-6.357580423E-2,6.848837733E-1,2.973221838E-1
8.141280063E1,-2.297311425E-1,3.409666419E-1,3.626847565E-1
8.146479382E1,-1.924683750E-1,1.766439080E-1,5.154010653E-1
8.151678721E1,-3.067001700E-1,9.664926529E-1,3.709357232E-2
8.156878147E1,-2.596635520E-1,1.564529777E0,-2.597869337E-1
8.162077769E1,-2.749351859E-1,1.060565948E0,-4.485443234E-1
8.167277115E1,-3.574019670E-1,9.280081987E-1,-3.679100871E-1
8.172476455E1,-3.861126304E-1,8.693650961E-1,-3.789056838E-1
8.177675791E1,-2.871524692E-1,3.208081126E-1,-1.070706248E-1
8.182875116E1,-1.924683750E-1,5.601634271E-3,1.672078669E-1
8.188074456E1,-1.796402037E-1,1.904067025E-2,3.871193528E-1
8.193273798E1,-1.246623248E-1,-3.288287669E-2,4.720296264E-1
8.198473217E1,-3.791946173E-2,-1.574993879E-1,5.337269902E-1
8.203672563E1,1.644754596E-2,-7.319997996E-2,4.084996283E-1
8.208871882E1,-1.680337489E-1,-2.118663937E-1,5.838180184E-1
8.214071241E1,-4.325384200E-1,2.902648449E-1,3.663499355E-1
8.219270584E1,-5.907524824E-1,-5.393940024E-3,1.946968138E-1
8.224469886E1,-4.594164789E-1,-6.217569709E-1,3.541326225E-1
8.229669219E1,-2.382832617E-1,-1.587211192E-1,2.979330420E-1
8.234868575E1,-8.678868413E-2,2.261239886E-1,1.763708442E-1
8.240067990E1,-3.853032738E-2,3.275276124E-1,1.354428679E-1
8.245267356E1,2.133446932E-2,4.778004885E-1,5.786298588E-2
8.250466679E1,1.522581559E-2,2.493368685E-1,6.336077303E-2
8.255665998E1,-6.566801458E-4,7.951632887E-2,2.670885995E-2
8.260865420E1,1.522581559E-2,-3.694696426E-1,8.993769065E-3
8.266065309E1,7.509060949E-2,-4.458277822E-1,-6.919698417E-2
8.271264965E1,1.441183835E-1,-5.264619589E-1,-1.596050411E-1
8.276464327E1,1.832137555E-1,-1.373408288E-1,-2.756694257E-1
8.281663653E1,1.514487565E-1,2.255131155E-1,-3.062126935E-1
8.286862993E1,5.737552047E-2,1.338833272E-1,-3.172082901E-1
8.292062322E1,-4.524984211E-2,1.479332447E-1,-3.324798942E-1
8.297261658E1,-1.319927126E-1,6.180123612E-2,-2.781128883E-1
8.302461014E1,-1.674228907E-1,-3.593720123E-2,-2.652847171E-1
8.307660356E1,-1.564273238E-1,-2.631790638E-1,-2.805563807E-1
8.312859764E1,-1.289383918E-1,-5.551726818E-1,-3.343124986E-1
8.318055230E1,-1.326035708E-1,-2.998310030E-1,-4.656485319E-1
8.323254559E1,-1.106124297E-1,-5.393940024E-3,-5.120742917E-1
8.328453908E1,-4.341724887E-2,4.277095199E-1,-4.094489217E-1
8.333653234E1,1.094975974E-2,3.232515454E-1,-3.184300065E-1
8.338852564E1,4.210388660E-2,2.291783094E-1,-2.720042467E-1
8.344051900E1,6.409504265E-2,-2.860681899E-2,-1.913700253E-1
8.349251262E1,1.062447354E-1,-9.091507643E-2,-8.691207319E-2
8.354450667E1,9.769262373E-2,-1.574993879E-1,-5.148189142E-2
8.359650003E1,1.056338698E-1,-6.586959958E-2,-3.743198887E-2
8.364849332E1,1.007469445E-1,-6.615670864E-3,-3.743198887E-2
8.370048725E1,5.065600201E-2,4.225354642E-2,-4.781670123E-2
8.375248350E1,-8.597928099E-3,1.564853489E-1,-5.636881292E-2
8.380447750E1,-7.762569934E-2,1.509875655E-1,-1.421911083E-2
8.385647072E1,-1.069472358E-1,5.691431463E-2,2.609799616E-2
8.390846398E1,-1.185536757E-1,-8.786074817E-2,5.236519873E-2
8.396045734E1,-8.190175891E-2,-9.396939725E-2,4.198049009E-2
8.401245066E1,-6.566801458E-4,-1.272432320E-2,2.487626486E-2
8.406444402E1,4.882340506E-2,4.286441579E-2,-6.277862005E-3
8.411643768E1,6.714936346E-2,9.112276882E-2,-1.116478443E-2
8.416843163E1,5.615378916E-2,1.412137151E-1,-4.170804471E-2
8.422042499E1,1.522581559E-2,2.902648449E-1,-3.621025756E-2
8.427241845E1,-4.524984211E-2,4.277095199E-1,-4.109717906E-2
8.432441168E1,-9.595166147E-2,3.275276124E-1,-3.559939563E-2
8.437640504E1,-1.686446220E-1,1.387702674E-1,2.304366790E-2
8.442839843E1,-1.955226958E-1,-2.100338042E-1,-4.231891409E-2
8.448039179E1,-1.759750098E-1,-1.031323746E-1,5.328577477E-3
8.453238551E1,-1.765858829E-1,-6.892392784E-2,-2.216035873E-2
8.458437936E1,-1.863597035E-1,-8.236295730E-2,4.106846638E-3
8.463637269E1,-1.472643465E-1,2.392759174E-2,1.632415131E-2
8.468836608E1,-1.564273238E-1,-8.053036779E-2,7.618895173E-2
8.474035984E1,-1.490969360E-1,3.158173291E-3,1.207821146E-1
8.479235819E1,-2.205681652E-1,-1.049649715E-1,1.397189349E-1
8.484435545E1,-1.845271140E-1,-3.761891425E-1,2.759419084E-1
8.489634944E1,-1.271057874E-1,-6.089287996E-1,3.901736736E-1
8.494834277E1,-1.264949143E-1,-7.598124743E-1,4.995185435E-1
8.500033599E1,-8.068002760E-2,-3.651935756E-1,5.447226167E-1
8.505232949E1,-7.640396804E-2,-2.912788689E-1,6.516240239E-1
8.510432275E1,-4.321871791E-3,-5.154664516E-1,6.949954033E-1
8.515631607E1,2.744312026E-2,-2.234728336E-1,6.736151576E-1
8.520830943E1,1.893224120E-1,1.833634228E-1,6.510131359E-1
8.526030335E1,8.486445248E-2,3.544057012E-1,6.937736869E-1
8.531229707E1,-2.875648066E-2,-9.449046850E-1,6.919410825E-1
8.536429050E1,6.348416954E-2,-1.390836358E0,5.917592049E-1
8.541628379E1,1.294576079E-1,-8.367815614E-1,1.965294033E-1
8.546827708E1,1.526705027E-1,-1.032258391E0,-2.158046365E-1
8.552027044E1,2.479654700E-1,-2.857810855E-1,-5.041330457E-1
8.557226377E1,5.112484097E-1,4.295421243E-1,-3.660774827E-1
8.562425729E1,2.632370889E-1,1.011696696E0,9.879095852E-2
8.567625144E1,-5.052313805E-1,4.912394881E-1,6.723934412E-1
8.572824477E1,-8.558680415E-1,-2.136702776E0,4.659209549E-1
8.578023810E1,-2.731025815E-1,-5.924354196E-1,6.699499488E-1
8.583223172E1,-2.639396191E-1,-3.358720541E-1,6.644521356E-1
8.588422791E1,-2.175138444E-1,-1.393890619E0,8.776441813E-1
8.593622214E1,1.086882055E-1,-1.770183563E0,8.825310469E-1
8.598821546E1,2.449111491E-1,-2.517882824E0,9.173504114E-1
8.604020886E1,6.413626671E-1,-2.225889206E0,7.805166245E-1
8.609220208E1,4.721530080E-1,-4.501362324E0,8.171685338E-1
8.614419557E1,3.505908549E-1,-3.507484436E0,3.602412641E-1
8.619618887E1,2.516306639E-1,-2.988859892E0,3.174807131E-1
8.624818226E1,-2.407267094E-1,-3.475719452E0,7.679980993E-2
8.630017634E1,-5.284442902E-1,-3.361487627E0,-5.743825436E-1
8.635216980E1,-4.453665912E-1,-2.043240309E0,1.739273816E-1
8.640416313E1,-9.621585608E-1,-1.941226006E0,5.419779569E-2
8.645615652E1,-9.285609722E-1,-1.800116062E0,-1.449442804E-1
8.650814978E1,-2.468353659E-1,-1.409162283E0,2.130227685E-1
8.656014317E1,-4.600273371E-1,-1.083571076E0,3.382501304E-1
8.661213656E1,-3.286913037E-1,-4.250583351E-1,2.765527368E-1
8.666412989E1,-3.250261247E-1,-3.560305834E-1,3.571869433E-1
8.671612407E1,-3.775605559E-1,2.255131155E-1,5.758767128E-1
8.676811747E1,-3.262478709E-1,3.305819333E-1,4.433189631E-1
8.682011089E1,-3.274695873E-1,4.051075280E-1,3.632956147E-1
8.687210432E1,-1.686446220E-1,2.206262052E-1,1.537688226E-1
8.692410200E1,-1.283275187E-1,9.112276882E-2,7.557807863E-2
8.697609990E1,-1.973552853E-1,-3.288287669E-2,3.831529990E-2
8.702809519E1,-2.578309774E-1,-8.663901687E-2,1.226147115E-1
8.708008852E1,-3.012023866E-1,-2.607356310E-1,1.293342263E-1
8.713208184E1,-2.303420156E-1,-6.095396876E-1,2.793059126E-2
8.718407513E1,-1.784184724E-1,-3.910655499E0,-3.477515280E-1
8.723606869E1,-9.717338532E-2,-4.589937687E0,-1.363620520E0
8.728806192E1,-3.441049814E0,-4.714554310E0,-4.185206890E0
8.734005557E1,-6.513701916E0,2.142408133E0,-6.796655655E0
8.739204943E1,-1.898615003E0,6.696408749E0,-9.832655907E0
8.744404299E1,4.495509863E-1,5.769726276E0,-3.789056838E-1
8.749603621E1,1.582095265E0,-7.327835560E0,4.231294632E0
8.754802954E1,1.175258875E0,1.111267686E0,-1.449442804E-1
8.760002290E1,-4.545295835E-1,6.610276699E0,1.280204296E0
8.765201619E1,-1.263315201E0,2.578566074E0,1.832426548E0
8.770400975E1,-1.307908297E0,-1.639458537E0,2.672976971E0
8.775600344E1,-6.744410396E-1,-1.856926560E0,2.672976971E0
8.780799722E1,-9.132893682E-1,8.937996626E-1,2.259421349E0
8.785999045E1,-7.526317835E-1,1.922496796E0,1.493396401E0
8.791198391E1,-4.404796362E-1,2.791758060E0,4.640883803E-1
8.796397734E1,-7.935597301E-1,3.838781118E0,-6.858611852E-2
8.801597496E1,-9.810953736E-1,4.618245125E0,-1.223121405E0
8.806797288E1,-7.257537246E-1,6.588285446E0,-2.133921623E0
8.811996747E1,-4.722446501E-1,6.388532639E0,-2.313515902E0
8.817196050E1,5.222439766E-1,4.438040257E0,-1.427150369E0
8.822395392E1,1.661095321E-1,1.860188484E0,-1.612242579E0
8.827594721E1,-8.595331907E-1,6.909924150E-1,-2.658956051E-1
8.832794061E1,-1.475285411E0,5.413304567E-1,6.607869864E-1
8.837993403E1,-1.208337307E0,-6.694045067E-1,8.855853677E-1
8.843192746E1,-6.634454727E-1,-1.081127644E0,1.030360460E0
8.848392158E1,-1.668120325E-1,-5.487402529E-2,9.039113522E-1
8.853591494E1,5.859724805E-2,1.080113649E0,7.102670670E-1
8.858790866E1,1.471727192E-1,1.187015057E0,5.819853544E-1
8.863990162E1,1.031904146E-1,1.448789090E-1,1.085648015E-1
8.869189491E1,2.683225647E-2,-4.727058411E-1,-5.322328210E-1
8.874388824E1,4.882340506E-2,-7.747603953E-2,-9.665580392E-1
8.879588160E1,1.135751158E-1,1.383102775E0,-1.629346848E0
8.884787506E1,3.573103547E-1,1.646385789E0,-1.920729518E0
8.889986921E1,5.588958859E-1,-2.246945649E-1,-1.395385385E0
8.895186257E1,3.218801618E-1,-1.358460426E0,-1.028866291E0
8.900385609E1,2.497980595E-1,-1.659006119E0,-3.141539395E-1
8.905584942E1,4.012926519E-1,-1.283934951E0,1.158951893E-1
8.910784507E1,5.607284307E-1,-3.187678158E-1,3.523000479E-1
8.915984000E1,5.124701262E-1,9.266825393E-3,3.834541738E-1
8.921183329E1,2.846173942E-1,1.289964169E-1,5.862613916E-1
8.926382672E1,-2.448042482E-2,2.982060909E-1,7.114888430E-1
8.931582001E1,-2.712699771E-1,3.537948430E-1,9.204047322E-1
8.936781327E1,-5.284442902E-1,-7.237715125E-1,9.741608500E-1
8.941980663E1,-7.422470450E-1,-1.706042767E0,6.986606717E-1
8.947180016E1,-7.306406498E-1,-1.811722398E0,9.314002395E-1
8.952379427E1,-6.811605692E-1,-1.428709984E0,8.342726827E-1
8.957578773E1,-4.013842642E-1,-9.088636637E-1,3.388609886E-1
8.962778096E1,1.217149012E-2,4.408614337E-2,-2.316871285E-1
8.967977432E1,4.263381362E-1,3.971662521E-1,-4.131141007E-1
8.973176768E1,6.883993149E-1,5.150632262E-1,-5.187938213E-1
8.978376100E1,8.276765943E-1,4.503115118E-1,-5.413957834E-1
8.983575436E1,8.374504447E-1,4.264878035E-1,-4.998570085E-1
8.988774792E1,7.006166577E-1,4.631397128E-1,-3.801273704E-1
8.993974207E1,4.886463881E-1,2.920974493E-1,-1.651028246E-1
8.999173537E1,3.505908549E-1,4.216008484E-1,-6.614265591E-2
9.004372859E1,1.856572330E-1,4.961264431E-1,5.786298588E-2
9.009572205E1,2.027614415E-1,2.759278379E-2,-3.104887307E-1
9.014771867E1,4.165642560E-1,5.285022855E-1,-5.432283878E-1
9.019971703E1,4.446640909E-1,1.241992950E0,-7.069402933E-1
9.025171299E1,2.088700980E-1,7.679615021E-1,-6.006497145E-1
9.030370638E1,-4.708243906E-2,2.426173538E-1,-5.395632386E-1
9.035569968E1,-1.167210788E-1,-2.753964067E-1,-5.023004413E-1
9.040769303E1,-2.509128861E-2,-2.570704222E-1,-3.636340201E-1
9.045968639E1,1.233489588E-1,8.440325409E-2,-1.999221444E-1
9.051167752E1,1.850463599E-1,-3.377046287E-1,-1.394464821E-1
9.056367128E1,2.919477820E-1,-3.884064555E-1,-4.711463153E-1
9.061566513E1,3.902970850E-1,-1.562776417E-1,-3.007149100E-1
9.066765846E1,1.209055036E-1,7.197031379E-1,-4.131141007E-1
9.071965179E1,-1.857488602E-1,1.045294285E0,-3.575253785E-1
9.077164521E1,-2.669939399E-1,5.767606497E-1,-3.709644079E-1
9.082363850E1,-1.837177202E-2,-3.352611661E-1,-1.638810933E-1
9.087563183E1,8.181012422E-2,-4.543798864E-1,-2.347414643E-1
9.092762519E1,2.571284473E-1,-4.055106938E-1,-8.630120754E-2
9.097961951E1,3.267670870E-1,5.752518028E-2,-8.874467015E-2
9.103161287E1,3.475365043E-1,1.827525496E-1,-3.147647977E-1
9.108360626E1,5.784435272E-1,4.295421243E-1,-4.430465102E-1
9.113559952E1,7.207751274E-1,1.016583562E0,-5.743825436E-1
9.118759278E1,1.105009437E0,-8.786074817E-2,-6.342473030E-1
9.123958920E1,1.426935434E0,-5.826616287E-1,-8.303350806E-1
9.129158775E1,1.701824665E0,-6.217569709E-1,-8.785934448E-1
9.134358281E1,1.800784945E0,2.023002505E-1,-7.686377168E-1
9.139557630E1,1.861871481E0,1.038470946E-4,-5.841563940E-1
9.144756956E1,1.757413507E0,-5.838832855E-1,-4.638159275E-1
9.149956289E1,1.651122928E0,-6.718478799E-1,-4.063946009E-1
9.155155625E1,1.448315620E0,-6.681827307E-1,-2.268002182E-1
9.160354954E1,1.114783168E0,-2.112555206E-1,9.879095852E-2
9.165554323E1,6.102085710E-1,-3.529762626E-1,2.148553580E-1
9.170753742E1,1.154077128E-1,3.981008753E-2,3.168698549E-1
9.175953058E1,-1.423774064E-1,1.998567879E-1,3.810107112E-1
9.181152387E1,-2.908176482E-1,2.835453153E-1,4.341559708E-1
9.186351720E1,-7.153690457E-1,1.105769873E0,3.174807131E-1
9.191551062E1,-8.228812814E-1,4.990769085E-3,4.683644474E-1
9.196750385E1,-4.178776443E-1,-1.049649715E-1,9.894325137E-1
9.201949724E1,-9.096241593E-1,-1.292487025E0,1.049297214E0
9.207149096E1,-1.212002397E0,-1.360293150E0,9.643869996E-1
9.212348488E1,-1.035462379E0,2.087326534E-2,1.555093765E0
9.217547837E1,-8.082205057E-1,-4.287235439E-1,1.770729184E0
9.222747160E1,-7.361384034E-1,-1.306213289E-1,1.985142827E0
9.227946486E1,-8.680853248E-1,7.985047102E-1,2.072496653E0
9.233146008E1,-6.872692108E-1,-3.041070700E-1,2.158628702E0
9.238345557E1,-5.455484390E-1,1.234986261E-1,2.282023430E0
9.243544893E1,-6.316804886E-1,-5.392901897E-1,2.210551977E0
9.248744232E1,-4.545295835E-1,5.792040825E-1,2.275914907E0
9.253943558E1,-6.475629807E-1,-3.651935756E-1,2.175121784E0
9.259142894E1,-6.261826754E-1,-6.098267809E-2,1.907562971E0
9.264342230E1,-4.905706048E-1,-5.936571360E-1,1.597854257E0
9.269541593E1,-1.020603105E-1,-1.916791201E0,1.578917503E0
9.274740998E1,6.226243824E-2,-2.566751957E0,1.197737575E0
9.279940324E1,-7.987063378E-3,-3.035285711E0,1.048075557E0
9.285139663E1,1.691638678E-1,-2.277201891E0,6.039764881E-1
9.290338996E1,4.458858073E-1,-1.737807751E0,5.746549964E-1
9.295538322E1,3.939622939E-1,-2.295527935E0,2.612811327E-1
9.300737664E1,2.778978646E-1,-1.178866148E0,2.625028491E-1
9.305937000E1,2.766761482E-1,-1.151377201E0,3.468022346E-1
9.311136356E1,2.247525901E-1,-9.998825788E-1,1.525471061E-1
9.316335771E1,-2.718808651E-1,-4.036780596E-1,2.136336267E-1
9.321535087E1,-7.446905375E-1,-5.203533173E-1,6.296328902E-1
9.326734423E1,-1.017136455E0,-5.172989964E-1,7.676883936E-1
9.331933769E1,-9.682672024E-1,-2.112555206E-1,7.096561790E-1
9.337133311E1,-8.320442438E-1,-3.407589793E-1,7.805166245E-1
9.342333194E1,-6.561151147E-1,2.126849592E-1,8.354944587E-1
9.347532769E1,-4.044385850E-1,1.344942003E-1,7.408102751E-1
9.352732102E1,-3.421303332E-1,1.577070802E-1,5.795419216E-1
9.357931431E1,-2.077400088E-1,5.663759112E-1,4.084996283E-1
9.363130767E1,-2.034639418E-1,5.456064939E-1,1.727056652E-1
9.368330096E1,-2.120160460E-1,1.381593943E-1,-6.125573441E-2
9.373529432E1,-1.527621299E-1,6.913162023E-2,-1.608267725E-1
9.378728768E1,-1.497077942E-1,-2.808941603E-1,-1.987004131E-1
9.383928137E1,-8.312349021E-2,-4.158953726E-1,-1.620484889E-1
9.389127529E1,-2.523331642E-1,-9.449046850E-1,2.731972747E-2
9.394326872E1,-5.441282317E-2,-5.548385143E0,-7.558094859E-1
9.399526204E1,-4.203211069E-1,-5.698657990E0,-1.608577371E0
9.404725534E1,-4.373229980E0,-3.468389034E0,-5.158926487E0
9.409924870E1,-5.068394661E0,3.840613604E0,-7.306728363E0
9.415124206E1,-1.748952985E0,8.402555466E0,-7.434399605E0
9.420323525E1,6.737385392E-1,3.433166504E0,5.422791243E-1
9.425522924E1,3.817449510E-1,-7.917931557E0,4.081632137E0
9.430722299E1,9.952522069E-2,1.640277028E0,-6.403559446E-1
9.435921632E1,-1.044625401E0,5.667100430E0,5.514420867E-1
9.441120971E1,-1.948705912E0,9.231212139E-1,3.162589669E-1
9.446320420E1,-2.064770222E0,-4.246020317E0,1.958264828E0
9.451520026E1,-1.358610153E0,-4.959511280E0,2.311344862E0
9.456719375E1,-2.798220813E-1,-2.679761887E0,2.357770681E0
9.461918708E1,6.187607050E-1,7.569658756E-1,2.995513916E0
9.467118037E1,3.176041245E-1,3.339704037E0,2.552025795E0
9.472317373E1,7.570147514E-2,2.495488167E0,1.596632600E0
9.477516705E1,-8.815243244E-1,2.808862209E0,4.769165218E-1
9.482716035E1,-6.585585475E-1,2.754495144E0,-7.668051124E-1
9.487915423E1,-1.255984783E0,2.862618446E0,-1.161424041E0
9.493114819E1,-1.120372653E0,3.797242165E0,-1.978761673E0
9.498314135E1,-8.961851001E-1,3.400179625E0,-1.590862274E0
9.503513477E1,-2.914285362E-1,3.923691511E0,-1.333688021E0
9.508712810E1,-2.217898965E-1,2.770988464E0,-8.651544452E-1
9.513912133E1,3.660609946E-2,2.055054426E0,-1.116478443E-2
9.519111479E1,-2.181247175E-1,9.897055626E-1,-9.118813276E-2
9.524310811E1,-3.231935501E-1,1.024524927E0,2.118010223E-1
9.529510207E1,-3.323565125E-1,6.531187892E-1,5.294509530E-1
9.534709569E1,-3.494607210E-1,6.164668798E-1,2.863265872E-1
9.539908915E1,-2.963154614E-1,2.872105241E-1,3.657390773E-1
9.545108241E1,-3.665649593E-1,1.534310281E-1,2.417334318E-1
9.550307703E1,-5.868887529E-2,2.786583900E-1,2.649463117E-1
9.555507585E1,5.187772959E-2,5.901996493E-1,3.461913764E-1
9.560707268E1,1.587791443E-1,3.837272227E-1,2.838831246E-1
9.565906677E1,-4.219551757E-2,7.080966830E-1,7.496721298E-2
9.571106010E1,-3.714518845E-1,-1.761124469E-2,3.229785264E-1
9.576305343E1,-7.532426715E-1,-5.197424889E-1,7.011040449E-1
9.581504675E1,-1.016525626E0,-6.351959705E-1,9.020787477E-1
9.586704014E1,-8.577006459E-1,-1.489472687E-1,6.449044943E-1
9.591903360E1,-5.455484390E-1,6.580057144E-1,1.940859407E-1
9.597102772E1,-2.627178729E-1,9.377819896E-1,-5.056131631E-3
9.602302125E1,3.294090554E-2,2.004676461E-1,-4.903842881E-2
9.607501444E1,3.841884136E-1,-4.623211324E-1,-1.718223393E-1
9.612700783E1,6.609104276E-1,-2.411879301E-1,-4.412139356E-1
9.617900119E1,8.380612731E-1,3.177537918E-1,-5.639978051E-1
9.623099442E1,7.433772087E-1,5.840910077E-1,-6.403559446E-1
9.628298794E1,5.680588484E-1,6.158559918E-1,-4.913048744E-1
9.633498153E1,4.788725376E-1,4.252660573E-1,-4.821418822E-1
9.638697542E1,7.238295078E-1,-1.959839016E-1,-5.487262011E-1
9.643896875E1,1.246730089E0,-1.953730285E-1,-1.100948334E0
9.649096230E1,1.641349077E0,3.061473370E-1,-1.271990657E0
9.654295553E1,1.722594142E0,3.208081126E-1,-1.379502892E0
9.659494992E1,1.615081906E0,4.408614337E-2,-1.363009572E0
9.664694877E1,1.383563995E0,-2.271380275E-1,-1.293981791E0
9.669894533E1,1.252227902E0,-2.650116682E-1,-9.928252697E-1
9.675093896E1,1.188698053E0,2.768258154E-1,-9.018063545E-1
9.680293232E1,1.155711174E0,6.268515587E-1,-9.085258245E-1
9.685492554E1,1.052474976E0,6.024169922E-1,-9.977121353E-1
9.690691900E1,8.380612731E-1,6.305167675E-1,-1.012983799E0
9.695891216E1,6.486930251E-1,5.150632262E-1,-9.427342415E-1
9.701090559E1,5.265200138E-1,4.784113467E-1,-8.743174076E-1
9.706289927E1,6.065434217E-1,3.586817384E-1,-9.005845785E-1
9.711489323E1,6.706842184E-1,3.165320456E-1,-8.993628621E-1
9.716688659E1,6.248693466E-1,3.085907996E-1,-7.484791279E-1
9.721888004E1,4.165642560E-1,2.090197653E-1,-5.432283878E-1
9.727087331E1,1.325119436E-1,3.675575927E-2,-2.878867388E-1
9.732286653E1,-6.540839374E-2,-1.587211192E-1,3.339740932E-1
9.737486009E1,-1.295492351E-1,5.141652748E-2,6.027547717E-1
9.742685332E1,-1.136667505E-1,2.023002505E-1,5.447226167E-1
9.747884714E1,1.612226069E-1,5.601634271E-3,5.031837225E-1
9.753084083E1,3.298214078E-1,-4.783074837E-3,4.555362463E-1
9.758283425E1,2.943912446E-1,2.371195704E-1,2.344030440E-1
9.763482748E1,2.919477820E-1,1.033400744E-1,7.496721298E-2
9.768682147E1,2.687349021E-1,-1.410060227E-1,-7.286217809E-2
9.773881799E1,2.485763431E-1,-1.117883483E-3,-3.465298116E-1
9.779077176E1,2.455220222E-1,-1.605537087E-1,-5.835455060E-1
9.784276505E1,3.108845949E-1,-1.611645818E-1,-6.311929822E-1
9.789475834E1,5.295743346E-1,8.684670925E-2,-6.226408482E-1
9.794675171E1,7.781965137E-1,2.872105241E-1,-6.110345125E-1
9.799874496E1,8.380612731E-1,4.191574156E-1,-6.684558392E-1
9.805073832E1,6.987839937E-1,1.021183431E-1,-4.467116892E-1
9.810273254E1,4.690986872E-1,-8.908247948E-2,-2.903302014E-1
9.815472593E1,4.367228448E-1,6.790988892E-2,-1.626593620E-1
9.820671956E1,4.752073288E-1,1.247203574E-1,-1.669354290E-1
9.825871275E1,5.802761912E-1,1.454897821E-1,-2.194698304E-1
9.831070598E1,6.590777636E-1,1.418245882E-1,-1.168444753E-1
9.836269940E1,5.692805648E-1,3.727316558E-1,-6.431005895E-2
9.841469276E1,5.332395434E-1,-8.480641991E-2,4.808914661E-2
9.846668609E1,4.379445910E-1,-3.230438530E-1,1.562123001E-1
9.851868018E1,3.047759533E-1,-6.773456931E-1,2.789962292E-1
9.857067366E1,1.233489588E-1,-3.792434633E-1,6.638413072E-1
9.862266729E1,2.198656797E-1,-4.061215520E-1,7.542493939E-1
9.867466048E1,3.957948685E-1,-5.252402425E-1,5.758767128E-1
9.872665424E1,4.599356949E-1,1.006198883E0,1.556014270E-1
9.877865279E1,5.625610948E-1,1.481451988E0,3.083177507E-1
9.883064985E1,3.646407425E-1,-1.666623652E-1,5.053260550E-2
9.888264378E1,1.832137555E-1,-5.667791367E-1,3.058742583E-1
9.893463727E1,-2.938719988E-1,5.046785474E-1,5.923700333E-1
9.898663030E1,-6.945996284E-1,2.615541816E-1,5.581616163E-1
9.903862372E1,-1.244989157E0,2.015348196E0,1.046853781E0
9.909061705E1,-2.384863853E0,2.392759174E-2,1.305249929E0
9.914261037E1,-1.532095790E0,-1.740862012E0,1.406653404E0
9.919460413E1,-1.188789606E0,8.806844056E-2,1.781724691E0
9.924659805E1,-1.359831929E0,-5.215750933E-1,1.993084073E0
9.929859131E1,-1.202228665E0,-3.493110538E-1,2.263086319E0
9.935058497E1,-1.053177476E0,4.836220294E-2,2.191004276E0
9.940257809E1,-7.972249985E-1,2.316217870E-1,2.316842794E0
9.945457135E1,-1.002475739E0,1.325577614E-3,2.506211042E0
9.950656478E1,-8.680853248E-1,-2.986092567E-1,2.705353022E0
9.955855817E1,-9.187871814E-1,-3.749673963E-1,2.818973780E0
9.961055163E1,-8.271573782E-1,4.002205729E-1,2.875173569E0
9.966254571E1,-5.620418787E-1,-7.072781324E-1,2.713905096E0
9.971453907E1,-3.818365932E-1,-6.425263882E-1,2.528202057E0
9.976653240E1,-1.051146388E-1,-6.608523726E-1,2.296684027E0
9.981852609E1,-1.521512568E-1,-1.093344927E0,2.041953325E0
9.987052228E1,1.038012803E-1,-2.366998911E0,1.649166942E0
9.992251641E1,1.789377034E-1,-1.895411015E0,1.624732256E0
9.997450976E1,8.852964640E-2,-1.875863314E0,1.348621249E0
1.000265032E2,-2.022422254E-1,-2.390822649E0,9.979846478E-1
1.000784964E2,-3.280804455E-1,-1.717649221E0,3.742912114E-1
1.001304898E2,-5.868887529E-2,-1.019430280E0,8.043403029E-1
1.001824831E2,-4.777424335E-1,-7.213280201E-1,8.086163998E-1
1.002344766E2,-3.683975637E-1,-2.790615857E-1,7.243169546E-1
1.002864708E2,-5.052313805E-1,-4.983621836E-1,7.548602223E-1
1.003384642E2,-2.865416408E-1,-9.247461557E-1,3.388609886E-1
1.003904574E2,-2.997821197E-2,-1.112281680E0,9.604634717E-3
1.004424508E2,1.844354868E-1,-8.099034429E-1,2.863265872E-1
1.004944441E2,-2.570215613E-2,-6.339743137E-1,3.553543687E-1
1.005464375E2,-1.686446220E-1,-1.660514921E-1,6.626195908E-1
1.005984309E2,-2.480570972E-1,1.137247831E-1,6.161938310E-1
1.006504245E2,-1.967444271E-1,3.537948430E-1,3.981149197E-1
1.007024184E2,-2.144595236E-1,1.570962220E-1,1.794251651E-1
1.007544119E2,-2.077400088E-1,2.334543765E-1,1.751491129E-1
1.008064052E2,-3.366325796E-1,-2.433076315E-2,9.573663026E-2
1.008583987E2,-1.497077942E-1,-2.460748404E-1,-3.621025756E-2
1.009103966E2,-1.930792332E-1,-3.108265698E-1,-1.692096703E-4
1.009623943E2,-1.613142341E-1,-2.955549359E-1,7.772038691E-3
1.010143894E2,-1.802510619E-1,-6.846761107E-1,8.474105597E-2
1.010663830E2,-2.889850736E-1,-2.157472134E0,1.073430702E-1
1.011183762E2,-7.782881260E-1,-5.311369419E0,-1.825434566E0
1.011703695E2,-3.992050409E0,-3.399361372E0,-4.689170837E0
1.012223629E2,-6.942529202E0,1.612177253E0,-6.004363537E0
1.012743563E2,-1.960923195E0,8.130109787E0,-8.597486496E0
1.013263504E2,1.219852090E0,4.584036827E0,1.897789121E0
1.013783439E2,1.825219512E0,-7.205662727E0,2.816530466E0
1.014303372E2,1.145326495E0,1.338833272E-1,1.796385527E0
1.014823305E2,6.083759665E-1,5.262708187E0,8.550421000E-1
1.015343239E2,3.964057267E-1,1.191290975E0,2.470780849E0
1.015863172E2,2.316706441E-2,7.441377044E-1,2.006523132E0
1.016383106E2,-2.352289259E-1,1.677539825E0,2.062722683E0
1.016903041E2,-6.646671891E-1,2.772821188E0,1.200791836E0
1.017422982E2,-6.982647777E-1,2.573068380E0,-1.070706248E-1
1.017942915E2,-1.224219680E0,3.272509098E0,-1.094839692E0
1.018462849E2,-1.273088932E0,4.408107281E0,-2.397204399E0
1.018982784E2,-1.185735226E0,5.602349281E0,-3.263411283E0
1.019502718E2,-2.853198946E-1,5.396487236E0,-4.474146366E0
1.020022694E2,6.959282607E-2,3.328708410E0,-2.632998466E0
1.020542672E2,-2.895959616E-1,2.084088922E-1,-1.752130747E0
1.021062615E2,-1.178404927E0,1.601505429E-1,-5.010787249E-1
1.021582549E2,-1.783772349E0,1.558421135E0,5.251749158E-1
1.022102485E2,-1.699472904E0,5.205610394E-1,1.181854963E0
1.022622416E2,-1.116707563E0,-6.333634257E-1,1.178800702E0
1.023142348E2,-4.264297485E-1,-5.056925416E-1,1.434142351E0
1.023662283E2,-6.154467352E-3,-1.342865080E-1,1.049908161E0
1.024182217E2,1.881006807E-1,4.753569961E-1,6.290220022E-1
1.024702159E2,2.180330753E-1,8.840258718E-1,3.229785264E-1
1.025222093E2,1.141859889E-1,7.313095927E-1,2.014163136E-1
1.025742026E2,-1.289383918E-1,4.869634509E-1,-1.211205274E-1
1.026261959E2,-2.902068198E-1,1.125030518E-1,-2.982714474E-1
1.026781895E2,-2.755460441E-1,1.858068854E-1,-3.544710279E-1
1.027301826E2,-8.739954233E-2,2.646085024E-1,-4.528203309E-1
1.027821759E2,-2.386956103E-2,5.492717028E-1,-6.904469728E-1
1.028341695E2,3.477350250E-2,7.062640786E-1,-6.861708760E-1
1.028861636E2,3.599523380E-2,6.580057144E-1,-5.939302444E-1
1.029381570E2,-1.267545391E-3,4.521441460E-1,-4.870288074E-1
1.029901504E2,-7.273877412E-2,-4.143498838E-2,-4.882505536E-1
1.030421437E2,-9.045387059E-2,-1.089172717E-2,-4.210553467E-1
1.030941396E2,-1.338253021E-1,8.501411229E-2,-4.131141007E-1
1.031461343E2,-2.203696407E-2,1.232115179E-2,-3.172082901E-1
1.031981277E2,5.248859897E-2,-5.548489094E-2,-2.469587773E-1
1.032501209E2,3.414278626E-1,-2.387444675E-1,1.571328565E-2
1.033021143E2,5.069723725E-1,-6.370286345E-1,2.466203421E-1
1.033541077E2,6.431953311E-1,-9.259678125E-1,5.001294017E-1
1.034061010E2,7.549836636E-1,-3.951259851E-1,2.337921709E-1
1.034580946E2,8.001877069E-1,6.964902282E-1,-3.349233568E-1
1.035100886E2,6.877884269E-1,8.791388869E-1,-3.324798942E-1
1.035620821E2,9.974971414E-1,-3.340394199E-1,-4.821418822E-1
1.036140753E2,8.979260921E-1,-3.454949856E0,4.442395270E-2
1.036660688E2,6.407518387E-1,-1.702988386E0,-1.388356239E-1
1.037180620E2,5.814979076E-1,7.795678973E-1,-2.377957851E-1
1.037700556E2,3.066085577E-1,-9.442937970E-1,-3.636340201E-1
1.038220489E2,2.998889983E-1,-3.151026368E-1,-1.773201227E-1
1.038740425E2,-1.014494449E-1,-1.794905365E-1,-3.398102820E-1
1.039260363E2,3.049744852E-2,-4.128410518E-1,-9.485332668E-2
1.039780297E2,-1.533729881E-1,1.421587229E0,1.910316199E-1
1.040300230E2,1.954310536E-1,-8.612161279E-1,6.143612266E-1
1.040820164E2,-2.789867401E0,-2.575914860E0,1.706588268E0
1.041340132E2,-5.196936056E-2,-2.136091709E0,1.629619241E0
1.041860116E2,-2.138486505E-1,-1.801013947E-1,1.855639458E0
