"Time (s)","Linear Acceleration x (m/s^2)","Linear Acceleration y (m/s^2)","Linear Acceleration z (m/s^2)"
5.999856600E-2,-1.323709488E0,-2.699060142E-1,-1.918762684E0
1.199948890E-1,-2.120688438E0,-3.696029186E-1,-2.444156647E0
1.799905390E-1,-2.932946205E0,-4.699842036E-1,-2.873519897E0
2.399851540E-1,-3.625015497E0,-6.141479611E-1,-3.165940285E0
2.999793410E-1,-4.305796623E0,-7.988224030E-1,-3.391996384E0
3.599727390E-1,-4.860767365E0,-1.011884332E0,-3.530990601E0
4.199654380E-1,3.640368462E0,1.024979353E-2,-7.067422867E-1
4.799577360E-1,2.644477606E0,-2.737755179E-1,-8.453426361E-1
5.399503320E-1,2.917277575E0,-7.873053551E-1,-5.257892609E-1
5.999427960E-1,1.831405163E0,-1.980771542E0,-4.607963562E-1
6.599353260E-1,2.679437399E0,-1.651455641E0,4.962244034E-1
7.199278560E-1,3.601067066E-1,-2.039502144E0,-1.682438374E0
7.799203530E-1,-2.663927078E-1,-1.042443037E0,-1.046605110E0
8.399126170E-1,-4.024021149E0,2.079499722E0,-9.579172134E-1
8.999050140E-1,-1.546329021E0,3.652086496E0,-2.912578583E-1
9.598975440E-1,-9.474196434E-1,3.711434841E0,1.014797211E0
1.019890074E0,-6.136074066E-1,6.146329403E0,-1.908726215E0
1.079882672E0,1.112071991E0,3.354455948E0,4.364256859E-1
1.139875637E0,-3.308658600E-1,1.101594806E0,1.238996029E0
1.199869735E0,-1.073331833E-1,-2.903039455E0,7.033109665E-1
1.259864268E0,6.854977608E-1,-3.482331276E0,2.533257008E0
1.319858801E0,3.169990301E0,-2.403844357E0,6.143698692E0
1.379853200E0,-3.016863823E0,4.860926270E-1,-2.914068222E0
1.439847298E0,3.232860565E-1,-1.340388060E0,-1.360481262E0
1.499840129E0,-1.647924423E0,-1.390471458E0,7.468814850E-1
1.559832527E0,-2.423131227E0,8.596062660E-2,-1.578304291E0
1.619824991E0,-5.169767141E-1,9.425458908E-1,-2.213856220E0
1.679817587E0,-5.175123215E-1,1.454218864E0,-2.696326256E0
1.739810051E0,4.185900092E-1,2.155689001E0,-2.231611729E0
1.799802647E0,-1.030325770E0,8.037683964E-1,-1.363748550E0
1.859795045E0,1.429973006E0,1.482384920E0,-8.801975250E-1
1.919787376E0,1.478910327E0,2.413857460E0,-3.383674622E-1
1.979779707E0,1.866065502E0,1.893572092E0,1.765623093E-1
2.039772303E0,1.459382772E0,5.539357662E-1,-8.733806610E-1
2.099764767E0,-1.427743077E0,-4.443287849E-2,-1.432111263E0
2.159757297E0,-1.053897858E0,2.609789371E-1,-2.152105331E0
2.219749995E0,1.520174891E-1,-1.127522230E0,-1.519118786E0
2.279743927E0,-8.215043545E-1,-2.300016880E0,-1.724411011E0
2.339738191E0,2.035585046E-1,-2.369585037E-1,-4.808425903E-1
2.399732521E0,-5.195887089E-1,6.313080788E-1,-6.005191803E-2
2.459726918E0,3.641800880E-1,-1.288073063E-1,1.013375282E0
2.519721083E0,9.121222496E-1,-1.611881495E0,1.777481079E0
2.579713947E0,1.648604274E0,-1.005007982E0,1.715609550E0
2.639706278E0,1.902950287E0,-4.559784830E-1,1.628089905E0
2.699698709E0,1.007456899E0,-3.016603291E-1,4.758071899E-1
2.759691173E0,1.350619078E0,-2.891194224E-1,6.425781250E-1
2.819683737E0,2.276751041E0,6.627908945E-1,6.676788330E-1
2.879676201E0,1.601201534E0,4.887076616E-1,3.894424438E-1
2.939668731E0,5.416939259E-1,7.622891665E-1,-8.764181137E-1
2.999661228E0,1.682929993E-1,1.201011658E0,-5.981121063E-1
3.059653626E0,-7.842717171E-1,2.817998528E-1,-5.271606445E-1
3.119646023E0,7.151900530E-1,4.465446472E-1,2.610425949E-1
3.179638687E0,-2.952556610E0,-1.605750799E0,9.758272171E-1
3.239631151E0,-5.357310772E-1,-6.372537017E-1,5.890102386E-1
3.290539740E0,-1.736817598E0,-7.216497064E-1,3.142147064E-1
3.350532738E0,-1.190632582E0,-9.482542276E-1,-7.997264862E-1
3.410525901E0,2.005593777E-1,4.378819466E-2,-1.085882187E-1
3.470518965E0,4.559276104E-1,-2.382192314E-1,-7.140254974E-1
3.530512129E0,2.570301890E-1,4.524031878E-1,-1.141393661E0
3.590505193E0,-7.075194120E-1,-5.348956585E-1,1.947212219E-1
3.650497791E0,-1.822330594E0,-8.239209652E-1,8.847188950E-1
3.710490222E0,-1.064883918E-1,-1.168738127E0,3.727720261E0
3.770482752E0,-1.332345247E0,-1.433956146E0,-7.720174789E-1
3.830475248E0,4.021046162E-1,-2.016338348E0,-1.604692936E0
3.890467712E0,1.101357937E-1,-2.120586157E0,-2.384366989E0
3.950460176E0,-1.319306850E0,-2.642535210E0,-1.499033928E0
4.010452606E0,-5.777857304E-1,-2.119327545E0,-4.626197815E-1
4.070444937E0,-5.678703785E-1,4.455722570E-1,-9.375457764E-1
4.130437301E0,-4.559308290E-1,1.439935446E0,-3.508663177E-2
4.190429897E0,5.258412361E-1,1.767509937E0,6.741285324E-1
4.250422395E0,-6.910252571E-2,2.232939720E0,-3.512296677E-1
4.310414925E0,6.768572330E-1,1.280600548E0,1.752338409E-1
4.370407790E0,6.469149590E-1,1.426245213E0,1.675119400E-1
4.430401921E0,-7.662395239E-1,7.414433956E-1,8.719158173E-1
4.490396185E0,-6.769317389E-1,9.392260909E-1,4.467897415E-1
4.550390581E0,-6.768703461E-1,5.688813329E-1,-4.673385620E-2
4.610384845E0,-1.133871198E0,9.928847551E-1,1.058825493E0
4.670378842E0,-7.476211190E-1,5.348366499E-2,1.452936172E0
4.730371506E0,-8.915889263E-2,-6.661984324E-1,1.195692062E0
4.790363904E0,-1.733313799E-1,-7.986551523E-1,6.749668121E-1
4.850356235E0,-1.585139036E-1,-5.938996077E-1,-4.021768570E-1
4.910348831E0,-6.121945381E-2,-2.602806091E-1,-5.843496323E-1
4.970341295E0,-1.503184795E0,-1.278820038E0,-5.561561584E-1
5.030333792E0,8.258485794E-1,-1.120699644E0,-6.332864761E-1
5.090326256E0,-1.024827719E0,-7.083330154E-1,-2.960431099E0
5.150318786E0,3.353753090E-1,-7.196350098E-1,-2.158393383E0
5.210311083E0,-1.140015125E0,7.826163769E-1,-2.733461380E0
5.270303546E0,-2.271142006E-1,1.030600071E-1,-1.347414017E0
5.330296076E0,-1.096441269E0,-1.053249836E-1,-3.547919273E0
5.390288606E0,-7.182645798E-1,-3.852891922E-2,-2.425343037E0
5.450281170E0,-6.794786453E-1,6.417016983E-1,-2.681852818E0
5.510274402E0,1.335062981E-1,7.751202583E-1,-1.912478447E0
5.570267600E0,3.299473763E0,1.382701397E0,-1.104997635E0
5.630260764E0,4.641558170E0,2.060668707E0,2.824834347E0
5.690253894E0,8.329564095E0,3.916564703E0,4.363384247E0
5.750246859E0,1.774765778E1,6.916376591E0,5.573058128E0
5.810239224E0,3.068008995E1,1.684220123E1,-5.581964016E0
5.870231555E0,1.407079411E1,-6.102864742E-1,-1.537947297E0
5.930224052E0,-1.225207806E0,-2.151125717E1,-8.450331688E0
5.990216516E0,-1.072929573E1,-3.385153198E1,-7.755738735E0
6.050209146E0,-1.104571223E0,-1.050205612E1,-9.453087807E0
6.110201644E0,4.808260918E0,2.124159336E0,-7.200439930E0
6.170194208E0,-7.337031364E-1,-2.102862358E0,-6.118105888E0
6.230186472E0,-3.045624971E0,-2.883427143E0,-6.901477814E0
6.290178936E0,-1.889534235E0,-5.722828388E0,-2.618799686E0
6.350171366E0,-3.402519464E0,-9.780607224E0,1.540479660E-1
6.410163962E0,-1.698853850E0,-9.524333954E0,4.711087227E0
6.470156393E0,2.384908199E-1,-4.647679806E0,3.843973160E0
6.530149692E0,5.600440502E-2,-2.382221460E0,6.661237717E0
6.590143924E0,-8.615218401E-1,-1.297769547E0,4.843447685E0
6.650138524E0,-1.474095345E0,-6.641309261E-1,3.135690689E-1
6.710132990E0,-4.146619320E0,1.574396729E0,-4.999691963E0
6.770127523E0,-6.601250648E0,3.571678162E0,-8.385481834E-1
6.830121287E0,-4.113554001E0,6.614344597E0,-1.352189302E0
6.890113986E0,-4.218071938E0,5.526065826E0,6.105735302E-1
6.950106418E0,-3.109270096E0,3.386134863E0,7.608203888E-1
7.010098948E0,-1.023965836E0,2.754112959E0,-1.253600955E0
7.070091478E0,-2.576485634E0,3.594784737E-1,-2.670082331E0
7.130084008E0,-4.379692078E-1,-1.686205864E-1,-1.967740893E0
7.190076538E0,5.928258896E-1,-1.374521732E0,-1.653416634E0
7.250068836E0,1.560020924E0,-6.454045177E-1,-1.509951234E0
7.310061167E0,1.433141708E0,-4.201304913E-1,-5.785582066E-1
7.370053631E0,7.949771881E-1,6.243737936E-1,2.032576084E0
7.430046161E0,-3.242357254E0,1.148249865E0,2.425618887E0
7.490038625E0,-2.440339088E0,3.201929092E0,1.904782534E0
7.550031221E0,-4.017045975E0,3.855710745E0,1.320403337E0
7.610024186E0,-3.482502937E0,3.293965578E0,9.937734604E-1
7.670018218E0,-8.680238724E-1,6.869094372E-1,-2.983827591E-1
7.730012482E0,-1.828739643E0,-1.214663982E0,-5.068571568E-1
7.790006878E0,1.198115349E0,-1.258001804E0,-9.376859665E-1
7.850001142E0,2.588500261E0,1.228861809E-1,8.913249969E-1
7.909995039E0,-1.789896488E0,1.013052940E0,6.087923050E-1
7.969987671E0,-3.724484921E0,-9.803228378E-1,1.786042213E0
8.029980002E0,-1.291194439E0,-3.017786980E0,-1.334748507E0
8.089972433E0,-8.431844711E-1,-3.382035255E0,-1.302118301E-1
8.149965029E0,-2.171759605E-1,-2.630187988E0,-1.997683167E0
8.209957527E0,2.023552895E0,-2.124820232E0,-1.114176869E0
8.269950057E0,4.732365608E0,-1.796297073E0,-1.598243833E0
8.329942587E0,3.683404446E0,-5.308740616E0,-2.877864838E0
8.389934952E0,5.087561131E0,-8.153652191E0,-2.995380163E0
8.449927216E0,1.680051565E0,-9.378963470E0,-6.288128853E0
8.509919679E0,2.401066542E0,-2.322684479E1,-2.782699108E0
8.569912243E0,-1.142886543E1,4.577044487E0,-4.796133518E0
8.629904773E0,2.566103458E0,5.258002281E0,-7.086170197E0
8.689897437E0,-3.721878052E0,4.008656979E0,-5.192784786E0
8.749890736E0,-2.765159607E-1,5.272394180E0,-2.403481960E0
8.809883900E0,-5.365697861E0,4.201124191E0,-2.091649294E0
8.869876997E0,-3.337036133E0,4.530054092E0,1.584671736E-1
8.929870127E0,-4.044883728E0,2.367098331E0,4.578036666E-1
8.989863058E0,-3.236584663E0,1.717054129E0,1.287820816E0
9.049855423E0,-4.212510109E0,-3.140776753E-1,9.623129964E-1
9.109847854E0,-4.300243378E0,-2.587724686E0,1.557032585E0
9.169840384E0,-7.850151062E-1,-2.015810966E0,6.031187773E-1
9.229832848E0,-4.759368896E-1,-1.500036120E0,4.315154552E-1
9.289825444E0,-3.305444717E-1,-1.860496044E0,1.057867527E0
9.349817908E0,-8.876543045E-1,-2.117471933E0,-1.435947418E-1
9.409810339E0,1.766757965E-1,-2.319395542E0,1.905427933E0
9.469802603E0,5.335540771E-1,-3.585016251E0,9.067535400E-2
9.529795133E0,3.612995625E0,-3.035233021E0,-8.827209473E-2
9.589787631E0,1.064341068E0,-1.396927834E0,-5.123853683E-2
9.649780227E0,5.435517788E0,-1.700594187E0,-1.072652340E0
9.709772691E0,1.364618301E0,-2.077661991E0,-2.279126167E0
9.769766123E0,3.399469614E0,-2.274044991E0,2.658700943E-1
9.829760389E0,9.206514359E-1,-1.219657183E0,-3.400335789E0
9.889754888E0,2.612960815E0,-1.459027648E0,-1.289485455E0
9.949749354E0,1.236798286E0,1.191627026E0,-2.059279442E0
1.000974395E1,4.510493279E-1,6.799225807E-1,-1.983584404E0
1.006973758E1,6.979050636E-1,-2.561290264E-1,-1.820557594E0
1.012973018E1,6.644439697E-1,3.387091160E-1,-3.244332790E0
1.018972285E1,-9.890999794E-1,8.517293930E-1,-3.208896637E0
1.024971538E1,-8.022894859E-1,7.643946409E-1,-3.478013992E0
1.030970784E1,5.877785683E-1,1.161900878E0,-1.609121323E0
1.036970037E1,1.769854546E0,1.020480514E0,-2.524809837E-1
1.042969290E1,4.215621471E0,1.665905476E0,1.879051208E0
1.048968510E1,7.964910507E0,1.442752481E0,6.008233547E0
1.054967750E1,1.594945717E1,4.925037384E0,5.323308468E0
1.060960944E1,3.043975067E1,1.342086124E1,-2.661243439E0
1.066960197E1,1.557919407E1,3.475785494E0,-4.591523170E0
1.072959450E1,-2.941568851E0,-1.298694992E1,7.342426777E0
1.078958703E1,-1.274497414E1,-3.290748978E1,2.995359421E0
1.084958003E1,-2.655280828E0,-1.265510178E1,-1.413388920E1
1.090957416E1,2.381696939E0,-2.393257618E0,-8.055525780E0
1.096956842E1,1.703576088E0,-1.389233589E0,-5.134047985E0
1.102956275E1,-2.838867426E0,-5.264683723E0,-2.050655365E0
1.108955705E1,-3.098301888E0,-8.480531693E0,-7.620377541E-1
1.114955084E1,-1.504289627E0,-1.097515965E1,3.061958790E0
1.120954338E1,1.064614296E0,-5.389885426E0,4.148256779E0
1.126953577E1,-2.370314598E-1,1.420704842E0,-8.200235367E-1
1.132952824E1,-1.210484028E0,3.223644733E0,5.851783752E-1
1.138952074E1,-4.590892494E-1,1.943608284E0,4.813758850E0
1.144951320E1,-1.930701256E0,2.313859463E0,3.677654266E0
1.150950583E1,-5.370614529E0,4.470810413E0,4.318504333E0
1.156949829E1,-5.297065258E0,5.219379902E0,4.117467403E0
1.162949062E1,-2.571382046E0,4.690313816E0,1.029401302E0
1.168948306E1,-3.922944546E0,4.064002991E0,4.713163376E-1
1.174947558E1,-2.604081631E0,3.355272770E0,-2.456778049E0
1.180946802E1,-2.240428925E-1,2.304639101E0,-1.977582932E0
1.186946054E1,-1.230806828E0,9.573608041E-1,-2.146024227E0
1.192945324E1,-1.450395584E0,-3.141511083E-1,-1.777626038E0
1.198944651E1,-6.405258179E-1,-1.069694281E0,-1.954646587E0
1.204943964E1,1.190912724E0,-3.491725922E-1,-9.206223488E-1
1.210943273E1,5.853428841E-1,3.733953089E-2,-1.353788376E0
1.216942586E1,8.054413795E-1,5.637996197E-1,-9.187073708E-1
1.222941883E1,2.229051590E-1,6.162105203E-1,-5.452327728E-1
1.228941113E1,-8.524217606E-1,1.130055308E0,-6.847321987E-1
1.234940356E1,-2.106882095E0,1.035575032E0,-7.481358051E-1
1.240939612E1,-1.151276588E0,8.312064409E-2,5.946319103E-1
1.246938858E1,5.083379745E-1,-2.822876573E-1,9.504361153E-1
1.252938115E1,1.566267967E0,-1.040928364E-1,8.359832764E-1
1.258937361E1,1.081275940E0,-1.861682534E-1,5.107660294E-1
1.264936604E1,-7.506666183E-1,-4.759652317E-1,4.502086639E-1
1.270935831E1,-1.189531326E0,4.679949880E-1,5.413155556E-1
1.276935090E1,-2.499732018E0,2.158880234E-2,-1.755595207E-1
1.282934333E1,9.383721352E-1,-7.599729300E-1,-1.924538612E-1
1.288933586E1,2.149252415E0,-8.413339853E-1,-1.651072502E0
1.294932836E1,1.322725534E0,-2.486033440E0,-2.287387848E-1
1.300932193E1,1.513656855E0,-2.681115627E0,4.906177521E-2
1.306931612E1,1.741214991E0,-1.886138678E0,-2.134284973E-1
1.312931049E1,2.241978645E0,-1.122987747E0,-7.858352661E-1
1.318930482E1,6.716969013E-1,-2.446400523E-1,-1.322643280E0
1.324929912E1,4.522352219E-1,3.251541853E-1,-3.813953400E-1
1.330929241E1,-3.188304901E-1,5.295785666E-1,7.654561996E-1
1.336928481E1,-4.068336487E-1,8.282947540E-1,9.633474350E-1
1.342927711E1,2.256255150E-1,1.314089417E0,1.970386505E-1
1.348926964E1,6.706151962E-1,1.659172654E0,-6.060576439E-1
1.354926217E1,-5.011630058E-1,1.809461355E0,-7.648921013E-1
1.360925467E1,-1.648520947E0,2.117397308E0,-1.247212410E0
1.366924720E1,-1.529870987E0,1.443698645E0,-1.147484303E0
1.372923973E1,-1.390357018E0,2.012983114E-1,-1.217704296E0
1.378923206E1,-1.272371769E0,8.635310829E-2,-1.190698624E0
1.384922442E1,1.394748688E-3,4.222471416E-1,-7.208147049E-1
1.390921698E1,7.546939850E-1,6.533092260E-1,-1.607589722E-1
1.396920945E1,-9.346485138E-2,5.020959377E-1,3.830003738E-2
1.402920198E1,-8.319311142E-1,-4.273462296E-2,8.259677887E-2
1.408919491E1,3.187847137E-2,1.080842495E0,7.316865921E-1
1.414918821E1,-2.330141068E-1,1.640895247E0,1.708718777E0
1.420918127E1,-9.577207565E-1,1.043080807E0,7.308883667E-1
1.426917447E1,-6.127643585E-2,3.775558472E-1,-6.810522079E-2
1.432916753E1,-1.123641491E0,-6.889922619E-1,-9.046387672E-1
1.438916020E1,1.470341682E-1,-6.998608112E-1,-1.349798203E0
1.444915246E1,1.809853077E0,-2.704882622E-2,-6.347689629E-1
1.450914502E1,1.926499844E0,5.509786606E-1,-1.152704239E0
1.456913752E1,2.906687737E0,6.023273468E-1,-1.237849712E0
1.462913005E1,2.607222080E0,2.737417221E-1,-8.040733337E-1
1.468912258E1,2.725925446E-1,-1.584818840E0,8.792972565E-2
1.474911511E1,7.480731010E-1,-2.709001780E0,-1.471180916E-1
1.480910741E1,-3.290243149E-1,-3.191216946E0,-6.691331863E-1
1.486909987E1,-1.436228752E-1,-3.656526089E0,-2.131030083E0
1.492909240E1,-5.677609444E-1,-3.658286572E0,-3.953456879E-3
1.498908493E1,-1.622695446E0,-4.954334259E0,5.908546448E-1
1.504907753E1,-3.842258453E-1,-3.104608059E0,-6.158095360E0
1.510907026E1,2.598958015E-1,2.203741074E0,2.288374901E0
1.516906403E1,4.124832153E-2,1.293858051E0,1.288642883E0
1.522905849E1,-9.439225197E-1,1.420785189E0,1.592215061E0
1.528905303E1,-1.156912327E0,6.796153784E-1,1.779467583E0
1.534904749E1,-2.012033463E-1,1.608501196E0,5.167894363E-1
1.540904182E1,-5.331220627E-1,1.318374872E0,-6.145238876E-1
1.546903489E1,1.482198238E-1,1.621442437E0,-1.825427055E0
1.552902732E1,1.931690454E0,2.079921246E0,-1.811878204E0
1.558901985E1,9.471548796E-1,1.887526989E0,-4.323301315E0
1.564901238E1,4.925217628E0,-2.128052711E-2,-4.873394012E0
1.570900484E1,-2.503776550E-2,3.898015022E-1,-4.451777458E0
1.576899744E1,2.179808617E-1,1.640081406E-2,-3.712677002E0
1.582898987E1,-3.507027626E-1,-1.688582897E-1,-2.278475285E0
1.588898220E1,8.665084839E-1,1.143455505E-1,-2.436345577E0
1.594897457E1,1.701919079E0,1.414470673E-1,-2.248016357E0
1.600896733E1,1.502818108E0,9.302258492E-1,-9.402275085E-3
1.606895980E1,4.725914001E0,1.296932697E0,3.004613876E0
1.612895239E1,9.494223595E0,2.940531254E0,5.248532772E0
1.618894492E1,2.350681496E1,8.607391357E0,7.533676147E0
1.624893852E1,2.629171944E1,1.700992584E1,-6.796113014E0
1.630893255E1,6.056077957E0,-5.294863224E0,4.455687523E0
1.636892695E1,-6.085101604E0,-4.542671204E1,-1.073198318E-1
1.642892121E1,-3.787303448E0,-2.695474815E1,-1.112966919E1
1.648891548E1,1.394723654E0,-1.096299553E1,-9.079611778E0
1.654890864E1,1.029514694E1,7.277627945E0,-2.457579136E0
1.660890104E1,-1.368215084E0,-3.449728012E0,8.829951286E-1
1.666889344E1,-1.851524353E0,-3.098795891E0,-1.695804715E0
1.672888597E1,-1.555013657E0,-4.945991039E0,2.068972111E0
1.678887850E1,-5.838871002E-3,-5.451891899E0,3.937876940E0
1.684887103E1,-2.048853397E0,-4.618572235E0,2.208301544E0
1.690886356E1,-3.104786873E0,-2.793682098E0,4.643778801E-1
1.696885589E1,-3.905003548E0,4.312336445E-2,-5.284776688E-1
1.702884822E1,-2.710240602E0,2.884953260E0,-1.186886787E0
1.708884068E1,-3.000686169E0,2.679080963E0,2.881259918E0
1.714883321E1,-2.749482632E0,4.139142513E0,5.523568153E0
1.720882568E1,-3.449606419E0,5.458491325E0,7.455682755E-1
1.726881831E1,-6.428193569E0,1.581743956E0,1.971020699E-1
1.732881131E1,-5.157786369E0,5.058251858E0,1.282557487E0
1.738880450E1,-2.252711296E0,5.504081726E0,4.135332108E-1
1.744879757E1,-3.303699493E-1,2.666184187E0,2.622585297E-1
1.750879076E1,-6.943511963E-2,1.659424752E-1,-1.764000893E0
1.756878380E1,1.062183380E-1,-4.356605709E-1,-2.167986155E0
1.762877649E1,8.827328682E-1,-3.775885999E-1,-2.487030029E0
1.768876879E1,1.569973469E0,3.539659381E-1,-1.876195192E0
1.774876132E1,2.824726105E-1,4.506768286E-1,-1.488624454E0
1.780875378E1,-1.483889580E0,8.530414104E-1,-1.937450290E0
1.786874638E1,-6.451663971E-1,7.337080240E-1,-6.595884562E-1
1.792870847E1,-1.591243744E-1,7.278479934E-1,-8.814071417E-1
1.798870097E1,-6.332693100E-1,2.575605214E-1,-8.292123079E-1
1.804869330E1,-2.020506859E0,-1.383553743E0,-1.075563908E0
1.810868569E1,2.873048782E-1,-9.047531486E-1,-5.213253498E-1
1.816867816E1,2.387621880E0,-2.356773317E-1,-2.328538895E-2
1.822867069E1,1.407318115E0,-6.005150080E-2,-3.725721836E-1
1.828866322E1,-7.907028198E-1,-9.882979393E-1,-3.173937798E-1
1.834865595E1,4.604482651E-1,3.461990952E-1,-7.558822632E-3
1.840864991E1,-3.290510178E-1,2.129303515E-1,3.135156631E-1
1.846864418E1,2.996349335E-1,6.263589859E-1,8.454525471E-1
1.852863851E1,9.146299362E-1,1.084218264E0,6.120917797E-1
1.858863284E1,9.922208786E-1,5.310058594E-1,4.463839531E-1
1.864862700E1,-8.460712433E-2,6.975306273E-1,-1.956040859E-1
1.870861980E1,-5.512409210E-1,1.076329470E0,-2.821128368E-1
1.876861223E1,-6.901426315E-1,1.366498947E0,6.217203140E-1
1.882860459E1,-1.015601158E0,2.658983707E0,1.530691862E0
1.888859712E1,-1.746023178E0,1.810470939E0,5.896401405E-1
1.894858955E1,-2.199401855E-1,6.928114891E-1,-9.524869919E-1
1.900858212E1,1.878237247E0,8.471741676E-1,-1.426165581E0
1.906857455E1,2.181344509E0,-1.716907024E-1,-1.158711672E0
1.912856708E1,1.662871361E0,-8.210157156E-1,-1.783337831E0
1.918855934E1,-2.480350494E0,-2.906740189E0,-5.545516014E-1
1.924855187E1,-2.804565430E-2,-2.027506828E-1,2.193646431E0
1.930854434E1,1.459641457E0,7.474315166E-1,7.204389572E-1
1.936853693E1,2.297995090E0,1.031275988E-1,-1.684348583E0
1.942852943E1,5.252184868E-1,-4.971925020E-1,-1.834502459E0
1.948852270E1,-1.392712593E-1,-6.884926558E-1,-6.286501884E-1
1.954851583E1,8.637204170E-1,-1.140558839E0,-1.529836655E-2
1.960850896E1,1.074365139E0,-2.223330259E0,-4.347066879E-1
1.966850202E1,-1.120852470E0,-6.112341404E0,9.081101418E-1
1.972849508E1,5.749869823E0,-9.060383797E0,3.011743546E0
1.978848748E1,-2.525147438E0,4.595509529E0,2.226715088E-1
1.984847984E1,2.127156258E0,-1.274508953E0,7.446658134E0
1.990847238E1,-3.941770554E0,1.506119967E0,2.285877228E0
1.996846484E1,5.413246155E-2,1.018277407E0,1.340018749E0
2.002845737E1,8.264737129E-1,2.032924652E0,5.117821693E-1
2.008844990E1,9.859302044E-1,3.081594467E0,-1.722455502E0
2.014844240E1,4.062087536E0,1.638801575E0,-3.161659241E-1
2.020843473E1,1.208976507E0,1.066449881E0,-2.561482430E0
2.026842726E1,2.352766514E0,6.537950039E-1,-1.973146439E0
2.032841972E1,2.141747952E0,-8.942699432E-2,-1.994092464E0
2.038841225E1,-6.642346382E-1,-3.291862011E-1,-2.280393600E0
2.044840478E1,2.674356937E0,-1.632901192E0,-2.335331440E0
2.050839791E1,-1.360402107E-1,-1.266437292E0,-2.759335518E0
2.056839204E1,-8.156194687E-1,-3.180015087E-1,-3.163707256E0
2.062838665E1,-3.533520699E-1,7.248342037E-1,-1.814974785E0
2.068838111E1,1.088621140E0,8.050119877E-1,-2.074630737E0
2.074837564E1,1.890251160E0,9.251422882E-1,-1.116005421E0
2.080836951E1,3.234342575E0,1.049590826E0,1.611224174E0
2.086836231E1,6.625499725E0,1.961703300E0,4.022208691E0
2.092835467E1,1.159971237E1,4.268777370E0,5.866009712E0
2.098834727E1,2.878941727E1,1.441826153E1,4.705310822E0
2.104833973E1,2.055154037E1,7.429854870E0,-6.371659756E0
2.110833226E1,-7.075896263E-1,-1.431475067E1,1.953512192E1
2.116832472E1,-1.037768841E1,-4.895824432E1,9.881786346E0
2.122831722E1,-9.684110641E0,-1.846841812E1,-1.306808281E1
2.128830949E1,7.963996410E0,-8.895335197E-1,-8.695693970E0
2.134830198E1,5.189193726E0,3.157072067E-1,-2.887170315E0
2.140829451E1,-5.521287918E-1,-2.935791969E0,-2.516100407E0
2.146828704E1,-1.436581135E0,-5.523566246E0,-3.082976341E-1
2.152827951E1,-1.417006969E0,-6.050008774E0,1.409622192E0
2.158827237E1,-5.029540062E-1,-4.635303497E0,1.428992271E0
2.164826634E1,-8.934464455E-1,-3.496121407E0,2.083897591E0
2.170826067E1,-1.217593193E0,-5.756347179E-1,1.305720806E0
2.176825500E1,-9.772906303E-1,2.007609844E0,1.359653473E0
2.182824926E1,-9.614320397E-1,1.336748362E0,4.126367569E-1
2.188824326E1,-2.889528036E0,1.475676298E0,3.370102882E0
2.194823599E1,-3.083848000E0,3.401864290E0,-5.974359512E-1
2.200822832E1,-5.679256439E0,2.303274393E0,2.766408920E-1
2.206822078E1,-4.687680244E0,4.946389675E0,7.844705582E-1
2.212821338E1,-5.332777500E0,3.290829182E0,1.436594963E0
2.218820584E1,-2.893812656E0,1.729445457E0,6.865391731E-1
2.224819837E1,-1.062505245E0,8.403083086E-1,-3.675985336E-1
2.230819084E1,2.897558212E-1,3.482540846E-1,-1.597986221E0
2.236818324E1,8.398208618E-1,2.283532023E-1,-2.299469948E0
2.242817550E1,2.722311020E-1,-3.459208608E-1,-2.234807491E0
2.248816810E1,2.715587616E-1,-1.645840704E-1,-1.231956720E0
2.254816056E1,1.332101822E-1,-6.539714336E-1,2.967414856E-1
2.260815316E1,-4.059807777E0,1.970772743E0,1.580656767E0
2.266814569E1,-9.791677475E0,6.215414047E0,1.015152335E0
2.272813902E1,-3.649724960E0,2.887990952E0,5.944771767E-1
2.278813205E1,-2.530680180E0,-1.188041925E0,-2.446550369E0
2.284812518E1,-2.352296352E0,-6.013127327E0,-6.601973534E0
2.290811824E1,4.240233421E0,-6.834198952E0,-4.843007088E0
2.296811131E1,6.270264149E0,-5.656747341E0,-3.765530586E0
2.302810364E1,6.425454140E0,-4.728199005E0,-2.846834421E0
2.308809621E1,5.409161568E0,-2.994348526E0,-2.097184181E0
2.314808874E1,5.075366497E0,-3.961616755E0,-3.277617455E0
2.320808123E1,3.110468149E0,-4.352487087E0,6.751108170E-2
2.326807376E1,-2.090271950E0,-8.861804008E-1,-1.679473758E0
2.332806623E1,-1.020078564E1,-1.703616381E0,-9.068896770E-1
2.338805856E1,-8.360410690E0,3.615324974E0,1.467219472E0
2.344805089E1,-3.178519249E0,6.122088432E0,2.439185381E0
2.350804342E1,-3.436603546E-1,4.694513798E0,4.102776051E-1
2.356803588E1,2.456674576E-1,3.268288136E0,-6.085066199E-1
2.362802851E1,1.824024677E0,2.266882181E0,-6.439092159E-1
2.368802098E1,1.781319618E0,1.135051847E0,-6.154344082E-1
2.374801424E1,1.948451996E-1,1.729679108E-2,-1.248009086E0
2.380800837E1,-2.753296852E0,1.460455656E-1,-2.114201784E0
2.386800277E1,1.509562492E0,1.222191572E0,1.416584849E0
2.392799700E1,-2.522870064E0,-4.516707659E-1,5.525268316E-1
2.398799136E1,9.857263565E-1,-6.636666059E-1,7.150552273E-1
2.404798490E1,8.424158096E-1,-4.295738935E-1,9.730485678E-1
2.410797739E1,1.164005280E0,5.603182316E-1,4.911903143E-1
2.416796966E1,1.319578171E0,1.068721056E0,1.599779963E0
2.422796222E1,7.301778793E-1,1.262789249E0,1.125596881E0
2.428795472E1,5.881090164E-1,8.699889183E-1,1.041231632E0
2.434794735E1,-9.404706955E-1,1.313911915E0,-2.286629677E-1
2.440793988E1,6.252193451E-1,2.110352516E0,-2.265486717E-1
2.446793241E1,1.484495163E0,1.993105888E0,-3.736987114E-1
2.452792474E1,2.225805759E0,2.366258144E0,-5.134463310E-1
2.458791707E1,8.408732414E-1,6.940567493E-1,-4.527082443E-1
2.464790950E1,7.229824066E-1,-2.008344650E0,2.783982754E-1
2.470790203E1,-2.811229706E0,-6.015692711E0,-6.684150696E-1
2.476789456E1,-5.788145065E-1,-6.185001850E0,-2.017753124E-1
2.482788729E1,1.759786606E-1,-5.351124287E0,3.398714066E-1
2.488788062E1,7.579250336E-1,-3.907945871E0,-2.976441383E-2
2.494787375E1,1.008854866E0,-1.200276852E0,8.704757690E-2
2.500786688E1,1.276383400E0,-4.068919182E0,1.521274757E1
2.506785995E1,-5.515471458E0,-2.305166721E0,1.528131485E0
2.512785288E1,1.101130486E0,-1.194631338E0,2.509317398E0
2.518786658E1,-3.071195602E0,1.283689737E-1,1.302497864E0
2.524785908E1,1.649608612E-1,9.004498124E-1,1.430921555E0
2.530785154E1,2.980294466E0,3.049290180E0,-3.461980820E-1
2.536784414E1,7.110757828E-1,2.865880251E0,6.264061928E-1
2.542783657E1,4.086883068E0,1.415858269E0,-8.644604683E-1
2.548782913E1,2.502797604E0,8.933820724E-1,-7.778491974E-1
2.554782143E1,3.349304199E0,6.984553337E-1,-2.685803413E0
2.560781383E1,3.115320444E0,3.325891495E-1,-3.132865429E0
2.566780626E1,2.352667809E0,-4.520852566E-1,-2.069902897E0
2.572779889E1,1.492093563E0,-1.205888271E0,-2.505583763E0
2.578779136E1,1.564087868E0,-6.697263718E-1,-2.746053219E0
2.584778399E1,6.457247734E-1,-2.821979523E-1,-2.358721256E0
2.590777765E1,-7.262482643E-1,-7.349281311E-1,-2.156402111E0
2.596777201E1,-5.835518837E-1,-2.592933178E-1,-2.362213135E0
2.602776624E1,-4.454803467E-1,-3.802243471E-1,-1.839017868E0
2.608776064E1,9.037308693E-1,-2.506090403E-1,-1.506698132E0
2.614775487E1,1.836716652E0,1.691089869E-1,-2.218441963E-1
2.620774800E1,2.522862434E0,6.003059149E-1,2.212325096E0
2.626774037E1,5.224352837E0,1.031016827E0,3.387157917E0
2.632773273E1,7.428316593E0,1.212884307E0,4.927302361E0
2.638772519E1,1.914424706E1,4.695175171E0,7.276175499E0
2.644771772E1,2.535615540E1,1.402125549E1,-5.920900345E0
2.650771025E1,8.339234352E0,-2.990095139E0,-3.061255455E0
2.656770275E1,-1.163801575E1,-3.726750183E1,4.334274292E0
2.662769525E1,-1.027031517E1,-2.754515457E1,-1.803548336E-1
2.668768751E1,4.307556152E-2,-9.369413376E0,-8.253830910E0
2.674767991E1,5.349387646E0,2.917476654E0,-8.116449356E0
2.680767244E1,2.033567429E-2,-2.629342079E0,-1.557829261E0
2.686766497E1,-1.565595150E0,-5.970426559E0,3.508965969E-1
2.692765743E1,-2.481043816E0,-5.394501209E0,2.350268841E0
2.698765057E1,-1.614310265E0,-4.432530880E0,3.141049623E0
2.704764376E1,-1.801006317E0,-3.525928020E0,3.138258457E0
2.710763690E1,-1.796283245E0,-1.921579123E0,3.211917400E0
2.716762996E1,-3.843486309E-1,1.017246962E0,3.417272568E-1
2.722762319E1,-3.631988764E-1,2.321512699E0,4.295063019E-1
2.728761575E1,-3.026316166E0,-1.754385233E-2,1.715459824E-1
2.734760815E1,-4.917883873E0,2.933001757E0,-6.272940636E0
2.740760062E1,-1.053406143E1,4.813728333E0,-4.300107002E0
2.746759315E1,-3.677278519E0,4.859460354E0,9.263994694E-1
2.752758558E1,-3.642940521E-2,2.334711075E0,1.448711634E0
2.758757814E1,4.019279480E-1,2.165934086E0,-1.118346691E0
2.764757064E1,-3.115143776E0,7.885742188E-2,-2.174002647E0
2.770756297E1,-9.657392502E-1,-3.381683826E-1,-1.422981501E0
2.776755533E1,7.322578430E-1,-1.924169064E-1,-1.501945019E0
2.782754786E1,1.947432995E0,5.880368948E-1,-1.446120739E0
2.788754033E1,7.238540649E-1,9.259470701E-1,-7.585339546E-1
2.794753282E1,-4.218148232E0,2.571369171E0,5.581609726E0
2.800752565E1,-1.336589909E1,5.070618153E0,1.293364716E1
2.806751965E1,-4.741548061E0,4.256418228E0,2.845162392E0
2.812751419E1,-1.789989948E0,-1.543598175E-1,-6.269471645E0
2.818750865E1,-8.058586121E-1,-4.413137436E0,-1.216510105E1
2.824750322E1,4.397900105E0,-4.148483276E0,-7.567801952E0
2.830749745E1,3.366373777E0,-5.338999271E0,-4.861563683E0
2.836749048E1,7.634997368E-2,-1.691101074E0,-4.351137638E0
2.842748274E1,5.600271225E-1,-1.738186836E0,-2.844375849E0
2.848747534E1,-2.942214012E-1,-2.842751503E0,-2.770787954E0
2.854746777E1,4.253249168E-1,-3.605285406E0,-3.409948826E0
2.860746030E1,7.103404999E-1,-2.812083721E0,-1.766796350E0
2.866745276E1,1.953156471E0,1.734004974E0,-6.430211067E-1
2.872744536E1,1.756340504E0,1.975678444E0,4.086718559E0
2.878743762E1,-6.642842293E0,1.293403149E0,3.245559931E0
2.884743012E1,-4.079792976E0,5.224671364E0,7.757513046E0
2.890742258E1,-2.678045273E0,1.873043776E0,-3.350078464E-1
2.896741511E1,-9.108295441E-1,9.540534019E-2,8.852279186E-1
2.902740761E1,-1.181127548E0,-2.420657635E0,5.878796577E-1
2.908740028E1,1.017093658E0,-2.077362776E0,-4.175779819E-1
2.914739394E1,3.663983345E0,-1.194984674E0,-1.213536263E-1
2.920738827E1,2.343193054E0,6.437361240E-2,-5.298268795E-1
2.926738260E1,-9.274415970E-1,4.172203541E-1,7.307074070E-1
2.932737690E1,-6.750907898E-1,1.987709880E0,2.790181637E-1
2.938737109E1,3.975791931E-1,1.530748606E0,5.867507458E-1
2.944736413E1,2.512807846E-1,7.928553820E-1,2.492730618E-1
2.950735646E1,8.419837952E-1,7.594797611E-1,2.737853527E-1
2.956734882E1,1.249124050E0,7.101264000E-1,-4.567751884E-1
2.962734135E1,3.003279209E0,1.211929321E-1,-3.994750977E-1
2.968733382E1,-3.907527924E-1,-1.949388027E0,-7.210087776E-1
2.974732634E1,-1.816531181E0,-5.293880701E-1,7.275104523E-3
2.980731888E1,1.129162788E0,1.278951406E0,1.991642952E0
2.986731137E1,8.395385742E-1,5.117919445E-1,9.865517616E-1
2.992730364E1,-3.137273788E-1,7.753856182E-1,6.035814285E-1
2.998729617E1,-5.097131729E-1,8.513882160E-1,-9.408552647E-1
3.004728863E1,-5.676450729E-1,8.045388460E-1,-6.663436890E-1
3.010728116E1,1.190959454E0,7.676904202E-1,-4.603886604E-1
3.016727366E1,5.647211075E-1,5.524225831E-1,6.327185631E-1
3.022726682E1,-9.736948013E-1,8.928504586E-2,8.535499573E-1
3.028725995E1,-1.348870277E0,3.703385592E-2,8.128128052E-1
3.034725315E1,-1.564366341E0,-4.439680278E-1,2.451334000E-1
3.040724621E1,-3.286991119E-1,-8.590242863E-1,6.804122925E-1
3.046723931E1,1.448237419E0,-1.126835108E0,-3.071603775E-1
3.052723178E1,1.388422966E0,-2.060174465E0,-1.239886284E-1
3.058722424E1,-3.146524429E-1,6.400408745E-1,9.015550613E-1
3.064721670E1,-8.079099655E-1,1.613188505E0,-8.463408947E-1
3.070720933E1,7.612385750E-1,1.035365820E0,-4.082250595E-2
3.076720186E1,8.924179077E-1,-1.994237542E0,-1.489555120E0
3.082719443E1,2.041393757E0,-2.562966108E0,-1.626904488E0
3.088718699E1,7.787470818E-1,-3.834310770E0,-2.475992441E0
3.094717939E1,2.776074409E0,-5.932712078E0,-5.961852551E0
3.100717169E1,-7.109206200E0,-4.501290798E0,2.307374001E0
3.106716422E1,-9.585218430E-1,1.083149761E-1,4.246550560E0
3.112715675E1,-3.256550789E0,-9.527015090E-1,2.826833725E-1
3.118714915E1,1.791127205E0,-4.782861471E-1,2.817336559E0
3.124714201E1,8.170137405E-1,7.655858994E-1,1.094701767E0
3.130713608E1,3.786315918E-1,1.609425306E0,-1.207707882E0
3.136713061E1,1.425697803E0,8.826940060E-1,-6.316871643E-1
3.142712514E1,2.405182123E0,1.984726906E0,-1.233536243E0
3.148711964E1,2.753586054E0,1.158094168E0,2.970123291E-1
3.154711371E1,2.393888474E0,5.563156605E-1,5.473136902E-3
3.160710664E1,3.358406782E0,4.283494949E-1,-1.345139503E0
3.166709907E1,2.692169905E0,7.068624496E-1,-2.482008934E0
3.172709160E1,2.837609291E0,3.481130600E-1,9.388208389E-1
3.178708406E1,7.909250259E-2,1.069044590E0,-4.517425060E0
3.184707666E1,4.147392750E0,6.978008747E-1,-1.560389519E0
3.190706912E1,8.626255989E-1,-1.497447491E-1,1.649033546E0
3.196706155E1,5.460891724E-1,9.467172623E-2,-5.655574799E-2
3.202705385E1,2.644529343E-1,-8.302626610E-1,-6.164050102E-1
3.208704635E1,-6.936407089E-1,-8.608765602E-1,-1.066628456E0
3.214703881E1,-6.316571236E-1,-8.459343910E-1,-2.658831596E0
3.220703141E1,-9.740862846E-1,-8.647506237E-1,-2.958453178E0
3.226702387E1,-7.573108673E-1,-6.989445686E-1,-1.980196476E0
3.232701654E1,1.087522507E-1,9.606647491E-2,-1.419389248E0
3.238701030E1,6.973481178E-1,-2.105998993E-2,-1.930604458E0
3.244700470E1,1.658918381E0,6.465635300E-1,-1.040792465E-2
3.250699143E1,3.169458866E0,1.256565094E0,1.412182808E0
3.256698576E1,5.249269009E0,2.367823362E0,3.406557560E0
3.262697992E1,9.388113022E0,3.811486721E0,6.113523483E0
3.268697285E1,2.621350670E1,9.650427818E0,2.999145508E0
3.274696515E1,2.312168884E1,1.038186646E1,-2.332199812E0
3.280695765E1,-5.546373367E0,-1.221898079E1,2.629597855E1
3.286695018E1,-1.767629623E1,-4.983626938E1,6.210554600E0
3.292694271E1,-7.193408012E0,-2.045594978E1,-1.136283684E1
3.298693524E1,1.292292118E0,-5.117239952E0,-9.242361069E0
3.304692767E1,2.390308857E0,7.024693489E-1,-4.083287239E0
3.310692003E1,-3.183745146E0,-6.464018822E0,-5.970599651E-1
3.316691236E1,-4.168180466E0,-6.306468487E0,2.286792278E0
3.322690486E1,-3.110391855E0,-3.453918219E0,1.622379303E0
3.328689732E1,3.547058105E-1,1.138275146E0,2.008280277E0
3.334688992E1,3.162392139E0,4.073104382E0,1.343437672E0
3.340688242E1,3.534355402E0,3.975486755E0,3.578700066E0
3.346687558E1,1.010204315E0,7.855896950E-1,2.171328545E0
3.352686868E1,-3.835057735E0,-7.249560356E-1,-2.201288700E0
3.358686188E1,-6.107279778E0,1.394981742E0,-1.386171341E0
3.364685494E1,-3.402236462E0,1.485122442E0,-4.106550217E-1
3.370684810E1,-1.081655502E0,2.034518719E0,5.823616982E-1
3.376684054E1,-1.833312035E0,1.827996075E-1,1.131081581E-1
3.382683293E1,-1.905000210E0,-8.333328962E-1,-2.857408524E-1
3.388682540E1,-3.122940063E-1,-1.035478950E0,-6.027488708E-1
3.394681799E1,5.179467201E-1,-1.384879947E0,-1.190275192E0
3.400681046E1,5.568695068E-1,-1.524271607E0,-1.933508873E0
3.406680302E1,4.756407738E-1,-1.030666232E0,-1.819022655E0
3.412679548E1,5.968360901E-1,-3.800194860E-1,-1.207715988E0
3.418678782E1,-6.351571083E-1,3.715789318E-2,-6.782612801E-1
3.424678021E1,-9.494400024E-2,1.507021546E0,-2.618632317E-1
3.430677274E1,-1.381721497E0,2.189698696E0,8.166694641E-2
3.436676524E1,-6.696357727E-1,2.269357681E0,-2.761363983E-2
3.442675777E1,1.113416672E0,3.084990978E0,3.740215302E-2
3.448675084E1,-1.091371536E0,2.578768492E0,4.885435104E-3
3.454674490E1,-1.841766357E0,1.619580269E0,2.290968895E-1
3.460673923E1,-6.003618240E-1,9.123809338E-1,-6.315660477E-1
3.466673356E1,3.922567368E-1,1.009574294E0,-9.572739601E-1
3.472672792E1,-7.178602219E-1,-2.050150633E-1,-1.320557833E0
3.478672166E1,2.180757523E-1,-7.303839326E-1,-1.553633332E0
3.484671435E1,1.091590405E0,-8.602832556E-1,-1.344823480E0
3.490670662E1,1.774072647E-1,-1.405110359E0,-1.696350336E0
3.496669908E1,5.911273956E-1,-1.106734753E0,-6.270073652E-1
3.502669151E1,9.683761597E-1,-4.684635401E-1,6.552331448E-1
3.508668411E1,7.719993591E-2,2.578196526E-1,4.973902702E-1
3.514667654E1,-9.531183243E-1,1.136832237E-1,-4.395297766E-1
3.520666917E1,-2.211380005E-2,-1.086771488E-1,-3.187918663E-1
3.526666153E1,5.202989578E-1,-5.337004662E-1,8.715152740E-3
3.532665387E1,-4.012489319E-2,-4.351164103E-1,-8.195257187E-2
3.538664630E1,-4.014701843E-1,1.413486004E-1,4.791204929E-1
3.544663889E1,4.846382141E-2,5.393021107E-1,2.191162109E-2
3.550663132E1,-2.107915878E-1,9.469708204E-1,2.913186550E-1
3.556662395E1,2.576761246E0,1.858845472E0,-6.838364601E-1
3.562661729E1,3.203487396E-2,-8.330261707E-1,-5.215158463E-1
3.568661045E1,5.181980133E-2,-2.250649929E-1,-5.148212910E-1
3.574660355E1,-7.393035889E-1,2.057604790E0,8.806464672E-1
3.580659668E1,1.079926491E0,1.870761514E0,2.051329613E-2
3.586658968E1,7.320756912E-1,-4.957182407E-1,-1.403278112E0
3.592658201E1,-3.624967575E0,-6.772490501E0,-1.838683844E0
3.598657444E1,2.721257210E0,-3.457436800E0,1.370441198E0
3.604656703E1,1.181291580E0,-2.878732681E0,-5.766246319E-1
3.610655956E1,-8.730441093E0,-7.601610661E0,-1.226382375E0
3.616655216E1,2.005750179E0,1.736463666E0,-2.691142321E0
3.622654469E1,2.156619549E0,4.126856923E-1,3.876400471E0
3.628653712E1,-2.998377800E0,1.928208590E0,2.601747513E-1
3.634652935E1,-1.663207054E0,4.065971375E-1,2.003624916E0
3.640652182E1,-2.748231888E0,7.379617691E-1,2.311141014E0
3.646651428E1,3.560376167E-1,5.407655239E-1,9.479894638E-1
3.652650681E1,1.255410194E0,3.450973034E-1,1.165489197E0
3.658649934E1,1.604665518E0,2.234544754E-1,-2.582554340E0
3.664649277E1,1.758642554E0,4.071640968E-1,-3.005006790E0
3.670648714E1,2.137637854E0,2.363405228E-1,-3.330079556E0
3.676648160E1,4.103248596E0,-2.140949726E0,-2.603451729E0
3.682647614E1,1.079064846E0,-8.741102219E-1,-3.862537146E0
3.688647060E1,-9.072349072E-1,-1.127130270E0,-1.973402977E0
3.694646423E1,1.313080311E0,-4.319324493E-1,-1.522319794E0
3.700645673E1,-2.621474266E-1,-1.162898540E0,-2.309620380E0
3.706644936E1,-4.262866974E-1,-1.647172928E0,-2.557371140E0
3.712644186E1,-1.286618233E0,-5.318331718E-1,-2.944740772E0
3.718643442E1,9.431967735E-1,-6.299686432E-1,-2.359686375E0
3.724642689E1,1.996201038E0,-5.434863567E-1,-9.780826569E-1
3.730641948E1,1.560712337E0,6.363284588E-1,3.960838318E-1
3.736641171E1,3.127583981E0,8.621959686E-1,1.523438931E0
3.742640401E1,5.452737331E0,1.878879070E0,3.368740082E0
3.748639651E1,1.211638260E1,3.842878342E0,7.336816311E0
3.754638904E1,2.824041367E1,1.313832855E1,5.202495098E0
3.760638150E1,2.325440025E1,8.959442139E0,-1.419865251E0
3.766637403E1,-6.141450882E0,-1.846831894E1,2.692575455E1
3.772636716E1,-1.645895958E1,-3.997730255E1,1.645278931E0
3.778636126E1,-6.160217285E0,-1.811212158E1,-1.043631554E1
3.784635559E1,1.156965494E-1,-5.883921623E0,-8.044198990E0
3.790634986E1,1.756490946E0,-2.724236488E0,-4.873707294E0
3.796634419E1,-1.561739206E0,-3.907390118E0,-2.095280409E0
3.802633792E1,-7.272448540E-1,-5.641523838E0,7.796282768E-1
3.808633045E1,1.096783161E0,-4.543506145E0,1.211530685E0
3.814632271E1,3.414993286E-1,-2.711658001E0,2.277702332E0
3.820631531E1,2.848043680E0,1.221220493E-1,9.970922470E-1
3.826630777E1,2.423783302E0,3.973715305E-1,2.736592293E0
3.832630030E1,1.447629929E-2,-6.688559055E-1,1.294172287E0
3.838629280E1,-5.166584492E0,-1.205491185E0,-4.127247334E0
3.844628539E1,-5.041141510E0,2.155529499E0,-5.183038712E-1
3.850627766E1,-1.650705338E0,2.938666821E0,1.958839893E0
3.856627009E1,-2.896193504E0,3.102034330E0,1.908462763E0
3.862626255E1,-1.951282501E0,2.217608929E0,9.664807320E-1
3.868625508E1,-1.922995567E0,2.839058638E-1,-1.709270477E-1
3.874624755E1,-9.613466263E-1,6.833992004E-1,-5.241107941E-1
3.880624031E1,-2.295312881E-1,5.852631330E-1,-1.299422741E0
3.886623354E1,-6.058740616E-1,1.163460374E0,-3.355555534E-1
3.892622667E1,1.174113274E0,1.050771832E0,-8.695015907E-1
3.898621980E1,2.067803860E0,8.124387264E-1,-4.918003082E-2
3.904621293E1,1.419109344E0,1.647479534E0,-6.936192513E-2
3.910620583E1,-1.138806343E0,5.829848051E-1,2.140779495E-1
3.916619816E1,-7.078533173E-1,-1.488710642E-1,-4.369564056E-1
3.922619069E1,1.461976051E0,-1.660140753E-1,-4.555318356E-1
3.928618322E1,1.012870789E0,2.746562958E-1,-7.471957207E-1
3.934617582E1,-9.901084900E-1,-3.315460682E-1,-3.984434605E-1
3.940616828E1,-8.825922012E-1,-2.747510672E-1,-9.391610622E-1
3.946616081E1,7.048292160E-1,-2.555279732E-1,-1.476058960E-1
3.952615314E1,4.837436676E-1,-3.717247248E-1,-2.713472843E-1
3.958614554E1,6.221961975E-2,-3.746212721E-1,-1.084492207E-1
3.964613794E1,2.840280533E-1,-2.258987427E-1,-5.738894939E-1
3.970613054E1,3.057289124E-2,4.603266716E-3,-7.595173120E-1
3.975621334E1,-3.417205811E-2,-1.547390223E-1,-8.999748230E-1
3.981620594E1,-1.522855759E-1,-3.659011126E-1,-6.322782040E-1
3.987619920E1,2.269659042E-1,-4.803555012E-1,-1.104784012E-1
3.993619340E1,3.759040833E-1,-4.396409988E-1,-5.740618706E-2
3.999618766E1,6.437969208E-2,-4.505535364E-1,-1.654071808E-1
4.005618206E1,5.352973938E-2,-2.607394457E-1,-2.920187712E-1
4.011617632E1,3.042936325E-1,-1.145203114E-1,-2.521871328E-1
4.017616982E1,-7.578754425E-2,-2.947254181E-1,-3.638445139E-1
4.023616228E1,-7.988643646E-2,-1.411250830E-1,-3.414306641E-1
4.029615461E1,1.623020172E-1,2.154123783E-2,-2.532836199E-1
4.035614704E1,1.309089661E-1,-3.070616722E-2,-3.557432890E-1
4.041613958E1,3.195085526E-1,-3.088116646E-3,-4.544560909E-1
4.047613211E1,1.614217758E-1,-1.733158827E-1,-4.338476658E-1
4.053612464E1,1.508846283E-1,-1.295452118E-1,-3.842166662E-1
4.059611716E1,2.152843475E-1,-5.905961990E-2,-3.518394232E-1
4.065610946E1,4.420108795E-1,-2.072608471E-2,-1.263334751E-1
4.071610183E1,1.241636276E-1,1.554882526E-2,-1.211287975E-1
4.077609439E1,1.371164322E-1,8.950829506E-2,-9.296321869E-2
4.083608692E1,-1.451206207E-2,-4.696953297E-2,2.424336672E-1
4.089607939E1,6.821060181E-2,-1.298009157E-1,5.288653374E-1
4.095607228E1,3.463916779E-1,-1.943458319E-1,5.470004082E-1
4.101606552E1,4.022827148E-1,-2.425475121E-1,2.723128796E-1
4.107605861E1,2.703723907E-1,-2.512162328E-1,-6.626129150E-2
4.113605174E1,1.958684921E-1,-2.932100296E-1,-2.343395948E-1
4.119604494E1,1.845598221E-1,-2.396124005E-1,-2.651079893E-1
4.125603770E1,2.727899551E-1,-8.246433735E-2,-1.765425205E-1
4.131603014E1,4.412803650E-1,1.387751102E-2,-1.529445648E-1
4.137602253E1,3.827705383E-1,1.234970093E-1,6.678104401E-4
4.143601506E1,7.875728607E-2,3.155946732E-3,-8.611369133E-2
4.149600753E1,-5.667591095E-2,-5.319833755E-3,4.655134678E-2
4.155600012E1,2.781105042E-2,5.435824394E-3,1.316426992E-1
4.161599255E1,3.938932419E-1,3.841924667E-2,1.755281687E-1
4.167598502E1,3.078775406E-1,6.745541096E-2,4.445087910E-2
4.173597735E1,1.050996780E-1,5.439198017E-2,-2.820074558E-1
4.179596988E1,-1.706562042E-1,-1.100772619E-1,5.338501930E-2
4.185596234E1,4.571151733E-1,1.648144722E-1,-6.176710129E-3
4.191595494E1,4.879550934E-1,3.469097614E-2,6.538248062E-2
4.197594747E1,1.440677643E-1,-4.451526403E-1,-2.395362854E-1
4.203594120E1,3.314943314E-1,-3.780069947E-1,-3.097224236E-1
4.209593560E1,5.449075699E-1,-3.144411445E-1,-3.006429672E-1
4.215593013E1,3.556871414E-1,-1.847475767E-2,-3.434622288E-2
4.221592460E1,1.277046204E-1,1.252126098E-1,4.954326153E-2
4.227591906E1,1.033697128E-1,2.503100634E-1,-1.661467552E-2
4.233591233E1,6.991291046E-2,1.355662942E-1,5.323886871E-3
4.239590482E1,2.351551056E-1,-2.588123083E-2,5.840444565E-2
4.245589736E1,6.489725113E-1,-2.621930838E-1,2.223889828E-1
4.251588982E1,1.109749794E0,-2.717655897E-2,4.017338753E-1
4.257588242E1,-5.131111145E-1,1.219965219E-1,-5.984199047E-2
4.263587495E1,-1.796363831E0,-7.675218582E-2,-2.647980452E-1
4.269586744E1,7.670774460E-1,-2.477576435E-1,-3.968586922E-1
4.275585971E1,2.196997643E0,1.095903516E-1,-9.114785194E-1
4.281585214E1,4.122037888E-1,-8.311589360E-1,-4.055700302E-1
4.287584454E1,-8.147897720E-1,-4.199588597E-1,1.797783375E-1
4.293583707E1,-5.068254471E-1,4.071870446E-1,8.370168209E-1
4.299582953E1,2.136993408E-1,4.420256019E-1,6.132376194E-1
4.305582213E1,7.357540131E-1,-3.295626044E-1,-1.309478283E-1
4.311581552E1,9.049000740E-1,-3.471962810E-1,1.094303131E-1
4.317580979E1,5.961551666E-1,-3.578302562E-1,-5.720329285E-2
4.323580405E1,8.715133667E-1,-1.937102675E-1,-2.887678146E-1
4.329579838E1,4.895858765E-1,4.222452641E-3,-2.603936195E-1
4.335579265E1,1.587381363E-1,-1.672450900E-1,-6.905031204E-2
4.341578608E1,7.456722260E-1,4.222278595E-1,-1.730980873E-1
4.347577848E1,4.973316193E-2,8.786129951E-2,-8.049464226E-2
4.353577084E1,3.443326950E-1,1.098273396E-1,-3.144469261E-1
4.359576337E1,-4.285449982E-1,-1.854610443E-1,-5.743243694E-1
4.365575590E1,-2.234716415E-1,-1.855750084E-1,-3.708162308E-1
4.371574840E1,2.915401459E-1,-1.384636164E-1,-2.203948498E-1
4.377574093E1,-4.322824478E-1,-3.364821672E-1,-2.326104641E-1
4.383573346E1,-3.146095276E-1,-1.796808243E-1,3.901362419E-1
4.389572579E1,5.079841614E-2,4.620599747E-2,3.880341053E-1
4.395571822E1,4.854774475E-2,7.567787170E-2,3.147301674E-1
4.401571065E1,3.788471222E-2,2.704930305E-2,3.289337158E-1
4.407570318E1,1.420116425E-2,6.606245041E-2,1.753866673E-1
4.413569568E1,4.238443375E-1,-1.925241947E-2,8.448052406E-2
4.419568858E1,4.387569427E-2,-3.099218607E-1,-5.130577087E-2
4.425568174E1,-3.343963623E-2,-5.133943558E-1,-3.883948326E-1
4.431567494E1,4.519433975E-1,-5.145055056E-1,-4.797847271E-1
4.437566800E1,1.108467579E0,-3.834683895E-1,-7.242829800E-1
4.443566113E1,5.225934982E-1,-1.748546362E-1,-2.722525597E-1
4.449565383E1,3.570270538E-2,6.229889393E-2,2.864022255E-1
4.455564629E1,-6.675529480E-2,1.199795008E-1,4.563405514E-1
4.461563876E1,-3.516712189E-1,8.212399483E-1,3.096818924E-2
4.467563135E1,-2.841854095E-1,3.998764753E-1,1.497852802E-1
4.473562382E1,5.564899445E-1,2.077412605E-2,9.884262085E-2
4.479561635E1,6.710042953E-1,-3.240764141E-3,-4.404413700E-1
4.485560874E1,6.227455139E-1,-1.933020949E-1,-4.909555912E-1
4.491560114E1,3.040018082E-1,1.495451331E-1,-8.453583717E-2
4.497559351E1,-5.769805908E-1,3.802497983E-1,2.043504715E-1
4.503558604E1,-4.410552979E-2,8.982403874E-1,7.020881176E-1
4.509557860E1,3.769588470E-2,9.489278793E-1,8.870174885E-1
4.515557113E1,2.551136017E-1,1.130953789E0,7.164485455E-1
4.521556376E1,-1.647005081E-1,9.620995522E-1,2.666468620E-1
4.527555753E1,-9.018659592E-1,-1.705362499E-1,-5.512189865E-1
4.533555186E1,-3.561983109E-1,-9.988027811E-1,-6.480212212E-1
4.539554619E1,6.791143417E-1,-6.750209332E-1,-9.460356236E-1
4.545554052E1,9.199891090E-1,-4.316974282E-1,-1.240808487E0
4.551553461E1,1.465314865E0,3.216696680E-1,-2.012877464E-1
4.557552761E1,2.948656082E-1,-3.799614310E-1,2.009487152E-2
4.563551994E1,-9.079551697E-1,-2.909095049E0,-1.304971218E0
4.569551231E1,-3.756446838E-1,-2.019517899E0,-7.489733696E-1
4.575550480E1,6.857852936E-1,-7.594236135E-1,-2.454581261E-1
4.581549740E1,4.829225540E-1,-2.230299562E-1,-7.558774948E-2
4.587548987E1,2.142524719E-2,5.264208317E-1,6.633272171E-1
4.593548240E1,-5.456361771E-1,9.066508412E-1,4.028477669E-1
4.599547479E1,-7.141857147E-1,1.820087433E-1,-1.877694130E-1
4.605546712E1,5.090227127E-1,-8.307090998E-1,2.585673332E-1
4.611545949E1,7.560372353E-1,-3.558830261E0,2.016384125E0
4.617545208E1,1.705334187E0,-1.608064055E0,6.604237556E-1
4.623544458E1,4.585170746E-1,-1.247408271E0,-3.927720070E0
4.629543718E1,-2.445350647E0,-1.501064301E0,-7.176576614E0
4.635543031E1,7.179369926E-1,-3.620463610E-2,8.528070450E-1
4.641542361E1,-1.242380142E-1,-2.250581980E0,2.864055157E0
4.647541667E1,-3.189115524E-1,-9.277290106E-2,1.494139194E0
4.653540984E1,3.884868622E-1,5.032087564E-1,1.155403614E0
4.659540290E1,-1.324329376E-1,9.747552872E-2,1.474208832E0
4.665539540E1,2.337431908E-1,4.702664614E-1,1.855121613E0
4.671538773E1,1.075254917E0,9.243352413E-1,2.896504402E-1
4.677538033E1,2.180195570E0,1.360496998E0,-2.132000446E0
4.683537289E1,2.874386787E0,5.181045532E-1,-2.102935314E0
4.689536542E1,4.293802261E0,6.901519299E-1,-4.128134251E0
4.695535795E1,2.232645512E0,2.708415985E-1,-3.444729328E0
4.701529884E1,5.339912415E0,3.752470016E-2,-1.378503799E0
4.707529110E1,1.205978394E0,-9.875702858E-2,-1.482014179E0
4.713528343E1,1.151470184E0,-2.836623192E-1,-3.914594650E-1
4.719527600E1,4.562468529E-1,-4.715838432E-1,-1.663561344E0
4.725526856E1,-2.698287964E-1,-4.511017799E-1,-2.341739178E0
4.731526112E1,-7.234053612E-1,9.363124371E-1,-3.593644619E0
4.737525409E1,-1.143084049E0,-8.667111397E-1,-2.994706154E0
4.743524815E1,-9.794144630E-1,-6.408181190E-1,-2.226899624E0
4.749524265E1,1.406888962E-1,-5.217628479E-1,-2.499029160E0
4.755523715E1,1.227054596E-1,5.369348526E-1,-7.942628860E-1
4.761523162E1,1.661445618E0,7.649319172E-1,4.436359406E-1
4.767522571E1,3.618963242E0,9.126271009E-1,1.850958347E0
4.773521854E1,5.899704933E0,6.264407635E-1,3.561324120E0
4.779521094E1,6.827580929E0,2.121998072E0,4.160920620E0
4.785520341E1,2.254834747E1,4.107360840E0,6.238995552E0
4.791519600E1,2.823876953E1,1.518090534E1,-6.986435890E0
4.797518847E1,6.883718491E0,-4.875848770E0,-1.714258313E0
4.803518106E1,-1.456103516E1,-5.790555573E1,2.170474529E-1
4.809517346E1,-1.143834400E1,-2.576172066E1,-8.003818512E0
4.815516579E1,-1.917991519E0,-9.899250984E0,-7.767416477E0
4.821515819E1,1.839821815E0,-2.629915714E0,-5.350907803E0
4.827515079E1,-7.977914810E-1,-3.734167814E0,-6.692368984E-1
4.833514325E1,-1.068514824E0,-6.028063297E-1,5.400400162E-1
4.839513578E1,1.782779694E-1,-8.900744915E-1,1.819900990E0
4.845512854E1,1.875084877E0,5.836071968E-1,3.320536137E0
4.851512241E1,1.535699368E0,9.683425426E-1,6.853041649E-1
4.857511667E1,6.289482117E-3,1.828860879E0,1.497774124E0
4.863511100E1,-1.110659361E0,2.313051224E-1,2.028711319E0
4.869510533E1,-2.619717598E0,-7.936782837E-1,-1.638636112E0
4.875509946E1,-5.441124916E0,5.179007053E-1,-1.148588181E0
4.881509233E1,-3.629789829E0,1.295179725E0,-9.934682846E-1
4.887508462E1,-4.740578175E0,1.302081823E0,1.997861385E0
4.893507712E1,-1.293705463E0,4.791107178E-1,1.570273399E0
4.899506965E1,-8.638682365E-1,-4.457935095E-1,5.530452728E-1
4.905506215E1,6.253752708E-1,-7.370824218E-1,-1.987318516E0
4.911505461E1,5.742292404E-1,-1.128995419E-1,-1.654067039E0
4.917504717E1,-2.182059288E-1,5.766201019E-2,-2.092118263E0
4.923503947E1,-1.147219181E0,-2.216565609E-1,-1.539607048E0
4.929503184E1,-4.540796280E-1,1.795615435E0,-1.155010223E0
4.935502427E1,6.901931763E-2,1.453067303E0,-5.246114731E-2
4.941501686E1,-4.687438011E-1,2.544314384E0,2.984819412E-1
4.947500933E1,-1.503572464E-1,1.921456814E0,1.416625977E-1
4.953500196E1,8.373680115E-1,1.174118042E0,2.065134048E-1
4.959499506E1,8.016943932E-1,1.382505417E0,-6.161308289E-2
4.965498822E1,4.131107330E-1,6.344859600E-1,-3.528456688E-1
4.971498135E1,5.284719467E-1,8.637943268E-1,-3.835344315E-1
4.977497458E1,-4.590520859E-1,2.812662125E-1,-1.017591476E0
4.983496761E1,-5.191993713E-1,-3.123991489E-1,-1.083720207E0
4.989496008E1,3.381938934E-1,-5.622715950E-1,-1.087054729E0
4.995495251E1,2.387619019E-2,-5.315608978E-1,-1.009378433E0
5.001494497E1,1.246652603E-1,-6.222805977E-1,-7.805459499E-1
5.007493740E1,1.137628555E-1,-2.496533394E-1,-6.176002026E-1
5.013492993E1,-2.646474838E-1,1.961548328E-1,-2.097344398E-1
5.019492246E1,-4.509344101E-1,3.690409660E-1,9.112596512E-3
5.025491489E1,-4.338626862E-1,4.578285217E-1,4.042284489E-1
5.031490722E1,2.498435974E-1,1.368032694E0,6.907606125E-1
5.037489962E1,1.842520237E0,1.544301271E0,4.594516754E-1
5.043489215E1,7.199625969E-1,1.939568520E-1,-1.545718670E0
5.049488468E1,5.461940765E-1,-8.366044760E-1,-1.185744762E0
5.055487721E1,3.048215866E0,-1.135093451E0,9.267864227E-1
5.061487028E1,-3.548475266E0,-2.560161591E0,-3.541382313E0
5.067486447E1,-5.657002449E0,-1.036267757E0,-3.748420715E0
5.073485874E1,6.150121689E-1,-2.201588154E-1,2.475643158E-2
5.079485310E1,1.196093559E0,-4.938638210E-1,-3.961865902E-1
5.085484737E1,5.777540207E-1,-1.068559408E0,-9.629426003E-1
5.091484116E1,2.623119354E-1,-1.201109290E0,-1.366088033E0
5.097483369E1,6.003160477E-1,-4.883271456E-1,-4.018704891E-1
5.103482609E1,7.191743851E-1,-6.140470505E-4,1.961874962E-2
5.109481852E1,-6.248970032E-1,4.235312939E-1,5.487911701E-1
5.115481105E1,2.569561005E-1,7.509816885E-1,7.127342224E-1
5.121480355E1,-4.726734161E-1,4.961793423E-1,7.012181282E-1
5.127479615E1,5.564403534E-2,2.849364281E-1,2.100157738E-1
5.133478864E1,1.987190247E-1,1.561309099E-1,-6.618976593E-3
5.139478098E1,3.961515427E-1,-8.693027496E-2,-3.009979725E-1
5.145477331E1,-5.360126495E-2,7.350368500E-1,2.371673584E-1
5.151476580E1,-1.755208969E-1,1.557932734E0,1.820983887E-1
5.157475827E1,7.816734314E-1,1.158692002E0,-6.227121353E-1
5.163475076E1,1.895283699E0,-9.322820306E-1,-1.792022824E0
5.169474346E1,8.063745499E-1,-5.489652157E0,-6.489114761E-1
5.175473680E1,1.593286991E0,-4.553912163E0,-3.391988277E-1
5.181472992E1,-7.565498352E-2,-2.248685837E0,-1.508302927E0
5.187472306E1,-7.709245682E-1,-3.006162167E0,-3.857026815E0
5.193471619E1,-2.065054893E0,-1.249929905E0,-1.212750912E0
5.199470915E1,2.318096161E-2,-4.228856564E0,-5.704519749E-1
5.205470148E1,-3.642148972E-1,-3.032952785E0,1.922309399E-1
5.211469391E1,-2.614631653E-1,-1.087492466E0,-4.692749977E-1
5.217468644E1,1.644573212E-1,1.267765164E0,2.041180611E0
5.223467890E1,-4.519710541E-1,4.763741970E0,1.915581465E0
5.229467147E1,1.022277832E0,5.351153374E0,2.425392628E0
5.235466400E1,1.336391449E0,4.325453281E0,1.063904047E0
5.241465643E1,1.331581116E0,3.424831629E0,-2.914206982E-1
5.247464869E1,1.062120914E0,1.858690023E0,-1.630196571E-1
5.253464122E1,-2.508373260E-1,8.419594765E-1,8.793926239E-2
5.259463365E1,1.220361710E0,7.946527004E-1,1.603739738E0
5.265462632E1,-3.209099770E-1,1.150066137E0,-1.492496490E0
5.271461882E1,5.883922577E-1,6.079711914E-1,3.636884689E-2
5.277461238E1,8.199110031E-1,6.840753555E-2,-1.898023605E0
5.283460668E1,2.203731537E0,1.378192902E-1,-1.723742008E0
5.289460128E1,2.780586720E0,1.718654633E-1,-2.190012455E0
5.295459561E1,2.353427172E0,-1.186595201E0,-1.515707970E0
5.301459011E1,2.205638885E0,-1.638585329E0,6.457424164E-1
5.307458361E1,8.097870350E-1,-2.264542580E-1,-3.922667980E0
5.313457624E1,2.525231361E0,4.562540054E-1,3.010735512E-1
5.319456867E1,3.750439167E0,-6.788182259E-1,8.902134895E-1
5.325456120E1,5.373172760E-1,-3.540942669E-1,-7.686557770E-1
5.331455373E1,1.547551155E-1,-1.152081728E0,-8.027296066E-1
5.337454626E1,3.038096428E-1,-7.528877258E-1,-1.049862385E0
5.343453873E1,6.072010994E-1,-3.490152359E-1,-4.590392113E-1
5.349453109E1,-7.205357552E-1,3.439490795E-1,-2.270477772E0
5.355452342E1,-1.083897114E0,-7.264790535E-1,-2.492333889E0
5.361451595E1,-1.321167469E0,-6.011782885E-1,-2.405313492E0
5.367450852E1,-8.181376457E-1,-5.971152782E-1,-1.991134644E0
5.373450101E1,1.605765820E0,9.136056900E-2,-1.023763180E0
5.379449354E1,1.338660240E0,-1.130107641E-1,-1.171412468E-1
5.385448677E1,1.922739029E0,6.313956976E-1,6.820664406E-1
5.391448087E1,5.748461723E0,8.229082823E-1,2.485832691E0
5.397447510E1,8.025012970E0,1.298695326E0,3.366471291E0
5.403446947E1,2.703045654E1,7.637811661E0,4.777945518E0
5.409446373E1,2.671693420E1,1.462338066E1,-1.083104801E1
5.415445736E1,-1.597353458E0,-1.017536259E1,9.703652382E0
5.421444986E1,-1.052178383E1,-4.125909805E1,-1.026796532E1
5.427444229E1,-1.038364029E1,-2.279860306E1,-9.487821579E0
5.433437998E1,-2.812277794E0,-7.725841522E0,-1.457280350E1
5.439437258E1,8.708357811E0,7.984619617E0,-4.277326584E0
5.445436504E1,-1.155898094E0,-3.919129372E-1,-4.187202454E0
5.451435757E1,-5.313282967E0,-5.809499741E0,-4.845747948E0
5.457435000E1,-5.816238880E0,-8.078125954E0,-3.488520622E0
5.463434240E1,-5.444932938E0,-1.012872601E1,-2.575078964E0
5.469433476E1,-4.929860592E0,-1.154066372E1,2.178576469E0
5.475432730E1,-3.254162312E0,-8.422936440E0,5.106757164E0
5.481431986E1,-5.715396404E-1,-4.287468910E0,6.796394348E0
5.487431239E1,-1.463137150E0,-2.027132988E0,4.161695957E0
5.493430512E1,-1.162978649E1,-3.344769478E-1,-6.364616871E0
5.499429835E1,-1.469759178E1,4.216825962E0,-9.838332176E0
5.505429148E1,-9.769926071E0,1.081253147E1,-1.627093554E0
5.511428458E1,-2.232831478E0,9.270179749E0,2.054392576E0
5.517427771E1,-1.561276913E0,2.672794580E0,3.261530399E0
5.523427051E1,-1.634799004E0,-2.251140594E0,9.766026139E-1
5.529426287E1,-1.258728981E0,-3.827804089E0,-1.789008141E0
5.535425537E1,4.805583954E-1,-4.565012932E0,-3.198814869E0
5.541424790E1,3.334876537E0,-3.121845722E0,-2.869647741E0
5.547424036E1,2.617039204E0,-7.902235985E-1,-3.217394829E0
5.553423296E1,1.345968723E0,4.143122435E-1,-2.226493120E0
5.559422539E1,-1.265592575E-1,1.928719282E0,-1.021823883E0
5.565421775E1,-1.076342583E0,2.258090496E0,-3.863835335E-2
5.571421005E1,-6.052227020E-1,3.407357693E0,7.844710350E-1
5.577420264E1,-2.274710655E0,4.347962379E0,9.737793207E-1
5.583419511E1,-3.171091080E0,3.788850784E0,9.347261190E-1
5.589418770E1,-6.942462921E-2,3.273402691E0,1.544624448E0
5.595418020E1,1.486223221E0,2.999433756E0,1.246467113E0
5.601417390E1,-1.615284920E0,1.738290310E0,-4.772341251E-2
5.607416810E1,-2.462615967E0,9.541485310E-1,-8.745552301E-1
5.613416250E1,-1.226329803E-2,-1.153807938E-1,-3.658065796E-1
5.619415676E1,1.832120895E0,-3.650182784E-1,-5.311372280E-1
5.625415106E1,1.064978600E0,-1.058176458E-1,-4.594714642E-1
5.631414422E1,3.914146423E-1,-2.972154617E-1,-8.217630386E-1
5.637413662E1,5.913343430E-1,-7.071684003E-1,-8.122181892E-2
5.643412892E1,4.441814423E-1,-1.393362761E0,-1.293187141E-1
5.649412145E1,1.745985508E0,-7.935427427E-1,5.088400841E-2
5.655411398E1,1.089729309E0,-5.042259097E-1,3.304743767E-1
5.661410647E1,1.128425598E-1,-5.875712037E-1,5.327162743E-1
5.667409900E1,-3.156280518E-1,-5.572189093E-1,1.574728012E0
5.673409144E1,-6.412715912E-1,-3.290738761E-1,1.024987221E0
5.679408377E1,6.294174194E-1,9.239950776E-2,1.671965122E-1
5.685407616E1,1.113271236E0,1.984716654E-1,-3.830869198E-1
5.691406869E1,4.524745941E-1,-1.629163474E-1,-4.685451984E-1
5.697406122E1,-1.618499756E-1,-9.680093825E-2,-3.112642765E-1
5.703405382E1,3.756427765E-1,1.652905494E-1,-5.861940384E-1
5.709404682E1,6.824903488E-1,-2.081817389E-1,-4.155137539E-1
5.715404008E1,2.210969925E0,9.978784248E-3,-8.247768879E-1
5.721403321E1,-2.520189285E-1,-1.315015793E0,-5.625884533E-1
5.727402634E1,2.379503727E0,-5.622369051E-2,-5.940954685E-1
5.733401941E1,4.545984268E0,6.245338917E-1,-1.189197779E0
5.739401207E1,6.065397739E0,9.086879492E-1,-1.747128010E0
5.745400434E1,3.086912632E0,-2.350524902E0,-1.792265773E0
5.751399683E1,-3.133610249E0,-6.695348740E0,1.848385334E-1
5.757398930E1,-2.986704350E0,-5.604452133E0,1.745895386E0
5.763398189E1,-1.303810835E0,-2.862154961E0,1.515682220E0
5.769397436E1,-2.202954292E-1,-3.509654999E-1,5.722048283E-1
5.775396695E1,-1.379906416E0,8.634052277E-1,-8.203504086E-1
5.781395925E1,-2.640557766E0,7.638015747E-1,-1.571713090E0
5.787395165E1,-2.286810160E0,2.021465302E-1,-1.027732491E0
5.793394411E1,-1.301354408E0,7.717609406E-2,-8.560338020E-1
5.799393671E1,-8.671205044E-1,-9.583187103E-2,-7.042138577E-1
5.805392917E1,-5.025038719E-1,-5.548954010E-2,-6.940501928E-1
5.811392191E1,-7.239260674E-1,-9.051723480E-1,-2.291922569E-1
5.817391584E1,5.951442719E-1,-7.800416946E-1,1.452937126E-1
5.823391037E1,1.187285423E0,-1.571884155E-1,1.920824051E-1
5.829390484E1,1.396626949E0,3.298096657E-1,-2.656869888E-1
5.835389937E1,1.759505272E0,1.107296944E-1,-1.666948795E-1
5.841389370E1,1.983291864E0,-3.960700035E-1,8.634257317E-2
5.847388676E1,1.736598253E0,-8.911895752E-1,4.901654720E-1
5.853387920E1,1.541979313E0,-9.830131531E-1,1.010868788E0
5.859387166E1,1.116385698E0,-4.093999863E-1,7.596278191E-1
5.865386419E1,3.964891434E-1,-1.405525208E-1,8.065700531E-3
5.871385672E1,-3.719911575E-1,-1.449737549E-1,-4.701638222E-2
5.877384928E1,-9.966015816E-1,1.653671265E-2,-5.240508318E-1
5.883384162E1,-1.764388561E0,-7.493686676E-2,-4.829577208E-1
5.889383401E1,-1.418639183E0,1.207733154E-1,-2.568576336E-1
5.895382638E1,-1.013688087E0,3.786368370E-1,-1.277837753E-1
5.901381891E1,-9.137096405E-1,4.124579430E-1,-4.158998728E-1
5.907381134E1,-8.014636040E-1,3.562412262E-1,-4.919055700E-1
5.913380390E1,-6.977086067E-1,1.148653030E-1,-3.522213697E-1
5.919379643E1,-7.411718369E-1,-2.711162567E-1,-2.859870195E-1
5.925379013E1,-2.089500427E-1,-3.548469543E-1,-1.826238632E-2
5.931378443E1,2.069687843E-1,-2.389349937E-1,-6.287109852E-2
5.937377876E1,6.490592957E-1,-3.846678734E-1,1.604135036E-1
5.943377309E1,8.879485130E-1,-3.681225777E-1,2.266359329E-1
5.949376742E1,8.942847252E-1,-3.297357559E-1,2.351527214E-1
5.955376045E1,1.194132328E0,5.460309982E-2,1.020035744E-1
5.961375275E1,1.089885712E0,2.253143787E-1,-1.236270666E-1
5.967374518E1,8.118200302E-1,2.473998070E-1,-1.711282730E-1
5.973373771E1,4.245443344E-1,2.741470337E-1,-2.310547829E-1
5.979373017E1,1.777133942E-1,3.212356567E-1,-7.179629803E-2
5.985372274E1,-1.266441345E-1,5.018091202E-1,6.866943836E-2
5.991371527E1,-5.922441483E-1,4.780933857E-1,3.859195709E-1
5.997370770E1,-4.766330719E-1,8.656079769E-1,2.591593266E-1
6.003370003E1,-2.939357758E-1,7.532505989E-1,4.653338194E-1
6.009369243E1,2.212648392E-1,6.607666016E-1,9.790182114E-3
6.015368496E1,4.418296814E-1,2.680737972E-1,-2.834986448E-1
6.021367752E1,1.866455078E-1,-7.280850410E-2,-1.473410130E-1
6.027367005E1,-2.035265923E0,4.909021854E-1,1.246290207E0
6.033366308E1,-2.050086021E0,2.462901592E0,7.708247304E-1
6.039365635E1,-2.822379112E0,1.822977424E0,-3.592118621E-1
6.045364941E1,-6.173982620E-1,8.233174086E-1,-7.566060424E-1
6.051364251E1,1.684771538E0,3.373256326E-1,-7.862446308E-1
6.057363557E1,7.929172516E-1,-5.641081929E-2,-8.971575499E-1
6.063362820E1,1.036193848E0,-2.232659608E-1,9.174845219E-1
6.069362057E1,2.488412857E-1,6.001621485E-1,1.168261766E0
6.075361316E1,1.321035862E0,4.943440557E-1,2.056921959E0
6.081360563E1,1.854762554E0,-2.929952741E-1,1.737403870E-1
6.087359816E1,1.367413998E0,-1.238517523E0,-1.154826880E0
6.093359062E1,2.577781677E-3,-2.912125349E0,-2.943195581E0
6.099358312E1,4.706459045E-1,-3.602285862E0,-1.837312222E0
6.105357538E1,6.149892807E-1,-1.075807691E0,-3.587365150E-1
6.111356781E1,-2.235364914E-1,-5.211815834E-1,-1.263923645E-1
6.117356034E1,-1.162052155E-1,-1.413943648E0,4.961998463E-1
6.123355291E1,5.357055664E-1,4.346933961E-1,3.603863716E-2
6.129354537E1,-1.318698883E0,-1.019392610E0,-2.110706329E0
6.135353824E1,-2.895182610E0,-3.326017141E0,-4.743336201E0
6.141353223E1,-4.002447128E-1,1.101575851E0,3.363928795E-1
6.147352656E1,2.081665516E0,-1.639638782E0,2.436766624E0
6.153347610E1,-3.759685516E0,4.433599710E-1,-3.688590527E-1
6.159347036E1,6.737546921E-1,5.823003054E-1,3.087034702E0
6.165346436E1,7.334713936E-1,6.064450741E-1,7.758131027E-1
6.171345712E1,1.883752346E0,3.540821075E-1,7.421188354E-1
6.177344945E1,1.474641323E0,-3.063400984E-1,1.656177044E0
6.183344182E1,1.257884502E0,-4.673095942E-1,7.728848457E-1
6.189343441E1,9.590516090E-1,-6.100783348E-1,2.164363861E-1
6.195342688E1,1.542393446E0,2.140734196E-1,-1.999125004E0
6.201341941E1,3.613063812E0,5.279469490E-1,7.654848099E-1
6.207341187E1,2.091160774E0,2.141851425E0,-1.546815395E0
6.213340437E1,3.668987751E0,1.412708282E0,-2.754202366E0
6.219339663E1,2.303370714E0,8.552150726E-1,2.607450485E-1
6.225338923E1,2.088977814E0,-2.340385914E-1,-5.854635239E-1
6.231338169E1,1.364017963E0,3.191435337E-1,-1.264697552E0
6.237337429E1,-1.594805717E-1,5.310482979E-1,-2.241383553E0
6.243336685E1,4.873704910E-2,-1.552629471E-2,-1.701391697E0
6.249336018E1,-2.497496605E-1,-1.105519414E0,-2.975506306E0
6.255335325E1,-1.948176384E0,-1.055879593E-1,-2.851582050E0
6.261334644E1,-1.110534668E0,-3.527824879E-1,-1.839747906E0
6.267333951E1,-2.866325378E-1,-3.263295889E-1,-1.631307602E0
6.273333254E1,-2.317094803E-1,-1.243907213E-1,-1.939359188E0
6.279332487E1,5.022783279E-1,2.278684378E-1,-9.590353966E-1
6.285331737E1,1.413955688E0,1.793477535E-1,-9.364824295E-1
6.291330983E1,2.328042984E0,1.309522390E-1,6.488761902E-1
6.297330236E1,4.658763885E0,6.162194014E-1,1.962087631E0
6.303329489E1,7.013102055E0,8.673616648E-1,4.012100220E0
6.309328749E1,1.345580387E1,2.603825092E0,8.233170509E0
6.315327985E1,3.176631546E1,1.207923412E1,3.285311222E0
6.321327218E1,1.928495789E1,3.119894981E0,-7.689687729E0
6.327326462E1,-5.869443893E0,-2.321162415E1,2.518607330E1
6.333325718E1,-2.221222305E1,-4.190689468E1,-4.668960094E0
6.339324964E1,-6.887918472E0,-1.939358330E1,-1.133940697E1
6.345324211E1,1.968574524E0,-5.597394466E0,-5.780364990E0
6.351323537E1,3.266749382E0,-7.330374718E-1,-1.498257637E0
6.357322964E1,-3.676045418E0,-1.925988197E0,-3.160235405E0
6.363322414E1,-3.747844219E0,-1.867202520E0,6.780791283E-1
6.369321860E1,-7.633686066E-2,1.374600053E0,4.442340374E0
6.375321324E1,1.323083878E0,5.835285783E-1,6.676806450E0
6.381320697E1,9.851727486E-1,4.037465453E-1,2.112529755E0
6.387319966E1,1.018389702E0,3.280032635E0,-3.816798687E0
6.393319206E1,-5.302324772E0,1.638862014E0,-2.562654018E0
6.399318466E1,-5.673811913E0,3.517341375E0,-4.566490650E0
6.405317709E1,-9.228153229E0,4.182923317E0,-2.622610569E0
6.411316968E1,-7.869201660E0,8.443042040E-1,-3.009025574E0
6.417316215E1,-1.274768829E0,4.875143766E-1,-1.593593597E0
6.423315455E1,2.324684143E0,7.894957066E-2,-2.526686430E0
6.429314685E1,1.817979813E0,5.837670565E-1,-3.558142185E0
6.435313944E1,-3.168394089E0,-3.663480282E-1,-3.402194023E0
6.441313190E1,-2.876118660E0,-1.265127897E0,-4.423376083E0
6.447312444E1,-1.368585587E0,-2.047789574E0,-3.938425064E0
6.453311696E1,1.636497021E0,-1.514574170E0,-3.371072769E0
6.459310986E1,1.712425709E0,-1.098108888E0,-2.418160200E0
6.465310376E1,7.485542297E-1,-5.688834190E-1,-1.249591589E0
6.471309809E1,-1.388765335E0,1.643376350E-1,1.014091969E-1
6.477309242E1,-2.273032188E0,1.949480891E0,1.934851885E0
6.483308679E1,-2.167905807E0,1.894664526E0,2.128345251E0
6.489308072E1,5.650520325E-1,1.748179317E0,1.032771945E0
6.495307335E1,2.765763760E0,2.124722004E0,6.917464733E-1
6.501306568E1,-1.321783066E-1,1.469177961E0,-6.631475687E-1
6.507305818E1,-1.939453125E0,4.054480791E-1,-1.259952545E0
6.513305067E1,-2.625474930E-1,6.922556162E-1,-5.795439482E-1
6.519304314E1,7.364692688E-1,4.643054008E-1,-3.408851624E-1
6.525303577E1,6.204319000E-1,-1.905171871E-1,-7.321074009E-1
6.531302826E1,2.613735199E-2,-1.015784264E0,-8.654344082E-1
6.537302063E1,1.047790527E0,-6.403128505E-1,-9.135417938E-1
6.543301296E1,2.067346096E0,-2.976083159E-1,-2.762029171E-1
6.549300556E1,2.381226063E0,5.695478320E-1,-4.475998878E-1
6.555299798E1,-1.116995811E0,3.163933158E-1,-6.673188210E-1
6.561299055E1,-1.928296089E0,1.195384026E0,1.481628418E-1
6.567298315E1,-2.292927742E0,1.767322063E0,-1.832580566E-2
6.573297644E1,1.062282562E0,1.274853945E0,-1.716632843E-1
6.579296951E1,-3.702230453E-1,-6.582812071E-1,-1.518617392E0
6.585296274E1,8.782815933E-1,-7.113275528E-1,-1.371227741E0
6.591295580E1,5.377712250E-1,2.826700211E-1,-7.173415422E-1
6.597294880E1,4.856491089E-2,9.889887571E-1,6.271276474E-1
6.603294110E1,-3.573827744E-1,6.362346411E-1,4.589605331E-1
6.609293363E1,2.799415588E-2,8.080065250E-2,7.894554138E-1
6.615292606E1,1.993560791E-2,4.276471138E-1,2.093987465E-1
6.621291872E1,6.541919708E-1,1.893597484E0,3.215939999E-1
6.627291125E1,5.230045319E-1,1.678985357E0,3.773891926E-1
6.633290378E1,-4.055271149E-1,1.079001069E0,6.926159859E-1
6.639289612E1,-1.382712364E0,-1.331463933E0,1.431910992E-1
6.645288838E1,-3.330392838E-1,-2.595742941E0,-3.553128242E-1
6.651288074E1,2.379203320E0,-2.519516945E0,-1.084798813E0
6.657287327E1,1.629309177E0,-2.794282913E0,-1.020611763E0
6.663286580E1,-9.734745026E-1,-5.394951820E0,-8.710920811E-1
6.669285827E1,1.920466423E0,-2.206551790E0,1.411497688E1
6.675285170E1,-2.943472862E0,1.500783920E0,-1.201518774E0
6.681284586E1,1.655466557E0,-1.221251249E0,2.069287300E0
6.687284019E1,-3.922562599E0,-1.528602123E0,9.997549057E-1
6.693283446E1,-1.675534725E0,-1.310045958E0,2.487210274E0
6.699282885E1,-3.658184528E0,1.280032277E0,-9.451727867E-1
6.705282228E1,2.403961658E0,5.845837593E-1,1.159521580E0
6.711281482E1,-1.510066986E0,1.802747011E0,-1.452076912E0
6.717280711E1,2.013530731E0,1.768982172E0,-1.844641685E0
6.723279964E1,4.101613045E0,1.590075016E0,-4.356988430E0
6.729279211E1,2.445299149E0,1.733449221E0,-4.821772099E0
6.735278470E1,4.087456226E0,9.124801159E-1,-3.274546146E0
6.741277717E1,2.531695604E0,1.012746572E0,-1.769865036E0
6.747276973E1,9.825606346E-1,-7.986690998E-1,-2.162775040E0
6.753276206E1,-2.049522400E-1,-6.158127785E-1,-1.356752872E0
6.759275446E1,2.288475037E-1,6.627302170E-1,-3.161914825E0
6.765274692E1,-2.005577087E-3,-7.581000328E-1,-2.362744808E0
6.771273952E1,-1.229543686E0,1.938014030E-1,-1.429553986E0
6.777273202E1,5.416140556E-1,-6.089766026E-1,-2.542568684E0
6.783272488E1,7.126312256E-1,-2.637419701E-1,-1.335319519E0
6.789271815E1,1.168871403E0,7.783746719E-1,-3.735027313E-1
6.795271128E1,3.858653545E0,3.656041622E-1,1.954045296E0
6.801270434E1,6.858501434E0,1.745850801E0,3.402982712E0
6.807269740E1,1.650499725E1,3.268423557E0,8.959960938E0
6.813269020E1,3.080797958E1,1.509333992E1,-8.105750084E-1
6.819268253E1,1.936280060E1,4.167129517E0,-5.803563118E0
6.825267500E1,-9.589069366E0,-2.105686569E1,2.151544762E1
6.831266746E1,-1.863504028E1,-3.438272858E1,-1.411433220E-1
6.837266006E1,-2.526334047E0,-1.655612183E1,-1.597981262E1
6.843265259E1,7.200436592E0,2.414616585E0,-1.656882524E0
6.849264512E1,3.529548645E-1,-2.744616508E0,-2.835497856E0
6.855263745E1,-4.215664864E0,-2.822816133E0,-6.318339109E-1
6.861262988E1,-3.670469761E0,-4.416667938E0,1.895332336E0
6.867262231E1,-1.413351059E0,-1.153543711E0,3.537169456E0
6.873261487E1,-3.086322784E0,1.974732876E-1,3.160545349E0
6.879260744E1,-3.722394466E0,-8.768465519E-1,-1.409650326E0
6.884262388E1,-7.533861160E0,-2.497457027E0,-3.374677181E0
6.890261741E1,-1.109642410E1,6.823613644E-1,-7.369781017E0
6.896261178E1,-7.382583618E0,4.429406166E0,1.316369057E0
6.902260621E1,-4.535022736E0,2.341530800E0,7.348103523E-1
6.908260068E1,-3.101805687E0,4.138974190E0,4.226908684E-1
6.914259514E1,-2.865450859E0,1.849634647E0,-1.231361866E0
6.920258861E1,-1.471210480E0,7.422015667E-1,-1.207438946E0
6.926258117E1,-5.539035797E-2,1.193907142E0,-2.144973993E0
6.932257370E1,-5.127878189E-1,9.191719294E-1,-2.155666590E0
6.938256623E1,1.742277145E-1,1.089097738E0,-2.466498613E0
6.944255876E1,4.399490356E-1,1.724490762E0,-1.734879017E0
6.950255129E1,1.942529678E-1,1.139381170E0,-7.893872261E-1
6.956254369E1,-7.668685913E-2,9.101589918E-1,-2.486689091E-1
6.962253602E1,-3.241577148E-1,7.034726143E-1,-4.263632298E-1
6.968252842E1,9.102439880E-2,7.605670691E-1,-9.599828720E-2
6.974252095E1,-6.509504318E-1,-4.100442529E-1,-7.026255131E-1
6.980251345E1,-5.417575836E-1,-8.703488111E-1,-9.301602840E-1
6.986250604E1,6.489419937E-1,-9.006443024E-1,-3.412902355E-1
6.992249851E1,3.865385056E-1,-7.490464449E-1,-1.125215292E0
6.998249170E1,4.014673233E-1,-2.633588314E-1,-4.805257320E-1
7.004248580E1,2.530384064E-1,3.426871300E-1,-1.441009998E0
7.010248017E1,1.411914825E-2,1.701905727E-1,-1.053274870E0
7.016247443E1,-1.606988907E-1,3.755152225E-2,-1.036092520E0
7.022246883E1,-1.959428787E-1,-3.084269762E-1,-5.787725449E-1
7.028246236E1,-1.956968307E-1,-9.407269955E-2,-7.039651871E-1
7.034245486E1,1.585083008E-1,-4.169714451E-2,-6.809771061E-1
7.040244719E1,2.952547073E-1,1.680347919E-1,-5.813279152E-1
7.046243978E1,-3.325862885E-1,2.349396944E-1,-6.357123852E-1
7.052243225E1,9.647750854E-2,-4.028367996E-2,-4.366829395E-1
7.058242478E1,5.371217728E-1,-1.047852039E-1,-6.500089169E-1
7.064241731E1,4.928426743E-1,-4.811655879E-1,-6.356065273E-1
7.070240977E1,1.058549404E0,-1.085127592E-1,1.227047443E-1
7.076240203E1,-9.836711884E-1,1.000038981E-1,5.971624851E-1
7.082239443E1,-1.103903770E0,8.368252516E-1,6.346430779E-1
7.088238700E1,-4.851016998E-1,1.066263795E0,4.569783211E-1
7.094237952E1,-1.020857811E0,3.232140541E-1,-1.729867458E-1
7.100237206E1,-6.811428070E-2,9.507646561E-1,-4.262583256E-1
7.106236482E1,1.119602203E0,1.048264384E0,-1.670727730E-1
7.112235809E1,5.874700546E-1,-3.110389709E-1,-1.182261229E0
7.118235118E1,9.662389755E-1,-9.613064528E-1,-1.419851065E0
7.124234431E1,4.873027802E-1,-4.797880650E-1,-9.380629063E-1
7.130233741E1,2.049106598E0,1.739688993E0,-5.158760548E-1
7.136233031E1,1.566464901E0,1.986673951E0,8.075530529E-1
7.142232261E1,-2.212196350E0,1.445978880E-1,-5.386564732E-1
7.148231510E1,-2.104345322E0,-1.593549609E0,-3.557267189E-1
7.154230757E1,2.879495621E-1,-2.761554718E0,8.312797546E-1
7.160230013E1,9.417977333E-1,-3.474544525E0,3.578791618E-1
7.166229259E1,1.239795685E-1,-4.502145290E0,1.227725506E0
7.172228516E1,-3.740310669E-3,-3.288263559E0,-1.827661753E0
7.178227746E1,-4.072008133E0,-4.934367180E0,-1.549120045E1
7.184226982E1,-2.203061104E0,-7.175221443E-1,-4.921674728E-2
7.190226228E1,2.160486221E0,-2.463674068E0,3.808295727E0
7.196225488E1,-4.792242050E0,-1.072585821E0,1.026074409E0
7.202224734E1,2.217912674E-1,-1.357809782E0,3.346549511E0
7.208223991E1,-9.222817421E-1,9.268342853E-1,9.007472992E-1
7.214223361E1,-1.040741444E0,1.189110637E0,-8.599414825E-1
7.220222794E1,2.191696644E0,2.160871744E0,-3.819744587E0
7.226222220E1,3.829384089E0,2.728466749E0,-3.949109077E0
7.232221653E1,3.846163750E0,8.388390541E-1,-3.107435703E0
7.238221083E1,1.048889875E0,1.927800417E0,-3.508471012E0
7.244220396E1,3.151616096E0,-2.486264706E-1,-4.406464100E0
7.250219632E1,1.174650669E0,4.892826080E-1,-2.938528061E0
7.256218862E1,1.370700359E0,4.630095959E-1,-1.714220047E0
7.262218115E1,1.932552814E0,2.923095226E-1,1.611118317E-1
7.268217368E1,2.036647797E-1,4.111285210E-1,-1.711546898E0
7.274216621E1,3.325548172E-1,-7.614481449E-2,-1.930465221E0
7.280215871E1,-3.644776344E-1,-3.378124237E-1,-2.125752449E0
7.286215130E1,-1.344187737E0,-1.614857912E-1,-3.461524487E0
7.292214357E1,-1.370356083E0,-3.944962621E-1,-2.593016148E0
7.298213603E1,-5.055141449E-1,1.442208290E-1,-2.604110479E0
7.304212856E1,1.193591595E0,-1.105202436E-1,8.291244507E-3
7.310212109E1,4.223129272E0,2.207119465E-1,1.391418934E0
7.316211352E1,5.392601013E0,3.786549568E-1,2.475996971E0
7.322210666E1,8.191171646E0,1.002912998E0,4.721718311E0
7.328209979E1,2.978079987E1,4.607941628E0,3.465738297E0
7.334209295E1,2.829739189E1,1.272360516E1,-1.163256454E1
7.340208605E1,2.546987534E-1,-1.211043644E1,7.305191040E0
7.346207934E1,-1.192745972E1,-7.364500427E1,3.584258556E0
7.352207184E1,-1.845705795E1,-1.889248657E1,-1.317345810E1
7.358206424E1,3.894201279E0,-8.405493736E0,-1.256928635E1
7.364205667E1,1.201935959E1,3.584439754E0,-2.544159412E0
7.370204917E1,-2.578526020E0,-4.568694115E0,-7.064031959E-1
7.376204160E1,-3.712069035E0,-4.805503368E0,9.832404852E-1
7.382203423E1,-3.210072994E0,-4.655964375E0,3.959861279E0
7.388202669E1,-2.366726875E0,-3.205669880E0,4.463150501E0
7.394201902E1,-2.141933918E0,-5.845263600E-2,4.184551239E0
7.400201139E1,-3.521570921E0,1.250969410E0,4.489465714E0
7.406200385E1,-2.971641064E0,1.403274536E0,2.290397644E0
7.412199628E1,-4.003453255E0,1.490453482E0,5.617525101E0
7.418198881E1,-2.815382719E0,5.954272151E-1,1.864721298E0
7.424198164E1,-2.791091681E0,1.519646406E0,1.357990265E0
7.430197567E1,-3.529507399E0,1.469058871E0,-5.152730942E-1
7.436197000E1,-2.159907341E0,1.863756418E0,-1.006930351E0
7.442196430E1,-1.836364269E0,3.973476291E-1,3.403854370E-2
7.448195863E1,-1.024020195E0,3.211423457E-1,-3.343548775E-1
7.454195266E1,-1.722946644E0,-3.777678609E-1,7.553334236E-1
7.460194546E1,-1.381402493E0,3.439288437E-1,-6.072425842E-2
7.466193772E1,-8.770556450E-1,8.009862900E-1,4.575905800E-1
7.472193015E1,-1.546036720E0,7.539545894E-1,-1.594996452E-1
7.478192262E1,-5.872883797E-1,1.301763773E0,-8.276157379E-1
7.484191515E1,2.853727341E-2,1.266408205E0,-1.535103798E0
7.490190761E1,-8.752808571E-1,1.209554195E0,-1.203155518E0
7.496190021E1,-1.818038940E0,3.979197443E-1,-7.755641937E-1
7.502189264E1,-1.184780121E0,4.547346234E-1,-1.395480633E0
7.508188504E1,-1.145545483E0,-2.476808429E-2,-1.785521030E0
7.514187740E1,-1.291875839E-1,-5.360577106E-1,-1.756368637E0
7.520186993E1,1.446104050E-2,-8.646023273E-1,-1.152311802E0
7.526186240E1,2.964129448E-1,-8.872345090E-1,-1.066665649E0
7.532185506E1,3.728065491E-1,-7.206843495E-1,-6.695089340E-1
7.538184826E1,5.853357315E-1,-2.483896613E-1,-4.020037651E-1
7.544184149E1,6.426525116E-1,-1.542441845E-1,1.647343636E-1
7.550183462E1,1.813135147E-1,1.588997841E-1,2.092537880E-1
7.556182775E1,-3.104915619E-1,3.596545458E-1,-3.063931465E-1
7.562182075E1,-5.740909576E-1,2.474626303E-1,-1.505455971E-1
7.568181314E1,-5.459976196E-2,1.273289323E-1,-4.000573158E-1
7.574180548E1,4.387845993E-1,3.149271309E-1,-5.649342537E-1
7.580179801E1,4.832096100E-1,1.971420646E-1,-6.085305214E-1
7.586179054E1,-5.206260681E-1,-3.991061449E-1,-2.502660751E-1
7.592178300E1,-1.282167435E-1,-2.887918949E-1,-2.892780304E-1
7.598177553E1,1.926441193E-1,-1.731735170E-1,-2.077498436E-1
7.604176806E1,1.603260040E-1,-1.109385937E-1,1.463651657E-1
7.610176039E1,-2.769699097E-1,-9.673881531E-2,1.706972122E-1
7.615180849E1,2.214593887E-1,1.260160506E-1,2.088150978E-1
7.621180109E1,1.807546616E-1,-1.696474552E-1,-2.982878685E-1
7.627179355E1,8.775615692E-2,-4.375679791E-1,-6.000256538E-1
7.633178615E1,1.406478882E-1,-1.584542990E-1,-6.217136383E-1
7.639177915E1,-1.081495285E0,-3.127455711E-2,-1.144466400E0
7.645177335E1,-1.006556511E0,1.638505459E-1,-1.067282200E0
7.651176781E1,2.410081863E0,-1.048958302E-2,3.447389603E-2
7.657176241E1,1.690263271E0,-1.127377033E0,-3.329730034E-1
7.663175688E1,-2.444720268E-1,-1.481769562E0,-7.696375847E-1
7.669175088E1,-4.945459366E-1,-1.022132993E0,-1.538831711E0
7.675174371E1,7.354488373E-1,-5.362483263E-1,-7.581691742E-1
7.681173607E1,5.746426582E-1,-3.948218226E-1,-5.297431946E-1
7.687172853E1,-1.035547256E-1,-6.316541135E-2,-5.500252247E-1
7.693172106E1,-6.483459473E-2,6.776705384E-2,-6.331086159E-2
7.699171359E1,2.144060135E-1,3.121747375E-1,1.124569416E0
7.705170612E1,2.165088654E-1,4.493188262E-1,1.325275660E0
7.711169862E1,-2.773761749E-2,5.691660643E-1,8.879177570E-1
7.717169088E1,9.306907654E-2,1.068612099E0,1.172031164E0
7.723168328E1,-1.136144638E0,9.987714887E-1,-4.426004887E-1
7.729167581E1,-1.359229088E0,3.383034468E-1,-1.124312639E0
7.735166834E1,3.652591705E-1,-9.237369895E-2,-4.635612965E-1
7.741166081E1,4.840507507E-1,-4.426221848E-1,-8.492259979E-1
7.747165360E1,2.902116776E-1,4.755773023E-2,-8.493196964E-1
7.753164750E1,2.954797745E-1,6.055521369E-1,-5.694756508E-1
7.759164183E1,-1.773958206E-1,1.065376520E0,4.491186142E-1
7.765163610E1,-1.057463646E0,7.300792933E-1,-1.793909073E-2
7.771163049E1,-9.659919739E-1,9.425237179E-1,3.845286369E-1
7.777162456E1,-1.024888992E0,9.269176126E-1,-9.330353737E-1
7.783161746E1,-3.699369431E-1,1.172252893E-1,-1.278657913E-1
7.789160972E1,5.008602142E-1,-4.059712887E-1,-4.631433487E-1
7.795160212E1,2.491550446E0,-1.364179373E0,-9.611940384E-1
7.801159461E1,9.641265869E-1,-2.218323231E0,-6.127176285E-1
7.807158721E1,-1.809940338E-1,-3.257867813E0,-1.431680918E0
7.813157967E1,1.409981251E0,-1.955392480E0,5.303220749E-1
7.819157227E1,6.808280945E-3,-3.043228626E0,-2.157902718E-1
7.825156473E1,1.792640686E-1,-6.035255194E-1,-3.092245817E0
7.831155703E1,-5.319919586E-1,8.204509616E-1,1.479184151E0
7.837154946E1,-1.105714798E0,5.319089293E-1,-1.632493973E0
7.843154206E1,-1.440552711E0,-9.378471375E-1,-8.028082848E-1
7.849153452E1,-3.561296463E-1,-2.916672230E0,3.152645111E0
7.855152709E1,1.643328667E-1,-1.460120082E0,2.390582085E0
7.861152032E1,1.297471523E0,-5.479876399E-1,1.423702717E0
7.867151348E1,-2.639260292E-1,4.860896468E-1,1.015567303E0
7.873150655E1,-8.991470337E-1,2.116867542E0,4.785633087E-2
7.879149968E1,1.983450651E0,1.579520822E0,-3.200244904E-2
7.885149277E1,2.069883585E0,1.691908956E0,1.185587883E0
7.891148524E1,3.786687374E0,1.120504856E0,-6.853199005E-2
7.897147767E1,5.631974936E-1,8.015303612E-1,-5.140813828E0
7.903147013E1,2.824841499E0,-2.708012581E0,1.482046127E0
7.909146263E1,3.425511360E0,8.015687466E-1,-2.415032387E0
7.915145516E1,9.035534859E-1,1.841909885E-1,4.226121902E-1
7.921144766E1,1.093451500E0,-9.213759899E-1,-2.085727692E0
7.927144002E1,1.075333118E0,-1.554880142E-1,-1.783363342E0
7.933143242E1,2.815594673E-1,4.000878334E-2,-1.220086098E0
7.939142485E1,-1.579923630E-1,-8.328799009E-1,-2.516997576E0
7.945141738E1,-2.942293167E0,-1.190575004E0,-2.813804865E0
7.951140984E1,-4.280219078E0,2.855480909E-1,-3.188684940E0
7.957140244E1,-1.932176113E0,-1.499686837E-1,-2.665035963E0
7.963139550E1,1.215551376E0,3.930880427E-1,-1.481305122E0
7.969138967E1,4.470235825E0,1.142701864E0,7.182102203E-1
7.975138417E1,6.664311409E0,5.352562070E-1,2.634838581E0
7.981137870E1,1.027133560E1,1.322242975E0,3.616187572E0
7.987137317E1,2.589096451E1,3.870696306E0,1.358063698E0
7.993136717E1,2.853707504E1,1.547173405E1,-1.012745094E1
7.999135993E1,9.216803551E0,-2.998290062E0,-3.417877436E0
8.005135233E1,1.257788658E0,-4.753645706E1,7.035198689E0
8.011134486E1,-1.500718212E1,-2.523258400E1,-1.561222172E1
8.017133739E1,1.863995075E0,-1.079771709E1,-1.612881470E1
8.023132989E1,8.022419930E0,5.886391640E0,-2.361294270E0
8.029132242E1,-1.638574600E0,1.538429260E-1,-4.871260643E0
8.035131485E1,-6.853296280E0,-6.504264355E0,-4.858798981E0
8.041130718E1,-6.961050510E0,-1.012631989E1,-6.251883507E-1
8.047129964E1,-4.599743843E0,-1.287215233E1,3.236090183E0
8.053129207E1,-2.424428463E0,-9.726027489E0,6.642752647E0
8.059128460E1,8.874440193E-1,-1.224282742E0,5.485398769E0
8.065127713E1,3.229125500E0,1.661611319E0,7.408405304E0
8.071126996E1,2.768545866E0,3.290345669E0,5.492899895E0
8.077126403E1,-3.201759577E0,1.019500256E0,4.706722260E0
8.083125842E1,-5.517722130E0,3.060996771E0,-1.993548870E0
8.089125269E1,-8.654474258E0,4.595627308E0,-3.142223597E0
8.095124702E1,-5.165702820E0,3.143364906E0,-1.293556213E0
8.101124098E1,-1.183049679E0,5.384826660E-2,1.566827774E0
8.107123365E1,-3.800930977E-1,-2.024943829E0,1.881590843E0
8.113122591E1,-2.916045189E-1,-8.286306858E-1,-6.144871712E-1
8.119121844E1,-1.173523426E0,-1.521524668E0,-1.284922123E0
8.125121090E1,-4.230103493E-1,-2.369629383E0,-9.880619049E-1
8.131120347E1,4.853868484E-2,-1.932519197E0,-9.735226631E-1
8.137119593E1,6.192193031E-1,-1.066332102E0,-1.622575760E0
8.143118853E1,6.403126717E-1,-4.548854828E-1,-1.733647823E0
8.149118086E1,4.656620026E-1,-1.178812981E-2,-1.634162426E0
8.155117332E1,3.603982925E-2,7.833544016E-1,-1.518714428E0
8.161116582E1,-7.765579224E-2,1.369376898E0,-1.429836273E0
8.167115835E1,4.803681374E-1,7.438118458E-1,-1.217689991E0
8.173115081E1,1.542054176E0,1.766800284E0,-8.175840378E-1
8.179114341E1,-1.272737503E0,1.348464489E0,1.185045242E-1
8.185113654E1,-1.914306641E0,1.982092381E0,-4.549868107E-1
8.191112967E1,-1.074357033E0,2.467732906E0,3.681461811E-1
8.197112284E1,-8.825187683E-1,2.732290745E0,4.841601849E-1
8.203111590E1,-7.348451614E-1,2.414511204E0,8.204722404E-2
8.209110896E1,4.038076401E-1,2.383375168E0,2.206730843E-2
8.215110136E1,-2.591123581E-1,1.793444276E0,-1.775226593E-1
8.221109386E1,-8.180942535E-1,7.678743601E-1,-4.333376884E-1
8.227108629E1,-7.718524933E-1,-1.331557035E-1,-3.909239769E-1
8.233107885E1,1.701868057E0,4.407644272E-2,-5.017671585E-1
8.239107135E1,7.357006073E-1,1.260185242E-1,-8.442953825E-1
8.245106388E1,-1.721274376E0,-8.473529816E-1,-1.234852314E0
8.251105618E1,4.215555191E-1,-3.902612925E-1,-5.544776917E-1
8.257104858E1,6.751728058E-1,-1.964706779E-1,-6.867089272E-1
8.263104104E1,3.520231247E-1,-4.339042008E-1,-5.683619976E-1
8.269103360E1,4.299173355E-1,-2.109668851E-1,-1.561801434E-1
8.275102607E1,1.943359375E-1,-2.245957255E-1,2.569437027E-2
8.281101860E1,-2.359828949E-1,-2.910283208E-1,-5.074272156E-1
8.287101179E1,1.302299500E-1,-3.849085569E-1,-5.409675837E-1
8.293100599E1,2.801141739E-1,-5.764740109E-1,-6.362924576E-1
8.299100026E1,6.065807343E-1,-5.169872046E-1,-4.506027699E-1
8.305099459E1,3.741331100E-1,-3.728405833E-1,-6.604795456E-1
8.311098892E1,5.921745300E-2,-2.574137449E-1,-8.552523851E-1
8.317098251E1,-6.713390350E-2,-1.173343360E-1,-7.595981359E-1
8.323097511E1,1.912002563E-1,2.562327981E-1,-4.702215195E-1
8.329096751E1,3.011856079E-1,3.213635683E-1,-4.641771317E-1
8.335096001E1,4.456462860E-1,4.179861248E-1,-3.815355301E-1
8.341091257E1,9.613361359E-1,2.829771340E-1,-6.305909157E-2
8.347090510E1,1.813831329E-1,-4.243343472E-1,-1.038353443E-1
8.353089753E1,-3.761720657E-1,-6.643195152E-1,-4.083783627E-1
8.359089000E1,-2.679862976E-1,-3.699308634E-1,-7.126498222E-2
8.365088236E1,-2.115201950E-1,-7.823395729E-2,4.058389664E-1
8.371087469E1,-6.848239899E-2,-2.188746929E-1,4.881968498E-1
8.377086722E1,9.853363037E-3,-3.359276056E-1,-4.093482494E-1
8.383085975E1,2.295894623E-1,-3.699003458E-1,-5.086059570E-1
8.389085222E1,3.627357483E-1,-2.655774355E-1,-6.770608425E-1
8.395084505E1,2.658634186E-1,-2.237014771E-1,-5.372822285E-1
8.401083838E1,7.575511932E-2,-8.591330051E-2,-3.900626898E-1
8.407083151E1,-4.413318634E-2,-6.181621552E-2,7.418632507E-3
8.413082458E1,3.979873657E-2,1.300609112E-2,-6.415772438E-2
8.419081777E1,3.815889359E-1,-5.553495884E-2,1.519985199E-1
8.425081054E1,3.744945526E-1,-1.441422701E-1,3.357672691E-2
8.431080287E1,2.529916763E-1,-1.387591362E-1,-1.500446796E-1
8.437079526E1,2.878990173E-1,-3.977847099E-2,-1.096189022E-1
8.443078786E1,3.070116043E-1,-6.020915508E-2,-1.134300232E-2
8.449078032E1,2.656745911E-1,1.445744038E-1,-1.330741644E-1
8.455077292E1,7.477760315E-2,1.954455376E-1,-1.389679909E-1
8.461076538E1,-1.273250580E-2,3.087209463E-1,-2.442271709E-1
8.467075778E1,1.344232559E-1,2.572909594E-1,7.378864288E-2
8.473075005E1,2.897100449E-1,2.433342934E-1,5.549550056E-2
8.479074261E1,3.622055054E-3,1.644384861E-1,3.698050976E-2
8.485073507E1,1.490364075E-1,2.536196709E-1,3.398447037E-1
8.491072764E1,-8.426952362E-2,3.425943851E-1,1.840779781E-1
8.497072020E1,1.309280396E-1,3.380234241E-1,2.520623207E-1
8.503071390E1,-2.420721054E-1,2.480661869E-1,-1.764867306E-1
8.509070813E1,-4.652500153E-1,5.017268658E-1,4.211610556E-1
8.515070246E1,-4.983196259E-1,5.800526738E-1,4.237411022E-1
8.521069676E1,5.150508881E-2,5.308741927E-1,4.381957054E-1
8.527069105E1,-3.044395447E-1,8.016027808E-1,3.116137981E-1
8.533068422E1,-3.545274734E-1,-5.419709682E-1,-7.813858986E-1
8.539067655E1,1.699647903E-1,-2.697252929E-1,-2.516360283E-1
8.545066888E1,7.768573761E-1,8.418920636E-1,5.536599159E-1
8.551066138E1,-1.300781250E0,2.614943266E0,1.361301899E0
8.557065394E1,-1.571969986E-1,1.979755759E0,7.494616508E-1
8.563064641E1,1.125837326E0,2.745258808E-2,4.028472900E-1
8.569063900E1,1.226907253E0,-1.773685098E0,-1.294097900E0
8.575063147E1,1.728180885E0,-2.879235744E0,-8.735866547E-1
8.581062383E1,3.487892151E-1,-4.584681034E0,-2.348613739E-2
8.587061613E1,1.012592316E-1,-2.645361662E0,-2.230367422E0
8.593060872E1,-2.561471939E0,-4.178485870E-1,-6.669793129E0
8.599060119E1,2.123614788E0,2.220034599E-3,3.824976921E0
8.605059378E1,-5.430641174E-1,-1.540179968E0,6.940717697E-1
8.611058682E1,-2.042814255E0,-1.230373263E0,8.728208542E-1
8.617058008E1,-3.617887497E-1,1.189596653E-1,2.782135010E-1
8.623057314E1,2.259063721E-1,1.108876944E0,1.022387028E0
8.629056634E1,-2.676004410E0,7.092728615E-1,5.639753342E-1
8.635055940E1,2.678283930E0,1.729309320E0,-1.333874226E0
8.641055200E1,1.624947667E0,1.379065275E0,-1.213077068E0
8.647054437E1,1.980276346E0,2.204510689E0,-4.247363567E0
8.653053683E1,3.241271019E0,1.501507044E0,-3.357511520E0
8.659052929E1,7.630851269E-1,1.513113022E0,-3.550487041E0
8.665052182E1,2.850559235E0,6.060743332E-1,-2.199691296E0
8.671051432E1,2.662115097E-1,1.571016312E-1,1.001416206E0
8.677050682E1,1.490193367E0,1.824398041E-1,-2.737020493E0
8.683049921E1,1.766249657E0,-1.727794290E0,-8.174157143E-1
8.689049148E1,-1.252276897E0,2.944223881E-1,-1.540887833E0
8.695048398E1,-1.578165531E0,-6.322933435E-1,-2.399662733E0
8.701047650E1,-2.107715130E0,-1.337063074E0,-3.445396662E0
8.707046904E1,-1.035182476E0,-6.741980314E-1,-1.851606846E0
8.713046180E1,-2.823433876E-1,2.714858055E-1,-1.583387852E0
8.719045586E1,9.194588661E-1,4.677343369E-2,-1.146179199E0
8.725045036E1,3.068082809E0,5.905987024E-1,2.000403404E-1
8.731044490E1,5.362656116E0,6.432574987E-1,1.440868855E0
8.737043936E1,9.630781174E0,1.462928295E0,3.879022121E0
8.743043366E1,2.753771210E1,2.945504665E0,4.921101093E0
8.749042666E1,3.054292679E1,1.363444614E1,-7.714200974E0
8.755041906E1,8.872919083E0,-4.408153057E0,-6.768132687E0
8.761041152E1,3.326433659E0,-3.667146301E1,6.220212936E0
8.767040405E1,-1.148280811E1,-2.853962326E1,-1.067304802E1
8.773039651E1,3.444984436E0,-1.073405647E1,-1.717192078E1
8.779038911E1,7.785141468E0,1.412229538E0,-4.874670506E-1
8.785038161E1,-3.813781500E0,-3.677985430E0,-4.078536510E0
8.791037394E1,-7.668234348E0,-8.352607727E0,-1.965975523E0
8.797036630E1,-3.604615688E0,-7.619918823E0,4.174242973E0
8.803035883E1,-5.299563408E-1,-3.115241289E0,3.508677959E0
8.809035130E1,-1.820392132E0,-2.770135403E-1,3.896776199E0
8.815034379E1,9.115171432E-1,6.909285784E-1,3.710205078E0
8.821033639E1,4.134907722E-1,3.519473553E0,2.499177933E0
8.827033016E1,-1.061057568E0,3.038861275E0,2.033218384E0
8.833032449E1,-1.893893480E0,9.492635727E-3,-1.792240143E-1
8.839031875E1,-6.114966393E0,-7.837036252E-1,2.658300400E-1
8.845031308E1,-3.420384884E0,2.630365610E0,-7.803359032E-1
8.851030734E1,-2.774141788E0,2.458973169E0,2.188049793E0
8.857030044E1,-2.332300186E0,4.286330938E-1,9.092459679E-1
8.863029277E1,-1.810626507E0,-9.479572773E-1,-6.983313560E-1
8.869028527E1,-1.140294075E-1,-7.761186957E-1,-1.400813580E0
8.875027774E1,-1.817331314E-1,-4.231262207E-1,-1.449120045E0
8.881027026E1,9.371175766E-1,2.447962761E-1,-2.499620438E0
8.887026276E1,9.181623459E-1,3.620962501E-1,-2.573396206E0
8.893025529E1,3.445949554E-1,-7.202278376E-1,-1.947182894E0
8.899024766E1,5.092496872E-1,4.639824927E-1,1.218583584E0
8.905024009E1,1.656532288E-3,1.493268013E0,1.003775597E0
8.911023245E1,-3.374661446E0,7.584026456E-1,1.139242172E0
8.917022498E1,-6.054010391E-1,2.887584686E0,1.825413704E-1
8.923021745E1,-1.944767952E0,2.016515970E0,5.799722672E-2
8.929021004E1,-1.361468315E0,1.872921824E0,-9.314455986E-1
8.935020304E1,-4.235725403E-1,1.638722181E0,-2.008949041E0
8.941019634E1,-5.527386665E-1,3.397606909E-1,-2.047239780E0
8.947018940E1,-1.311759949E-1,-3.890371025E-1,-2.077619076E0
8.953018253E1,-3.179416656E-1,-9.735690951E-1,-1.295857906E0
8.959017560E1,-1.985889435E0,-1.119639158E0,-1.229715347E0
8.965016823E1,-1.874076843E0,-1.821261406E0,3.871569633E-1
8.971016049E1,9.292788506E-1,-2.331936121E0,-4.756178856E-1
8.977015312E1,2.632577419E0,-1.293975830E0,-3.687901497E-1
8.983014565E1,2.388605595E0,-6.740380526E-1,-5.737400055E-2
8.989013822E1,2.936601639E-2,-1.237732649E0,7.221078873E-2
8.995013068E1,-4.030928612E-1,-8.459917903E-1,-6.625046730E-1
9.001012324E1,-4.413414001E-1,-3.453980386E-2,-9.237632751E-1
9.007011548E1,-8.816814423E-2,7.476412654E-1,-1.225688457E0
9.013010784E1,-5.948867798E-1,7.993666530E-1,-1.023547173E0
9.019010034E1,-1.094807148E0,5.071204901E-1,-5.837278366E-1
9.025009280E1,-3.810467720E-1,-6.893785298E-2,-5.328779221E-1
9.031008530E1,7.418284416E-1,2.267638147E-1,-1.333317757E-1
9.037007816E1,1.421620369E0,-6.184425354E-1,1.436158180E0
9.043007223E1,7.570371628E-1,-1.036240160E-2,1.403719902E0
9.049006669E1,5.785255432E-1,1.027822614E0,-3.371238708E-4
9.055006129E1,8.554935455E-2,1.111866236E0,-1.560583115E-1
9.061005576E1,1.341323853E-1,1.431072474E0,1.987557411E-1
9.067004996E1,9.117274284E-1,1.019260168E0,-5.719566345E-2
9.073004057E1,1.325845718E-1,8.503887057E-1,-7.980313301E-1
9.079003303E1,-7.387533188E-1,-1.943052709E-1,-1.364707947E-2
9.085002550E1,4.378461838E-1,-1.206307173E0,-5.072026253E-1
9.091001809E1,1.783977032E0,-7.927344441E-1,-6.597366333E-1
9.097001056E1,6.853961945E-2,-1.518821478E0,-1.018625736E0
9.103000309E1,-1.233819008E0,-1.704354644E0,-4.179339409E-1
9.108999545E1,-5.926132202E-2,-2.882450819E-1,-1.175069809E-2
9.114998785E1,-1.510047913E-2,-2.222895622E-1,6.969485283E-1
9.120998031E1,5.812759399E-1,-4.873057604E-1,-1.767635345E-3
9.126997288E1,1.127110481E0,-3.686906099E-1,-4.134688377E-1
9.132996541E1,8.559303284E-1,-8.568720818E-1,8.357076645E-1
9.138995797E1,2.377872467E-1,-1.231491089E0,4.861860275E-1
9.144995060E1,3.896059990E-1,-8.698315620E-1,6.109242439E-1
9.150994427E1,3.277535439E-1,-9.876785278E-1,9.909071922E-1
9.156993856E1,2.691502571E-1,-5.570459366E-1,1.130081177E0
9.162993289E1,-9.310064316E-1,-1.714092493E-1,5.529570580E-1
9.168992722E1,-1.122312069E0,1.506710052E-2,-2.932171822E-1
9.174992132E1,-9.846014977E-1,5.231199265E-1,-8.419322968E-1
9.180991432E1,-1.806300640E0,1.278380901E-1,-1.739525318E0
9.186990665E1,-7.229757309E-1,1.264973760E0,-3.110163689E0
9.192989915E1,2.032957077E-1,1.790855885E0,-2.843238115E0
9.198989161E1,-6.943702698E-2,-6.107734442E-1,-2.020702362E0
9.204988421E1,1.808489323E0,2.623414993E-2,-6.616258621E-1
9.210987667E1,6.102571487E-1,3.223189116E-1,-1.466440201E0
9.216986920E1,-3.788862228E-1,-1.617787957E0,3.270953655E0
9.222986150E1,-2.043819427E-2,8.267520666E-1,-7.571206093E-1
9.228985390E1,1.847010612E0,-9.948074818E-2,-6.606664658E-1
9.234984639E1,-1.241050243E0,-1.936970234E0,5.600314140E-1
9.240983902E1,-4.275212288E-1,-1.129403353E0,1.956966877E0
9.246983149E1,1.272817612E0,9.374537468E-1,-4.894609451E-1
9.252982408E1,-2.460432053E-2,1.180418968E0,8.576154709E-2
9.258981718E1,9.136905670E-1,8.088722229E-1,8.930649757E-1
9.264981035E1,1.757965088E-1,6.152400970E-1,-4.354219437E-1
9.270980338E1,5.831484795E-1,-1.888008118E-1,1.231619358E0
9.276979651E1,2.089948654E-1,6.766843796E-2,-1.408849239E0
9.282978957E1,1.386524439E0,-7.977795601E-1,-7.042164803E-1
9.288978207E1,-1.452085018E0,-1.107398987E0,1.641673088E0
9.294977447E1,-5.352568626E-2,-1.105028629E0,-5.013742447E-1
9.300976700E1,1.762623787E-1,-1.603638887E0,-1.240044594E0
9.306975953E1,8.346699476E-1,-1.878848791E0,1.158379555E0
9.312975206E1,-8.673989177E-1,-2.473460674E0,2.066269875E0
9.318974459E1,2.796747684E-1,-2.028239489E0,-7.816963196E-1
9.324973692E1,9.376647472E-1,-2.496644497E0,8.915958405E-1
9.330972932E1,3.832840919E-1,-3.882169724E-1,2.602758408E-1
9.336972178E1,1.246575356E0,-9.202322960E-1,-1.314779758E0
9.342971438E1,1.042176723E0,-3.247339725E-1,-2.044972897E0
9.348970684E1,1.677560329E0,7.503607273E-1,-2.204457760E0
9.354969944E1,8.446130753E-1,5.918598175E-1,-1.879623413E0
9.360969237E1,8.697242737E-1,7.097640038E-1,-1.661748409E0
9.366968640E1,-5.560159683E-2,1.806212664E-1,-2.256557465E0
9.372968067E1,-1.398643494E0,-4.163262844E-1,-2.733354568E0
9.378967506E1,-1.639166355E0,-5.970610976E-1,-2.480112553E0
9.384966933E1,3.452563286E-1,1.365131140E-1,-2.289960384E0
9.390966319E1,3.469939232E-1,6.049013138E-2,-1.939960003E0
9.396965586E1,1.752651215E0,4.942010641E-1,-3.718800545E-1
9.402964819E1,3.405252934E0,7.640566230E-1,1.680360317E0
9.408964059E1,6.502537727E0,1.171306491E0,3.627244473E0
9.414963318E1,1.582641602E1,1.535924911E0,6.471923828E0
9.420962564E1,2.782343292E1,1.180908394E1,7.168169975E0
9.426961821E1,2.480526924E1,5.845242023E0,-1.049426651E1
9.432961067E1,-2.623152256E0,-1.444305229E1,2.376800728E1
9.438960307E1,-1.824423981E1,-6.320363235E1,8.939452171E-1
9.444959533E1,-1.325993252E1,-1.684960938E1,-1.975107574E1
9.450958790E1,1.508961487E1,1.447818756E0,-5.932868004E0
9.456958036E1,9.720177650E-1,-1.368108749E0,-3.029911518E0
9.462957289E1,-5.882421017E0,-4.330311775E0,-4.086564064E0
9.468956556E1,-5.830711365E0,-6.525966644E0,2.140102386E-1
9.474955889E1,-1.256257534E0,-6.598981380E0,4.502651215E0
9.480955199E1,4.950571060E-1,-7.336013794E0,5.270348072E0
9.486954515E1,1.857629776E0,-3.870208979E0,5.644552231E0
9.492953828E1,6.660671234E-1,-1.084716246E-1,1.710434437E0
9.498953128E1,1.049719810E0,2.982722044E0,1.757245064E0
9.504952361E1,1.738622189E0,8.837081194E-1,3.282199383E0
9.510951597E1,9.134697914E-1,1.561733842E0,2.828795433E0
9.516950847E1,5.664787292E-1,1.794287205E0,-7.108974457E-2
9.522950100E1,-2.427080631E0,1.158090830E-1,3.607191086E0
9.528949353E1,-2.832626820E0,4.137384892E-1,8.261585236E-2
9.534948599E1,-3.647304296E0,2.214690447E-1,2.553157806E-1
9.540947849E1,-2.071415663E0,5.914065838E-1,-5.976428986E-1
9.546947076E1,-6.484460831E-1,5.421975851E-1,-6.566905975E-2
9.552946322E1,-1.555741787E0,-5.159986019E-1,-5.268936157E-1
9.558945568E1,-4.497399330E-1,7.258188725E-2,-9.458708763E-1
9.564944828E1,2.743253708E-1,3.569924831E-2,-1.836038113E0
9.570944074E1,-4.366874695E-1,-1.950546741E0,-7.516093254E-1
9.576943418E1,-1.424039364E0,-1.092230439E0,-1.804704666E-1
9.582942844E1,-1.709845543E0,-2.141500711E-1,-1.336547852E0
9.588942297E1,-1.723656654E0,2.278821230E0,-1.351089001E0
9.594941744E1,-2.315414429E0,2.323929071E0,-1.672091007E0
9.600941204E1,-1.483399868E0,1.430784941E0,-1.074559689E0
9.606940567E1,5.067539215E-1,1.409978390E0,-3.138685226E-2
9.612939824E1,1.267966270E0,1.470739961E0,6.815490723E-1
9.618939070E1,8.224892616E-1,3.892019391E-1,1.088337898E0
9.624938323E1,-7.103657722E-1,-1.236331463E-2,-3.746128082E-2
9.630937569E1,-4.331703186E-1,-2.924437523E-1,-7.138729095E-2
9.636936826E1,1.272187233E-1,-5.565958023E-1,-2.689599991E-1
9.642936082E1,3.702507019E-1,-5.962952375E-1,-9.286074638E-1
9.648935322E1,1.020293236E-1,-5.415782928E-1,-1.020160198E0
9.654934555E1,2.375645638E-1,-4.302936792E-1,-8.326029778E-1
9.660933801E1,-1.897373199E-1,-7.144033909E-1,9.437465668E-2
9.666933051E1,1.290814877E0,-1.702345133E0,3.848824501E-1
9.672932304E1,8.200445175E-1,-2.043452024E0,1.908111572E-2
9.678931557E1,-2.010650635E-1,-1.312915683E0,-9.611420631E-1
9.684930864E1,-1.557222366E0,-1.104684353E0,-1.618069172E0
9.690930280E1,-1.905036926E0,-8.216779232E-1,-1.570465088E0
9.696929706E1,-2.298216820E-1,-2.027050257E-1,-1.722409725E0
9.702929143E1,5.854988098E-2,1.943881512E-1,-1.796133518E0
9.708928569E1,2.561764717E-1,3.214446306E-1,-1.647581577E0
9.714927949E1,-1.198015213E-1,4.395648241E-1,-9.542617798E-1
9.720927199E1,4.952096939E-2,7.580326796E-1,-4.188842773E-1
9.726926438E1,4.024076462E-2,1.094447970E0,2.501344681E-1
9.732925682E1,1.785278320E-1,1.338579416E0,2.125358582E-1
9.738924938E1,-2.877926826E-1,1.391721249E0,-6.536960602E-3
9.744924188E1,-8.660583496E-1,1.317849517E0,-4.470772743E-1
9.750923447E1,-2.195686340E0,2.919833660E-1,-2.998747826E-1
9.756922697E1,-8.327450752E-1,-1.982617378E-2,-3.815727234E-1
9.762921930E1,7.493381500E-1,2.478468418E-1,4.491710663E-1
9.768921163E1,3.683261871E-1,-7.455084324E-1,7.230772972E-1
9.774920413E1,8.323006630E-1,-1.222436309E0,7.668766975E-1
9.780919660E1,1.671024323E0,-7.987601757E-1,6.062607765E-1
9.786918906E1,1.228063583E0,-7.026753426E-1,8.540711403E-1
9.792918176E1,1.732834339E0,-5.607366562E-1,2.816820145E-1
9.798917506E1,1.102394581E0,-4.910603762E-1,6.513118744E-2
9.804912933E1,2.792897224E-1,-7.160615921E-1,-4.366388321E-1
9.810912240E1,1.612234116E-1,-3.708602190E-1,1.249470711E-1
9.816911556E1,1.866159439E-1,-2.794187069E-1,-2.857809067E-1
9.822910853E1,-6.102514267E-1,-1.511454582E-2,-6.963219643E-1
9.828910086E1,-5.650191307E-1,6.175597906E-1,-1.159236908E0
9.834909332E1,-1.590843201E-1,1.258538961E0,-2.225060463E-1
9.840908592E1,1.933460236E-1,9.718236327E-1,4.681034088E-1
9.846907838E1,1.543812752E-1,6.291924715E-1,7.317872047E-1
9.852907091E1,-2.808780670E-1,-3.119425774E-1,5.521979332E-1
9.858906338E1,-1.584687233E-1,-3.708702326E-1,-9.192419052E-2
9.864905577E1,-5.424084663E-1,2.967045903E-1,1.711783409E-1
9.870904804E1,-1.476044655E-1,1.030374646E0,-8.580970764E-2
9.876904063E1,-8.472557068E-1,1.277600169E0,8.041381836E-1
9.882903310E1,-9.378895760E-1,1.083953738E0,6.942133904E-1
9.888902563E1,-4.591703415E-2,1.396811604E0,-7.629923820E-1
9.894901812E1,2.576362133E0,6.109814048E-1,-1.326607704E0
9.900901169E1,-9.078030586E-1,-1.004962444E0,-2.123276234E0
9.906900589E1,-2.745421886E0,-2.543105364E0,-3.205204248E0
9.912900028E1,5.628437996E-1,-1.829699159E0,-9.778561592E-1
9.918899461E1,7.325077057E-1,-3.933489919E-1,-2.000110388E0
9.924898891E1,3.032506943E0,-2.689596176E0,9.877450943E0
9.930898221E1,-2.944946289E0,8.892549872E-1,-3.499155998E0
9.936897464E1,9.497976303E-1,4.131399393E-1,2.583220005E0
9.942896700E1,1.220884323E0,3.679548502E-1,2.406335354E0
9.948895957E1,-2.186241150E-1,1.261935711E0,1.186676979E0
9.954895210E1,1.730619907E0,1.321311951E0,1.455439091E0
9.960894463E1,1.336524487E0,7.944619656E-1,1.886125565E0
9.966893712E1,1.971254349E-1,1.260673761E0,-1.050743103E0
9.972892956E1,-9.609637260E-1,2.819533348E-1,-6.685290337E-1
9.978892185E1,3.954906464E-1,-2.967972755E-1,-1.275840282E0
9.984891422E1,-9.120998383E-1,-6.668033600E-1,2.274842262E-1
9.990890675E1,1.619813442E-1,-1.077663422E0,8.211030960E-1
9.996889921E1,1.980123520E-1,-1.412681580E0,1.568834305E0
1.000288917E2,-3.498787880E-1,-1.331470013E0,7.185783386E-1
1.000888847E2,5.714216232E-1,-2.582422972E0,1.868925095E0
1.001488780E2,5.267491937E-1,-2.288486242E0,1.003815651E0
1.002088711E2,8.735747337E-1,-2.029859066E0,-5.177750587E-1
1.002688643E2,1.458734751E0,-1.583815813E0,-1.320631504E0
1.003288574E2,1.279514313E0,-2.813395739E0,2.108570576E0
1.003888500E2,-3.583016396E-1,-9.264266491E-1,-3.557408810E0
1.004488423E2,1.281980515E0,-3.264567137E0,-1.378341198E0
1.005088348E2,-7.043914795E-1,5.431382656E-1,-1.405189037E0
1.005688273E2,1.521635532E0,1.749374866E-1,-8.388876915E-1
1.006288199E2,1.306780815E0,8.564949036E-1,-5.823936462E-1
1.006888123E2,1.108642101E0,2.841055393E-1,-1.848762989E0
1.007488049E2,-2.267265320E-2,3.378367424E-1,-1.895529270E0
1.008087972E2,-1.077556610E-2,-1.335805655E-1,-2.842415571E0
1.008687896E2,-8.272805214E-1,1.778030396E-1,-2.344872236E0
1.009287821E2,-1.584833622E0,3.412187099E-2,-2.810820818E0
1.009887747E2,-2.011972904E0,-1.673310995E-1,-2.636846066E0
1.010487672E2,-4.834461212E-1,5.484745502E-1,-2.360011816E0
1.011087599E2,2.043950081E0,3.118978143E-1,-7.249703407E-1
1.011687537E2,4.476565361E0,5.707848668E-1,2.274036407E-1
1.012287482E2,8.389648438E0,1.187064171E0,1.869127750E0
1.012887427E2,1.577397442E1,1.877587557E0,3.829364777E0
1.013487372E2,3.371345139E1,1.214683723E1,-4.509193420E0
1.014087316E2,2.404617500E1,6.483385086E0,-1.255078697E1
1.014687247E2,-6.565562248E0,-1.175249481E1,2.526649666E1
1.015287172E2,-1.642920685E1,-5.719278336E1,1.127545357E0
1.015887097E2,-7.036366940E0,-2.011891937E1,-1.668856049E1
1.016487022E2,4.967318058E0,-7.129803181E0,-4.285704613E0
1.017086946E2,-2.440414429E-1,-4.261279106E-1,-3.268795490E0
1.017686872E2,-4.614104271E0,-1.016535759E0,-3.878321171E0
1.018286796E2,-3.867238045E0,-5.188042641E0,1.030863523E0
1.018886720E2,-3.923714161E0,-1.405763388E0,5.031457901E0
1.019486643E2,-1.994493008E0,-2.794504166E-2,4.902716637E0
1.020086569E2,-2.423963547E-1,2.548920393E0,4.716042519E0
1.020686494E2,7.334394455E-1,2.885264397E0,3.262683392E0
1.021286420E2,-1.668463230E0,1.679345131E0,2.026890755E0
1.021886345E2,-2.894955158E0,6.624469757E-1,-1.322797775E0
1.022486281E2,-6.665827751E0,1.332710981E0,-2.914907932E0
1.023086223E2,-3.829914570E0,3.664592505E0,-8.234114647E-1
1.023686167E2,-4.644866467E0,2.517812729E0,2.193117619E0
1.024286110E2,-4.906555653E0,-3.053502440E-1,2.194991112E-1
1.024886053E2,-2.653338432E0,-1.292670488E0,-2.236680984E-1
1.025485985E2,-2.719078064E-1,-1.870213509E0,-7.543568611E-1
1.026085908E2,3.717403412E-1,-1.578963757E0,-1.571540356E0
1.026685832E2,-1.304197311E-2,-1.448745131E0,-1.417999744E0
1.027285757E2,-7.621512413E-1,-1.922017336E0,-1.328860760E0
1.027885682E2,6.547808647E-1,-7.485969663E-1,-1.059992313E0
1.028485607E2,1.395197868E0,-1.410157681E-1,-1.229980946E0
1.029085534E2,3.549437523E-1,-3.761463761E-1,-8.305277824E-1
1.029685458E2,-8.091545105E-2,4.542967081E-1,-1.018793583E0
1.030285381E2,-2.449803352E-1,6.502456665E-1,-1.655120850E0
1.030885306E2,-9.654054642E-1,1.233805656E0,-1.612547159E0
1.031485232E2,-1.236783028E0,1.607936621E0,-1.338551760E0
1.032085155E2,-1.058144569E0,1.164477825E0,-1.274166346E0
1.032685081E2,-1.507338524E0,4.944893122E-1,-3.770971298E-2
1.033285011E2,1.357011795E-1,1.139231563E0,-1.955752373E-1
1.033884943E2,1.973838806E-1,1.709168792E0,6.208081245E-1
1.034484873E2,-5.995750427E-1,2.097513676E0,1.312199116E0
1.035084805E2,-1.153756142E0,1.304068685E0,9.474110603E-1
1.035684736E2,-7.010116577E-1,2.126397610E0,1.479769230E0
1.036284662E2,1.596261024E0,4.068265438E0,2.018442154E0
1.036884585E2,2.151715279E0,2.909268856E0,1.645359993E0
1.037484510E2,-3.661111832E0,-1.430863380E0,-1.232188225E0
1.038084436E2,-6.079036713E0,-2.593886852E0,-2.145304441E0
1.038684362E2,1.430959702E-1,-1.925038576E0,-1.556683064E0
1.039284287E2,3.463047743E0,-1.172821522E0,-4.099445343E-1
1.039884212E2,-7.197008133E-1,-1.494171619E0,-3.451797485E0
1.040484135E2,4.314718246E-1,-1.330759287E0,-1.117386818E0
1.041084059E2,3.032536507E-1,-1.462445974E0,-1.807711601E0
1.041683983E2,9.258651733E-1,-2.434402466E0,-5.936541557E-1
1.042283909E2,1.621222496E-1,-3.930235863E0,-3.008723259E-1
1.042883834E2,-5.476394653E0,-4.216782570E0,-1.305635262E1
1.043483762E2,1.588697433E0,-6.713471413E0,6.050101280E0
1.044083701E2,4.954962730E-1,-1.688416958E0,3.683630466E0
1.044683644E2,1.364233017E0,-1.329476237E0,-9.868116379E-1
1.045283587E2,2.725234270E0,2.058088928E-1,4.521732330E0
1.045883530E2,-1.219099522E0,5.834509730E-1,1.085224152E0
1.046483472E2,2.567549467E0,3.750931025E-1,-3.441734314E-1
1.047083400E2,1.320499063E0,3.822212219E-1,5.178012848E-1
1.047683323E2,1.748307824E0,9.369397163E-1,-2.360822678E0
1.048283247E2,3.697765827E0,1.146117449E0,-1.964004993E0
1.048883172E2,1.287343025E0,7.311551571E-1,-3.340567112E0
1.049483097E2,4.209518433E-1,3.574609756E-1,-2.805938244E0
1.050083023E2,4.847950935E-1,-6.136775017E-2,-3.526245356E0
1.050682947E2,1.061752319E0,-1.803683400E0,-4.069497585E0
1.051282872E2,-1.111708641E0,3.809115887E-1,-3.085506678E0
1.051882795E2,-2.353524685E0,-7.905780077E-1,-2.564243317E0
1.052483212E2,-1.553714275E0,-1.600062847E-2,-2.009241581E0
1.053083137E2,-1.556825638E-1,-6.869137287E-3,-2.205460787E0
1.053683063E2,1.406732082E0,1.741715670E-1,-1.988886356E0
1.054282988E2,2.410126209E0,2.605493665E-1,-1.115046501E0
1.054882921E2,4.745930672E0,6.561381817E-1,1.631297112E0
1.055482852E2,1.202449131E1,1.111300826E0,3.995666981E0
1.056082783E2,3.101968002E1,5.833076477E0,2.873121262E0
1.056682714E2,2.925346947E1,1.341911411E1,-8.231437683E0
1.057282645E2,5.755352974E0,-9.744997025E0,6.676818132E-1
1.057882569E2,2.430879593E0,-5.882129288E1,3.340055227E0
1.058482493E2,-1.642472649E1,-2.477068138E1,-2.068357277E1
1.059082418E2,-3.014850616E-2,-1.238049316E1,-7.954297543E0
1.059682343E2,4.545450211E0,-1.074272633E0,-5.593537807E0
1.060282268E2,-1.372241020E0,-1.158659458E0,-8.578696251E-1
1.060882193E2,-3.764889717E0,-2.891735554E0,1.266141653E0
1.061482118E2,-3.623663902E0,-2.925729275E0,1.393062115E0
1.062082042E2,-1.463805199E0,1.192314625E-1,1.502439499E0
1.062681966E2,-1.287622929E0,2.878500462E0,5.302606106E0
1.063281891E2,-3.565244675E-1,6.658661366E-1,3.259456635E0
1.063881816E2,-3.864852190E0,-8.939143419E-1,-5.692787170E-1
1.064481742E2,-9.138561249E0,9.206124544E-1,-1.004672050E-1
1.065081673E2,-5.584570885E0,2.636137009E0,-1.847958565E-1
1.065681614E2,-1.447046280E0,3.485816956E0,2.323216915E0
1.066281560E2,-2.523527145E-1,4.199731827E0,2.033469677E0
1.066881505E2,-1.825897217E0,2.084936619E0,-1.070060730E0
1.067481450E2,-1.658588886E0,6.129167676E-1,-1.299002171E0
1.068081389E2,-2.833631992E0,-7.541264296E-1,-1.884482861E0
1.068681317E2,-1.088005066E0,-3.853682578E-1,-2.790358305E0
1.069281241E2,-3.576116562E-1,-7.835379243E-1,-2.771723509E0
1.069881167E2,4.499459267E-1,4.859817028E-2,-2.651559830E0
1.070481092E2,9.292755127E-1,9.842796326E-1,-1.106247902E0
1.071081017E2,-5.804891586E-1,1.014189839E0,-1.861276627E-1
1.071680941E2,9.348926544E-1,2.083398104E0,5.165200233E-1
1.072280866E2,1.653685570E0,2.476760864E0,5.510704517E-1
1.072880788E2,-7.764062881E-1,2.097844124E0,5.065243244E-1
1.073480714E2,-2.404293060E0,6.314105988E-1,-2.367043495E-1
1.074080639E2,4.071903229E-1,-7.334725857E-1,-5.543837547E-1
1.074680565E2,2.312986374E0,1.569405794E-1,1.901826859E-1
1.075280489E2,1.892089844E-3,5.092382431E-2,-1.398856878E0
1.075880418E2,-1.545899391E0,-7.751234174E-1,-1.233513117E0
1.076480357E2,3.045778275E-1,-2.989134789E-1,-1.145231009E0
1.077080300E2,2.906394005E-1,-1.879203320E-1,-8.412833214E-1
1.077680243E2,3.081583977E-1,-4.812971354E-1,3.523335457E-1
1.078280186E2,6.344985962E-2,-9.175539017E-4,-2.877488136E-1
1.078880126E2,-6.434440613E-2,6.394708157E-2,-8.614308834E-1
1.079480053E2,-1.672735214E-1,-1.815555096E-1,-3.770322800E-1
1.080079977E2,-3.453931808E-1,-3.116512895E-1,-3.890089989E-1
1.080679902E2,-1.620836258E-1,-2.824540734E-1,-4.411587715E-1
1.081279828E2,1.882581711E-1,-1.790278554E-1,-4.347090721E-1
1.081879752E2,-6.755447388E-2,-4.350445271E-1,-5.091609955E-1
1.082479678E2,1.272878647E-1,-5.359306931E-1,-2.992205620E-1
1.083079602E2,3.964033127E-1,-5.785511732E-1,-2.332301140E-1
1.083679526E2,3.474998474E-1,-5.584306121E-1,-2.645397186E-1
1.084279448E2,2.685670853E-1,-3.025453687E-1,-1.105246544E-1
1.084879374E2,2.351245880E-1,1.582247019E-2,-1.038446426E-1
1.085479300E2,1.496295929E-1,1.792557240E-1,-4.667744637E-1
1.086079225E2,-2.548313141E-2,1.835868955E-1,-2.379121780E-1
1.086679151E2,-3.510570526E-2,1.527080685E-1,-4.355354309E-1
1.087279084E2,-1.846752167E-1,-3.110140562E-3,-6.712293625E-1
1.087879015E2,-1.328849792E-1,1.209314615E-1,-7.002396584E-1
1.088478945E2,-5.277538300E-2,-5.590561032E-2,-7.845888138E-1
1.089078877E2,1.400804520E-1,1.247191876E-1,-4.929132462E-1
1.089678807E2,-6.501674652E-2,4.771440029E-1,4.421067238E-1
1.090278731E2,-1.287660599E-1,2.776342630E-1,-5.721092224E-3
1.090878655E2,-3.039617538E-1,5.073812604E-1,2.871866226E-1
1.091478581E2,3.201513290E-1,9.428449869E-1,3.420825005E-1
1.092078505E2,8.394541740E-1,1.355611086E0,1.073787212E0
1.092678431E2,2.976493835E-1,2.158355236E0,2.098217010E-1
1.093278355E2,-1.742737770E0,7.308752537E-1,-7.253172398E-1
1.093878279E2,-5.835332870E-1,8.600389957E-2,-5.454268456E-1
1.094478203E2,-6.895046234E-1,-1.221094370E0,-5.569663048E-1
1.095078128E2,-1.583786011E-1,-7.728012800E-1,-8.789401054E-1
1.095678053E2,9.293556213E-3,-6.273393631E-1,-9.023809433E-1
1.096277979E2,-6.772060394E-1,-2.317401171E-1,-9.246125221E-1
1.096877904E2,5.408930779E-1,7.905418873E-1,-4.009366035E-1
1.097477837E2,1.122862816E0,4.547250271E-1,-3.819026947E-1
1.098077778E2,1.496089458E0,-1.812659502E-1,5.503158569E-1
1.098677721E2,6.595511436E-1,-1.454988837E0,9.638500214E-2
1.099277664E2,1.327207565E0,-3.415260315E-1,6.521544456E-1
1.099877608E2,3.997073174E-1,-1.666205406E0,-4.931006432E-1
1.100477543E2,-2.199581623E0,-3.799841881E0,-1.334702015E0
1.101077469E2,-4.090366364E-1,-3.285963774E0,-1.511206627E-1
1.101677391E2,3.624186516E-1,-2.907457352E0,1.000437260E0
1.102277317E2,-7.299475670E-1,-9.489258528E-1,-1.426581860E0
1.102877242E2,-2.544280052E0,-1.464523554E0,-6.095208168E0
1.103477168E2,5.677604675E-2,-1.430172443E0,-3.176751137E-1
1.104077092E2,3.614675522E0,-3.167930841E0,6.496500969E0
1.104677017E2,-2.128152847E0,-1.622662663E0,-1.649677277E0
1.105276940E2,-7.932038307E-1,-1.958809495E0,2.443629265E0
1.105876865E2,-5.141372681E-1,-5.797168016E-1,1.170165539E0
1.106476790E2,-1.750205517E0,9.403347969E-2,2.356436729E0
1.107076715E2,-9.736227989E-1,3.017147064E0,-4.644203186E-2
1.107676640E2,2.189475298E0,2.427504301E0,-1.505265236E0
1.108276568E2,2.413997889E0,3.817559004E0,-3.922958374E0
1.108876500E2,2.382280827E0,2.805599213E0,-3.702287674E0
1.109476432E2,7.099545479E0,1.377937317E0,2.871513367E-2
1.110076363E2,-1.662374735E0,2.402147770E0,-5.379898548E0
1.110676294E2,5.627780914E0,5.196447372E-1,-2.936687469E-1
1.111276223E2,2.718359947E0,2.024588585E-1,-2.318272591E0
1.111876146E2,3.351516724E-1,-3.329761028E-1,-2.236476421E0
1.112476070E2,4.328236580E-1,-8.011357784E-1,-1.463223457E0
1.113075995E2,-1.813970566E0,5.622620583E-1,-1.942404747E0
1.113675921E2,-2.040855408E0,-2.956366539E-2,-2.660668373E0
1.114275846E2,6.102466583E-2,-3.635808229E-1,-3.130167961E0
1.114875772E2,6.974992752E-1,-6.860932112E-1,-1.591958046E0
1.115475695E2,1.563438416E0,-3.372412920E-1,-8.207640648E-1
1.116075619E2,2.623256207E0,-1.979941130E-1,1.233261585E0
1.116675543E2,4.473386288E0,7.732956409E-1,2.209600925E0
1.117275469E2,7.771724224E0,1.018578768E0,5.724191189E0
1.117875393E2,1.616478729E1,2.565968752E0,9.675096512E0
1.118475319E2,3.287932587E1,1.529732323E1,-1.824954391E0
1.119075256E2,1.915079117E1,5.303764343E-1,-5.271313190E0
1.119675201E2,-1.587283611E0,-1.978249741E1,-7.659761429E0
1.120275145E2,-1.328447056E1,-3.781900024E1,-6.298765659E0
1.120875091E2,-3.516269445E0,-1.971570587E1,-1.059223175E1
1.121475036E2,7.686257839E0,2.580021858E0,-2.440458298E0
1.122074968E2,-8.025670052E-1,-1.142605305E0,-9.990457296E-1
1.122674893E2,-2.745260239E0,-1.531336308E0,-5.522477627E-1
1.123274819E2,-7.468895912E-1,-2.181154013E0,3.730015039E0
1.123874743E2,-3.806743622E-1,-2.317726374E0,4.754776478E0
1.124474669E2,-1.444915771E0,-6.286127567E-1,3.263125181E0
1.125074595E2,-2.660346031E-1,1.034855843E0,3.423992157E0
1.125674100E2,-9.306478500E-1,6.496019363E-1,2.305031776E0
1.126274023E2,-1.189116716E0,9.544370174E-1,3.868927956E-1
1.126873946E2,-3.628306866E0,-4.317505360E-1,9.765386581E-1
1.127473871E2,-2.018476248E0,1.078420401E0,-8.691596985E-1
1.128073796E2,-2.338981628E0,1.292171955E0,1.225112915E0
1.128673722E2,-3.745395422E0,4.469115734E-1,1.748941422E0
1.129273646E2,-3.304840565E0,8.760837317E-1,-1.154282093E0
1.129873581E2,-3.193957806E0,5.274994373E-1,1.124987602E0
1.130473522E2,-2.508831978E0,-6.983339787E-2,3.443484306E-1
1.131073465E2,-1.853496552E0,1.616416454E0,2.720017433E-1
1.131673408E2,-3.146958351E-1,1.305534244E0,-5.925550461E-1
1.132273352E2,-9.101104736E-2,2.097253561E0,-1.375855923E0
1.132873285E2,-3.035464287E-1,1.763823748E0,-1.405419827E0
1.133473211E2,-1.286910534E0,9.953700304E-1,-1.046279907E0
1.134073134E2,-6.576399803E-1,3.532798290E-1,-1.240195751E0
1.134673059E2,-3.443908691E-1,-1.881687641E-1,-1.426229477E0
1.135272984E2,1.366629601E-1,-5.013359785E-1,-1.775193214E0
1.135872910E2,-6.008615494E-1,-3.386760950E-1,-1.459900856E0
1.136472835E2,-7.169923782E-1,-2.828375101E-1,-1.212972641E0
1.137072760E2,-2.256011963E-1,7.641148567E-2,-1.119191885E0
1.137672683E2,-2.354669571E-1,1.249408722E-1,-8.151259422E-1
1.138272608E2,-5.283327103E-1,-1.547638178E-1,-5.343317986E-1
1.138872532E2,-1.075325012E-1,-2.769439220E-1,-5.529375076E-1
1.139472457E2,2.681226730E-1,-2.801387906E-1,-4.829397202E-1
1.140072382E2,4.810204506E-1,-3.390508890E-1,-8.027935028E-1
1.140672311E2,1.683177948E-1,-4.672193825E-1,-3.864898682E-1
1.141272243E2,-7.790088654E-2,-4.198148251E-1,-5.054831505E-1
1.141872174E2,1.968564987E-1,-2.491208911E-2,1.426315308E-1
1.142472105E2,2.894077301E-1,4.028548598E-1,-5.968523026E-2
1.143072036E2,-3.339643478E-1,2.593397498E-1,-1.914987564E-1
1.143671964E2,-8.602132797E-1,6.507207155E-1,-8.276844025E-2
1.144271887E2,-9.377479553E-1,4.508893788E-1,2.452659607E-2
1.144871813E2,-3.274288177E-1,6.176400185E-1,6.568336487E-2
1.145471738E2,2.433137894E-1,7.530193925E-1,-4.717683792E-1
1.146071664E2,4.262318611E-1,8.568770885E-1,-2.400383949E-1
1.146671588E2,-4.444055557E-1,4.509020448E-1,7.753372192E-2
1.147271514E2,-4.658374786E-1,1.066208839E0,-3.426260948E-1
1.147871436E2,1.042452335E0,1.579819918E0,2.064371109E-1
1.148471360E2,7.924785614E-1,8.968056440E-1,-4.119324684E-1
1.149071285E2,-8.351593018E-1,6.108582020E-2,-1.979823351E0
1.149671211E2,6.982488632E-1,-9.082278013E-1,-1.207800865E0
1.150271136E2,-3.149376392E0,-4.132359505E0,-2.412068605E0
1.150871063E2,-1.150383949E-1,-3.894064188E0,3.422484398E-1
1.151471000E2,9.886007309E-1,-3.425436020E0,-6.136860847E-1
1.152070944E2,-3.669643402E-2,-1.862797976E0,1.098114014E0
1.152670886E2,-1.040201187E-1,-1.713072658E0,-2.787769794E0
1.153270830E2,-2.866459846E0,-5.979525089E0,-1.089904785E1
1.153870772E2,-4.595994949E-1,1.066772342E0,-2.113294601E-1
1.154470702E2,1.363391876E0,-4.039962292E0,2.986749172E0
1.155070625E2,-2.058685303E0,-1.827599764E0,1.038477421E0
1.155670549E2,-1.817944050E0,1.953971386E-2,1.716819286E0
1.156270474E2,2.902698517E-1,9.871785641E-1,-4.295692444E-1
1.156870399E2,1.078167677E0,3.069069147E0,-8.626661301E-1
1.157470324E2,2.343221188E0,3.379024506E0,-2.829990864E0
1.158070249E2,3.614736557E0,2.776566029E0,-3.394171715E0
1.158670174E2,1.881926179E0,3.172121048E0,-5.748759270E0
1.159270098E2,2.965966225E0,2.432095766E0,-5.983556747E0
1.159870022E2,3.919822693E0,2.559406519E0,-1.786768913E0
1.160469947E2,-6.273202896E-1,1.449593306E0,-3.824275494E0
1.161069872E2,7.110915184E-1,4.124081135E-1,-1.574554443E0
1.161669798E2,-2.406231880E0,4.139969349E-1,-3.124175072E0
1.162269729E2,-1.000662804E0,-3.702065945E-1,-3.268318415E0
1.162869660E2,9.361553192E-1,-5.611187220E-1,-2.530576706E0
1.163469591E2,1.309445858E0,-5.199495554E-1,-1.599717140E-1
1.164069522E2,3.498351097E0,9.632169008E-1,9.694881439E-1
1.164669453E2,7.196626186E0,5.431517363E-1,4.325097561E0
1.165269378E2,1.540308380E1,1.851902485E0,6.808056355E0
1.165869302E2,3.419998169E1,1.178028297E1,-1.005064011E0
1.166469227E2,2.046598434E1,3.595648050E0,-7.681963921E0
1.167069153E2,-2.532616138E0,-1.985549927E1,1.264841270E1
1.167669078E2,-1.603717995E1,-4.069262695E1,-6.931098461E0
1.168269003E2,-5.395187378E0,-1.809966278E1,-1.042758179E1
1.168868928E2,5.043863297E0,-3.325131416E0,-4.813002586E0
1.169468852E2,-1.420958519E0,-4.633963108E0,2.266064882E-1
1.170068775E2,-1.672602654E0,-1.522101641E0,-8.781616688E-1
1.170668700E2,-1.146522999E0,-2.441426516E0,2.272818089E0
1.171268626E2,5.148000717E-1,8.951213360E-1,3.525835037E0
1.171868551E2,6.238193512E-1,1.379949093E0,3.385118961E0
1.172468479E2,-9.801540375E-1,2.394610167E0,2.675037384E0
1.173068420E2,-2.347584963E0,3.663635254E-1,-1.017665863E-1
1.173668364E2,-6.454610825E0,-1.426008701E0,-1.133987427E0
1.174268307E2,-5.363207817E0,6.983795166E-1,-1.512838364E0
1.174868251E2,-3.496100903E0,1.151375771E0,1.967096329E-2
1.175468189E2,-3.530607700E0,1.899359465E0,1.803167343E0
1.176068117E2,-1.378518105E0,7.065556645E-1,2.516269684E-2
1.176668040E2,-9.743819237E-1,6.400857568E-1,5.395889282E-3
1.177267964E2,-2.020096779E0,-2.040337622E-1,-1.277081966E0
1.177867889E2,-1.819283485E0,8.437810540E-1,-8.310594559E-1
1.178467815E2,-7.589325905E-1,2.101955175E0,-8.398823738E-1
1.179067739E2,-9.774451256E-1,2.688022137E0,-1.119828224E0
1.179667664E2,-7.368755341E-2,7.271848321E-1,-1.395601273E0
1.180267588E2,2.297365665E0,1.132274032E0,-1.161836624E0
1.180867512E2,9.802732468E-1,1.123414516E0,7.470798492E-2
1.181467436E2,-1.698590279E0,3.700202703E-2,-8.314943314E-2
1.182067362E2,-8.386087418E-1,-3.914160430E-1,-3.766069412E-1
1.182667286E2,-2.436923981E-2,3.731629252E-2,-1.047136307E0
1.183267212E2,-4.539775848E-1,-3.448516726E-1,-1.043568373E0
1.183867144E2,-5.451354980E-1,-8.575162888E-1,-9.680671692E-1
1.184467077E2,3.726234436E-1,-4.218999743E-1,-8.410916328E-1
1.185067009E2,7.593135834E-1,1.244327724E-1,-8.166983128E-1
1.185666940E2,-4.172134399E-2,-1.479502320E-1,-7.066228390E-1
1.186266870E2,-3.813686371E-1,1.536146402E-1,-6.828172207E-1
1.186866795E2,-1.448554993E-1,7.531785965E-2,-5.147864819E-1
1.187466718E2,-7.197952271E-2,-1.926180720E-2,-4.445526600E-1
1.188066642E2,1.943769455E-1,1.074922085E-2,-2.950329781E-1
1.188666568E2,3.541622162E-1,7.725071907E-2,-3.928935528E-1
1.189266493E2,3.916072845E-1,-2.558466792E-2,-2.006652355E-1
1.189866418E2,1.412591934E-1,-3.452894986E-1,-2.494657040E-1
1.190466342E2,2.647142410E-1,-4.844345152E-1,-1.871967316E-2
1.191066266E2,6.011238098E-1,-6.150567532E-1,-1.990087032E-1
1.191666190E2,1.083793640E-1,-4.531183243E-1,-5.252666473E-1
1.192266115E2,-1.796169281E-1,-4.633592963E-1,-2.911691666E-1
1.192866040E2,-2.086887360E-1,-1.999269426E-1,-8.648965359E-1
1.193465966E2,-1.668806076E-1,-3.028205037E-1,-4.809362888E-1
1.194065898E2,3.429889679E-1,2.711447477E-1,-8.320331573E-2
1.194665842E2,1.591298580E0,1.052756548E0,-5.296864510E-1
1.195265786E2,2.517067909E0,8.649895191E-1,3.555412292E-1
1.195865732E2,-1.974832535E0,-9.033212662E-1,-8.373854160E-1
1.196465677E2,-3.927773476E0,1.085715055E0,-6.757977009E-1
1.197065615E2,-9.455423355E-1,1.374332905E0,2.019695282E0
1.197665541E2,-8.784475327E-1,1.779892683E0,6.944642067E-1
1.198265511E2,-4.736309052E-1,5.958135128E-1,4.596018791E-2
1.198865435E2,-1.131259918E0,-2.120077610E-3,-1.832226276E0
1.199465361E2,-1.151152611E0,-1.058057427E0,-1.197319508E0
1.200065286E2,1.093966961E0,-1.829591751E0,-1.771979094E0
1.200665212E2,2.656177044E0,-3.417659760E0,-3.892421722E-3
1.201265136E2,-1.662378311E-1,-3.149606228E0,-1.142970562E0
1.201865060E2,9.477782249E-1,-1.088350773E0,3.595423698E-1
1.202464984E2,-2.946756363E0,-2.979856014E0,-5.334017754E0
1.203064910E2,1.073521137E0,-2.267421722E0,2.120863438E0
1.203664835E2,-1.591457844E0,-4.717308998E0,2.219743729E0
1.204264760E2,-1.093578339E0,-2.776325345E-1,3.389874935E0
1.204864690E2,-9.415969849E-1,1.005357385E0,1.727515697E0
1.205464631E2,1.691118240E0,2.195405006E0,-3.026371002E-1
1.206064573E2,3.967456341E0,2.111150503E0,-1.228306770E0
1.206664516E2,3.315022945E0,2.027102470E0,-3.181254864E0
1.207264460E2,3.281112909E0,-3.420910835E-1,-4.054644585E0
1.207864398E2,2.578939438E0,1.407051086E-1,-2.886805058E0
1.208464325E2,3.134430885E0,-8.780997992E-1,-1.265559196E0
1.209064247E2,-1.285283566E0,8.793044090E-2,-4.037654877E0
1.209664172E2,-1.258921146E0,5.707097054E-2,-1.885010242E0
1.210264097E2,-1.019165993E0,-8.539390564E-2,-2.545956612E0
1.210864023E2,-1.518706322E0,-1.511876583E-1,-3.639997959E0
1.211463947E2,2.530841827E-1,-1.227500439E-1,-2.998005390E0
1.212063873E2,1.325688839E0,-1.541606188E-1,-1.656381607E0
1.212663796E2,2.499140263E0,8.345857859E-1,-1.756439209E-1
1.213263720E2,4.601232052E0,5.744251013E-1,1.716987133E0
1.213863644E2,8.227894783E0,3.105411530E-1,5.786902905E0
1.214463571E2,1.886517525E1,3.583238363E0,6.531532764E0
1.215063496E2,2.755984688E1,1.227827454E1,-4.847711086E0
1.215663423E2,9.990117073E0,-1.871904612E0,-1.080847931E1
