"Time (s)","Acceleration x (m/s^2)","Acceleration y (m/s^2)","Acceleration z (m/s^2)"
5.199154900E-2,3.208328247E0,5.801327705E0,7.096630573E0
1.039847180E-1,3.399870157E0,5.612180233E0,6.653689861E0
1.559780770E-1,3.430995703E0,5.449369431E0,6.782980442E0
2.079719980E-1,2.332023621E0,5.463735104E0,5.976109982E0
2.599657860E-1,2.717501879E0,4.723904133E0,3.936187744E0
3.119591110E-1,5.097411156E0,4.094210148E0,3.964919090E0
3.639524700E-1,6.191594601E0,4.738269806E0,3.881119490E0
4.159458630E-1,8.485309601E0,5.102199554E0,4.240260601E0
4.679390890E-1,7.635342598E0,6.246663094E0,4.089421272E0
5.199324490E-1,7.917866707E0,5.123748302E0,4.477293968E0
5.719258080E-1,8.363202095E0,3.842811108E0,4.640104771E0
6.239195960E-1,8.147717476E0,1.845985889E0,4.113364220E0
6.759135850E-1,7.391126156E0,5.339232683E-1,4.671230316E0
7.279067780E-1,9.790189743E0,-4.309694767E-1,6.691998005E0
7.799001040E-1,7.199584484E0,-9.194015265E-1,6.502850533E0
8.318937950E-1,1.020679379E1,-2.660039425E0,7.984906673E0
8.838899500E-1,7.793364525E0,-2.253012657E0,5.913858891E0
9.358841770E-1,7.154093266E0,-2.707924843E0,6.397502422E0
9.878775700E-1,5.061496735E0,-2.334417820E0,4.778972626E0
1.039870762E0,4.771789551E0,-3.519583941E0,6.426233768E0
1.091864155E0,7.075081825E0,-5.473312378E0,7.285778046E0
1.143857581E0,7.201978683E0,-6.941002846E0,6.126949310E0
1.195851007E0,4.860377789E0,-7.355212212E0,6.012023926E0
1.247844696E0,6.337645531E0,-7.470137596E0,6.308914185E0
1.299838583E0,3.330436230E0,-6.069486618E0,5.150084972E0
1.351832009E0,3.244242430E0,-6.562707424E0,5.602602959E0
1.403825201E0,1.596981287E0,-6.826077461E0,4.146883965E0
1.455818528E0,2.533142805E0,-7.350423813E0,4.448562622E0
1.507811854E0,1.180377483E0,-7.410280704E0,3.292127848E0
1.559805113E0,1.525153041E0,-7.637736797E0,3.342407703E0
1.611798639E0,1.606558442E0,-3.835628271E0,4.829252243E0
1.663792460E0,1.654443860E0,-6.110189438E0,3.021574736E0
1.715786115E0,1.242628574E0,-8.806142807E0,2.631308079E0
1.767779475E0,3.033546209E0,-8.535589218E0,4.261809349E0
1.819772768E0,2.815667152E0,-7.355212212E0,5.166844845E0
1.871766325E0,2.705530643E0,-7.170853138E0,5.162056446E0
1.923764146E0,2.810878515E0,-8.684034348E0,4.065478802E0
1.975761933E0,5.092622280E0,-7.829278469E0,5.791750908E0
2.027756294E0,6.136526108E0,-8.949799538E0,4.776578426E0
2.079749654E0,8.650514603E0,-1.064255142E1,6.215537548E0
2.131743013E0,1.019482231E1,-1.173673534E1,4.106181145E0
2.183736206E0,9.756669998E0,-1.336723614E1,9.560338974E0
2.235729765E0,6.845231533E0,-1.593150425E1,1.066888809E1
2.287723125E0,1.409749031E1,-1.179659176E1,1.027383327E1
2.339716383E0,1.404721069E1,-9.799766541E0,9.962577820E0
2.391710534E0,5.676825523E0,-7.498868465E0,8.518829346E0
2.443703960E0,3.586623669E0,-6.079063892E0,7.927443981E0
2.495697253E0,5.300924301E0,-3.826051235E0,6.241874218E0
2.547690546E0,5.468523502E0,-2.470891714E0,5.734288216E0
2.599683972E0,3.955342054E0,-1.826831698E0,6.019207001E0
2.651677198E0,4.216318130E0,-2.430188894E0,5.346415520E0
2.703670591E0,4.103786945E0,-2.545114040E0,4.257020473E0
2.755664051E0,2.583422422E0,-2.882706881E0,5.092622280E0
2.807658303E0,1.757397652E0,-2.569056988E0,4.142095566E0
2.859651528E0,2.511594296E0,-2.600182533E0,4.137306690E0
2.911645021E0,3.086220264E0,-2.358360767E0,4.620950222E0
2.963638579E0,7.541965842E-1,-1.089395046E0,6.768614769E0
3.015634235E0,-1.752609134E0,1.455719113E0,7.910684109E0
3.067628929E0,-3.026363373E0,-2.633702159E-1,1.055396366E1
3.119611468E0,3.921822071E0,-9.526819229E0,9.153312683E0
3.171604761E0,1.066409969E1,-1.063776302E1,8.561926842E0
3.223598120E0,1.326188850E1,-8.418270111E0,1.232812119E1
3.275591379E0,1.187320900E1,-7.790970325E0,1.053480911E1
3.327584738E0,7.960963726E0,-5.047131062E0,8.154899597E0
3.379578064E0,2.559479713E0,-2.274561167E0,5.746259689E0
3.431572083E0,5.099805593E-1,2.801301479E-1,2.782147408E0
3.483565773E0,2.858764172E0,2.370332032E-1,-2.250618219E0
3.535559032E0,3.802108288E0,1.822043180E0,-2.406246185E0
3.587552425E0,1.314456820E0,-5.382329941E0,1.019961119E0
3.639545851E0,3.701548815E0,-3.828445435E0,2.437371731E0
3.691542671E0,1.275909042E1,-1.642472458E1,1.299372959E1
3.743540924E0,4.043930054E0,-1.228262997E1,6.373559475E0
3.795535785E0,1.067607117E1,-1.143266201E1,9.622590065E0
3.847529111E0,6.526793003E0,-3.787742853E0,7.721536160E0
3.899522437E0,6.342433929E0,-3.624932051E0,4.630527496E0
3.951515796E0,7.017619610E0,-6.672843933E0,4.886714935E0
4.003509122E0,7.958569527E0,-3.981678963E0,3.589017868E0
4.055502481E0,9.510059357E0,-4.130124092E0,4.221106529E0
4.107495874E0,1.165532970E1,-2.205127001E0,3.809291124E0
4.159489992E0,1.054917526E1,-5.004034638E-1,3.210722446E0
4.211483383E0,8.035185814E0,-1.000806928E0,3.210722446E0
4.263476776E0,4.783761024E0,-9.170072675E-1,3.876330853E0
4.315470202E0,-4.812492430E-1,-1.551490068E0,1.994430900E0
4.367463428E0,-9.320911407E0,2.688770533E0,-3.778165579E0
4.419456821E0,1.968093872E0,-9.284997940E0,1.946545362E0
4.471450147E0,1.476788712E1,-1.338639069E1,1.230896664E1
4.523443637E0,-1.459071064E1,-1.757158279E1,-6.009629726E0
4.575437856E0,5.672037125E0,-1.613262367E1,4.060689926E0
4.627431181E0,5.877944469E0,-9.732727051E0,6.337645531E0
4.679424474E0,5.727105141E0,-1.183011150E1,3.706337452E0
4.731417801E0,6.993676662E0,-9.553156853E0,4.905869007E0
4.783413357E0,8.978530884E0,-4.960937500E0,4.810098171E0
4.835408482E0,6.507638931E0,5.985686928E-2,6.110189438E0
4.887401775E0,5.820482254E0,2.415823221E0,5.377541065E0
4.939395134E0,5.834847927E0,-1.024749637E0,4.970514297E0
4.991388560E0,4.216318130E0,-2.394274771E-1,3.153259993E0
5.043381786E0,6.098217964E0,-2.992843390E-1,3.984073162E0
5.095375212E0,3.277762175E0,-2.214704275E0,-1.759791970E0
5.147368637E0,4.357580245E-1,-6.890722752E0,5.008822918E0
5.199362754E0,1.094662476E1,-1.573996258E1,1.122675419E1
5.251356247E0,4.508419514E0,-2.321249390E1,8.619389534E-1
5.303349439E0,4.661653042E0,-8.547560692E0,2.906649590E0
5.355342798E0,4.597007751E0,-6.936213970E0,2.889889717E0
5.407336191E0,4.881926537E0,-8.312922478E0,2.624125242E0
5.459329483E0,8.775016785E0,-1.042227840E1,3.038334846E0
5.511322842E0,9.852440834E0,-8.296162605E0,3.325647593E0
5.563316532E0,8.327287674E0,-4.254626274E0,3.835628271E0
5.615310484E0,6.155680656E0,-4.034353256E0,3.354378939E0
5.667303910E0,6.771008968E0,-6.177229285E-1,5.830059052E0
5.719297203E0,-1.295302629E0,-2.255406857E0,1.398256540E0
5.771290529E0,-2.513988495E0,5.763019562E0,-2.315263748E0
5.823286450E0,-1.755003452E0,-5.226701736E0,1.872322917E0
5.875285237E0,9.445414543E0,-1.114056110E1,8.696005821E0
5.927280629E0,1.223474383E0,-1.386763954E1,1.860351562E0
5.979273921E0,1.314456844E1,-1.119084072E1,6.134131908E0
6.031267213E0,7.848433018E0,-1.131773663E1,4.656864643E0
6.083260571E0,8.135746002E0,-1.148294163E1,4.065478802E0
6.135253930E0,5.700768471E0,-9.771035194E0,3.055094719E0
6.187247256E0,7.381549358E0,-9.761458397E0,2.837215662E0
6.239240548E0,8.013637543E0,-8.102226257E0,2.006402254E0
6.291234436E0,7.910684109E0,-5.684008598E0,1.719089270E0
6.343228424E0,4.676018715E0,-6.907482624E0,9.146129489E-1
6.395221583E0,1.675992370E0,-5.262616158E0,-7.661679387E-2
6.447214909E0,-1.029298782E1,4.254626274E0,-7.518023014E0
6.499208335E0,-4.266597748E0,-7.733507752E-1,-2.394274771E-1
6.551201528E0,8.176448822E0,-2.654053688E1,9.629773140E0
6.603194988E0,3.196356773E0,-2.393795967E1,-6.129343510E-1
6.655188314E0,9.222746849E0,-1.141350842E1,5.990475655E0
6.707182300E0,4.632921696E0,-9.253871918E0,6.464541912E0
6.759176089E0,6.095823765E0,-9.684841156E0,6.842837334E0
6.811169282E0,6.876357079E0,-6.433416367E0,6.718335152E0
6.863162641E0,3.960130453E0,-2.451737404E0,6.375953674E0
6.915157397E0,2.602576733E0,2.322446555E-1,6.340039730E0
6.967153256E0,2.566662550E0,-1.884294271E0,3.031152010E0
7.019146615E0,1.515576005E0,-2.779752970E0,-1.963305354E0
7.071139941E0,7.647313595E0,-4.213923454E0,9.409499764E-1
7.123133300E0,-4.029564381E0,-2.145270348E0,4.788549542E-1
7.175126692E0,8.051946640E0,-1.815339088E1,6.560312748E0
7.227119916E0,7.537177086E0,-1.236164093E1,3.687183142E0
7.279113342E0,1.019242764E1,-1.188996887E1,3.198751211E0
7.331107627E0,9.115004539E0,-1.121478367E1,7.201978683E0
7.383101018E0,6.641718388E0,-7.515628815E0,3.905062199E0
7.435094344E0,1.012778282E1,-8.810931206E0,5.593026161E0
7.487087637E0,1.062339687E1,-9.924268723E0,3.079037428E0
7.539080929E0,1.161223316E1,-6.852414608E0,1.917814136E0
7.591074455E0,8.023215294E0,3.806896806E-1,3.792531252E0
7.643067681E0,3.371139050E0,2.351177931E0,3.270579338E0
7.695060974E0,1.060663700E0,-2.174001455E0,4.031958580E0
7.747055093E0,-5.485283375E0,-4.070267200E0,-5.674431324E-1
7.799048650E0,-1.041030693E1,-6.390319347E0,3.304099321E0
7.851042109E0,2.250618339E-1,-7.999272346E0,5.492466450E0
7.903035301E0,1.908236980E0,-1.258909702E1,4.225894928E0
7.955030422E0,3.691971779E0,-2.177353477E1,5.923435688E0
8.007029211E0,6.337645531E0,-1.050368404E1,8.300951004E0
8.059025837E0,7.063110828E0,-9.869200706E0,9.318517685E0
8.111019665E0,5.408666611E0,-1.106873226E1,6.428627968E0
8.163012991E0,8.238699913E0,-8.775016785E0,6.794951916E0
8.215006250E0,6.715940952E0,-6.991282463E0,6.265817165E0
8.266999743E0,3.919427872E0,-6.208354473E0,4.608979225E0
8.318993136E0,1.778946161E0,-6.560312748E0,1.867534399E0
8.370986527E0,1.750214934E0,-4.819674969E0,2.837215662E0
8.422980713E0,1.065691757E1,-1.644866824E0,9.670475960E0
8.474974005E0,-7.855615616E0,7.632947922E0,-3.354378939E0
8.526967498E0,5.985686928E-2,-4.877137661E0,2.437371731E0
8.578961124E0,1.538560963E1,-2.214943695E1,1.549814129E1
8.630954016E0,5.138113976E0,-1.879505730E1,-5.578660369E-1
8.682947342E0,9.158101082E0,-1.033129597E1,6.035966873E0
8.734940701E0,6.059909344E0,-7.577879906E0,5.315289974E0
8.786934357E0,6.450176239E0,-8.365595818E0,4.640104771E0
8.838928344E0,7.740690231E0,-8.909096718E0,5.990475655E0
8.890921670E0,5.585843086E0,-7.134938717E0,6.009629726E0
8.942915130E0,3.340013266E0,-2.968900681E0,4.525179386E0
8.994908488E0,3.181991339E0,8.954587579E-1,5.219519138E0
9.046903344E0,7.925049782E0,1.424593568E0,7.122967720E0
9.096930081E0,1.028341007E1,3.591412306E-1,-6.919454336E-1
9.148926339E0,2.777358890E-1,1.170800328E0,-1.656838179E0
9.200919866E0,4.549122229E-2,-2.662433624E0,2.399063349E0
9.252913225E0,8.224333763E0,-8.808537483E0,8.339259148E0
9.304906484E0,6.474119186E0,-1.410467243E1,8.672063828E0
9.356899877E0,6.296942711E0,-1.688921356E1,6.536370516E-1
9.408893203E0,7.549148560E0,-1.002482891E1,8.909096718E0
9.460886562E0,5.913858891E0,-9.352037430E0,7.151699066E0
9.512880681E0,6.454965115E0,-9.196409225E0,5.401484013E0
9.564874171E0,7.300143719E0,-7.462954521E0,5.164450645E0
9.616867497E0,7.561120033E0,-5.542746067E0,3.093403101E0
9.668860923E0,4.841223717E0,-1.405439258E0,5.011217117E0
9.720854215E0,6.179623127E0,-3.208328247E0,3.045517445E0
9.772847541E0,6.749460697E0,-5.142902374E0,-1.465296149E0
9.824840867E0,1.984853864E0,-2.985660791E0,-1.355159521E0
9.876834193E0,2.207521439E0,-2.633702382E-2,2.731867552E0
9.928828314E0,4.956148624E0,-2.832427025E0,1.764580488E0
9.980821837E0,4.043930054E0,-1.481816673E1,8.700794220E0
1.003281523E1,1.296260357E1,-1.646063995E1,7.154093266E0
1.008480856E1,1.766974807E0,-1.042946148E1,7.113390446E0
1.013680265E1,9.818921089E0,-9.088666916E0,8.844450951E0
1.018879894E1,5.576265812E0,-9.399923325E0,5.798933506E0
1.024079253E1,9.761458397E0,-9.210775375E0,6.984099388E0
1.029278586E1,8.511647224E0,-6.383136749E0,5.075862408E0
1.034477932E1,8.028003693E0,-2.391880512E0,3.996044636E0
1.039677261E1,5.142902374E0,-2.284138203E0,1.573038578E0
1.044876590E1,3.318464994E0,-2.774964571E0,1.460507661E-1
1.050075936E1,-2.035133600E0,-3.895485163E0,-1.237840056E0
1.055275341E1,-4.640104771E0,-1.101366401E0,7.278595567E-1
1.060474694E1,-1.527547359E0,-1.467690468E0,6.225114316E-2
1.065674026E1,7.154093266E0,-1.560348892E1,1.079578495E1
1.070873362E1,4.913052082E0,-1.957319641E1,3.213116884E0
1.076072695E1,1.140871906E1,-1.242628670E1,5.930618763E0
1.081272031E1,6.615381241E0,-9.893143654E0,6.174834728E0
1.086471363E1,5.425426483E0,-7.927443981E0,4.726298332E0
1.091670689E1,8.111803055E0,-9.110215187E0,4.843617916E0
1.096870108E1,7.333663940E0,-8.502069473E0,3.656057596E0
1.102069467E1,6.905088425E0,-8.107014656E0,3.016786337E0
1.107268790E1,3.881119490E0,-3.586623669E0,1.568249941E0
1.112468132E1,1.118126392E0,-7.278595567E-1,1.154040456E0
1.117667531E1,5.602602959E-1,1.256994247E0,1.762186289E0
1.122867393E1,8.384750366E0,-4.798126698E0,-2.736656189E0
1.128067109E1,-2.327235222E0,2.071047783E0,2.094990492E0
1.133266471E1,1.589559078E1,-1.562982559E1,1.330259037E1
1.138465797E1,3.950553417E0,-2.084216309E1,-1.886688590E0
1.143665137E1,7.089447498E0,-1.129858303E1,2.937775135E0
1.148864462E1,6.268211365E0,-8.420664787E0,3.502824068E0
1.154063802E1,4.312088966E0,-8.648120880E0,3.067065954E0
1.159263138E1,5.964138508E0,-8.791776657E0,4.089421272E0
1.164462480E1,5.715134144E0,-6.972128391E0,3.778165579E0
1.169661892E1,3.680000305E0,-6.531581879E0,1.582615614E0
1.174861235E1,2.030344963E0,-4.958543301E0,2.786935806E0
1.180060567E1,9.301757812E0,-8.511647224E0,1.680780983E1
1.185259900E1,-1.733454943E0,3.193962574E0,7.901107073E-1
1.190459229E1,7.901107073E-1,-9.577099234E-2,3.725491524E0
1.195658565E1,9.749486923E0,-1.235685253E1,8.724737167E0
1.200857898E1,3.677606106E0,-1.488041782E1,-4.345608711E0
1.206057290E1,7.860404015E0,-1.243586349E1,3.332830429E0
1.211256678E1,4.601796150E0,-1.143026829E1,4.118152618E0
1.216455994E1,4.683201313E0,-1.090352726E1,3.395081758E0
1.221655347E1,3.419024467E0,-9.170072556E0,2.166818619E0
1.226854713E1,5.839636326E0,-7.960963726E0,2.327235222E0
1.232054328E1,5.959350109E0,-5.861184597E0,-5.746259540E-2
1.237253741E1,4.711932659E0,-2.382303476E0,8.978530765E-1
1.242453070E1,3.900273561E0,-2.662433624E0,3.565075159E0
1.247652406E1,9.122186899E-1,-1.728666425E0,8.564320564E0
1.252851742E1,3.737462997E0,-5.411061287E0,4.738269806E0
1.258051071E1,5.360781193E0,-6.450176239E0,4.716721535E0
1.263250401E1,7.810124397E0,-1.987008667E1,7.707170486E0
1.268449770E1,4.956148863E-1,-1.656119919E1,-2.786935806E0
1.273649168E1,5.073468208E0,-1.095620155E1,4.529967785E0
1.278848500E1,3.682394743E0,-1.240234375E1,8.475732803E-1
1.284047840E1,2.739050388E0,-1.220122433E1,1.498816013E0
1.289247172E1,4.980091572E0,-9.850046158E0,3.433390141E0
1.294446522E1,4.939388752E0,-6.059909344E0,3.122134447E0
1.299645848E1,4.005621910E0,-3.565075159E0,2.964112282E0
1.304845174E1,2.583422422E0,-1.034326673E0,1.953728199E0
1.310044546E1,-2.791724443E0,2.035133541E-1,1.517970204E0
1.315243938E1,-2.030344963E0,1.699935079E0,-2.655250788E0
1.320443277E1,1.206235695E1,-1.268965626E1,1.271838760E1
1.325642603E1,4.178009510E0,-1.684372330E1,2.207521439E0
1.330841962E1,8.631361008E0,-1.329780197E1,2.899466753E0
1.336041777E1,1.611346960E0,-1.355638409E1,9.648927450E-1
1.341241543E1,4.838829517E0,-1.313259697E1,1.525153041E0
1.346441052E1,5.636122704E0,-1.165293503E1,7.685621977E-1
1.351640378E1,7.290566921E0,-5.506832123E0,2.355966330E0
1.356839704E1,4.996851444E0,-1.347976685E0,1.946545362E0
1.362039044E1,3.950553417E0,1.635289669E0,5.181210518E0
1.367238373E1,3.083826065E0,3.136499882E0,4.039141655E0
1.372437706E1,-3.624932051E0,1.125309169E-1,2.075836182E0
1.377637111E1,2.145270348E0,-1.328343678E1,-5.085439682E0
1.382836470E1,-1.508393168E0,-4.089421272E0,2.236252785E0
1.388035812E1,1.210305882E1,-2.241041183E1,9.658504486E0
1.393235128E1,-3.687183142E0,-2.095708656E1,-2.205127001E0
1.398434487E1,7.575485706E0,-1.149491310E1,4.733481407E0
1.403633803E1,4.932206154E0,-1.082930470E1,4.685595989E0
1.408833149E1,5.913858891E0,-8.849239349E0,4.297723293E0
1.414032522E1,8.080677032E0,-7.350423813E0,4.656864643E0
1.419231920E1,8.889942169E0,-5.470917702E0,4.831646442E0
1.424431239E1,6.390319347E0,-2.367937803E0,5.281770229E0
1.429630609E1,3.433390141E0,-2.059076309E0,3.409447432E0
1.434829921E1,1.103760719E0,-1.625712633E0,6.823683381E-1
1.440029263E1,5.985686928E-2,3.495641351E-1,-1.407833576E0
1.445229072E1,-4.582642078E0,-1.359229851E1,8.521224022E0
1.450428831E1,3.397475958E0,-1.145181656E1,4.302511692E0
1.455628264E1,1.223474407E1,-1.550532341E1,1.376947403E1
1.460827596E1,1.362342358E0,-1.912307358E1,-3.754222870E0
1.466026909E1,7.158881664E0,-1.070959091E1,6.253845692E0
1.471226245E1,7.948992252E0,-8.861210823E0,5.463735104E0
1.476425584E1,6.579467297E0,-8.669669151E0,3.799714088E0
1.481624916E1,7.642525196E0,-8.255459785E0,3.682394743E0
1.486824269E1,6.905088425E0,-8.061523438E0,2.830032825E0
1.492023687E1,6.337645531E0,-6.438204765E0,3.797319889E0
1.497223010E1,2.942563772E0,-3.105374336E0,1.400650740E0
1.502422339E1,8.284190893E-1,5.794144869E-1,5.190787792E0
1.507621688E1,-3.081431627E0,8.834874153E0,-4.692778587E0
1.512821021E1,-5.523591995E0,-1.022355318E0,-1.340793967E-1
1.518020350E1,1.637684059E1,-1.774875832E1,1.561785412E1
1.523219689E1,-4.173221111E0,-1.844788742E1,-3.878725290E0
1.528419085E1,1.153322220E1,-1.292669010E1,5.420638084E0
1.533618447E1,7.199584484E0,-9.100638390E0,5.619362831E0
1.538817786E1,4.877137661E0,-9.229928970E0,4.546727657E0
1.544017112E1,8.214756966E0,-8.360807419E0,5.391906738E0
1.549216468E1,7.613793850E0,-7.170853138E0,5.303318501E0
1.554416070E1,5.844424725E0,-1.968093872E0,5.626545906E0
1.559615520E1,1.841197371E0,1.848380208E0,4.132518291E0
1.564814855E1,8.308133483E-1,-2.360754967E0,2.995237827E0
1.570014188E1,6.579467297E0,-4.031958580E0,1.795706153E0
1.575213537E1,-3.227482557E0,-5.219519138E-1,-1.563461423E0
1.580412860E1,6.296942830E-1,-3.689577579E0,1.630501151E0
1.585612186E1,1.236882401E1,-1.087240219E1,9.864412308E0
1.590811588E1,8.669669151E0,-1.412622166E1,7.288172722E0
1.596010967E1,8.643332481E0,-1.377426338E1,3.854782343E0
1.601210296E1,9.251478195E0,-8.537983894E0,6.083852291E0
1.606409626E1,6.701575279E0,-8.207573891E0,4.956148624E0
1.611608958E1,8.585869789E0,-8.025609016E0,5.104593754E0
1.616808281E1,8.526012421E0,-6.536370277E0,4.764606953E0
1.622007630E1,6.526793003E0,-4.769395351E0,4.783761024E0
1.627206956E1,5.997658253E0,-3.253819466E0,2.585816860E0
1.632406374E1,2.059076309E0,-4.211529255E0,6.680026650E-1
1.637605730E1,1.086761379E1,-1.347258472E1,3.890696526E0
1.642805053E1,-5.825270653E0,1.280218697E1,-5.482889175E0
1.648004389E1,3.775771379E0,-1.223235035E1,1.101366425E1
1.653185842E1,1.188757420E1,-1.921644974E1,1.177025509E1
1.658385544E1,5.159662247E0,-1.498816013E1,6.976916790E0
1.663585366E1,4.589824677E0,-1.151167297E1,8.832479477E0
1.668784832E1,4.249837875E0,-9.414288521E0,7.211555958E0
1.673984164E1,5.473312378E0,-7.867587090E0,6.596227169E0
1.679183497E1,5.581054688E0,-6.893116951E0,5.789356709E0
1.684382829E1,4.122941017E0,-5.399089813E0,4.185192585E0
1.689582169E1,4.999245644E0,-5.664854050E0,2.432583094E0
1.694781501E1,4.051113129E0,-1.084606528E0,1.233051538E0
1.699980837E1,2.868341208E0,5.291347504E-1,-2.411034822E0
1.705180259E1,2.245829821E0,2.873129845E-1,5.904281616E0
1.710379592E1,-5.818088055E-1,-6.991282701E-1,8.164477348E-1
1.715578941E1,2.145270348E0,-8.133351326E0,6.071880817E0
1.720778270E1,1.020679379E1,-1.372637749E1,1.070240879E1
1.725977596E1,1.343188190E1,-1.645585060E1,7.427040577E0
1.731176942E1,8.099831581E0,-1.036002731E1,7.491685867E0
1.736376268E1,5.341627121E0,-8.755863190E0,5.971321583E0
1.741575620E1,5.597814560E0,-9.433443069E0,5.930618763E0
1.746775039E1,7.762238979E0,-9.115004539E0,6.289760113E0
1.751974368E1,5.734288216E0,-7.235498428E0,5.557111740E0
1.757173704E1,3.512401104E0,-4.558699131E0,3.385504484E0
1.762373050E1,2.063864946E0,-2.937775135E0,1.970488191E0
1.767572592E1,-2.274561077E-1,-2.085413456E0,7.877163887E-1
1.772772105E1,6.198777676E0,6.727912426E-1,4.067873001E0
1.777971444E1,3.615354896E-1,-3.644086361E0,1.939362645E0
1.783170773E1,3.205934048E0,-8.956981659E0,8.956981659E0
1.788370112E1,6.177228928E0,-1.039833546E1,4.932206154E0
1.793569442E1,1.126266861E1,-1.844788742E1,7.266623974E0
1.798768771E1,8.391933441E0,-1.165772438E1,8.032792091E0
1.803968104E1,6.941002846E0,-8.190814018E0,5.741470814E0
1.809167519E1,7.714353561E0,-9.677659035E0,5.758230686E0
1.814366878E1,1.082930470E1,-1.021397591E1,4.206740856E0
1.819566204E1,9.847652435E0,-8.411087036E0,5.128536701E0
1.824765540E1,4.800520897E0,-2.135693073E0,1.903448462E0
1.829964882E1,1.101366401E0,5.530774593E-1,-1.036720991E0
1.835164205E1,2.583422422E0,-1.544307232E0,-1.596981287E0
1.840363544E1,-4.929811954E0,-2.432583094E0,-5.854001999E0
1.845562883E1,4.625739098E0,-1.418368435E1,-6.172440529E0
1.850762309E1,9.074301720E-1,-1.435128307E1,1.115971470E1
1.855961648E1,9.893143654E0,-2.102412796E1,9.035993576E0
1.861160977E1,9.577098846E0,-1.286204433E1,7.031985283E0
1.866360309E1,5.916253090E0,-1.149970150E1,6.548341751E0
1.871559922E1,5.585843086E0,-1.049650097E1,5.080651283E0
1.876759771E1,5.494860649E0,-9.316123009E0,4.352791786E0
1.881959393E1,6.660872459E0,-7.122967720E0,3.055094719E0
1.887158736E1,6.522004604E0,-3.900273561E0,5.746259689E0
1.892358079E1,6.292154312E0,1.558672905E0,6.361588001E0
1.897557414E1,1.002004051E1,-1.436564885E-2,5.231490612E0
1.902756747E1,7.209161282E0,-2.142875910E0,2.533142805E0
1.907956076E1,-3.615355015E0,-1.221080124E-1,-1.501210332E0
1.913155455E1,-2.810878515E0,3.193962574E0,-1.529941559E0
1.918354837E1,2.607365370E0,-4.101392746E0,3.500429869E0
1.923554183E1,5.751048088E0,-1.401608467E1,1.160026169E1
1.928753512E1,1.012299347E1,-1.918292999E1,6.239480019E0
1.933952842E1,6.964945316E0,-1.241670895E1,2.202732801E0
1.939152191E1,6.294548512E0,-1.060424328E1,5.255433083E0
1.944351514E1,6.541158676E0,-8.971347809E0,4.767001152E0
1.949550853E1,8.557138443E0,-6.900300026E0,4.206740856E0
1.954750252E1,7.982511997E0,-3.703943014E0,5.288952827E0
1.959949614E1,6.840443134E0,-1.388679385E0,4.486870766E0
1.965148956E1,7.031985283E0,3.208328187E-1,3.287339211E0
1.970348289E1,5.224307537E0,-7.350423932E-1,3.028757572E0
1.975547618E1,1.817254543E0,-2.842004299E0,8.643332124E-1
1.980747200E1,3.806896806E-1,-1.221080184E0,5.698373914E-1
1.985947092E1,1.075029373E0,-8.387145042E0,-2.681587934E-1
1.991146618E1,3.790137053E0,-1.271838760E1,7.156487465E0
1.996345944E1,1.048213482E1,-1.505280590E1,3.442967176E0
2.001545290E1,8.818114281E0,-1.452367115E1,4.343214512E0
2.006744616E1,7.747873306E0,-1.032411289E1,7.192401409E0
2.011943942E1,7.302538395E0,-8.415876389E0,4.321666241E0
2.017143288E1,7.817307472E0,-1.055635738E1,4.496448040E0
2.022342624E1,9.086273193E0,-8.092648506E0,3.213116884E0
2.027542019E1,7.120573044E0,-7.884346962E0,3.718308687E0
2.032741384E1,4.204346657E0,-6.605803967E0,2.490045786E0
2.037940717E1,1.726272106E0,-3.038334846E0,1.247417212E0
2.043140053E1,1.707117915E0,-2.724684715E0,-1.618529797E0
2.048339392E1,2.446948767E0,1.431776285E0,-3.754222870E0
2.053538715E1,-8.930644989E-1,-1.381496549E0,4.884320498E-1
2.058738057E1,8.087860107E0,-1.268726254E1,7.142121792E0
2.063937397E1,5.880339146E0,-1.437522602E1,4.055901527E0
2.069136805E1,8.162082672E0,-1.323555088E1,7.113390446E0
2.074336151E1,9.878777504E0,-9.335277557E0,7.570696831E0
2.079535493E1,6.313702583E0,-8.317710876E0,4.637710094E0
2.084734829E1,7.084659100E0,-8.214756966E0,3.854782343E0
2.089934319E1,9.512454033E0,-7.676044941E0,3.948159218E0
2.095133894E1,8.566715240E0,-5.626545906E0,2.075836182E0
2.100333240E1,5.906675816E0,-3.177202702E0,1.285725594E0
2.105532556E1,3.452544212E0,-3.691971779E0,3.926610649E-1
2.110731902E1,-5.166844845E0,-6.536370516E-1,-2.748627424E0
2.115931231E1,-7.822095871E0,-1.038875866E1,8.075888634E0
2.121130551E1,1.096577883E0,-6.352011204E0,5.037554264E0
2.126329920E1,8.688823700E0,-2.396190262E1,1.264177132E1
2.131529318E1,5.849213123E0,-1.663302803E1,3.138894320E0
2.136728654E1,3.201145411E0,-1.232572651E1,7.415069103E0
2.141928013E1,3.737462997E0,-1.036721039E1,5.478100777E0
2.147127339E1,4.869955063E0,-9.016839027E0,4.731087208E0
2.152326659E1,6.811711788E0,-4.757423878E0,3.474092722E0
2.157526004E1,8.140534401E0,-4.642498970E0,3.349590540E0
2.162725320E1,3.816473961E0,-4.996851444E0,3.023969173E0
2.167924676E1,2.308080912E0,-2.123721838E0,3.960130453E0
2.173124108E1,4.352791786E0,-1.563461423E0,1.872322917E0
2.178323470E1,1.798100352E0,2.873129770E-2,5.291347504E-1
2.183522760E1,-2.885101080E0,-1.101366401E0,1.055875182E0
2.188722092E1,7.709564686E0,-1.345103550E1,1.072395706E1
2.193921614E1,2.557085514E0,-1.841915703E1,-1.819648892E-1
2.199121500E1,9.002472878E0,-1.064733982E1,5.188393593E0
2.204321092E1,5.260221958E0,-1.156674194E1,6.998465061E0
2.209520432E1,1.805283189E0,-9.632167816E0,4.333637238E0
2.214719761E1,5.887521744E0,-7.031985283E0,4.151672363E0
2.219919090E1,6.641718388E0,-7.012830734E0,3.318464994E0
2.225118430E1,5.078257084E0,-4.079844475E0,1.544307232E0
2.230317756E1,4.000833035E0,-1.711906433E0,3.926610649E-1
2.235517101E1,8.803748131E0,-3.229876757E0,8.530800819E0
2.240716477E1,-2.616942406E0,6.170046329E0,-1.125309110E0
2.245915856E1,-1.786128998E0,4.180403709E0,-3.806896806E-1
2.251115192E1,9.830892563E0,-1.369046307E1,1.030495834E1
2.256314541E1,-2.825244188E0,-2.115102386E1,4.094209969E-1
2.261513854E1,6.622564316E0,-1.525392437E1,7.867587090E0
2.266713203E1,2.566662550E0,-1.048452950E1,6.174834728E0
2.271912545E1,2.387091875E0,-7.860404015E0,6.040755272E0
2.277111874E1,5.724710941E0,-7.158881664E0,5.739076614E0
2.282311290E1,6.921848297E0,-5.571477413E0,4.831646442E0
2.287510629E1,5.446975231E0,-1.415016413E0,5.971321583E0
2.292709965E1,8.365595818E0,1.137280583E0,5.382329941E0
2.297909291E1,6.672843933E0,-6.153286099E-1,2.509200096E0
2.303108740E1,3.433390141E0,-3.814079762E0,-1.242628574E0
2.308308349E1,-1.242628574E0,-4.278569221E0,-6.035966873E0
2.313507715E1,2.073441982E0,-7.908289909E0,1.392749691E1
2.318707064E1,6.186806202E0,-1.269205093E1,1.022355366E1
2.323906390E1,4.652075768E0,-1.272796535E1,1.532335877E-1
2.329105696E1,5.145296574E0,-1.031692982E1,5.037554264E0
2.334305035E1,6.258634567E0,-1.240713215E1,9.744698524E0
2.339504378E1,1.011341667E1,-1.115732098E1,7.903501034E0
2.344703770E1,7.472531796E0,-1.022355366E1,4.103786945E0
2.349903139E1,7.355212212E0,-8.427846909E0,2.128510237E0
2.355102491E1,4.510813713E0,-3.380716085E0,4.872349262E0
2.360301801E1,6.153286457E0,-4.644893110E-1,3.316070557E0
2.365501140E1,6.045543671E0,-3.203539610E0,1.556278616E-1
2.370700489E1,1.123154354E1,-7.905895233E0,1.632895470E0
2.375899821E1,9.960182905E-1,-4.539545059E0,-2.990449190E0
2.381099144E1,-2.420611858E0,-2.121327400E0,-3.086220264E0
2.386298529E1,3.014391899E0,-6.732700825E0,4.465322495E0
2.391497908E1,1.164575291E1,-1.243107510E1,1.013017654E1
2.396500928E1,5.856396198E0,-1.273754215E1,7.843644142E0
2.401700264E1,1.167927265E1,-1.518449116E1,5.102199554E0
2.406899679E1,5.959350109E0,-1.236642933E1,4.606584549E0
2.412099548E1,5.705556870E0,-9.730332375E0,3.122134447E0
2.417299234E1,8.028003693E0,-9.335277557E0,3.574652195E0
2.422498597E1,7.115784645E0,-6.261028767E0,3.902667999E0
2.427697926E1,6.514821529E0,-5.988081455E0,6.522004604E0
2.432897268E1,6.833260536E0,-1.956122518E0,5.796539307E0
2.438096598E1,5.688796997E0,-1.326428294E0,1.532335877E0
2.443295930E1,5.652883053E0,-2.619336605E0,6.895511150E-1
2.448495270E1,-2.669616461E0,-1.266571403E0,-2.348783493E0
2.453694596E1,-1.604164094E-1,-1.994430900E0,-1.431776285E0
2.458894007E1,7.314509392E0,-1.379581165E1,1.016369629E1
2.464093366E1,4.776578426E0,-1.834493446E1,8.248276711E0
2.469292696E1,5.281770229E0,-1.660429573E1,3.866753817E0
2.474492035E1,4.620950222E0,-1.306795216E1,6.660872459E0
2.479691371E1,6.682421207E0,-1.097535610E1,4.515602112E0
2.484890707E1,7.132544518E0,-8.964164734E0,4.510813713E0
2.490090033E1,9.375980377E0,-6.112583637E0,5.071074009E0
2.495289402E1,7.374366283E0,-2.518777132E0,4.898686409E0
2.500488807E1,8.415876389E0,7.709565163E-1,2.839609861E0
2.505688133E1,8.712765694E0,-1.247417212E0,-7.972934842E-1
2.510887472E1,7.518023014E0,-3.778165579E0,-1.101366401E0
2.516086855E1,1.103760719E0,-7.041562080E0,5.063891411E0
2.521286477E1,-1.046298146E0,-3.043123245E0,-4.520390987E0
2.526485876E1,-1.862745762E0,-2.968900681E0,2.391880512E0
2.531685205E1,4.781366825E0,-9.409500122E0,9.165284157E0
2.536884535E1,9.672870636E0,-1.617811394E1,1.010144520E1
2.542083877E1,6.744672298E0,-1.576629925E1,5.791750908E0
2.547283200E1,8.116591454E0,-1.153082752E1,9.464568138E0
2.552482543E1,5.150084972E0,-9.754275322E0,4.388705730E0
2.557681905E1,7.278595448E0,-8.968953133E0,6.155680656E0
2.562881300E1,9.450202942E0,-7.970541000E0,6.292154312E0
2.568080646E1,6.507638931E0,-8.133351326E0,4.812492371E0
2.573279979E1,4.539545059E0,-7.472531796E0,4.264203548E0
2.578479308E1,1.292908430E0,-5.525986195E0,1.929785490E0
2.583678640E1,8.356019258E-1,-1.956122518E0,1.106154919E0
2.588877980E1,3.160442829E0,6.059909344E0,-2.569056988E0
2.594077316E1,2.411034822E0,-1.230657220E0,1.881899953E0
2.599276681E1,4.697566986E0,-8.305739403E0,6.490879059E0
2.604476083E1,7.419857502E0,-1.581897354E1,8.063917160E0
2.609675409E1,3.201145411E0,-1.872562408E1,-1.010383964E0
2.614874755E1,1.100648117E1,-1.032650757E1,7.300143719E0
2.620074108E1,7.046350956E0,-8.509252548E0,6.007235527E0
2.625273933E1,8.753468513E0,-9.335277557E0,5.288952827E0
2.630473689E1,9.514847755E0,-9.375980377E0,4.522785187E0
2.635673178E1,9.644139290E0,-3.172414064E0,2.947352171E0
2.640872517E1,8.150111198E0,2.411034822E0,2.583422422E0
2.646071847E1,5.648094177E0,-3.016786337E0,2.164424419E0
2.651271186E1,4.017592907E0,-8.164477348E0,1.395862222E0
2.656470509E1,8.818114281E0,-6.522004604E0,2.229069948E0
2.661669841E1,-4.951360226E0,-5.554717779E-1,-4.161249638E0
2.666869230E1,-1.537124395E0,5.722316504E-1,1.836408734E0
2.672068612E1,8.619389534E0,-1.562503719E1,1.387961102E1
2.677267945E1,1.039833546E1,-1.669288445E1,6.155680656E0
2.682467287E1,7.489291668E0,-1.375510883E1,3.521978140E0
2.687666617E1,8.990502357E0,-9.138946533E0,6.756643295E0
2.692865952E1,7.352818012E0,-8.238699913E0,5.059102535E0
2.698065278E1,1.014454269E1,-7.999272346E0,5.940196037E0
2.703264621E1,1.038875866E1,-7.867587090E0,5.229096413E0
2.708464020E1,8.389538765E0,-6.249057293E0,5.023188591E0
2.713663375E1,4.489265442E0,-1.544307232E0,4.783761024E0
2.718862718E1,2.655250788E0,8.356019258E-1,2.485257149E0
2.724062040E1,4.017592907E0,-1.312062621E0,1.091789365E0
2.729261403E1,2.739050388E0,-1.573038578E0,-2.609759569E0
2.734461218E1,-2.324840784E0,1.072635174E0,-2.226675600E-1
2.739660977E1,3.119740009E0,-9.320911407E0,4.587430477E0
2.744860380E1,7.977723598E0,-1.269444466E1,7.362394810E0
2.750059719E1,1.514857674E1,-1.646782303E1,5.245856285E0
2.755259045E1,5.298530102E0,-1.391552544E1,2.478074312E0
2.760458401E1,8.071100235E0,-9.821314812E0,6.009629726E0
2.765657717E1,8.674457550E0,-8.011243820E0,6.222720146E0
2.770857063E1,9.589070320E0,-7.946598053E0,5.183605194E0
2.776056382E1,9.189227104E0,-6.885934353E0,4.163643837E0
2.781255804E1,8.190814018E0,-5.224307537E0,4.268991947E0
2.786455153E1,5.020794392E0,-2.286532402E0,4.108575344E0
2.791654489E1,5.470917702E0,-4.568276405E0,4.053507328E0
2.796853818E1,2.875524044E0,-3.150865555E0,-7.709565163E-1
2.802053161E1,-3.112557232E-1,-6.416656375E-1,-4.012804508E0
2.807252483E1,1.045819283E1,-9.043175697E0,-2.983266354E0
2.812451829E1,-6.009629965E-1,-9.313728809E-1,-2.298503816E-1
2.817651165E1,1.118605232E1,-2.033218193E1,1.698498535E1
2.822850577E1,9.443019867E0,-1.851971626E1,7.925049663E-1
2.828049929E1,5.061496735E0,-9.703995705E0,4.936994553E0
2.833249258E1,1.067846584E1,-7.067899227E0,6.253845692E0
2.838448601E1,7.594639778E0,-8.217150688E0,4.331243038E0
2.843648210E1,9.083878517E0,-8.971347809E0,3.478881359E0
2.848847652E1,7.968146324E0,-6.811711788E0,3.565075159E0
2.854046992E1,6.404685020E0,-5.241067410E0,2.080624819E0
2.859246348E1,4.968120098E0,-2.432583094E0,7.494080067E-1
2.864445654E1,9.385557175E-1,-3.591412306E-1,-6.536370516E-1
2.869644983E1,1.016609097E1,3.316070557E0,5.638517380E0
2.874844349E1,-1.965699673E0,5.102199554E0,7.350423932E-1
2.880043688E1,-1.149251938E0,-3.181991339E0,3.162837029E0
2.885243097E1,7.063110828E0,-1.333132172E1,1.171518707E1
2.890442422E1,7.333663940E0,-1.653964996E1,3.617749214E0
2.895641762E1,1.109028053E1,-1.453564262E1,5.669642925E0
2.900841084E1,7.151699066E0,-1.143026829E1,5.779779434E0
2.906040430E1,6.354405403E0,-1.015890789E1,5.114171028E0
2.911239756E1,6.086246490E0,-9.342460632E0,3.498035431E0
2.916439089E1,4.922628880E0,-7.443800449E0,4.419831276E0
2.921638478E1,4.850800991E0,-2.762993097E0,5.722316742E0
2.926837870E1,6.454965115E0,2.346389294E-1,5.075862408E0
2.932037192E1,5.166844845E0,-2.298503876E0,2.458920240E0
2.937236532E1,5.130930901E0,-4.994457245E0,2.011190891E0
2.942435864E1,2.126116037E0,-4.292934895E0,-1.127703428E0
2.947635606E1,9.960182905E-1,-4.798126698E0,7.398309112E-1
2.952835406E1,4.336031914E0,-5.633728504E0,2.976083517E0
2.958034958E1,2.561874151E0,-1.433931160E1,8.873182297E0
2.963234294E1,7.518023014E0,-2.127313232E1,5.169239521E0
2.968433623E1,1.167687798E1,-1.070240879E1,1.051086617E1
2.973632959E1,7.843644142E0,-7.558725357E0,5.305713177E0
2.978832295E1,8.638543129E0,-8.892336845E0,3.287339211E0
2.984031628E1,8.571503639E0,-7.307326794E0,2.882706881E0
2.989231089E1,8.693612099E0,-6.883540154E0,2.616942406E0
2.994430442E1,6.038361073E0,-5.466129303E0,1.005595446E0
2.999629724E1,5.056708336E0,-4.082238674E0,9.074301720E-1
3.004829064E1,5.128536701E0,-3.191568375E0,7.015225291E-1
3.010028396E1,1.649655342E0,-3.474092722E0,-4.932205975E-1
3.015227732E1,-9.050358534E-1,-4.723904133E0,-1.474873304E0
3.020427068E1,4.407859802E0,-3.895485163E0,5.432609558E0
3.025626401E1,8.454184532E0,-1.640796471E1,7.762238979E0
3.030825799E1,1.620923996E0,-1.117408085E1,8.068706512E0
3.036025172E1,-4.189980924E-1,-1.539039803E1,4.415042877E0
3.041224498E1,3.826051235E0,-1.190672874E1,9.059935570E0
3.046423840E1,6.454965115E0,-9.842864037E0,5.887521744E0
3.051623186E1,3.428601503E0,-9.948211670E0,3.423812866E0
3.056822888E1,6.270605564E0,-1.062100315E1,3.914639235E0
3.062022700E1,6.196382999E0,-8.825297356E0,3.581835032E0
3.067222170E1,6.766220570E0,-7.661679268E0,1.805283189E0
3.072421499E1,5.554717541E0,-3.430995703E0,-6.871568561E-1
3.077620838E1,2.195549965E0,-2.581028223E0,-2.425400496E0
3.082820167E1,1.951334000E0,-1.034326673E0,5.315290093E-1
3.088019510E1,-2.899466753E0,1.077423692E-1,-2.492439985E0
3.093218839E1,1.019961071E1,-3.096515656E1,9.842864037E0
3.098418182E1,-1.652049661E0,-1.101366425E1,8.463761330E0
3.103617607E1,1.376947403E1,-1.509590244E1,4.714327335E0
3.108816930E1,7.422251701E-1,-1.300809479E1,1.350371003E0
3.114016272E1,7.570696831E0,-1.016848469E1,7.259441376E0
3.119215621E1,7.618582249E0,-9.160495758E0,6.110189438E0
3.124414934E1,9.529213905E0,-7.826884270E0,6.000052452E0
3.129614283E1,6.780586243E0,-7.012830734E0,4.225894928E0
3.134807572E1,3.490852594E0,-5.329655647E0,1.403045058E0
3.140006911E1,3.196356773E0,-1.125309110E0,2.669616461E0
3.145206329E1,3.184385538E0,8.308133483E-1,-1.503604531E0
3.150405652E1,5.231490612E0,2.394274808E-3,-1.357553840E0
3.155604995E1,-2.188367128E0,7.661679387E-2,-1.228263021E0
3.160804324E1,1.424593568E0,-1.002004051E1,1.171997547E1
3.166003876E1,8.566715240E0,-1.349413300E1,4.532361984E0
3.171203388E1,1.110704041E1,-1.367609787E1,7.055927753E0
3.176402728E1,6.069486618E0,-9.490905762E0,6.488484859E0
3.181602060E1,5.138113976E0,-8.557138443E0,6.931425571E0
3.186801393E1,6.071880817E0,-8.083071709E0,6.332856655E0
3.192000726E1,7.996877670E0,-8.128562927E0,6.215537548E0
3.197200078E1,6.960156918E0,-7.103813171E0,4.070267200E0
3.202399411E1,5.918647289E0,-6.847625732E0,3.239453793E0
3.207598833E1,1.764580488E0,-3.873936653E0,3.423812866E0
3.212798162E1,8.329682350E0,1.261782765E0,7.843644142E0
3.217997488E1,-4.927417755E0,4.558699131E0,-5.147690773E0
3.223196837E1,1.247417212E0,-7.470137477E-1,5.889915824E-1
3.228396166E1,4.225894928E0,-6.349617004E0,7.503657341E0
3.233595492E1,7.893924236E0,-1.677668381E1,8.497281075E0
3.238794835E1,2.293715239E0,-1.861069870E1,4.216318130E0
3.243994200E1,9.354432106E0,-1.019482231E1,1.915419847E-2
3.249193596E1,7.276201248E0,-1.031453609E1,4.156461239E0
3.254392938E1,4.687990189E0,-1.080296803E1,3.706337452E0
3.259592261E1,8.348835945E0,-8.284191132E0,6.196382999E0
3.264791597E1,1.077663136E1,-7.228315830E0,4.778972626E0
3.269991206E1,5.528380394E0,-6.098217964E0,2.925803900E0
3.275191075E1,5.403878212E0,-6.138920784E0,1.994430900E0
3.280390600E1,2.415823221E0,-7.470137477E-1,-8.858817071E-2
3.285589936E1,-2.411034822E0,2.449343204E0,-4.132518291E0
3.290789269E1,-2.264983892E0,2.073441982E0,1.263458824E1
3.295988602E1,3.735068738E-1,-1.151646137E0,7.053533554E0
3.301187927E1,9.155706406E0,-2.084934425E1,3.454938650E0
3.306387270E1,1.204080772E1,-1.900814819E1,1.398256540E0
3.311586603E1,2.253012657E0,-1.078860188E1,3.811685562E0
3.316786011E1,6.352011204E0,-1.089395046E1,5.348809719E0
3.321985374E1,8.164477348E0,-1.034566116E1,5.913858891E0
3.327184696E1,8.451789856E0,-9.191620827E0,5.049525738E0
3.332384032E1,7.484503269E0,-7.084659100E0,5.353598595E0
3.337583375E1,4.948966026E0,-3.557892323E0,4.824463844E0
3.342782697E1,4.156461239E0,-1.671203852E0,5.118959427E0
3.347982033E1,3.608172178E0,-3.483669758E0,3.110162973E0
3.353181376E1,3.167625666E0,-5.188393593E0,3.615354896E-1
3.358380764E1,4.142095447E-1,-3.459727049E0,4.549122155E-1
3.363580143E1,4.357580245E-1,-3.960130453E0,1.043903828E0
3.368779473E1,3.818868399E0,-8.978530884E0,7.601822376E0
3.373978805E1,7.553936958E0,-1.364976025E1,8.334470749E0
3.379178294E1,7.228315830E0,-1.746623421E1,5.514014721E0
3.384377870E1,7.910684109E0,-1.206235695E1,1.009665680E1
3.389577206E1,7.901106834E0,-9.289786339E0,6.402290821E0
3.394776535E1,7.628159523E0,-9.711178780E0,5.011217117E0
3.399975871E1,8.250671387E0,-7.798152924E0,3.972101927E0
3.405175211E1,6.711152077E0,-7.276201248E0,5.363175392E0
3.410374540E1,4.553910732E0,-2.751021862E0,5.027976990E0
3.415573876E1,4.115758419E0,-8.571503758E-1,5.236279011E0
3.420773298E1,5.174027920E0,-2.071047783E0,4.491659641E0
3.425972630E1,6.490879059E0,-2.039922237E0,-4.860377908E-1
3.431171983E1,-3.203539610E0,2.511594296E0,-2.808484316E0
3.436371309E1,3.246636629E0,-4.822069645E0,2.583422422E0
3.441570638E1,7.601822376E0,-6.493273258E0,6.512427330E0
3.446769977E1,1.129858303E1,-1.192348862E1,1.759791970E0
3.451969307E1,1.142069054E1,-1.266571331E1,5.537957668E0
3.457168649E1,1.143505669E1,-7.879558563E0,7.087053299E0
3.462368061E1,8.296162605E0,-8.104619980E0,5.463735104E0
3.467567407E1,8.372778893E0,-8.291373253E0,4.393494129E0
3.472766739E1,9.634561539E0,-7.190007210E0,3.668029070E0
3.477966075E1,8.772623062E0,-6.605803967E0,3.361561775E0
3.483165604E1,8.097437859E0,-2.595393896E0,1.965699673E0
3.488365470E1,5.770202160E0,-4.788549617E-2,-2.992843390E-1
3.493565136E1,6.153286099E-1,-2.106961906E-1,9.960182905E-1
3.498764512E1,4.228289127E0,3.979284763E0,4.647287369E0
3.503963841E1,-5.135719299E0,7.886741161E0,-3.694365978E0
3.509163184E1,2.521171331E0,-5.497254848E0,7.604216576E0
3.514362513E1,1.040073013E1,-1.989642334E1,1.165772438E1
3.519561839E1,7.884346962E0,-1.998740578E1,3.751828671E0
3.524761234E1,7.553936958E0,-1.181814003E1,8.739103317E0
3.529960616E1,6.459753513E0,-7.977723598E0,7.192401409E0
3.535159946E1,8.104619980E0,-8.370385170E0,6.579467297E0
3.540359288E1,9.095849991E0,-7.628159523E0,4.230683804E0
3.545558617E1,7.458166122E0,-4.561093330E0,4.201952457E0
3.550757950E1,5.013611317E0,-2.710319042E0,5.300924301E0
3.555957289E1,3.222693920E0,-8.308133483E-1,2.640885115E0
3.561156612E1,3.538738251E0,-2.753416002E-1,6.943396926E-1
3.566356014E1,6.644112587E0,-2.327235222E0,-1.417410731E0
3.571555383E1,8.763045669E-1,-3.081431627E0,-2.983266354E0
3.576754742E1,-1.053480953E-1,4.477293968E0,-1.824437380E0
3.581954054E1,3.974496126E-1,-3.000026226E0,3.624932051E0
3.587153390E1,1.585009956E1,-1.943672371E1,5.494860649E0
3.592352889E1,1.222756100E1,-1.375032043E1,7.637736797E0
3.597552771E1,7.060716629E0,-7.836461544E0,8.669669151E0
3.602752377E1,5.815693378E0,-7.932232380E0,6.246663094E0
3.607951720E1,8.894730568E0,-6.531581879E0,5.265010357E0
3.613151049E1,9.948211670E0,-5.712739468E0,5.691191196E0
3.618350372E1,7.276201248E0,-5.308107376E0,4.714327335E0
3.623549734E1,6.814105988E0,-2.648067951E0,4.307300568E0
3.628749047E1,6.648900986E0,-1.953728199E0,1.352765322E0
3.633948379E1,3.052700281E0,-3.902668059E-1,9.840469360E-1
3.639147781E1,1.628106833E0,1.723877907E0,3.117345810E0
3.644347150E1,-2.583422422E0,-6.009629965E-1,9.194015265E-1
3.649546483E1,2.600182533E0,-2.004008055E0,3.349590540E0
3.654745845E1,5.985687256E0,-1.269683933E1,1.081733322E1
3.659945168E1,8.394327164E0,-1.871365166E1,3.220299721E0
3.665144487E1,1.031692982E1,-1.376229191E1,5.492466450E0
3.670343820E1,8.533195496E0,-1.142069054E1,6.981705189E0
3.675543152E1,7.783787251E0,-9.095849991E0,4.941783428E0
3.680742554E1,1.036242104E1,-8.377567291E0,2.724684715E0
3.685941920E1,9.411893845E0,-6.785374641E0,2.609759569E0
3.691141259E1,7.496474266E0,-6.912271500E0,2.128510237E0
3.696340585E1,7.482108593E0,-7.592245579E0,1.271359921E0
3.701540021E1,4.304905891E0,-4.798126698E0,-6.033572555E-1
3.706739633E1,-5.497254848E0,4.788549617E-2,-9.433442950E-1
3.711938979E1,-8.674457550E0,-4.163643837E0,3.806896925E0
3.717138325E1,-3.414235830E0,-1.582615614E0,4.036747456E0
3.722337674E1,7.448588848E0,-1.351807594E1,1.258909702E1
3.727536990E1,-1.987248063E0,-2.565944290E1,1.920208454E0
3.732736343E1,8.195602417E0,-1.236403465E1,5.684008598E0
3.737935672E1,6.146103382E0,-1.165532970E1,2.679193497E0
3.743135058E1,1.994430900E0,-1.031932449E1,3.600989342E0
3.748334450E1,7.735901833E0,-7.905895233E0,4.956148624E0
3.753533759E1,8.803748131E0,-5.710345268E0,3.768588543E0
3.758733098E1,6.143709183E0,-5.346415520E0,2.063864946E0
3.763932434E1,7.075081825E0,-3.723097324E0,2.480468750E0
3.769131760E1,7.577879906E0,3.371139050E0,9.313728809E-1
3.774331099E1,8.186025620E0,8.760651588E0,6.083852291E0
3.779530455E1,4.204346657E0,2.995237827E0,2.157241583E0
3.784729857E1,4.649681568E0,-7.831672668E0,2.583422422E0
3.789929199E1,-4.477293968E0,-4.549122334E0,-3.162837029E0
3.795128525E1,2.537931204E0,-8.020820618E0,4.314483166E0
3.800327851E1,1.219164753E1,-1.820606613E1,6.344828129E0
3.805527287E1,5.521197796E0,-1.630261803E1,2.897072434E-1
3.810727169E1,8.607418060E0,-1.090352726E1,7.118178844E0
3.815926888E1,5.296135902E0,-1.017566776E1,4.980091572E0
3.821126187E1,6.016812801E0,-1.010623360E1,5.499649048E0
3.826325530E1,8.425453186E0,-6.933819771E0,7.130150318E0
3.831524866E1,8.633754730E0,-6.217931747E0,6.081458092E0
3.836724185E1,8.367990494E0,-3.778165579E0,5.025582790E0
3.841923531E1,6.174834728E0,-1.872322917E0,2.549902678E0
3.847122864E1,5.808510780E0,-2.032739401E0,1.704723716E0
3.852322213E1,7.158881664E0,-1.972882390E0,1.132491946E0
3.857521635E1,-1.838803053E0,-1.714300752E0,-4.635315895E0
3.862720974E1,-1.170800328E0,-1.453324795E0,-1.415016413E0
3.867920297E1,8.308133483E-1,-4.577853203E0,3.495641232E0
3.873119639E1,1.246938324E1,-1.916856384E1,9.629773140E0
3.878327225E1,9.720755577E0,-2.278631401E1,4.764606953E0
3.883526561E1,6.533976078E0,-1.181814003E1,5.221913338E0
3.888725886E1,8.075888634E0,-1.012538815E1,5.822876453E0
3.893925282E1,5.126142502E0,-8.889942169E0,3.557892323E0
3.899124667E1,8.154899597E0,-9.529213905E0,3.792531252E0
3.904323990E1,9.407105446E0,-8.121379852E0,2.827638626E0
3.909523329E1,1.097056675E1,-4.786155224E0,2.315263748E0
3.914722718E1,6.665660858E0,-2.731867552E0,2.825244188E0
3.919922350E1,4.393494129E0,-1.996825218E0,-2.178790122E-1
3.925121730E1,6.828471661E0,-3.773377180E0,5.949772835E0
3.930321059E1,-4.060689926E0,7.039167881E-1,-2.480468750E0
3.935520388E1,-5.940196037E0,1.261782765E0,-3.189173937E0
3.940719738E1,-1.723877788E-1,-3.773377180E0,3.972101927E0
3.945919060E1,1.574714565E1,-2.187170029E1,1.277106190E1
3.951118396E1,7.357606411E0,-1.693949509E1,5.214730740E0
3.956317765E1,7.553936958E0,-1.071916866E1,8.427846909E0
3.961517157E1,6.828471661E0,-7.515628815E0,8.047157288E0
3.966716500E1,5.083045483E0,-8.739103317E0,6.447782040E0
3.971915829E1,7.012830734E0,-1.011341667E1,6.490879059E0
3.977115168E1,6.414262295E0,-7.568302631E0,5.423032284E0
3.982314494E1,4.412648678E0,-6.514821529E0,3.940976381E0
3.987513827E1,3.955342054E0,-2.559479713E0,3.656057596E0
3.992713169E1,2.456526041E0,-4.142095447E-1,2.305686712E0
3.997912564E1,-1.395862222E0,2.427794695E0,-3.732674360E0
4.003111934E1,-6.495667458E0,1.956122518E0,-2.274561077E-1
4.008311266E1,-4.264203548E0,-4.166038036E0,3.974496126E-1
4.013510592E1,1.227544689E1,-2.330587006E1,1.504801750E1
4.018709971E1,3.397475958E0,-2.086131668E1,-1.118126392E0
4.023909813E1,8.672063828E0,-1.148773098E1,3.794925690E0
4.029109556E1,6.749460697E0,-9.811738014E0,3.770982742E0
4.034309032E1,6.984099388E0,-8.303344727E0,4.247443676E0
4.039508368E1,1.070959091E1,-7.826884270E0,4.944177628E0
4.044707700E1,7.925049782E0,-5.099805355E0,4.733481407E0
4.049907043E1,5.731894016E0,-3.936187744E0,4.371945858E0
4.055106365E1,4.379128456E0,-1.946545362E0,3.754222870E0
4.060305711E1,3.289733648E0,-7.901107073E-1,3.375927448E0
4.065505120E1,8.212362528E-1,-3.375927508E-1,-3.596200705E0
4.070704466E1,3.845205307E0,3.684788942E0,-2.298503816E-1
4.075903798E1,-2.901860952E0,4.522785187E0,-3.974496126E0
4.081103141E1,8.401510239E0,-1.711667061E1,1.064494610E1
4.086302470E1,9.402317047E0,-1.987008667E1,4.467716694E0
4.091501809E1,1.120041752E1,-1.281894779E1,8.394327164E0
4.096701135E1,8.284191132E0,-9.402317047E0,6.720729351E0
4.101900478E1,6.984099388E0,-8.265036583E0,4.786155224E0
4.107099893E1,9.210775375E0,-7.692804813E0,5.111776829E0
4.112299242E1,8.971347809E0,-5.767807961E0,5.545140266E0
4.117498575E1,9.483722687E0,-4.022381783E0,5.729499817E0
4.122697901E1,5.193181992E0,-1.477267504E0,2.909043789E0
4.127897266E1,2.231464148E0,-5.626545548E-1,1.774157643E0
4.133097102E1,8.954587579E-1,-2.640885115E0,9.792584181E-1
4.138296834E1,-1.872322917E0,-2.473285913E0,2.619336605E0
4.143496240E1,1.048692346E0,-7.283383846E0,2.803695917E0
4.148695576E1,1.776551962E0,-6.694392204E0,5.253038883E0
4.153894905E1,6.751854897E0,-1.424114609E1,1.019721603E1
4.159094258E1,1.371919513E0,-2.557564354E1,-5.578660369E-1
4.164293574E1,8.976136208E0,-1.259388542E1,7.788576126E0
4.169492900E1,8.509252548E0,-8.590658188E0,5.521197796E0
4.174692292E1,6.854808807E0,-9.337671280E0,5.135719299E0
4.179891671E1,7.771816254E0,-8.461367607E0,5.573871613E0
4.185091007E1,6.658478260E0,-6.941002846E0,6.553130150E0
4.190290343E1,4.972908974E0,-2.645673752E0,6.452570438E0
4.195489672E1,4.149278164E0,-1.881899953E0,3.416630268E0
4.200689018E1,4.221106529E0,-2.157241583E0,1.005595401E-1
4.205888337E1,5.078257084E0,-3.390293121E0,-2.274561077E-1
4.211087680E1,3.854782343E0,-1.221080184E0,-2.425400496E0
4.216287048E1,-3.009603500E0,2.734261751E0,-5.937801600E-1
4.221486434E1,7.589851379E0,-1.383890820E1,1.098253822E1
4.226685793E1,1.198095131E1,-1.387482262E1,8.150111198E0
4.231885112E1,8.837267876E0,-1.498097706E1,7.654496670E0
4.237084461E1,8.892336845E0,-1.047974110E1,8.499675751E0
4.242284074E1,7.513234138E0,-9.153312683E0,6.215537548E0
4.247483510E1,8.564320564E0,-1.046058655E1,5.751048088E0
4.252682842E1,7.254652500E0,-7.048745155E0,3.869148016E0
4.257882191E1,5.071074009E0,-7.352818012E0,2.248224020E0
4.263081507E1,2.561874151E0,-2.332023621E0,1.146857619E0
4.268280856E1,1.695146561E0,6.201171875E-1,7.757450342E-1
4.273480179E1,5.435003638E-1,-2.909043789E0,6.138920784E0
4.278679578E1,1.719089270E0,-1.434170604E0,3.919427872E0
4.283878943E1,-3.754222870E0,2.372726440E0,3.950553536E-1
4.289078279E1,7.247469902E0,-1.356596088E1,1.195700836E1
4.294277615E1,8.724737167E0,-1.803128433E1,3.634509087E0
4.299476948E1,1.014933109E1,-1.393228531E1,5.801327705E0
4.304676284E1,6.565101624E0,-9.665687561E0,7.209161282E0
4.309875626E1,6.682421207E0,-9.138946533E0,6.567495823E0
4.315074952E1,8.159688950E0,-8.320104599E0,6.435810566E0
4.320274344E1,8.183630943E0,-5.638517380E0,5.763019562E0
4.325473716E1,6.771008968E0,-3.126922846E0,4.896292210E0
4.330673036E1,3.675211906E0,-1.063058019E0,5.873156071E0
4.335872385E1,1.122914910E0,-2.870735407E0,1.893871427E0
4.341071740E1,4.079844475E0,-5.274587631E0,-1.644866824E0
4.346271466E1,4.711932659E0,-7.956175327E0,-2.164424419E0
4.351471265E1,-5.796539307E0,2.231464148E0,-2.054287672E0
4.356670707E1,2.992843390E-1,-1.065452290E1,9.608224869E0
4.361870043E1,1.384130287E1,-1.293387222E1,7.149304390E0
4.367069389E1,1.024989033E1,-1.516533661E1,6.897905827E0
4.372268715E1,9.454991341E0,-1.071916866E1,9.167677879E0
4.377468054E1,5.628940105E0,-8.691217422E0,6.469330311E0
4.382667387E1,7.994483471E0,-9.792584419E0,6.869174480E0
4.387866720E1,8.470944405E0,-8.605023384E0,4.848406315E0
4.393066142E1,6.512427330E0,-5.899493217E0,5.497254848E0
4.398265487E1,5.152479172E0,-3.897879362E0,3.876330853E0
4.403464816E1,2.513988495E0,-1.824437380E0,2.106961727E0
4.408664146E1,1.915419847E-2,5.818088055E-1,-1.005595401E-1
4.413863485E1,1.171039772E1,2.959323645E0,6.644112587E0
4.419062824E1,-5.765413761E0,5.102199554E0,8.475732803E-1
4.424262150E1,-4.788549542E-1,-5.846818924E0,3.727885962E0
4.429461496E1,1.175588894E1,-1.785171318E1,1.160265541E1
4.434660911E1,8.262641907E0,-2.026992989E1,3.780560017E0
4.439860253E1,8.918673515E0,-1.195461369E1,6.095823765E0
4.445059589E1,5.796539307E0,-8.655303001E0,4.668835640E0
4.450258929E1,6.976916790E0,-7.118178844E0,6.639324188E0
4.455458494E1,9.763853073E0,-6.261028767E0,6.275394440E0
4.460658000E1,6.533976078E0,-8.016032219E0,3.124528646E0
4.465857323E1,2.190761566E0,-4.376734257E0,5.561900616E0
4.471056652E1,1.764580488E0,-7.805336118E-1,3.871542454E0
4.476256011E1,1.982459545E0,-2.298503876E0,2.897072434E-1
4.481455334E1,3.349590540E0,-1.613741279E0,-6.129343510E-1
4.486654676E1,-4.932206154E0,4.544333458E0,1.843591571E0
4.491853992E1,9.004867554E0,-1.451648808E1,9.179649353E0
4.497053414E1,4.783761024E0,-1.814381409E1,2.602576733E0
4.502252763E1,8.154899597E0,-1.268726254E1,5.691191196E0
4.507452086E1,7.264229774E0,-9.103033066E0,8.042368889E0
4.512651422E1,6.598621368E0,-9.258660316E0,4.436591148E0
4.517850761E1,8.983319283E0,-9.189227104E0,4.381523132E0
4.523050090E1,9.857229233E0,-7.793364525E0,3.047911882E0
4.528249450E1,7.690410614E0,-7.271412373E0,1.644866824E0
4.533448792E1,6.749460697E0,-6.591438770E0,7.781392932E-1
4.538648184E1,2.159635782E0,-4.527573586E0,1.398256540E0
4.543847526E1,-1.127703428E0,-2.717501879E0,-2.181184292E0
4.549046856E1,-7.000859737E0,4.551516533E0,-4.817280769E0
4.554246192E1,9.289786220E-1,-6.615381241E0,8.667274475E0
4.559445850E1,1.563940334E1,-2.326516914E1,5.688796997E0
4.564645689E1,8.772623062E0,-1.534251308E1,2.190761566E0
4.569845305E1,9.253871918E0,-1.055396366E1,3.488458395E0
4.575044631E1,8.449396133E0,-8.303344727E0,4.089421272E0
4.580243964E1,6.948185444E0,-6.708757877E0,4.091815472E0
4.585443310E1,7.987300873E0,-6.414262295E0,3.711125851E0
4.590642636E1,5.408666611E0,-5.425426483E0,3.110162973E0
4.595841982E1,5.257827282E0,-2.772570133E0,3.720703125E0
4.601041337E1,3.148471355E0,-9.098244309E-1,4.058295727E0
4.606240732E1,1.798100352E0,-1.604164094E-1,6.076669693E0
4.611440065E1,-2.214704275E0,-5.480494976E0,1.786128998E0
4.616639391E1,-2.561874151E0,-6.636929989E0,3.217905283E0
4.621838744E1,7.707170486E0,-1.363778973E1,6.624958515E0
4.627025712E1,7.781392932E-1,-1.762425613E1,2.528354168E0
4.632225022E1,8.648120880E0,-1.255797100E1,5.327261448E0
4.637424361E1,9.055147171E0,-9.917086601E0,4.970514297E0
4.642623760E1,7.264229774E0,-8.777411461E0,4.328848839E0
4.647823125E1,8.406298637E0,-7.762238979E0,3.663240433E0
4.653022468E1,9.000079155E0,-7.110996246E0,3.131711483E0
4.658221790E1,4.357580185E0,-3.811685562E0,3.026363373E0
4.663421130E1,2.542719841E0,-1.132491946E0,2.624125242E0
4.668620768E1,4.932205975E-1,-1.788523316E0,1.726272106E0
4.673820624E1,2.923409462E0,-6.840443134E0,4.429408312E-1
4.679020126E1,-2.899466753E0,3.476486921E0,-2.595393896E0
4.684219469E1,6.648900986E0,-1.392749691E1,8.892336845E0
4.689418795E1,1.393228531E1,-1.402326775E1,8.865999222E0
4.694618134E1,9.907508850E0,-1.356835556E1,4.077449799E0
4.699817467E1,9.443019867E0,-1.118365765E1,6.888328552E0
4.705016799E1,5.164450645E0,-8.751074791E0,4.438985348E0
4.710216129E1,6.069486618E0,-8.935433388E0,3.924216509E0
4.715415547E1,7.551542759E0,-8.992896080E0,5.363175392E0
4.720614906E1,1.001046276E1,-9.557945251E0,5.253038883E0
4.725814226E1,3.565075159E0,-2.976083517E0,-4.501236677E-1
4.731013568E1,1.070240855E0,-6.608198285E-1,9.577099234E-2
4.736212907E1,-2.983266354E0,1.932179809E0,8.858816624E-1
4.741412237E1,-1.290514112E0,6.986494064E0,3.256213665E-1
4.746611572E1,-4.585036278E0,-2.245829821E0,3.160442710E-1
4.751810908E1,9.907508850E0,-2.063864899E1,1.409749031E1
4.757010330E1,1.994430900E0,-2.110074425E1,3.466909885E0
4.762209676E1,3.100585938E0,-1.247896004E1,4.185192585E0
4.767409005E1,7.324086666E0,-1.166730118E1,5.011217117E0
4.772608338E1,4.501236439E0,-1.035763264E1,4.733481407E0
4.777807844E1,7.963357925E0,-9.574705124E0,3.881119490E0
4.783007403E1,7.319298267E0,-7.307326794E0,4.237866402E0
4.788206742E1,6.371165276E0,-4.970514297E0,2.291321039E0
4.793406071E1,5.564294815E0,-6.512427330E-1,1.484450400E-1
4.798605404E1,4.517996788E0,2.128510237E0,3.328042030E-1
4.803804743E1,3.929004908E0,2.171607256E0,7.733507752E-1
4.809004066E1,-1.759791970E0,2.633702159E-1,6.201171875E-1
4.814203435E1,5.648094177E0,-1.106394386E1,6.270605564E0
4.819402840E1,9.411893845E0,-1.075268841E1,6.720729351E0
4.824602163E1,9.763853073E0,-1.955404282E1,9.340065956E0
4.829801512E1,5.030371189E0,-1.385806274E1,1.321639657E0
4.835000835E1,6.727912426E0,-1.128182316E1,5.130930901E0
4.840200167E1,5.174027920E0,-1.008947372E1,3.756617069E0
4.845399513E1,6.840443134E0,-8.552350044E0,4.647287369E0
4.850598836E1,8.102226257E0,-6.993676662E0,4.747847080E0
4.855798218E1,5.892310143E0,-3.691971779E0,3.799714088E0
4.860997613E1,5.494860649E0,-1.498816013E0,3.028757572E0
4.866196933E1,3.833234072E0,-9.289786220E-1,1.472478986E0
4.871396275E1,2.889889717E0,-1.098972082E0,8.499675393E-1
4.876595614E1,-1.728666425E0,-1.340793967E-1,4.501236677E-1
4.881795150E1,7.525205612E0,-3.004814863E0,4.067873001E0
4.886995045E1,3.196356773E0,-9.464568138E0,1.328822517E1
4.892194608E1,9.201197624E0,-1.749736023E1,1.790917516E0
4.897393940E1,4.209135056E0,-1.217249298E1,2.267378330E0
4.902593266E1,8.291373253E0,-9.799766541E0,4.881926537E0
4.907792609E1,7.113390446E0,-8.624177933E0,5.535563469E0
4.912991951E1,7.755055904E0,-8.379961967E0,5.660065651E0
4.918191267E1,8.652909279E0,-6.447782040E0,5.537957668E0
4.923390613E1,6.265817165E0,-5.741470814E0,5.188393593E0
4.928589985E1,5.523591995E0,-3.864359617E0,5.032765865E0
4.933789371E1,1.936968327E0,-5.075862408E-1,1.508393168E0
4.938988713E1,-3.040728867E-1,9.074301720E-1,1.460507661E-1
4.944188049E1,-4.568276405E0,-7.015225291E-1,-1.929785490E0
4.949387395E1,5.499649048E0,-1.073353386E1,4.635315895E0
4.954586724E1,1.087000728E0,-7.508445740E0,4.719115734E0
4.959786043E1,8.075888634E0,-1.859393883E1,8.767834663E0
4.964985383E1,5.964138508E0,-1.859393883E1,2.561874092E-1
4.970184775E1,8.181237221E0,-1.161941528E1,6.229903221E0
4.975384147E1,7.230710030E0,-8.111803055E0,4.453351021E0
4.980583476E1,9.213169098E0,-8.940221786E0,5.305713177E0
4.985782809E1,8.712765694E0,-8.854028702E0,4.125335693E0
4.990982268E1,5.794145107E0,-8.621783257E0,2.657644987E0
4.996181874E1,2.985660791E0,-7.027196407E0,1.865140080E0
5.001381216E1,3.277762175E0,-5.195576191E0,-2.418217510E-1
5.006580549E1,7.472531796E0,-9.720755816E-1,8.595446348E-1
5.011779882E1,-2.236252785E0,2.279349566E0,-1.960911036E0
5.016979224E1,1.429382086E0,-1.659232497E0,3.043123245E0
5.022178550E1,1.089155579E1,-1.145899963E1,9.838075638E0
5.027377876E1,8.806142807E0,-1.370482922E1,5.523591995E0
5.032577291E1,7.972935200E0,-1.250290298E1,4.723904133E0
5.037776660E1,9.976943016E0,-9.794978142E0,6.165257454E0
5.042975983E1,6.416656494E0,-9.474145889E0,4.632921696E0
5.048175325E1,7.510839939E0,-8.997684479E0,4.348002911E0
5.053374651E1,7.654496670E0,-7.666468143E0,4.216318130E0
5.058573987E1,4.716721535E0,-4.884320736E0,2.071047783E0
5.063773326E1,2.111750364E0,-1.917814136E0,1.702329397E0
5.068972646E1,2.652856588E0,-1.980065227E0,1.321639657E0
5.074172058E1,4.788549617E-3,7.015225291E-1,-2.432583094E0
5.079371417E1,4.058295727E0,-6.349617004E0,-7.182824612E-2
5.084570746E1,3.057488918E0,-8.169265747E0,8.037580490E0
5.089770088E1,1.008708000E1,-1.849816704E1,1.088916206E1
5.094969540E1,1.520364523E0,-2.019331360E1,4.185192585E0
5.100169409E1,8.126168251E0,-1.298654652E1,6.842837334E0
5.105369115E1,6.787769318E0,-8.181237221E0,4.685595989E0
5.110568515E1,6.246663094E0,-8.463761330E0,4.587430477E0
5.115767867E1,8.676852226E0,-9.316123009E0,4.017592907E0
5.120967190E1,8.439818382E0,-1.208151054E1,6.055120945E0
5.126166506E1,4.005621910E0,-4.896292210E0,5.387118459E-1
5.131365855E1,2.063864946E0,-4.573064744E-1,3.208328187E-1
5.136565198E1,2.899466753E0,8.691217303E-1,1.364736706E-1
5.141764616E1,6.272999763E0,-4.328848839E0,1.795706153E-1
5.146963972E1,-5.205153465E0,6.919454098E0,-5.435003757E0
5.152163288E1,6.361588001E0,-1.518688488E1,8.985713005E0
5.157362620E1,1.043424988E1,-1.706639099E1,9.826104164E0
5.162561960E1,4.577853203E0,-1.576151085E1,2.719896078E0
5.167761289E1,6.804529190E0,-1.244783497E1,5.882733345E0
5.172960621E1,6.780586243E0,-9.505270958E0,3.914639235E0
5.178159984E1,6.086246490E0,-8.868393898E0,3.907456398E0
5.183359386E1,1.044143200E1,-7.752661705E0,5.219519138E0
5.188558722E1,6.565101624E0,-6.794951916E0,2.825244188E0
5.193758064E1,7.321692467E0,-3.371139050E0,1.831620216E0
5.198957400E1,7.716747761E0,-2.174001455E0,7.996878028E-1
5.204156829E1,1.568249941E0,-5.411061049E-1,2.322446555E-1
5.209356718E1,-1.444466019E1,3.067065954E0,-3.914639235E0
5.214556370E1,1.812466025E0,7.853221297E-1,3.373533249E0
5.219755723E1,3.280156374E0,-1.660429573E1,1.165772438E1
5.224955082E1,6.759037971E0,-2.124918938E1,6.579467297E0
5.230154395E1,1.123872566E1,-1.328343678E1,6.294548512E0
5.235353717E1,3.220299721E0,-1.055396366E1,5.188393593E0
5.240553057E1,5.662459850E0,-9.332882881E0,4.412648678E0
5.245752396E1,7.671256542E0,-9.007262230E0,4.276175022E0
5.250951791E1,8.899519920E0,-4.479688168E0,3.936187744E0
5.256151160E1,5.868367672E0,-2.293715239E0,5.858790398E0
5.261350492E1,4.235472202E0,-3.160442710E-1,5.736682415E0
5.266549819E1,5.241067410E0,7.446194887E-1,3.581835032E0
5.271749168E1,4.489265442E0,-1.041509509E0,-3.007209063E0
5.276948497E1,-3.663240373E-1,-6.273000240E-1,-1.750214934E0
5.282147826E1,4.913052082E0,-7.156487465E0,3.802108288E0
5.287347169E1,4.680807114E0,-9.773429871E0,4.462928295E0
5.292546577E1,9.222746849E0,-1.756918907E1,6.861991405E0
5.297745930E1,6.672843933E0,-1.320442581E1,4.436591148E0
5.302945266E1,8.451789856E0,-1.101366425E1,8.008849144E0
5.308144615E1,7.108602047E0,-8.935433388E0,6.263422966E0
5.313344001E1,9.014444351E0,-8.736708641E0,6.189200401E0
5.318543629E1,8.466156006E0,-7.170853138E0,4.441379547E0
5.323743002E1,5.990475655E0,-4.446168423E0,4.927417755E0
5.328942338E1,4.398283005E0,-1.446141958E0,4.403071404E0
5.334141700E1,4.364762783E0,-4.477293789E-1,2.205127001E0
5.339341010E1,4.491659641E0,-1.980065227E0,-3.229876757E0
5.344540326E1,3.407052994E0,-4.470110893E0,-5.530774593E-1
5.349739668E1,-6.009629965E-1,-3.943370581E0,2.358360767E0
5.354939057E1,6.675238132E0,-1.098972130E1,5.712739468E0
5.360138466E1,1.080057335E1,-1.159068394E1,7.034379482E0
5.365337778E1,6.383136749E0,-1.695146561E1,4.436591148E0
5.370340925E1,7.908289909E0,-1.109746361E1,8.597841263E0
5.375540257E1,7.048745155E0,-9.205986977E0,5.971321583E0
5.380739607E1,6.756643295E0,-9.538790703E0,5.073468208E0
5.385938929E1,1.093465328E1,-1.046537495E1,6.203566074E0
5.391138262E1,7.778998852E0,-5.887521744E0,6.287365437E0
5.396337657E1,4.819674969E0,-1.757397652E0,4.142095566E0
5.401537023E1,3.656057596E0,-2.130904645E-1,2.008796453E0
5.406736359E1,3.500429869E0,-1.628106833E0,-1.972882390E0
5.411935685E1,8.710371971E0,-3.718308687E0,4.237866402E-1
5.417135087E1,5.363175869E-1,1.628106833E-1,-3.849993944E0
5.422334903E1,3.725491524E0,-2.219492674E0,4.254626274E0
5.427534632E1,1.006553173E1,-1.025707340E1,7.728719234E0
5.432734034E1,7.846038342E0,-1.947263718E1,2.540325642E0
5.437933357E1,1.099450970E1,-1.157153034E1,5.162056446E0
5.443132696E1,8.353624344E0,-9.421471596E0,5.590631485E0
5.448332029E1,5.257827282E0,-8.442213058E0,3.658451796E0
5.453531358E1,1.127464008E1,-7.989695072E0,4.178009510E0
5.458730694E1,8.715160370E0,-4.539545059E0,4.506025314E0
5.463930033E1,8.758256912E0,-1.843591571E0,3.287339211E0
5.469129448E1,9.835680962E0,-2.442160368E0,-1.462901950E0
5.474328794E1,2.652856588E0,-2.375120640E0,-1.893871427E0
5.479528130E1,-7.790970325E0,1.242628574E0,1.677668381E1
5.484727469E1,-8.485309601E0,8.693612099E0,-1.063058019E0
5.489926795E1,1.465296149E0,-1.488281250E1,8.782199860E0
5.495126131E1,6.019207001E0,-2.884861755E1,9.361614227E0
5.500325464E1,1.098732662E1,-1.572080803E1,1.417410731E0
5.505524813E1,2.171607256E0,-1.248374844E1,5.162056446E0
5.510724235E1,8.552350044E0,-1.011102295E1,4.194769382E0
5.515923564E1,9.103033066E0,-1.084367085E1,2.351177931E0
5.521122897E1,7.850827217E0,-7.060716629E0,1.180377483E0
5.526322266E1,6.976916790E0,-2.688770533E0,9.385557175E-1
5.531521875E1,5.418243885E0,7.134938836E-1,1.010383964E0
5.536721291E1,4.371945858E0,1.012778282E0,1.685569525E0
5.541920633E1,2.583422422E0,-3.591412306E-2,5.650488734E-1
5.547119963E1,1.182771802E0,-2.049499273E0,3.215511084E0
5.552319295E1,5.128536701E0,-1.219643593E1,2.650462151E0
5.557518635E1,5.863578796E0,-9.110215187E0,7.228315830E0
5.562717970E1,9.074301720E0,-1.508871937E1,5.320078850E0
5.567917310E1,7.139727592E0,-1.596263027E1,5.698373914E-1
5.573116732E1,9.055147171E0,-1.106394386E1,6.021601200E0
5.578316064E1,7.599428177E0,-1.000327969E1,3.691971779E0
5.583515413E1,6.938608170E0,-9.404711723E0,4.125335693E0
5.588714749E1,7.075081825E0,-8.097437859E0,4.324060440E0
5.593914062E1,4.379128456E0,-4.867560863E0,4.041535854E0
5.599113401E1,3.313676357E0,-2.291321039E0,5.054314137E0
5.604312727E1,3.711125851E0,-1.781340480E0,4.393494129E0
5.609512103E1,1.877111435E0,-8.763045669E-1,1.041509509E0
5.614711508E1,3.351984918E-2,-2.288926601E0,3.000026226E0
5.619910834E1,-9.098244309E-1,-1.929785490E0,6.656084061E-1
5.625110173E1,7.786181450E0,-1.612065315E1,1.350131607E1
5.630309515E1,5.439792156E0,-1.299851799E1,-1.436564885E-2
5.635509274E1,1.150688457E1,-8.966559410E0,3.129317284E0
5.640709077E1,6.914665699E0,-1.388918781E1,4.367157459E0
5.645908603E1,5.118959427E0,-1.108549213E1,4.525179386E0
5.651107939E1,6.086246490E0,-8.794171333E0,4.134912491E0
5.656307278E1,8.049551964E0,-6.237085819E0,5.363175392E0
5.661506607E1,6.026389599E0,-3.670423269E0,3.917033672E0
5.666705946E1,5.080651283E0,-2.396669149E0,3.375927448E0
5.671905276E1,5.494860649E0,-1.807677507E0,4.019987583E0
5.677104694E1,-4.333637357E-1,4.276175022E0,-7.972934842E-1
5.682304037E1,-1.345582485E0,4.415042877E0,-1.371919513E0
5.687503369E1,6.146103382E0,-1.087240219E1,1.054678059E1
5.692702708E1,6.026389599E0,-1.671203804E1,5.365570068E0
5.697902034E1,1.096338463E1,-1.653964996E1,1.173194647E0
5.703101374E1,8.351230621E0,-1.052762604E1,7.029590607E0
5.708300710E1,4.161249638E0,-9.823709488E0,4.817280769E0
5.713500035E1,5.782173634E0,-9.581888199E0,5.114171028E0
5.718699461E1,6.756643295E0,-7.240286827E0,3.622537851E0
5.723898826E1,6.395108223E0,-5.418243885E0,5.308107376E0
5.729098142E1,6.593832970E0,-2.245829821E0,4.843617916E0
5.734297495E1,6.383136749E0,-2.298503876E0,4.994457245E0
5.739496818E1,4.403071404E0,-2.047105074E0,1.604164124E0
5.744696560E1,-2.715107679E0,7.518022656E-1,-2.705530524E-1
5.749896365E1,9.481328130E-1,-9.888355136E-1,3.237059593E0
5.755095808E1,8.858817071E-2,3.239453793E0,-2.317657948E0
5.760295147E1,9.699207306E0,-1.882857704E1,1.532096481E1
5.765494483E1,8.032792091E0,-1.476309872E1,-1.312062621E0
5.770693809E1,9.131764412E0,-1.156434727E1,7.122967720E0
5.775893141E1,8.183630943E0,-1.091549873E1,6.402290821E0
5.781092477E1,4.826858044E0,-1.089873886E1,5.267404556E0
5.786291820E1,7.589851379E0,-7.166064739E0,6.423839092E0
5.791491242E1,7.355212212E0,-7.319298267E0,5.949772835E0
5.796690581E1,4.482082367E0,-5.842030525E0,4.237866402E0
5.801889940E1,5.399089813E0,-3.294522047E0,1.836408734E0
5.807089239E1,4.381523132E0,-1.891477108E-1,7.829278708E-1
5.812288585E1,6.756643295E0,2.825244188E0,5.528380394E0
5.817487914E1,3.088614643E-1,1.834014535E0,7.518022656E-1
5.822687240E1,-3.543526649E0,1.127703428E0,5.027977228E-1
5.827886613E1,6.146103382E0,-8.056735039E0,9.035993576E0
5.833086021E1,8.205180168E0,-1.686048317E1,5.126142502E0
5.838285360E1,1.208869362E1,-1.678147125E1,6.347222328E0
5.843484693E1,8.025609016E0,-1.114774323E1,5.566689014E0
5.848684022E1,8.186025620E0,-9.404711723E0,5.734288216E0
5.853883608E1,8.715160370E0,-8.698400497E0,7.261835575E0
5.859083087E1,1.039115238E1,-7.144515991E0,5.820482254E0
5.864282416E1,9.629773140E0,-5.209941864E0,3.079037428E0
5.869481749E1,7.611399651E0,-3.361561775E0,1.678386688E0
5.874681082E1,5.037554264E0,-9.457385540E-1,-1.005595401E-1
5.879880421E1,3.737462997E0,6.560313106E-1,1.091789365E0
5.885079767E1,3.411841631E0,-1.685569525E0,1.350371003E0
5.890279129E1,7.541965842E-1,-5.159662247E0,5.193181992E0
5.895478514E1,-4.728692532E0,-4.764606953E0,-9.696813226E-1
5.900677860E1,3.493247032E0,-6.462147713E0,8.868393898E0
5.905877220E1,4.474899769E0,-1.416692448E1,5.367964268E0
5.911076532E1,1.175349522E1,-1.337202454E1,7.295355320E0
5.916275851E1,7.788576126E0,-1.077902508E1,7.374366283E0
5.921475174E1,7.905895233E0,-1.037918091E1,5.760625362E0
5.926674526E1,1.024749660E1,-8.059128761E0,5.248250484E0
5.931873909E1,8.786988258E0,-7.381549358E0,5.241067410E0
5.937073304E1,9.816526413E0,-1.446141958E0,3.708731651E0
5.942272630E1,8.772623062E0,1.654443860E0,5.205153465E0
5.947471956E1,4.975303173E0,-4.788549542E-1,1.781340480E0
5.952671282E1,4.458139896E0,-6.799740195E-1,-1.302485466E0
5.957870937E1,1.089395046E0,4.668835998E-1,2.370332032E-1
5.963070786E1,-3.742251635E0,8.044763207E-1,-2.746233225E0
5.968270289E1,-2.123721838E0,-3.344801903E0,1.467690468E0
5.973469628E1,9.775823593E0,-1.649415970E1,9.596253395E0
5.978668964E1,1.143026829E1,-2.230985260E1,7.592245579E0
5.983868286E1,9.251478195E0,-1.317090607E1,5.423032284E0
5.989067619E1,1.077663136E1,-1.031932449E1,7.965752125E0
5.994266958E1,6.459753513E0,-9.433443069E0,4.599401951E0
5.999466284E1,8.030397415E0,-9.182044029E0,4.857983589E0
6.004665683E1,7.381549358E0,-5.700768471E0,6.079063892E0
6.009865055E1,4.022381783E0,-4.613767624E0,5.420638084E0
6.015064384E1,3.744645834E0,-6.129343510E0,3.225088120E0
6.020263727E1,2.877918243E0,-2.250618219E0,1.295302629E0
6.025463066E1,1.987248063E0,-3.596200705E0,-3.356773376E0
6.030662392E1,-1.158828974E0,-3.909850836E0,1.101366401E0
6.035861735E1,-4.333637357E-1,4.381522834E-1,9.098244309E-1
6.041061054E1,5.324867249E0,-1.011581135E1,8.779806137E0
6.046260463E1,9.459779739E0,-1.821085358E1,2.528354168E0
6.051459825E1,6.591438770E0,-1.033129597E1,7.731113434E0
6.056659158E1,9.227535248E0,-9.593858719E0,9.814132690E0
6.061858497E1,7.266623974E0,-8.643332481E0,7.264229774E0
6.067058029E1,9.040781975E0,-9.344854355E0,7.108602047E0
6.072257568E1,8.401510239E0,-7.441406250E0,4.630527496E0
6.077456891E1,6.270605564E0,-5.980898380E0,5.727105141E0
6.082656227E1,4.046324253E0,-8.954587579E-1,4.802915096E0
6.087855563E1,3.905062199E0,9.553156495E-1,5.037554264E0
6.093054896E1,2.209915638E0,2.849186957E-1,2.255406857E0
6.098254232E1,6.490879059E0,-2.901860952E0,5.315290093E-1
6.103453567E1,-1.460507631E0,-3.787742853E0,-2.257801056E0
6.108652963E1,-1.692752242E0,-3.261002302E0,2.765387297E0
6.113847300E1,7.130150318E0,-1.186123753E1,1.142787361E1
6.119046629E1,6.205960274E0,-1.776791382E1,6.251451492E0
6.124245955E1,9.785401344E0,-1.110943508E1,8.913885117E0
6.129445291E1,7.982511997E0,-9.663292885E0,9.476539612E0
6.134644637E1,6.622564316E0,-8.717555046E0,7.743084908E0
6.139843956E1,8.669669151E0,-8.923461914E0,6.696786404E0
6.145043328E1,9.306546211E0,-9.270631790E0,5.238673210E0
6.150242730E1,5.454157829E0,-6.234691620E0,4.036747456E0
6.155442069E1,3.684788942E0,-1.188278580E1,2.171607256E0
6.160641399E1,4.029564381E0,-5.727105141E0,-1.623318315E0
6.165840728E1,3.000026226E0,1.300091267E0,6.653689861E0
6.171040287E1,-6.438204765E0,6.981705189E0,-6.988888264E0
6.176240156E1,-8.435029984E0,6.306519985E0,-3.687183261E-1
6.181439792E1,3.356773376E0,-1.314696312E1,8.700794220E0
6.186639161E1,1.732497215E1,-2.609998894E1,5.207547665E0
6.191838497E1,8.095043182E0,-1.293147850E1,4.678412914E0
6.197037826E1,1.012059975E1,-9.143735886E0,5.825270653E0
6.202237166E1,6.785374641E0,-8.351230621E0,4.235472202E0
6.207436492E1,7.534782887E0,-1.005116558E1,4.735875607E0
6.212635897E1,8.528407097E0,-7.077476501E0,4.474899769E0
6.217835262E1,6.548341751E0,-6.390319347E0,2.118933201E0
6.223034588E1,3.028757572E0,-3.047911882E0,3.689577579E0
6.228233934E1,1.939362645E0,1.716695070E0,2.379909277E0
6.233433264E1,2.279349566E0,5.602602959E-1,-1.819648892E-1
6.238632593E1,8.011243820E0,-6.799740195E-1,-1.280937076E0
6.243831946E1,-5.267404556E0,2.997632027E0,-2.672010660E0
6.249031265E1,7.139727592E0,-1.149251938E1,7.592245579E0
6.254230650E1,1.047255802E1,-1.777509689E1,5.377541065E0
6.259430039E1,1.159786701E1,-1.504562283E1,3.598595142E0
6.264629362E1,8.583475113E0,-1.146139336E1,6.237085819E0
6.269828701E1,5.236279011E0,-8.980924606E0,3.536343813E0
6.275028037E1,1.055635738E1,-8.425453186E0,4.304905891E0
6.280227576E1,1.044382668E1,-4.168432236E0,4.187586784E0
6.285427458E1,7.869981289E0,2.394274808E-2,3.917033672E0
6.290627034E1,4.767001152E0,5.051919818E-1,1.221080184E0
6.295826370E1,4.271386147E0,-2.719896078E0,3.016786337E0
6.301025696E1,-1.771763325E0,-1.381496549E0,-6.371165276E0
6.306225035E1,-3.555498123E0,4.053507328E0,5.329655647E0
6.311424371E1,-1.891477108E-1,2.609759569E0,3.931399345E0
6.316623693E1,8.174054146E0,-1.705681419E1,1.149730778E1
6.321823036E1,1.638881111E1,-1.938883781E1,8.997684479E0
6.327022431E1,5.245856285E0,-1.434170628E1,2.054287672E0
6.332221797E1,5.516408920E0,-8.564320564E0,5.090228081E0
6.337421139E1,9.622590065E0,-7.752661705E0,6.976916790E0
6.342620472E1,9.282603264E0,-6.555524349E0,4.676018715E0
6.347819801E1,9.359220505E0,-5.849213123E0,3.861965179E0
6.353019140E1,9.201197624E0,-4.474899769E0,6.684815407E0
6.358218466E1,2.784541607E0,-3.567469358E0,4.618556023E0
6.363417809E1,-3.280156374E0,2.897072434E-1,1.474873304E0
6.368617224E1,1.000806928E0,8.308133483E-1,-2.035133600E0
6.373816570E1,1.431776285E0,-3.378321648E0,-3.629720688E0
6.379015902E1,8.832479477E0,-1.374074268E1,4.027170181E0
6.384215248E1,3.320859194E0,-1.853168726E0,2.676799297E0
6.389414694E1,9.792584419E0,-1.881421089E1,9.469356537E0
6.394614300E1,9.624984741E0,-1.397538185E1,5.384724140E0
6.399813642E1,7.735901833E0,-1.178701496E1,6.713546753E0
6.405012975E1,4.731087208E0,-9.732727051E0,3.644086361E0
6.410212311E1,6.881145954E0,-9.847652435E0,5.612180233E0
6.415411647E1,1.079099655E1,-7.101418972E0,5.700768471E0
6.420610979E1,7.273807049E0,-6.160469055E0,4.297723293E0
6.425810302E1,6.268211365E0,-3.720703125E0,2.911438227E0
6.431009717E1,5.801327705E0,-3.926610649E-1,7.853221297E-1
6.436209083E1,3.964919090E0,9.337671846E-2,-9.337671846E-2
6.441408405E1,-1.029059315E1,2.162030220E0,-5.964138508E0
6.446607748E1,-4.936994553E0,5.437397957E0,2.154847234E-2
6.451807087E1,6.794951916E0,-2.298982620E1,8.435029984E0
6.457006426E1,9.517242432E0,-2.332502556E1,8.827691078E0
6.462205752E1,8.032792091E0,-1.454043102E1,7.206767082E0
6.467405108E1,6.328068256E0,-1.104957867E1,7.072687626E0
6.472604507E1,6.948185444E0,-8.257853508E0,6.191594601E0
6.477803849E1,8.444606781E0,-7.716747761E0,4.491659641E0
6.483003185E1,9.165284157E0,-6.514821529E0,3.763799906E0
6.488202514E1,6.694392204E0,-2.269772530E0,3.000026226E0
6.493401977E1,5.346415520E0,1.187560320E0,4.144489765E0
6.498601862E1,2.183578730E0,2.044710636E0,-1.960911036E0
6.503801505E1,3.014391899E0,-2.499622822E0,-1.704723716E0
6.509000844E1,-4.245049000E0,-1.319245458E0,5.411061287E0
6.514200180E1,-1.893871427E0,-9.335277557E0,5.961744308E0
6.519399516E1,3.823656797E0,-1.176546669E1,1.142547894E1
6.524598858E1,4.613767624E0,-1.898899269E1,4.273780346E0
6.529798201E1,1.083169937E1,-1.169124413E1,6.402290821E0
6.534997513E1,9.787795067E0,-7.546754360E0,7.292961121E0
6.540196866E1,8.569109917E0,-7.747873306E0,5.918647289E0
6.545396278E1,1.041509533E1,-8.523618698E0,5.379935265E0
6.550595604E1,8.260248184E0,-6.435810566E0,4.592218876E0
6.555794946E1,1.037918091E1,-5.504437923E0,2.880312681E0
6.560994306E1,4.252232075E0,-2.755810261E0,5.075862408E-1
6.566193631E1,4.908263385E-1,-1.175588965E0,6.009629965E-1
6.571392951E1,6.234691620E0,-2.334417820E0,1.260825157E1
6.576592293E1,-2.937775135E0,4.527573586E0,-2.856369734E0
6.581791662E1,-1.795706153E0,-2.525959969E0,4.127729893E0
6.586991074E1,8.363202095E0,-6.565101624E0,9.529213905E0
6.592190384E1,5.358386993E0,-2.095229912E1,4.261809349E0
6.597389720E1,1.241670895E1,-1.263458824E1,7.908289909E0
6.602589119E1,7.537177086E0,-8.916279793E0,6.962551117E0
6.607788744E1,7.134938717E0,-8.411087036E0,5.514014721E0
6.612988120E1,8.662486076E0,-9.419076920E0,5.032765865E0
6.618187456E1,8.162082672E0,-7.848433018E0,4.525179386E0
6.623386789E1,6.644112587E0,-4.652075768E0,1.407833576E0
6.628586132E1,4.120546818E0,-2.087807655E0,4.309694767E-1
6.633785444E1,3.952947617E0,4.022381604E-1,1.908236980E0
6.638984787E1,2.420611858E0,3.543526828E-1,6.512427330E-1
6.644184182E1,-2.078230619E0,2.731867552E0,-1.134886265E0
6.649383551E1,-3.737462997E0,1.573038578E0,1.553884387E0
6.654582894E1,9.129369736E0,-1.561306572E1,8.813325882E0
6.659782219E1,1.093465328E1,-2.048062706E1,3.550709486E0
6.664981562E1,1.103760719E1,-1.321639729E1,6.306519985E0
6.670180898E1,6.651295185E0,-9.893143654E0,4.247443676E0
6.675380230E1,5.681613922E0,-8.940221786E0,3.732674360E0
6.680579556E1,8.279402733E0,-8.406298637E0,3.996044636E0
6.685778945E1,8.432636261E0,-6.431022167E0,4.201952457E0
6.690978317E1,6.440599442E0,-2.147664547E0,4.601796150E0
6.696177670E1,4.561093330E0,1.201925993E0,3.215511084E0
6.701376989E1,3.780560017E0,-1.106154919E0,1.604164094E-1
6.706576395E1,9.361614227E0,-1.867534399E0,5.111776829E0
6.711776247E1,-2.286532402E0,-2.296109438E0,1.149251908E-1
6.716975973E1,9.577099234E-3,-1.793311834E0,2.760598898E0
6.722175422E1,7.731113434E0,-6.852414608E0,9.100638390E0
6.727374755E1,7.266623974E0,-1.480858994E1,2.964112282E0
6.732574101E1,1.236164093E1,-1.427466679E1,6.984099388E0
6.737773430E1,8.865999222E0,-8.779806137E0,5.578660488E0
6.742972776E1,7.482108593E0,-9.299363136E0,5.068679810E0
6.748172132E1,7.314509392E0,-9.105426788E0,4.048718929E0
6.753371517E1,9.852440834E0,-8.348835945E0,4.146883965E0
6.758570849E1,5.514014721E0,-5.549929142E0,2.150058746E0
6.763770219E1,5.322473049E0,9.409499764E-1,1.592192769E0
6.768969528E1,2.947352171E0,3.131711483E0,2.126116037E0
6.774168861E1,-8.643332124E-1,1.613741279E0,-5.889915824E-1
6.779368196E1,-8.583475113E0,9.866806030E0,-4.297723293E0
6.784567536E1,1.077423692E-1,-6.478907585E0,5.308107376E0
6.789766898E1,6.337645531E0,-1.914701653E1,1.376229191E1
6.794966297E1,1.495464039E1,-2.311432838E1,2.219492674E0
6.800165629E1,5.202759266E0,-1.298654652E1,2.686376333E0
6.805364962E1,7.300143719E0,-8.490098000E0,3.220299721E0
6.810564294E1,7.058321953E0,-7.568302631E0,3.907456398E0
6.815763687E1,9.222746849E0,-6.292154312E0,4.913052082E0
6.820963536E1,6.311308384E0,-6.732700825E0,4.041535854E0
6.826163254E1,7.223526955E0,-3.876330853E0,2.406246185E0
6.831362634E1,4.613767624E0,-1.343188167E0,-1.453324795E0
6.836561960E1,1.288119793E0,5.770202279E-1,-3.787742853E0
6.841761296E1,-2.834821463E0,-2.609759569E-1,-3.641691923E0
6.846960642E1,-3.416630268E0,2.094990492E0,8.116591573E-1
6.852159961E1,8.700794220E0,-1.226108170E1,9.641744614E0
6.857359293E1,8.602629662E0,-1.798100471E1,2.803695917E0
6.862555584E1,1.260585690E1,-1.605600739E1,4.869955063E0
6.867754973E1,7.860404015E0,-1.152843285E1,5.573871613E0
6.872954302E1,7.759844780E0,-9.991309166E0,3.974496126E0
6.878153641E1,6.993676662E0,-9.615407944E0,4.383917332E0
6.883352974E1,7.987300873E0,-7.213950157E0,3.852388144E0
6.888552310E1,6.167652130E0,-3.028757572E0,4.565882206E0
6.893751642E1,6.103006363E0,-5.961744189E-1,2.272166729E0
6.898950982E1,3.510006905E0,-1.486844659E0,1.048692346E0
6.904150380E1,-2.968900800E-1,-5.260221958E0,1.046298146E0
6.909349743E1,7.757450342E-1,-9.026415944E-1,1.932179809E0
6.914549078E1,1.168406129E0,-5.688796997E0,3.378321648E0
6.919748401E1,2.813272953E0,-9.122186661E0,9.653716087E0
6.924947780E1,7.980117798E0,-1.174391747E1,7.345634937E0
6.930147396E1,9.675264359E0,-1.803607178E1,5.597814560E0
6.935346805E1,9.246688843E0,-1.198334503E1,8.420664787E0
6.940546148E1,8.102226257E0,-9.555550575E0,4.941783428E0
6.945745474E1,6.759037971E0,-1.039594078E1,4.838829517E0
6.950944820E1,9.725543976E0,-9.445414543E0,4.767001152E0
6.956144149E1,8.348835945E0,-8.118986130E0,5.162056446E0
6.961343478E1,3.715914488E0,-6.502850533E0,-8.020820618E-1
6.966542857E1,1.675992459E-2,-5.901887417E0,-3.694365978E0
6.971742256E1,-6.823683262E0,9.577099085E-1,-2.715107679E0
6.976941582E1,4.441379547E0,-8.341653824E0,6.581861496E0
6.982140918E1,1.699935049E-1,-3.471698463E-1,8.813325882E0
6.987340254E1,6.404685020E0,-3.339295197E1,9.328094482E0
6.992539586E1,9.337671280E0,-1.775833702E1,1.594586968E0
6.997738916E1,5.104593754E0,-1.319005966E1,3.488458395E0
7.002938248E1,7.755055904E0,-7.841249943E0,3.838022470E0
7.008137644E1,6.749460697E0,-8.420664787E0,4.553910732E0
7.013337012E1,6.871568680E0,-6.651295185E0,3.153259993E0
7.018536348E1,6.684815407E0,-2.626519442E0,2.846792698E0
7.023735684E1,7.197190285E0,4.094209969E-1,3.016786337E0
7.028935027E1,5.068679810E0,-2.116539001E0,8.858816624E-1
7.034134812E1,-4.309694767E-1,-3.368744612E0,-4.683201313E0
7.039334591E1,4.647287369E0,1.628106833E0,-3.062277555E0
7.044534014E1,-2.078230619E0,-2.078230619E0,1.747820675E-1
7.049733356E1,1.009426212E1,-2.309996414E1,1.472478962E1
7.054932686E1,-1.630501151E0,-2.063146591E1,-3.471698463E-1
7.060132011E1,4.731087208E0,-1.243586349E1,7.992089272E0
7.065331357E1,8.458972931E0,-8.978530884E0,3.799714088E0
7.070530680E1,4.156461239E0,-7.853221416E0,4.462928295E0
7.075730019E1,8.892336845E0,-8.078283310E0,5.157268047E0
7.080929431E1,5.803721905E0,-9.428654671E0,3.074248791E0
7.086128780E1,2.710319042E0,-7.635342598E0,5.985686928E-2
7.091328119E1,-2.846792698E0,-2.801301479E-1,-1.266571403E0
7.096527452E1,-5.839636326E0,1.113577175E1,-5.782173634E0
7.101726788E1,-2.827638626E0,-1.395383358E1,7.719141960E0
7.106926124E1,8.049551964E0,-1.495703506E1,4.532361984E0
7.112125453E1,9.031204224E0,-1.602488136E1,3.433390141E0
7.117324796E1,5.791750908E0,-1.326428223E1,7.558725357E0
7.122524218E1,6.522004604E0,-1.040791225E1,5.025582790E0
7.127723547E1,6.186806202E0,-1.181095791E1,4.098998547E0
7.132922902E1,7.927443981E0,-9.751881599E0,3.423812866E0
7.138122235E1,6.344828129E0,-5.717528343E0,3.146077156E0
7.143321827E1,3.457332850E0,-3.493247032E0,1.403045058E0
7.148521287E1,-1.345582485E0,-1.285725594E0,2.300898075E0
7.153720616E1,-4.134912491E0,2.379909277E0,-2.135693073E0
7.158919955E1,-3.289733648E0,-5.684008598E0,-3.447755575E-1
7.164119298E1,6.888328552E0,-1.460028744E1,7.163670063E0
7.169318624E1,8.332076073E0,-1.942235756E1,3.095797300E0
7.174517956E1,5.703162670E0,-1.321400261E1,8.145322800E0
7.179717302E1,5.221913338E0,-1.008947372E1,5.379935265E0
7.184916717E1,5.190787792E0,-9.852440834E0,4.611373425E0
7.190116056E1,7.908289909E0,-9.838075638E0,4.666441441E0
7.195315389E1,6.450176239E0,-8.499675751E0,4.731087208E0
7.200514732E1,5.758230686E0,-6.955368519E0,5.470917702E0
7.205714054E1,1.412622094E0,-3.617749214E0,3.663240373E-1
7.210913410E1,-7.922655106E0,1.546701550E0,-6.782980442E0
7.216112726E1,3.397475958E0,-6.811711788E0,2.758204460E0
7.221312072E1,5.279376030E0,-4.620950222E0,4.127729893E0
7.226511497E1,6.522004604E0,-1.620684624E1,6.237085819E0
7.231710833E1,6.835654736E0,-1.646303368E1,2.810878515E0
7.236910159E1,3.878725290E0,-1.119323444E1,4.237866402E0
7.242109535E1,7.518023014E0,-1.179419804E1,4.460534096E0
7.247309207E1,5.497254848E0,-1.143745041E1,3.885908127E0
7.252509019E1,8.468549728E0,-1.038636398E1,4.920234680E0
7.257708505E1,7.625765324E0,-7.206767082E0,3.471698523E0
7.262907838E1,6.246663094E0,-4.302511692E0,1.812466025E0
7.268107170E1,4.079844475E0,-2.343995094E0,-2.044710636E0
7.273306506E1,-2.516382933E0,-1.245022863E-1,-4.137306690E0
7.278505838E1,-1.099929810E1,8.640937805E0,2.559958649E1
7.283705168E1,1.436564922E-1,1.865140152E1,-9.098244309E-1
7.288904507E1,1.061621475E1,-3.850712204E1,1.075029373E1
7.294103862E1,8.786988258E0,-1.784453011E1,1.400650740E0
7.299303291E1,3.878725290E0,-1.377186871E1,3.964919090E0
7.304502600E1,4.577853203E0,-1.030974770E1,1.984853864E0
7.309701930E1,6.119766235E0,-6.495667458E0,5.487678051E0
7.314901266E1,9.177255630E0,-4.257020473E0,5.332049847E0
7.320100625E1,9.790189743E0,-6.023995399E0,6.411868095E0
7.325299928E1,1.036960411E1,-4.618556023E0,3.203539610E0
7.330499264E1,2.703136206E0,-1.628106833E0,2.382303476E0
7.335698696E1,-3.945764780E0,-4.477293789E-1,-5.664854050E0
7.340898048E1,-1.640078187E0,-3.735068738E-1,2.336812258E0
7.346097364E1,-9.471751213E0,2.056682110E0,-6.727912426E0
7.351296700E1,5.478100777E0,-9.955394745E0,6.996070862E0
7.356496255E1,1.028341007E1,-3.057489014E1,3.703943014E0
7.361695761E1,7.920260906E0,-1.260346222E1,6.804529190E0
7.366895137E1,8.650514603E0,-9.387951851E0,5.863578796E0
7.372094443E1,5.973715782E0,-9.110215187E0,3.689577579E0
7.377293762E1,8.983319283E0,-6.656084061E0,4.632921696E0
7.382493108E1,8.916279793E0,-4.278569221E0,6.002447128E0
7.387692434E1,6.943397045E0,-1.163617611E0,4.944177628E0
7.392891780E1,7.039167881E0,-1.197137386E-1,2.288926601E0
7.398091159E1,6.787769318E0,-8.595446348E-1,6.423839092E0
7.403290538E1,-7.134938717E0,3.701548815E0,-5.332049847E0
7.408489870E1,-3.203539610E0,-2.212309837E0,-2.490045726E-1
7.413689200E1,8.344047546E0,-9.284997940E0,9.644139290E0
7.418888542E1,7.448588848E0,-2.099539566E1,7.486897469E0
7.424087878E1,1.226587009E1,-1.241431522E1,6.962551117E0
7.429287197E1,7.628159523E0,-7.834067345E0,6.435810566E0
7.434486563E1,6.493273258E0,-7.486897469E0,5.193181992E0
7.439685962E1,9.823709488E0,-7.328875065E0,6.387925148E0
7.444885314E1,8.830085754E0,-4.345608711E0,4.867560863E0
7.450084640E1,7.199584484E0,-1.189954638E0,3.883513689E0
7.455283973E1,4.532361984E0,-1.675992310E-1,3.107768774E0
7.460483588E1,2.511594296E0,-2.808484316E0,2.353572130E0
7.465683417E1,-1.292908341E-1,-3.931399345E0,-8.810931444E-1
7.470883056E1,5.652883053E0,-4.884320498E-1,6.804529190E0
7.476082406E1,4.944177628E0,-8.626572609E0,6.000052452E0
7.481281755E1,-1.304879785E0,-4.000833035E0,4.036747456E0
7.486481081E1,1.284288979E1,-2.495552635E1,7.458166122E0
7.491680404E1,1.154758739E1,-1.295063210E1,5.224307537E0
7.496879736E1,9.462174416E0,-8.394327164E0,5.633728504E0
7.502079085E1,8.174054146E0,-9.294574738E0,5.470917702E0
7.507278507E1,9.572310448E0,-7.515628815E0,3.227482557E0
7.512477840E1,5.820482254E0,-2.973689318E0,2.375120640E0
7.517677173E1,2.897072554E0,-4.549122155E-1,1.762186289E0
7.522876505E1,2.233858347E0,-6.632141471E-1,1.197137404E-2
7.528075848E1,-1.565855742E0,-7.391126156E0,3.265790939E0
7.533275180E1,4.869955063E0,-1.007989693E1,7.661679387E-2
7.538474509E1,-3.256213665E-1,-2.801301479E0,4.185192585E0
7.543673878E1,5.202759266E0,-1.280218697E1,4.125335693E0
7.548873287E1,9.383162498E0,-1.898659897E1,4.271386147E0
7.554072633E1,1.057072353E1,-1.138477707E1,4.946571827E0
7.559271946E1,7.283383846E0,-1.085564232E1,5.071074009E0
7.564471278E1,8.813325882E0,-9.366402626E0,5.377541065E0
7.569670860E1,7.084659100E0,-7.798152924E0,3.359167576E0
7.574870746E1,5.035160065E0,-4.012804508E0,2.901860952E0
7.580070275E1,4.149278164E0,-4.908263385E-1,2.518777132E0
7.585269628E1,4.788549617E-2,-1.817254543E0,-3.763799906E0
7.590468950E1,-5.411061287E0,-6.119766235E0,-1.268965602E0
7.595668276E1,4.678412914E0,-4.759818554E0,8.844450951E0
7.600857758E1,8.135746002E0,-1.622360611E1,7.570696831E0
7.606057093E1,6.081457734E-1,-1.815578651E1,1.343188167E0
7.611256423E1,8.138139725E0,-9.126976013E0,4.965725899E0
7.616455831E1,7.558725357E0,-1.199771118E1,5.873156071E0
7.621655200E1,6.272999763E0,-1.081972790E1,4.743058205E0
7.626854533E1,9.284997940E0,-1.016609097E1,3.759011507E0
7.632053856E1,8.413481712E0,-6.787769318E0,4.537150860E0
7.637253195E1,4.235472202E0,-4.506025314E0,3.864359617E0
7.642452537E1,3.057488918E0,-8.284190893E-1,4.565882206E0
7.647651870E1,-1.989642382E0,-1.460507631E0,-1.522758722E0
7.652851202E1,3.533949614E0,4.788549617E-2,1.167687798E1
7.658050595E1,7.134938836E-1,-2.535537004E0,4.616161823E0
7.663249957E1,8.341653824E0,-1.263698196E1,5.013611317E0
7.668449306E1,8.159688950E0,-1.786847305E1,6.261028767E0
7.673648632E1,6.778192043E0,-1.149012470E1,4.580247879E0
7.678848108E1,3.861965179E0,-9.605830193E0,6.232297421E0
7.684047703E1,8.581081390E0,-1.064255142E1,6.134131908E0
7.689247026E1,1.079339123E1,-8.317710876E0,4.690384388E0
7.694446365E1,9.148524284E0,-7.233104229E0,3.136499882E0
7.699645698E1,1.941756845E0,-7.115784645E0,1.829225898E0
7.704845030E1,-2.025556564E0,-5.020794392E0,-4.788549542E-1
7.710044366E1,-2.243435383E0,7.589851022E-1,-2.717501879E0
7.715243696E1,9.871595383E0,4.343214512E0,1.350370979E1
7.720443117E1,4.831646442E0,-2.964112282E0,7.721536160E0
7.725642467E1,7.051139355E0,-6.004841328E0,-1.534730196E0
7.730841796E1,8.150111198E0,-1.847183037E1,2.468497276E0
7.736041135E1,1.005356026E1,-1.061382008E1,6.727912426E0
7.741240468E1,1.023791885E1,-9.409500122E0,7.230710030E0
7.746439800E1,8.164477348E0,-8.973741531E0,5.423032284E0
7.751639143E1,1.067128277E1,-8.559532166E0,4.405465603E0
7.756838469E1,7.211555958E0,-6.557918549E0,2.743839025E0
7.762037877E1,5.837242126E0,-5.585843086E0,-1.479661822E0
7.767237240E1,2.880312681E0,-3.411841631E0,-4.285751879E-1
7.772436589E1,-4.348002911E0,6.225114465E-1,-6.170046329E0
7.777635898E1,1.150209618E1,-9.589070320E0,1.185166001E0
7.782835390E1,2.008796453E0,-7.494080067E0,4.331243038E0
7.788035269E1,2.298503816E-1,-1.270641613E1,3.749434233E0
7.793234952E1,9.356825829E0,-1.517491341E1,8.662486076E0
7.798434348E1,8.482915878E0,-1.226826382E1,1.023791885E1
7.803633691E1,7.496474266E0,-9.347249031E0,7.070293427E0
7.808833000E1,6.064698219E0,-9.658504486E0,5.253038883E0
7.814032339E1,8.334470749E0,-9.256266594E0,4.393494129E0
7.819231672E1,8.442213058E0,-5.298530102E0,1.484450340E0
7.824431018E1,5.925830364E0,-6.773403645E0,-2.078230619E0
7.829630446E1,-1.721483588E0,-5.729499817E0,-6.330462456E0
7.834829795E1,7.350423932E-1,-9.443019867E0,3.308887720E0
7.840029118E1,-9.962577820E0,3.969707727E0,-4.412648678E0
7.845228440E1,7.692804813E0,-2.246548080E1,1.100648117E1
7.850427776E1,-6.967339516E-1,-2.142636490E1,-3.373533249E0
7.855627106E1,8.329682350E0,-1.498576641E1,7.664073467E0
7.860826445E1,5.992869854E0,-1.528265572E1,2.885101080E0
7.866025807E1,5.023188591E0,-1.070240879E1,3.162837029E0
7.871225202E1,4.283357620E0,-6.174834728E0,2.449343204E0
7.876424545E1,2.291321039E0,-5.267404556E0,4.010410309E0
7.881623871E1,5.514014721E0,-3.533949614E0,4.819674969E0
7.886823207E1,5.794144869E-1,-2.169213057E0,3.040728867E-1
7.892022679E1,1.606558442E0,-1.144463301E0,2.243435383E0
7.897222564E1,-2.027950764E0,7.996878028E-1,-3.639297783E-1
7.902422204E1,3.246636629E0,-3.196356773E0,2.820455790E0
7.907621543E1,1.211742496E1,-1.674555779E1,8.028003693E0
7.912820879E1,7.968146324E0,-2.545114136E1,2.846792698E0
7.918020205E1,8.078283310E0,-1.482295513E1,4.180403709E0
7.923219541E1,6.811711788E0,-1.365454960E1,1.630501151E0
7.928418883E1,4.331243038E0,-1.078141975E1,1.805283189E0
7.933618216E1,5.106987953E0,-5.825270653E0,2.492439985E0
7.938817601E1,3.804502726E0,-4.982485771E0,9.337671995E-1
7.944016980E1,-5.865973234E-1,-4.948966026E0,-7.853221297E-1
7.949216309E1,-4.819674969E0,-1.630501151E0,-3.869148016E0
7.954415652E1,7.333663940E0,-3.256213665E0,-1.482056141E0
7.959614988E1,4.668835998E-1,-9.373585701E0,2.870735407E0
7.964814307E1,3.363956213E0,-1.607755470E1,6.201171875E0
7.970013656E1,1.495224571E1,-1.612544060E1,7.829278708E-1
7.975212979E1,4.611373425E0,-1.429621506E1,2.650462151E0
7.980412384E1,6.371165276E0,-1.141350842E1,3.280156374E0
7.985611753E1,9.478934288E0,-7.295355320E0,2.621730804E0
7.990811076E1,6.265817165E0,-1.898659945E0,2.399063349E0
7.996010415E1,2.710319042E0,-1.963305354E0,3.646480560E0
8.001209824E1,2.767781734E0,-3.093403101E0,-1.690358043E0
8.006409450E1,1.714300752E0,-3.691971779E0,9.651321411E0
8.011608812E1,-6.768614769E0,3.883513689E0,3.663240373E-1
8.016808148E1,7.594639778E0,-2.661715317E1,9.658504486E0
8.022007481E1,3.703943014E0,-1.873759460E1,-5.449369431E0
8.027206820E1,6.313702583E0,-1.468648148E1,2.676799297E0
8.032406142E1,5.068679810E0,-1.326907063E1,2.078230619E0
8.037605492E1,4.587430477E0,-8.439818382E0,3.543526649E0
8.042804903E1,8.035185814E0,-5.013611317E0,4.314483166E0
8.048004272E1,6.548341751E0,-3.411841631E0,8.164477348E-1
8.053203585E1,3.280156374E0,-3.632114887E0,3.256213665E-1
8.058402954E1,6.462147713E0,5.722316504E-1,1.482534981E1
8.063602247E1,-6.000052452E0,1.756200600E1,-1.716695070E0
8.068801590E1,7.836461544E0,-2.597788239E1,1.111901188E1
8.074000916E1,4.901080608E0,-2.486933327E1,-4.611373425E0
8.079200251E1,3.632114887E0,-1.311344337E1,2.444554567E0
8.084399670E1,2.482862949E0,-1.473436737E1,1.795706153E-1
8.089599026E1,6.749460697E0,-9.651321411E0,1.659232497E0
8.094798352E1,5.904281616E0,-4.759818554E0,2.205127001E0
8.099997688E1,7.197190285E0,-1.608952641E0,4.388705730E0
8.105197096E1,8.633754730E0,-2.705530524E-1,2.727078915E0
8.110396965E1,3.174808502E0,8.020820618E-1,1.675992459E-2
8.115596648E1,8.786988258E-1,-1.101366401E0,1.640078187E0
8.120796027E1,-4.429408312E-1,1.929785490E0,1.987248063E-1
8.125995346E1,3.445361376E0,-3.514795303E0,-2.181184292E0
8.131194689E1,2.427794695E0,-1.393946838E1,7.324086666E0
8.136394028E1,8.217150688E0,-2.320770645E1,4.565882206E0
8.141593347E1,6.727912426E-1,-1.631698227E1,-1.295302629E0
8.146792690E1,6.773403645E0,-1.301527786E1,5.506832123E0
8.151992032E1,6.172440529E0,-1.410706711E1,1.889082789E0
8.157191451E1,7.190007210E0,-1.164814663E1,2.612153769E0
8.162390793E1,8.305739403E0,-7.108602047E0,3.378321648E0
8.167590113E1,7.278595448E0,-3.684788942E0,3.478881359E0
8.172789449E1,3.699154615E0,-7.398309112E-1,2.497228622E0
8.177988798E1,1.029538155E0,9.505270720E-1,1.750214934E0
8.183188124E1,2.245829821E0,9.433442950E-1,-9.960182905E-1
8.188387463E1,-4.726298332E0,-6.392713785E-1,-2.820455790E0
8.193586825E1,1.296260357E1,-4.956148863E-1,-4.204346657E0
8.198786227E1,3.591412306E-1,-4.046324492E-1,2.059076279E-1
8.203985560E1,9.079090118E0,-2.524283981E1,1.225150394E1
8.209184916E1,7.606611252E0,-1.836648178E1,-3.782954216E0
8.214384275E1,4.405465722E-1,-1.193306541E1,6.411868095E0
8.219583887E1,6.265817165E0,-1.243346882E1,6.383136749E0
8.224783293E1,4.623344421E0,-9.835680962E0,5.281770229E0
8.229982626E1,9.062330246E0,-7.187613010E0,6.347222328E0
8.235181955E1,8.095043182E0,-6.873962879E0,4.166038036E0
8.240381294E1,7.965752125E0,-6.110189438E0,1.805283189E0
8.245580630E1,2.226675510E0,-4.063084126E0,-2.243435383E0
8.250779956E1,1.735849261E0,-1.652049571E-1,5.310501575E0
8.255979329E1,8.571503758E-1,2.825244367E-1,3.313676357E0
8.261178747E1,-4.982485771E0,9.929058075E0,-4.474899769E0
8.266378060E1,1.637683988E0,-1.426987767E0,1.652049661E0
8.271577406E1,8.114197731E0,-1.532096481E1,9.744698524E0
8.276776728E1,9.306546211E0,-2.483102417E1,6.838048935E0
8.281976078E1,6.466936111E0,-1.569925976E1,2.954535007E0
8.287175404E1,6.624958515E0,-1.134886265E1,5.695979595E0
8.292374726E1,5.854001999E0,-1.120281219E1,4.776578426E0
8.297574105E1,8.296162605E0,-1.118844604E1,4.577853203E0
8.302773501E1,7.132544518E0,-8.401510239E0,3.739857197E0
8.307972837E1,8.109408379E0,-1.877111435E0,4.324060440E0
8.313172172E1,9.311334610E0,-9.864411950E-1,2.126116037E0
8.318371515E1,6.093429565E0,-3.821262598E0,1.247417212E0
8.323571337E1,4.005621910E0,-3.174808502E0,2.561874092E-1
8.328771106E1,-2.250618219E0,-1.757397652E0,-7.110996246E-1
8.333970595E1,-9.184437752E0,9.624984860E-1,5.482889414E-1
8.339169944E1,-1.752609134E0,-9.375980377E0,2.535537004E0
8.344170970E1,7.446194649E0,-1.150209618E1,1.040073013E1
8.349370296E1,2.298503876E0,-2.179268837E1,5.102199554E0
8.354569638E1,1.183729458E1,-1.488041782E1,6.969734192E0
8.359768981E1,4.436591148E0,-1.065931129E1,6.682421207E0
8.364968376E1,6.256239891E0,-9.804554939E0,5.904281616E0
8.370167742E1,7.841249943E0,-1.046537495E1,5.442186832E0
8.375367071E1,8.063917160E0,-6.708757877E0,5.937801361E0
8.380566407E1,8.578686714E0,-3.237059593E0,2.497228622E0
8.385765743E1,8.581081390E0,-1.819648862E0,5.456552505E0
8.390965072E1,4.345608711E0,5.197970390E0,5.660065651E0
8.396164408E1,3.629720688E0,5.997658253E0,3.404658794E0
8.401363741E1,5.525986195E0,1.522758722E0,9.768640995E-1
8.406563156E1,1.795706153E0,-4.467716694E0,-5.133325100E0
8.411762502E1,-7.877163887E-1,-7.395915031E0,2.154847234E-2
8.416961841E1,9.234718323E0,-4.814886570E0,-2.818061352E0
8.422161190E1,6.184412003E0,-1.543588924E1,9.778218269E0
8.427360513E1,1.249811459E1,-1.595784187E1,4.058295727E0
8.432560308E1,1.850774407E0,-1.022594738E1,4.520390987E0
8.437760084E1,1.058748341E1,-1.085803604E1,1.042227840E1
8.442959523E1,9.340065956E0,-9.613013268E0,6.771008968E0
8.448158845E1,1.121957207E1,-8.897125244E0,5.051919937E0
8.453358178E1,8.607418060E0,-9.783006668E0,3.718308687E0
8.458557501E1,5.387118340E0,-4.427014351E0,3.069460392E0
8.463756843E1,4.122941017E0,-1.477267504E0,4.010410309E0
8.468956172E1,3.292127848E0,-7.278595567E-1,1.668809533E0
8.474155522E1,1.161223292E0,-2.966506481E0,-3.083826065E0
8.479354943E1,2.918621063E0,-2.698347807E0,-3.057488918E0
8.484554279E1,-2.516382933E0,-4.939388752E0,3.256213665E-1
8.489753612E1,7.822095871E0,-1.871125793E1,1.077902508E1
8.494952941E1,7.302538395E0,-1.177025509E1,9.443019867E0
8.500152274E1,8.286584854E0,-2.081343079E1,4.881926537E0
8.505351613E1,1.441353440E0,-1.441353416E1,7.352818012E0
8.510550939E1,6.589044094E0,-9.742303848E0,5.188393593E0
8.515750315E1,5.514014721E0,-1.053959751E1,3.644086361E0
8.520949717E1,9.608224869E0,-1.081493950E1,5.267404556E0
8.526149033E1,8.688823700E0,-8.755863190E0,5.059102535E0
8.531348382E1,7.400703430E0,-4.659258842E0,3.483669758E0
8.536547731E1,3.818868399E0,-2.059076309E0,1.879505754E0
8.541747310E1,-3.380716085E0,-1.551490068E0,-2.719896078E0
8.546946779E1,-1.206714511E0,-2.238646984E0,1.691315651E1
8.552146108E1,-3.119740009E0,5.475706577E0,1.848380208E0
8.557345444E1,7.247469902E0,-1.682696342E1,9.938634872E0
8.562544780E1,9.517242432E0,-1.687005997E1,6.469330311E0
8.567744113E1,3.026363373E0,-1.354441261E1,2.463708878E0
8.572943455E1,5.499649048E0,-1.261543369E1,7.503657341E0
8.578142864E1,6.201171875E0,-1.120760059E1,5.473312378E0
8.583342216E1,7.367183685E0,-8.832479477E0,5.224307537E0
8.588541556E1,8.535589218E0,-7.055927753E0,5.291347504E0
8.593740878E1,4.575459003E0,-6.864386082E0,3.366350412E0
8.598940221E1,1.850774407E0,-5.363175392E0,3.296916485E0
8.604139547E1,1.336005330E0,-3.984073162E0,-1.084606528E0
8.609338889E1,1.312302017E1,-1.249811411E0,4.699961662E0
8.614538215E1,-3.373533249E0,2.084934425E1,-4.683201313E0
8.619737617E1,9.146129489E-1,-1.265853119E1,7.434223175E0
8.624936986E1,1.179898643E1,-2.629153252E1,-7.015225291E-1
8.630136322E1,5.351204395E0,-1.466253853E1,3.239453793E0
8.635335644E1,3.292127848E0,-9.608224869E0,2.494834423E0
8.640534994E1,6.794951916E0,-6.409473896E0,3.828445435E0
8.645734679E1,7.501263142E0,-4.920234680E0,3.459727049E0
8.650934504E1,1.002004051E1,-3.565075159E0,2.444554567E0
8.656134004E1,7.161275864E0,-5.837242126E0,5.147690773E-1
8.661333316E1,3.179596901E0,-4.374340057E0,2.118933201E0
8.666532646E1,4.429408550E0,5.506832153E-2,3.040728867E-1
8.671731992E1,1.321639657E0,3.988861799E0,9.466962814E0
8.676931318E1,-4.216318130E0,-2.758204460E0,5.588237286E0
8.682130650E1,5.130930901E0,-1.175588894E1,7.819701672E0
8.687329989E1,9.984126091E0,-2.221168709E1,4.489265442E0
8.692529382E1,7.632947922E0,-1.481098366E1,-6.943397224E-2
8.697728754E1,2.832427025E0,-1.071198559E1,1.819648862E0
8.702928090E1,8.257853508E0,-9.409500122E0,4.939388752E0
8.708127422E1,9.194015503E0,-8.391933441E0,4.280963421E0
8.713326758E1,7.381549358E0,-6.237085819E0,2.767781734E0
8.718526097E1,7.652102470E0,-2.540325642E0,3.098191500E0
8.723725430E1,4.709538460E0,-1.431776285E0,1.194743156E0
8.728924782E1,-1.762186289E0,-1.290514112E0,-1.632895470E0
8.734124188E1,-3.342407703E0,1.613741279E0,5.609786034E0
8.739323534E1,2.808484316E0,-1.717173958E1,1.238318920E1
8.744522853E1,6.979310989E0,-1.192588329E1,6.893116951E0
8.749722192E1,3.790137053E0,-1.655162239E1,1.376708031E0
8.754921738E1,6.462147713E0,-1.175349522E1,3.143682718E0
8.760121250E1,3.706337452E0,-1.103760719E1,6.586649895E0
8.765320596E1,9.838075638E0,-1.088676739E1,7.778998852E0
8.770519922E1,6.737489223E0,-1.047974110E1,6.483695984E0
8.775719258E1,7.680833817E0,-8.487704277E0,4.206740856E0
8.780918591E1,6.866780281E0,-4.005621910E0,4.807703972E0
8.786117923E1,8.272219658E0,-2.705530524E-1,1.235445857E0
8.791317263E1,6.900300026E0,-4.189980924E-1,6.273000240E-1
8.796516688E1,3.430995703E0,-3.134105682E0,8.978530765E-1
8.801716034E1,-6.105400920E-1,-4.108575344E0,-8.356019258E-1
8.806915363E1,-4.101392746E0,-3.107768774E0,-3.433390141E0
8.812114689E1,1.363300037E1,-1.047255802E1,6.943397045E0
8.817314035E1,1.549095750E0,-8.123774529E0,6.445387840E0
8.822513361E1,4.999245644E0,-1.845746422E1,-8.260248303E-1
8.827712693E1,8.772623062E0,-9.696812630E0,7.549148560E0
8.832912069E1,5.123748302E0,-1.166730118E1,5.525986195E0
8.838111461E1,9.086273193E0,-1.134886265E1,5.506832123E0
8.843310790E1,1.226587009E1,-1.034566116E1,4.774183750E0
8.848510126E1,1.006553173E1,-7.544359684E0,3.773377180E0
8.853709455E1,6.526793003E0,-2.099778891E0,1.252205729E0
8.858909054E1,5.865973473E0,2.339206457E0,-1.431776285E0
8.864108933E1,2.921015263E0,-4.309694767E-1,-2.423006058E0
8.869308489E1,-5.983292580E0,1.834014535E0,5.602602959E-1
8.874507791E1,-2.391880512E0,-7.376760483E0,5.877944469E0
8.879707127E1,7.992089272E0,-1.263937664E1,7.757450581E0
8.884906460E1,3.002420664E0,-1.919729614E1,8.652909279E0
8.890105792E1,1.073832226E1,-1.376947403E1,8.339259148E0
8.895305132E1,8.238699913E0,-1.091071033E1,8.669669151E0
8.900504471E1,9.718361855E0,-8.921068192E0,6.950579643E0
8.905703853E1,7.805335999E0,-1.101366425E1,4.077449799E0
8.910903242E1,7.307326794E0,-5.928224564E0,1.972882390E0
8.916102568E1,6.773403645E0,-1.721483588E0,1.319245458E0
8.921301897E1,4.381523132E0,-4.908263385E-1,-4.381522834E-1
8.926501236E1,2.600182533E0,-2.542719841E0,1.005595401E-1
8.931700569E1,2.178790092E0,-2.142875910E0,5.157268047E0
8.936899908E1,-1.087000728E0,-2.540325642E0,2.303292274E0
8.942099238E1,2.375120640E0,-8.370385170E0,6.275394440E0
8.947298606E1,7.348029613E0,-1.221559048E1,6.043149471E0
8.952497998E1,-1.149251908E-1,-1.624994278E1,-4.120546818E0
8.957697344E1,9.905115128E0,-9.897932053E0,8.099831581E0
8.962896670E1,8.892336845E0,-8.535589218E0,7.307326794E0
8.968096149E1,9.016839027E0,-8.696005821E0,6.083852291E0
8.973295742E1,1.155237579E1,-7.972935200E0,5.411061287E0
8.978495071E1,8.861210823E0,-7.264229774E0,4.187586784E0
8.983694407E1,3.414235830E0,-4.379128456E0,2.434977531E0
8.988893736E1,3.466909885E0,-2.679193497E0,-5.889915824E-1
8.994093082E1,1.024749637E0,-4.285751820E0,-2.990449190E0
8.999292428E1,3.028757572E0,-8.473338127E0,4.582642078E0
9.004491770E1,-8.473338127E0,1.097774982E1,3.830839694E-2
9.009691106E1,6.407079220E0,-2.657884407E1,9.756669998E0
9.014890505E1,7.719141960E0,-2.362670326E1,-1.819648892E-1
9.020089851E1,3.766194344E0,-1.200728798E1,6.586649895E0
9.025289170E1,7.541965485E0,-1.136083412E1,4.980091572E0
9.030488499E1,4.640104771E0,-7.592245579E0,3.122134447E0
9.035687838E1,8.454184532E0,-3.720703125E0,6.007235527E0
9.040887181E1,9.026415825E0,-4.417437077E0,5.011217117E0
9.046086504E1,7.113390446E0,-2.612153769E0,4.091815472E0
9.051285892E1,8.614601135E0,-4.142095447E-1,3.328042030E0
9.056485271E1,6.000052452E0,-9.864411950E-1,2.154847383E-1
9.061684597E1,-5.363175869E-1,-1.146857619E0,2.183578730E0
9.066883946E1,-4.939388752E0,5.729499817E0,-2.094990492E0
9.072083445E1,5.346415520E0,-1.745905113E1,8.365595818E0
9.077283317E1,1.093225861E1,-1.876632500E1,7.917866707E0
9.082482997E1,4.613767624E0,-1.601530457E1,1.924996972E0
9.087680191E1,5.849213123E0,-1.344624710E1,5.276981831E0
9.092879531E1,6.170046329E0,-1.135365105E1,4.304905891E0
9.098078863E1,8.212362289E0,-6.110189438E0,4.470110893E0
9.103278199E1,9.869200706E0,-3.703943014E0,4.070267200E0
9.108477538E1,6.062304020E0,-2.114144564E0,1.778946161E0
9.113676887E1,2.358360767E0,-8.882759809E-1,1.158828974E0
9.118876299E1,8.710371971E0,5.396695614E0,1.853168726E0
9.124075632E1,9.107821465E0,6.440598965E-1,3.687183261E-1
9.129274958E1,-1.577827096E0,-4.841223717E0,5.458946705E0
9.134474304E1,-2.827638626E0,-5.121353626E0,2.803695917E0
9.139673626E1,6.751855016E-1,-6.811711788E0,3.964919090E0
9.144872966E1,7.577879906E0,-1.563222027E1,1.033129597E1
9.150072298E1,1.122196579E1,-2.113426399E1,3.349590540E0
9.155271641E1,1.057790565E1,-1.288119888E1,4.359974384E0
9.160471069E1,4.388705730E0,-1.029298782E1,5.626545548E-1
9.165670405E1,5.830059052E0,-1.110943508E1,2.913832426E0
9.170869731E1,7.891529560E0,-7.740690231E0,3.785348415E0
9.176069067E1,5.997658253E0,-4.149278164E0,4.338426113E0
9.181268556E1,5.861184597E0,-2.954535007E0,4.331243038E0
9.186468454E1,4.654470444E0,-2.846792698E0,2.959323645E0
9.191668067E1,-7.326480746E-1,-3.536343813E0,-1.649655342E0
9.196867419E1,-5.554717541E0,2.645673752E0,3.584229469E0
9.202066745E1,-7.609005451E0,-3.143682718E0,-2.360754967E0
9.207266068E1,6.081458092E0,-2.785738754E1,1.160744381E1
9.212465404E1,7.697593689E0,-1.852689934E1,1.867534369E-1
9.217664746E1,6.114977837E0,-8.760651588E0,6.452570438E0
9.222864066E1,7.826884270E0,-8.645726204E0,7.180429935E0
9.228063461E1,6.653689861E0,-9.153312683E0,6.591438770E0
9.233262843E1,8.150111198E0,-8.899519920E0,4.640104771E0
9.238462166E1,5.485283375E0,-5.578660488E0,3.296916485E0
9.243661518E1,5.506832123E0,-6.919454098E0,4.118152559E-1
9.248860838E1,5.001639843E0,-4.005621910E0,-2.966506481E0
9.254060187E1,-2.657645047E-1,-3.186779737E0,-4.666441441E0
9.259259510E1,8.454184532E0,-4.565882206E0,1.867534369E-1
9.264458836E1,-3.871542454E0,5.514014721E0,2.887495518E0
9.269658238E1,8.578686714E0,-1.701611137E1,1.148533630E1
9.274857613E1,1.572080803E1,-1.464338493E1,6.129343510E0
9.280056942E1,5.600208759E0,-1.239276600E1,1.065452337E0
9.285256272E1,9.505270958E0,-1.012299347E1,5.561900616E0
9.290455694E1,7.046350956E0,-8.552350044E0,5.020794392E0
9.295655310E1,7.343240738E0,-8.250671387E0,3.562680960E0
9.300854689E1,7.858009815E0,-5.652883053E0,3.086220264E0
9.306054012E1,4.506025314E0,-3.014391899E0,7.012830734E0
9.311253348E1,3.002420664E0,7.326480746E-1,5.894704342E0
9.316452677E1,-2.346389294E-1,-3.557892323E0,7.685621977E-1
9.321652016E1,3.256213665E-1,-4.869955063E0,-6.416656494E0
9.326851349E1,7.515628815E0,-1.632416534E1,-4.381522834E-1
9.332050718E1,4.501236677E-1,-4.762212753E0,2.205127001E0
9.337250113E1,5.662459850E0,-1.599136162E1,5.566689014E0
9.342449466E1,5.236279011E0,-1.369046307E1,1.424593568E0
9.347648782E1,7.637736797E0,-1.071916866E1,5.911464691E0
9.352848118E1,9.071907043E0,-9.943423271E0,4.489265442E0
9.358047450E1,7.302538395E0,-1.008947372E1,4.618556023E0
9.363246773E1,9.737515450E0,-6.656084061E0,3.193962574E0
9.368446125E1,1.002243423E1,-5.267404556E0,3.131711483E0
9.373645534E1,7.067899227E0,-6.560313106E-1,2.027950764E0
9.378844876E1,2.628913641E0,-3.052700281E0,4.166038036E-1
9.384044216E1,-5.952167034E0,-5.961744189E-1,-2.542719841E0
9.389243548E1,6.083852291E0,-7.989695072E0,5.327261448E0
9.394442980E1,9.481328130E-1,-1.111901188E1,6.804529190E0
9.399642846E1,2.315263748E0,-1.523955917E1,8.152505875E0
9.404842555E1,1.048931789E1,-1.517251968E1,7.745479107E0
9.410041984E1,6.208354473E0,-1.183489990E1,8.921068192E0
9.415241310E1,8.401510239E0,-9.165284157E0,7.946598053E0
9.420440650E1,7.688016415E0,-1.093944168E1,4.958543301E0
9.425639982E1,8.583475113E0,-8.980924606E0,3.373533249E0
9.430839311E1,3.768588543E0,-6.706363678E0,4.702355862E0
9.436038687E1,2.564268351E0,-1.695146561E0,1.431776285E0
9.441238082E1,3.440572977E0,-3.993650436E0,4.285751879E-1
9.446437412E1,-5.411061049E-1,-5.523591995E0,-1.838803053E0
9.451636754E1,8.877970695E0,-2.844398499E0,-7.661679387E-2
9.456836080E1,2.683982134E0,-6.091034889E0,4.570670605E0
9.462035436E1,6.294548512E0,-1.179180336E1,8.044763565E0
9.467234765E1,4.405465722E-1,-1.618529701E1,2.490045726E-1
9.472434085E1,1.714300728E1,-9.115004539E0,6.890722752E0
9.477633437E1,8.154899597E0,-9.258660316E0,4.264203548E0
9.482832852E1,9.924268723E0,-8.655303001E0,3.847599506E0
9.488032185E1,1.090831566E1,-1.017327404E1,3.375927448E0
9.493231517E1,7.194795609E0,-5.925830364E0,2.571451187E0
9.498430850E1,4.956148624E0,-6.818894863E0,1.379102230E0
9.503630272E1,-5.243461728E-1,-3.261002302E0,-1.197137356E0
9.508830121E1,1.824437380E0,-2.858764172E0,-3.510006905E0
9.514029816E1,6.512427330E-1,-2.353572130E0,4.652075768E0
9.519229196E1,7.609005451E0,-1.352046967E1,3.215511084E0
9.524428522E1,7.455771923E0,-1.351568127E1,5.633728504E0
9.529627864E1,1.144463301E0,-1.543828392E1,6.474119186E0
9.534827191E1,1.224671555E1,-1.085803604E1,3.988861799E0
9.540026516E1,5.518803596E0,-1.129139996E1,6.186806202E0
9.545225862E1,8.851634026E0,-1.116929245E1,4.757423878E0
9.550425245E1,9.730332375E0,-1.133210278E1,2.415823221E0
9.555624620E1,8.054340363E0,-8.310527802E0,2.212309837E0
9.560823963E1,9.067118645E0,-4.527573586E0,-1.235445857E0
9.566023295E1,4.676018715E0,-4.075055599E0,-2.679193497E0
9.571222618E1,1.702329397E0,-1.819648862E0,-4.932205975E-1
9.576421960E1,4.836435020E-1,-1.254600048E0,8.691217303E-1
9.581621290E1,-1.642472506E0,-4.721509933E0,-4.812492430E-1
9.586820622E1,1.361624050E1,-8.281796455E0,1.871604538E1
9.592020047E1,3.636903524E0,-1.031453609E1,9.998491287E0
9.597219387E1,-8.382355690E0,-2.225957298E1,-3.083826065E0
9.602418729E1,1.181574631E1,-9.845257759E0,4.972908974E0
9.607618075E1,6.756643295E0,-1.169124413E1,2.554691315E0
9.612817437E1,4.477293968E0,-1.161941528E1,3.280156374E0
9.618017066E1,7.980117798E0,-1.015411949E1,4.824463844E0
9.623216472E1,4.824463844E0,-8.111803055E0,5.463735104E0
9.628415831E1,3.356773376E0,-3.787742853E0,5.480494976E0
9.633615154E1,3.383110285E0,1.316851079E-1,3.510006905E0
9.638814460E1,1.142787361E1,-1.855562925E0,5.514014721E0
9.644013826E1,-4.268991947E0,1.228263021E0,4.407859802E0
9.649213125E1,-9.816526622E-2,4.309694767E-1,-7.853221297E-1
9.654412517E1,5.174027920E0,-2.504411459E0,8.813325882E0
9.659611896E1,-1.580221355E-1,-5.255433083E0,3.917033672E0
9.664811225E1,1.675992310E-1,-2.895396614E1,3.787742853E0
9.670010571E1,1.304400921E1,-1.797860909E1,3.639297724E0
9.675209907E1,7.367183685E0,-1.024270725E1,4.458139896E0
9.680409223E1,7.194795609E0,-7.355212212E0,2.628913641E0
9.685608576E1,8.221940041E0,-3.857176781E0,1.740637779E0
9.690807902E1,9.024022102E0,-2.604970932E0,3.167625666E0
9.696007324E1,7.707170486E0,2.466103077E0,5.312895775E0
9.701206656E1,9.076695442E0,2.952140808E0,2.736656189E0
9.706405995E1,8.449396133E0,-1.007989645E0,-8.954587579E-1
9.711605338E1,3.387898922E0,-5.454157829E0,-4.644893169E0
9.716804684E1,3.450150013E0,-2.621730804E0,-6.143709183E0
9.722004509E1,-1.845985889E0,-2.502017260E0,1.556278616E-1
9.727204268E1,1.327385998E1,-1.866097832E1,1.355398941E1
9.732403667E1,3.052700281E0,-1.792593575E1,-2.609759569E0
9.737603000E1,1.480140686E1,-9.251478195E0,5.444581032E0
9.742802329E1,7.467742920E0,-1.149012470E1,4.098998547E0
9.748001662E1,7.115784645E0,-1.017327404E1,2.887495518E0
9.753201011E1,9.672870636E0,-9.938634872E0,3.107768774E0
9.758400334E1,7.403097630E0,-6.873962879E0,3.316070557E0
9.763599693E1,7.743084908E0,-1.307274103E0,3.749434233E0
9.768799125E1,5.391906738E0,9.840469360E-1,3.170019865E0
9.773998434E1,1.889082789E0,5.985686779E-1,8.236305118E-1
9.779197770E1,-1.245022893E0,-4.161249638E0,-2.063864946E0
9.784397103E1,1.141590214E1,-3.888302326E0,-7.733507752E-1
9.789596432E1,-2.669616461E0,-2.523565531E0,-2.142875910E0
9.794795781E1,7.757450581E0,-1.848140717E1,1.282373619E1
9.799995104E1,4.245049000E0,-1.169124413E1,2.877918243E0
9.805194450E1,7.036773682E0,-1.125069714E1,3.340013266E0
9.810393861E1,4.831646442E0,-1.198573971E1,6.703969479E0
9.815593210E1,6.335251331E0,-1.065931129E1,4.604190350E0
9.820792537E1,7.472531796E0,-1.109506989E1,4.489265442E0
9.825983638E1,7.690410614E0,-8.212362289E0,4.096604347E0
9.831183247E1,6.423839092E0,-3.665634632E0,5.193181992E0
9.836382683E1,6.043149471E0,2.466102988E-1,8.968953133E0
9.841582009E1,4.331243038E0,1.551490068E0,3.727885962E0
9.846781348E1,4.479688168E0,-2.695953369E0,-8.619388938E-2
9.851980684E1,4.656864643E0,-7.285778046E0,-5.008822918E0
9.857180014E1,-4.084632874E0,-3.404658794E0,-1.946545362E0
9.862379356E1,2.075836182E0,-1.316611671E1,1.343188167E0
9.867578689E1,1.299851799E1,-2.193155670E1,1.976952744E1
9.872778104E1,2.672010660E0,-9.320911407E0,-2.875524044E0
9.877977456E1,4.946571827E0,-7.960963726E0,8.219545364E0
9.883176786E1,7.458166122E0,-1.156674194E1,6.890722752E0
9.888376118E1,8.025609016E0,-1.009186840E1,4.747847080E0
9.893575457E1,1.117408085E1,-8.372778893E0,4.778972626E0
9.898774780E1,7.877163887E0,-3.433390141E0,6.352011204E0
9.903974126E1,5.355992794E0,-5.339232683E-1,5.480494976E0
9.909173478E1,3.775771379E0,-7.575485706E0,1.546701550E0
9.914372890E1,5.399089813E0,-6.725517750E0,-2.300898075E0
9.919572216E1,1.532335877E-1,-4.508419514E0,4.664047241E0
9.924771559E1,-6.648900986E0,8.016032219E0,-7.778998852E0
9.929970898E1,5.195576191E0,-1.409749031E1,4.103786945E0
9.935170620E1,9.474145889E0,-1.972164154E1,1.387721634E1
9.940370436E1,2.700742006E0,-1.666654778E1,4.115758419E0
9.945569992E1,2.296109438E0,-1.126745701E1,7.273807049E0
9.950769321E1,8.791776657E0,-9.840469360E0,5.329655647E0
9.955968667E1,6.045543671E0,-9.981731415E0,3.478881359E0
9.961167993E1,9.273026466E0,-8.573898315E0,4.774183750E0
9.966367316E1,5.870761871E0,-6.850020409E0,4.029564381E0
9.971566662E1,2.724684715E0,-2.535537004E0,1.922602654E0
9.976766073E1,1.774157643E0,-5.889915824E-1,-2.705530524E-1
9.981965426E1,-2.751021862E0,1.613741279E0,-6.493273258E0
9.987164758E1,2.842004299E0,-7.024802208E0,-2.341600657E0
9.992364084E1,6.134131908E0,-2.379909277E0,9.557945251E0
9.997563424E1,3.701548815E0,-1.565855694E1,5.327261448E0
1.000276275E2,1.196658516E1,-1.541194725E1,1.146857619E0
1.000796209E2,4.453351200E-1,-1.055396366E1,5.435003757E0
1.001316144E2,9.694418907E0,-1.085564232E1,7.175641537E0
1.001836085E2,6.876357079E0,-1.106633854E1,5.830059052E0
1.002356019E2,1.129858303E1,-1.014933109E1,4.764606953E0
1.002875953E2,7.209161282E0,-8.377567291E0,2.355966330E0
1.003395885E2,2.976083517E0,-8.126168251E0,-2.609759569E-1
1.003915821E2,4.517996788E0,-4.755029678E0,-1.819648862E0
1.004435791E2,4.465322495E0,8.499675393E-1,9.648927450E-1
1.004955773E2,-4.429408312E-1,2.083019018E0,7.853221297E-1
1.005475720E2,-9.816526771E-1,-3.816473961E0,1.033608437E1
1.005995652E2,1.637683988E0,-9.411893845E0,5.825270653E0
1.006515586E2,4.664047241E0,-1.243586349E1,4.324060440E0
1.007035520E2,-1.699935079E0,-1.544307232E1,-1.462901950E0
1.007555453E2,1.231136131E1,-1.109506989E1,5.118959427E0
1.008075386E2,8.281796455E0,-1.102563572E1,2.130904675E0
1.008595320E2,8.083071709E0,-9.019232750E0,2.954535007E0
1.009115262E2,9.809344292E0,-7.194795609E0,3.402264595E0
1.009635196E2,8.753468513E0,-6.256239891E0,3.768588543E0
1.010155130E2,8.394327164E0,-3.893090725E0,3.984073162E0
1.010675063E2,9.656110764E0,-4.063084126E0,4.903474808E0
1.011194996E2,6.703969479E0,-2.863552570E0,2.569056988E0
1.011714930E2,4.836435020E-1,-1.625712633E0,-2.157241583E0
1.012234864E2,-1.095380688E1,1.070240855E0,-6.402290821E0
1.012754798E2,9.577099234E-2,-3.929004908E0,1.846943665E1
1.013274739E2,8.193208694E0,-1.210305882E1,2.030344963E1
1.013794673E2,3.126922846E0,-1.279500484E1,-3.244242430E0
1.014314606E2,1.607995033E1,-1.154519272E1,7.362394810E0
1.014834540E2,6.715940952E0,-8.851634026E0,6.565101624E0
1.015354496E2,1.287162113E1,-8.071100235E0,7.350423813E0
1.015874447E2,8.296162605E0,-9.364008904E0,4.656864643E0
1.016394380E2,1.005595398E1,-5.873156071E0,4.824463844E0
1.016914314E2,1.218446445E1,-3.387898922E0,3.428601503E0
1.017434246E2,7.067899227E0,-1.386285067E0,9.624984860E-1
1.017954181E2,3.040729046E0,-3.414235830E0,-1.505998850E0
1.018474113E2,5.722316504E-1,-4.340820312E0,-1.929785490E0
1.018994051E2,2.466103077E0,-7.620976925E0,1.834014535E0
1.019513990E2,-6.656084061E0,-2.226675600E-1,-1.161223292E0
1.020033923E2,4.944177628E0,-7.838855743E0,1.201686573E1
1.020553857E2,3.665634632E0,-1.413579845E1,6.522004604E0
1.021073790E2,1.089634418E1,-1.519646263E1,9.234718323E0
1.021593723E2,7.556331158E0,-9.711178780E0,8.851634026E0
1.022113657E2,7.096630573E0,-7.999272346E0,7.805335999E0
1.022633590E2,9.335277557E0,-8.988107681E0,7.024802208E0
1.023153530E2,8.995290756E0,-9.960183144E0,5.092622280E0
1.023673466E2,5.159662247E0,-1.056114578E1,3.622537851E0
1.024193401E2,1.819648862E0,-7.283383846E0,3.095797300E0
1.024713336E2,1.051086664E0,-4.036747456E0,1.304879785E0
1.025233267E2,1.345582485E0,1.453324795E0,2.729473352E0
1.025753228E2,-1.620923996E0,-2.748627424E0,1.340793967E-1
1.026273216E2,3.146077156E0,-4.431802750E0,2.839609861E0
1.026793167E2,4.022381783E0,-7.755055904E0,5.774991035E0
1.027313101E2,1.146857643E1,-2.065780258E1,1.085564232E1
1.027833033E2,5.779779434E0,-1.085324764E1,9.565128326E0
1.028352967E2,1.232812119E1,-9.445414543E0,8.976136208E0
1.028872901E2,5.552323341E0,-8.870788574E0,4.563488007E0
1.029392834E2,9.445414543E0,-8.856422424E0,4.075055599E0
1.029912769E2,7.041562080E0,-7.187613010E0,2.722290516E0
1.030432706E2,5.142902374E0,-8.526012421E0,-1.065452337E0
1.030952644E2,1.434170604E0,-6.883540154E0,4.788549542E-1
1.031472577E2,2.537931204E-1,-3.177202702E0,-1.218685865E0
1.031992511E2,-5.454157829E0,-2.523565531E0,2.470891714E0
1.032512444E2,5.739076614E0,-5.123748302E0,4.719115734E0
1.033032378E2,2.394274771E-1,-3.533949614E0,3.351984739E0
1.033552312E2,7.376760483E0,-1.569686604E1,1.063057995E1
1.034072244E2,3.565075159E0,-1.696583176E1,-1.683175206E0
1.034592187E2,1.127942848E1,-1.086521912E1,4.982485771E0
1.035112121E2,6.900300026E0,-9.435836792E0,1.398256540E0
1.035632055E2,7.458166122E0,-7.618582249E0,3.510006905E0
1.036151988E2,9.191620827E0,-6.663266659E0,3.560286522E0
1.036671938E2,8.111803055E0,-4.795732498E0,2.770175934E0
1.037191897E2,6.158074856E0,-5.051919937E0,1.455719113E0
1.037711829E2,-6.122160912E0,-3.064671755E-1,-6.076669693E0
1.038231762E2,1.549095750E0,-1.532096481E1,8.427847624E-1
1.038751695E2,-2.509200096E0,-3.227482557E0,2.518777132E0
1.039271628E2,5.367964268E0,-1.641754150E1,3.294522047E0
1.039791562E2,7.477320194E0,-1.800973511E1,5.722316504E-1
1.040311495E2,8.573898315E0,-1.324752235E1,4.759818554E0
1.040831434E2,7.371972084E0,-1.199771118E1,3.852388144E0
1.041351371E2,9.534002304E0,-1.132013130E1,4.764606953E0
1.041871305E2,9.249083519E0,-8.755863190E0,2.073441982E0
1.042391238E2,6.261028767E0,-4.628133297E0,7.015225291E-1
1.042911171E2,1.410227895E0,-4.771789551E0,-2.154847383E-1
1.043431104E2,-5.085439682E0,-1.187560320E0,-3.617749214E0
1.043951038E2,1.920208359E1,-6.064698219E0,-2.597788095E0
1.044470973E2,-2.284138203E0,1.345582485E0,3.208328187E-1
1.044990915E2,8.578686714E0,-1.490436077E1,8.844450951E0
1.045510848E2,4.896292210E0,-1.676231766E1,-1.673598051E0
1.046030781E2,7.489291668E0,-8.159688950E0,2.375120640E0
1.046550717E2,8.164477348E0,-1.102084732E1,3.318464994E0
1.047070670E2,4.017592907E0,-1.055875206E1,2.463708878E0
1.047590656E2,6.313702583E0,-9.241900444E0,2.885101080E0
1.048110616E2,4.752635479E0,-8.418270111E0,3.438178539E0
1.048630548E2,7.613793612E-1,-8.832479477E0,1.007989645E0
1.049150482E2,-4.113364220E0,1.077423692E-1,-8.753468513E0
1.049670416E2,1.443508244E1,-4.719115734E0,-2.624125242E0
1.050190348E2,1.182771802E0,-3.397475958E0,3.988861799E0
1.050710284E2,3.596200705E0,-1.191151714E1,2.111750364E0
1.051230215E2,6.742278099E0,-2.037527847E1,4.506025314E0
1.051750149E2,3.112557173E0,-1.292429543E1,4.644893169E0
1.052270091E2,7.314509392E0,-1.170800400E1,4.336031914E0
1.052790027E2,8.827691078E0,-1.144702816E1,2.224281311E0
1.053309962E2,8.257853508E0,-6.622564316E0,-9.816526771E-1
1.053829891E2,2.806090117E0,-6.395108223E0,-7.302538157E-1
1.054349826E2,-6.440598965E-1,-3.488458395E0,1.139674783E0
1.054869758E2,-1.256994247E0,2.229069948E0,-2.925803900E0
1.055389691E2,-1.041509509E0,5.770202279E-1,-9.648927450E-1
1.055909631E2,9.138946533E0,-2.328192902E1,-4.738269806E0
1.056429569E2,9.706390381E0,-1.011341667E1,8.375173569E0
1.056949213E2,1.628106833E0,-2.179268837E1,-3.670423269E0
1.057469148E2,3.356773376E0,-7.099024773E0,3.110162973E0
1.057989093E2,6.632141113E0,-1.091310501E1,5.988081455E0
1.058509052E2,5.813299179E0,-1.253402901E1,3.342407703E0
1.059028987E2,7.130150318E0,-8.241093636E0,4.053507328E0
1.059548919E2,6.900300026E0,-5.276981831E0,3.713520288E0
1.060068854E2,6.062304020E0,-1.896265626E0,4.367157459E0
1.060588788E2,4.671230316E0,-9.553156495E-1,-2.353572130E0
1.061108720E2,-5.147690773E-1,-3.265790939E0,-4.400677204E0
1.061628654E2,2.012388039E1,-9.943423271E0,6.177229285E-1
1.062148592E2,-1.482056141E0,1.352765322E0,-6.201171875E-1
1.062668531E2,8.454184532E0,-2.184296989E1,1.156913567E1
1.063188464E2,4.807703972E0,-1.301527786E1,-3.426207304E0
1.063708397E2,6.720729351E0,-9.682447433E0,6.454965115E0
1.064228331E2,8.219545364E0,-9.931451797E0,3.780560017E0
1.064748264E2,9.610619545E0,-9.292180061E0,4.149278164E0
1.065268198E2,1.045100975E1,-7.714353561E0,3.854782343E0
1.065788132E2,6.524398804E0,-4.965725899E0,3.579440832E0
1.066308068E2,2.502017260E0,-1.889082789E0,1.553884387E0
1.066828007E2,3.208328247E0,-2.475680113E0,1.537124395E0
1.067347941E2,-5.506832004E-1,-2.059076309E0,-1.709512234E0
1.067867874E2,-8.605023384E0,-2.097384691E0,9.505270958E0
1.068387819E2,4.302511692E0,-2.193155766E0,7.860404015E0
1.068907807E2,5.767807961E0,-1.538560963E1,3.323253393E0
1.069427777E2,7.312115192E0,-1.561546040E1,1.664021015E0
1.069947718E2,8.092648506E0,-1.102324104E1,5.911464691E0
1.070467651E2,5.789356709E0,-1.056114578E1,3.761405706E0
1.070987584E2,6.098217964E0,-9.256266594E0,3.763799906E0
1.071507517E2,4.699961662E0,-6.601015568E0,4.680807114E0
1.072027451E2,9.026415944E-1,-8.133351326E0,1.338399649E0
1.072547385E2,-1.067846537E0,-4.956148624E0,-1.561067224E0
1.073067325E2,2.527157021E1,-8.243488312E0,-9.672870040E-1
1.073587261E2,-1.029538155E1,5.533169270E0,-3.016786277E-1
1.074107195E2,3.347196102E0,-1.387721634E1,5.176422119E0
1.074627128E2,1.474394417E1,-2.385894775E1,4.405465603E0
1.075147062E2,2.071047783E0,-1.271120453E1,1.675992310E-1
1.075666995E2,4.936994553E0,-1.115013790E1,2.569056988E0
1.076186928E2,6.292154312E0,-1.199531651E1,2.219492674E0
1.076706865E2,4.968120098E0,-6.088640690E0,-8.499675393E-1
1.077226805E2,5.798933506E0,-5.808510780E0,-9.098244458E-2
1.077746737E2,3.572257996E0,-3.081431627E0,-4.142095447E-1
1.078266672E2,1.996825218E0,4.166038036E-1,2.571451187E0
1.078786605E2,1.039354706E1,-1.768411446E1,-1.019961119E0
1.079306549E2,5.796539307E0,-7.532388687E0,4.517996788E0
1.079826536E2,5.846818924E0,-1.970488167E1,6.802134514E0
1.080346502E2,2.492439985E0,-1.862506294E1,-5.327261448E0
1.080866438E2,7.158881426E-1,-1.581179047E1,4.788549617E-2
1.081386372E2,4.039141655E0,-1.284528446E1,-5.770202279E-1
1.081906305E2,7.599428177E0,-6.639324188E0,3.866753817E0
1.082426239E2,4.719115734E0,-1.563461423E0,6.799740195E-1
1.082946172E2,4.043930054E0,-3.917033672E0,3.368744612E0
1.083466107E2,-4.755029678E0,-4.510813713E0,3.423812985E-1
1.083986043E2,2.851581335E0,-1.197376823E1,4.589824677E0
1.084505982E2,4.175615311E0,-8.533195496E0,5.944984436E0
1.085025915E2,5.200365067E0,-1.555799770E1,-5.219519138E-1
1.085545849E2,1.015172482E1,-1.026425648E1,3.876330853E0
