"Time (s)","Gyroscope x (rad/s)","Gyroscope y (rad/s)","Gyroscope z (rad/s)"
5.199615900E-2,3.049744852E-2,4.469700903E-2,9.818009287E-2
1.039896440E-1,4.271475226E-2,4.164268449E-2,1.696513146E-1
1.559830040E-1,1.502270401E-1,2.798801363E-1,3.620738685E-1
2.079763300E-1,3.493691087E-1,7.117618322E-1,7.554710507E-1
2.599694570E-1,4.080121815E-1,8.082785606E-1,1.152533412E0
3.119630490E-1,7.128339410E-1,1.421587229E0,1.669936419E0
3.639571000E-1,1.103176713E0,2.023289442E0,2.600894928E0
4.159505910E-1,1.583927751E0,1.238327742E0,3.182438612E0
4.679439500E-1,2.035968065E0,1.003755450E0,3.297281504E0
5.199372420E-1,2.420813322E0,8.638672829E-1,3.595994473E0
5.719306020E-1,2.282757521E0,1.664711714E0,3.417621851E0
6.239239950E-1,1.977324963E0,1.015361905E0,3.322326899E0
6.759172210E-1,2.057959318E0,1.448789090E-1,2.877616882E0
7.279106130E-1,1.574153900E0,1.807654023E0,2.826304197E0
7.799047990E-1,1.263834357E0,1.573081851E0,2.877006054E0
8.318983570E-1,1.160598159E0,9.909272194E-1,3.216647148E0
8.838916170E-1,1.028040409E0,1.500388861E0,3.492147446E0
9.358849430E-1,7.244403958E-1,8.149980903E-1,3.713891506E0
9.878794670E-1,9.070890546E-1,5.254479647E-1,3.142121553E0
1.039875523E0,5.686697364E-1,1.232218981E0,3.192823410E0
1.091869016E0,1.477835625E-1,1.059955120E0,2.949088097E0
1.143862309E0,-4.221536815E-1,5.559912324E-1,3.030333281E0
1.195855567E0,-6.475629807E-1,1.742004454E-1,3.336987495E0
1.247849127E0,-5.345529318E-1,-7.023911476E-1,3.048659086E0
1.299842520E0,-5.296659470E-1,-9.565110803E-1,2.878838539E0
1.351835746E0,-6.200740337E-1,-1.448868513E0,2.718181133E0
1.403829865E0,-3.482390046E-1,-1.446712166E-1,2.050505400E0
1.455823322E0,-3.855017722E-1,-2.124772668E-1,1.388327479E0
1.507816814E0,-1.961335540E-1,2.627758980E-1,9.845455885E-1
1.559810107E0,-1.411556900E-1,-6.199243665E-1,5.202879906E-1
1.611803300E0,-2.211790383E-1,2.817127407E-1,3.242002130E-1
1.663796626E0,-2.920393944E-1,-3.561344463E-3,8.718451858E-2
1.715790052E0,-6.066350341E-1,-2.460748404E-1,-4.210553467E-1
1.767783444E0,-2.627178729E-1,1.289029598E0,-1.149817586E0
1.819777562E0,-4.036292434E-2,7.868982553E-1,-1.099115849E0
1.871770954E0,8.975137025E-2,-6.736805439E-1,-3.550819159E-1
1.923764247E0,2.229200006E-1,-2.882245481E-1,-6.592927575E-1
1.975757640E0,7.659791708E-1,6.823364645E-3,-1.119274259E0
2.027752161E0,9.718407989E-1,1.986350566E-1,-8.706521392E-1
2.079751082E0,1.143493891E0,-5.545617938E-1,-6.305821538E-1
2.131747606E0,9.229715466E-1,-8.856507540E-1,-3.544710279E-1
2.183741000E0,6.438061595E-1,-1.787287831E0,-7.800749154E-4
2.235734526E0,1.410640627E-1,-1.316310763E0,-4.509877563E-1
2.287727685E0,-1.060507894E0,6.607729197E-2,-8.700413108E-1
2.339720978E0,-9.208793752E-3,-2.009642839E0,-1.300701261E0
2.391714671E0,8.185136318E-1,-3.077722490E-1,-1.030698895E0
2.443707697E0,1.037203312E0,1.534310281E-1,-2.384987116E0
2.495701485E0,9.981079698E-1,1.626227140E0,-2.685532808E0
2.547695440E0,7.158882618E-1,1.807043195E0,-1.677605271E0
2.599688732E0,5.424025059E-1,1.287807703E0,-5.194046497E-1
2.651682059E0,-4.952589795E-2,1.381880999E0,5.477769375E-1
2.703675352E0,-3.512933254E-1,2.368428469E0,1.359005928E0
2.755668744E0,-1.332144290E-1,1.369052887E0,1.826928735E0
2.807662170E0,1.447292417E-1,1.489393353E0,2.183063269E0
2.859655330E0,2.895042896E-1,1.212060571E0,2.036455631E0
2.911649287E0,3.731928468E-1,1.191290975E0,2.240484715E0
2.963643074E0,3.469256461E-1,5.535477400E-1,2.566075802E0
3.015636434E0,6.450278759E-1,-2.961657941E-1,3.535518885E0
3.067629860E0,1.278495073E0,-4.708732665E-1,4.005885124E0
3.119623852E0,1.046366334E0,4.942938089E-1,3.794525623E0
3.171620040E0,3.414278626E-1,6.913162023E-2,3.410291433E0
3.224211795E0,4.587139785E-1,-3.480893672E-1,3.350426674E0
3.276205054E0,1.047588110E0,-5.276837349E-1,3.396241426E0
3.328198580E0,1.002384067E0,2.102414817E-1,3.232529879E0
3.380191772E0,9.522930980E-1,9.756556153E-1,3.490314722E0
3.432185098E0,9.968863130E-1,2.670519650E-1,3.297892332E0
3.484178557E0,1.297432065E0,6.665577888E-1,3.011396408E0
3.536172213E0,8.912066221E-1,3.531839550E-1,2.729787588E0
3.588166100E0,1.459509730E-1,-5.539509058E-1,3.432282686E0
3.640159559E0,-1.522322059E0,-2.424096465E-1,3.024224520E0
3.692152752E0,-4.419655800E0,-2.058511972E0,4.068804264E0
3.744146144E0,-7.190540314E0,-5.148555040E-1,5.263656616E0
3.796139537E0,-3.990828276E0,-3.608277082E0,1.965595126E0
3.848132863E0,-9.340587854E-1,-1.322419405E0,-5.041330457E-1
3.900126156E0,-4.233754277E-1,-1.708486199E0,-7.735245824E-1
3.952120274E0,-2.285094112E-1,-3.129358768E0,3.810107112E-1
4.004113798E0,9.852798581E-1,-2.115933418E0,2.637245655E-1
4.056107223E0,1.577819109E0,-3.334285915E-1,-6.030932069E-1
4.108100550E0,2.527714491E0,1.937481165E-1,-1.374005079E0
4.160094506E0,2.927831411E0,5.694302320E-1,-1.790004373E0
4.212092993E0,2.630339861E0,2.432282120E-1,-1.369729161E0
4.264090353E0,2.772671700E0,-5.899919868E-1,-7.716920376E-1
4.316084880E0,2.530768871E0,-1.263452619E-1,-7.102958113E-2
4.368078172E0,1.444039702E0,5.663759112E-1,1.572808862E0
4.420071565E0,1.270141453E-1,-6.284765005E-1,2.250869036E0
4.472064858E0,-1.818591714E0,9.267864227E-1,3.630202770E0
4.524058184E0,-4.287097931E0,4.157042027E0,4.072469711E0
4.576051577E0,-2.298120737E0,1.636000991E0,5.001595020E0
4.628045728E0,-1.034851551E0,-2.778722286E0,-1.559097290E0
4.680039319E0,-1.058675289E0,1.552923322E0,-1.440589428E0
4.732032712E0,-6.907358766E-2,-3.847412765E-1,-1.851701736E0
4.784025871E0,-5.052313805E-1,-2.347451210E0,-1.132102489E0
4.836019230E0,2.088700980E-1,7.911742926E-1,-8.749282360E-1
4.888012556E0,1.067135692E0,7.368072867E-1,-1.379502892E0
4.940005848E0,1.436098337E0,1.224888682E0,-1.136989355E0
4.991999373E0,2.177077770E0,1.002533674E0,-7.533660531E-1
5.043993490E0,2.285201073E0,-8.673248291E-1,-6.415777206E-1
5.095986883E0,1.174037218E0,-1.888080597E0,-6.299712658E-1
5.147980209E0,-3.610671759E-1,-2.616335824E-2,8.202228546E-1
5.199973535E0,-1.833863258E0,1.097828746E0,2.680307388E0
5.251967458E0,-4.203409672E0,1.131139174E-1,4.376069546E0
5.303965845E0,-2.183889151E0,-2.396320581E0,1.608239055E0
5.355962967E0,-1.485059261E0,-7.628667951E-1,2.034622908E0
5.407956962E0,4.562705457E-1,-1.360903978E0,-6.672340631E-1
5.459950221E0,9.785603285E-1,3.158173291E-3,-1.371561646E0
5.511943547E0,1.138607025E0,2.151284218E-1,-2.136975765E0
5.563937006E0,1.495352268E0,5.083436966E-1,-2.571300983E0
5.615930199E0,1.098900795E0,6.363382936E-2,-2.794266939E0
5.667923658E0,6.755711436E-1,-3.346503079E-1,-2.786325693E0
5.719917248E0,1.380097419E-1,8.021699190E-1,-2.200505972E0
5.771911234E0,-6.445086598E-1,1.630503178E0,-1.888353586E0
5.823904560E0,-1.111820579E0,1.398374438E0,-1.143708944E0
5.875897886E0,-1.300577879E0,2.091706514E0,-1.321161091E-1
5.927891312E0,-1.907167077E0,2.400193453E0,8.348836303E-1
5.979884538E0,-4.870474815E0,3.216309309E0,3.433504343E0
6.031877931E0,-4.053747654E0,-3.225875378E0,3.305222750E0
6.083871257E0,-1.494833112E0,1.131426215E0,2.035233736E0
6.135865044E0,-9.639911652E-1,-2.881347418E0,2.250258207E0
6.187858999E0,5.451972596E-3,-6.195291519E0,-1.541993022E0
6.239852358E0,2.571284473E-1,-1.007212996E0,-7.417596579E-1
6.291845551E0,3.224910200E-1,-1.321197629E0,-1.648894548E0
6.343839310E0,1.053696752E0,-1.187418222E0,-2.184012413E0
6.395835498E0,1.408609509E0,3.843380809E-1,-2.356276274E0
6.447829559E0,1.934564471E0,6.241210178E-2,-2.685532808E0
6.499822985E0,1.654788136E0,-4.204585776E-2,-1.837041020E0
6.551816244E0,1.438541889E0,9.817642570E-1,-1.270768881E0
6.603809637E0,8.759349585E-1,-6.077070832E-1,-3.862360418E-1
6.655803063E0,-1.527621299E-1,2.373926163E0,1.447581410E0
6.707796322E0,-2.826519251E0,7.661288381E-1,2.776824236E0
6.759790044E0,-4.092232227E0,-1.320586801E0,4.282607079E0
6.811784031E0,-3.119734526E0,-4.187988281E0,3.710226297E0
6.863777323E0,7.509060949E-2,-7.274366617E-1,2.099374771E0
6.915770616E0,4.538270533E-1,2.542237937E-1,-7.044968009E-1
6.967763975E0,8.728806376E-1,1.894720793E-1,-9.690014720E-1
7.019757301E0,1.691440105E0,-1.390225410E0,-1.636677265E0
7.071750660E0,2.234499216E0,-1.331582427E0,-2.163243055E0
7.123744019E0,2.217395067E0,1.100595966E-1,-2.360552549E0
7.175737939E0,1.759246111E0,5.877562165E-1,-1.648283720E0
7.227731627E0,1.669448853E0,1.393487453E0,-6.751753092E-1
7.279725087E0,1.152045965E0,2.474719048E0,-3.263712525E-1
7.331718380E0,8.608618379E-2,-5.399010181E-1,1.503170133E0
7.383711804E0,-2.390361547E0,-1.517285347E0,2.368155241E0
7.435709658E0,-3.004891872E0,-9.943847656E-1,3.809186459E0
7.487707479E0,-1.464900613E0,-1.779957533E0,3.054767847E0
7.539701739E0,-4.013842642E-1,-3.563683987E0,1.946658373E0
7.591695098E0,3.444821835E-1,6.237972379E-1,-9.057725966E-2
7.643688323E0,1.766927727E-2,-1.346243143E0,-3.727969825E-1
7.695681681E0,1.844354868E-1,-4.146736562E-1,-4.900831282E-1
7.747675140E0,2.821739316E-1,6.415123343E-1,-1.104002714E0
7.799668366E0,4.813160002E-1,9.408363104E-1,-1.698374629E0
7.851661791E0,4.978093505E-1,2.035506725E0,-2.189510345E0
7.903656011E0,2.339155674E-1,2.179671049E0,-2.452182293E0
7.955649334E0,3.957948685E-1,3.455768585E0,-1.859643102E0
8.007642760E0,3.261562288E-1,1.428917646E0,-9.451777339E-1
8.059636019E0,-2.124024153E0,1.860188484E0,3.430449963E0
8.111629412E0,-3.789853811E0,-3.534973383E0,4.953947544E0
8.163622705E0,-9.041264057E-1,-5.278993607E0,3.848281622E0
8.215616098E0,-1.539838612E-1,-5.253948212E0,2.180008888E0
8.267609490E0,1.222906351E0,-1.274160981E0,-8.981410861E-1
8.319603907E0,2.163028002E0,-1.002326012E0,-1.497399926E0
8.371596966E0,2.764730215E0,-1.494072556E0,-1.909734011E0
8.423590492E0,3.017628431E0,-1.318430454E-1,-1.924394727E0
8.475583850E0,3.298015594E0,-7.207171917E-1,-1.378281236E0
8.527579738E0,3.137969017E0,-1.733531713E0,-9.488429427E-1
8.579574433E0,2.034746408E0,-1.225291848E0,1.213929728E-1
8.631567692E0,1.465618461E-1,2.169610113E-1,1.097555637E0
8.683561084E0,-1.070892572E0,-3.187678158E-1,1.759122729E0
8.735554477E0,-3.004891872E0,1.295749068E0,4.600256920E0
8.787547768E0,-2.614549160E0,-2.579580069E0,3.718778372E0
8.839541093E0,-1.374492645E0,-1.381673336E0,3.061487198E0
8.891534849E0,-4.932736978E-3,-2.217947721E0,-5.560565591E-1
8.943528836E0,7.164991498E-1,-3.022744358E-1,-7.225131243E-2
8.995522128E0,1.517343521E0,-2.124485493E0,-1.394163728E0
9.047515421E0,2.296807528E0,-1.325473785E0,-2.424693346E0
9.099508780E0,2.170969248E0,9.909272194E-1,-2.647659063E0
9.151502072E0,1.458089471E0,1.218780041E0,-3.359317064E0
9.203495532E0,1.076909661E0,2.876057386E0,-2.759447575E0
9.255488891E0,6.358649135E-1,2.185168982E0,-2.179125547E0
9.307482249E0,8.303186297E-2,1.879736185E0,-6.855599880E-1
9.359476501E0,-1.273088932E0,4.570310414E-1,2.386481285E0
9.411469893E0,-3.375076532E0,-1.648297757E-1,3.475654125E0
9.463463119E0,-3.903474569E0,-2.552378178E-1,4.473196983E0
9.515456544E0,-4.184472561E0,-2.330957890E0,3.746267319E0
9.567453397E0,-1.695807695E0,5.080566555E-2,3.922807455E0
9.619451757E0,4.434423447E-1,-7.885231972E-1,-6.818948388E-1
9.671447549E0,1.687163949E0,-5.979332328E-1,-1.697152853E0
9.723440775E0,2.630339861E0,-1.175811768E0,-2.870625019E0
9.775434101E0,2.782445431E0,2.627758980E-1,-3.375810623E0
9.827427494E0,2.840477467E0,3.061473370E-1,-3.244474649E0
9.879420853E0,2.653552771E0,-9.091507643E-2,-2.534038305E0
9.931414313E0,2.119045734E0,-1.542330980E0,-1.480906606E0
9.983408001E0,1.230847597E0,-6.028201580E-1,-3.544710279E-1
1.003540182E1,1.276250184E-1,-8.355597854E-1,-2.573434711E-1
1.008739518E1,-3.552838087E0,1.612788081E0,4.508626938E0
1.013938871E1,-5.850302219E0,-2.231997728E0,5.622234344E0
1.019138227E1,-1.821035147E0,-3.192277908E0,3.889820576E0
1.024337513E1,8.303186297E-2,-9.375742674E-1,1.225226402E0
1.029536849E1,1.085461617E0,-5.484531522E-1,-1.416154861E0
1.034736184E1,1.594923377E0,-1.245126650E-1,-1.556042910E0
1.039935580E1,1.809337020E0,-5.875484943E-1,-2.122315168E0
1.045134952E1,2.379274368E0,3.797749430E-2,-2.089939117E0
1.050334291E1,2.760454416E0,-6.015984416E-1,-1.695931196E0
1.055533617E1,2.786110640E0,-4.940861464E-1,-5.676630139E-1
1.060732973E1,2.380496025E0,-1.035923600E0,3.150372505E-1
1.065932625E1,1.696326971E0,7.340767980E-2,5.587724447E-1
1.070935266E1,-1.112232879E-1,-1.461085796E0,2.854145691E-2
1.076134758E1,-1.901058435E0,3.159211874E-1,2.238651752E0
1.081334098E1,-3.039100409E0,1.507719278E0,4.131112099E0
1.086533434E1,-3.296885490E0,6.696121693E-1,3.578279257E0
1.091732759E1,-2.209545374E0,-1.294319630E0,3.156782389E0
1.096932099E1,-3.115870953E-1,-6.266438961E-1,1.045632124E0
1.102131438E1,1.048198938E0,-3.309850991E-1,-1.362398624E0
1.107330787E1,1.842323780E0,-1.264387250E0,-2.095437050E0
1.112530202E1,2.254657745E0,-7.182736993E-1,-2.664763451E0
1.117729535E1,2.141647816E0,9.266825393E-3,-2.531594753E0
1.122928864E1,1.398835540E0,4.680266082E-1,-2.315959454E0
1.128128207E1,9.706190825E-1,3.898358643E-1,-1.651337981E0
1.133327532E1,8.343961239E-1,-7.091107368E-1,-1.171197891E0
1.138526865E1,3.609755635E-1,-1.293995827E-1,-4.968026280E-1
1.143726204E1,-7.416362166E-1,1.392265797E0,1.488509417E0
1.148925540E1,-3.607205153E0,1.050181150E0,3.226420879E0
1.154124972E1,-4.916900158E0,1.395320058E0,3.211760283E0
1.159324308E1,-2.610272884E0,-2.465348482E0,2.949088097E0
1.164523634E1,-7.062060833E-1,2.932868004E0,7.707427144E-1
1.169722973E1,4.760167375E-2,-2.084779263E0,-1.126604795E0
1.174922496E1,7.623140216E-1,1.158304334E0,-1.256108165E0
1.180122038E1,1.533836842E0,9.967488050E-2,-2.138808250E0
1.185321374E1,2.032302856E0,3.003624268E-2,-3.265244007E0
1.190520700E1,1.995040059E0,-9.021440744E-1,-3.885272264E0
1.195720046E1,1.271775603E0,1.045618057E-1,-3.007458687E0
1.200919369E1,1.373988688E-1,1.314074993E0,-2.455236673E0
1.206118711E1,-1.066005588E0,1.026968360E0,-1.631179452E0
1.211318077E1,-1.918773532E0,4.136883259E0,8.336618543E-1
1.216517462E1,-3.302383184E0,-5.612813234E-1,2.592953920E0
1.221716811E1,-4.794726849E0,-1.472692251E0,3.974120140E0
1.226916147E1,-3.792908192E0,-2.290640831E0,3.918531179E0
1.232115477E1,-1.377547026E0,-3.347437859E0,2.660759687E0
1.237314816E1,3.310431540E-1,-2.127643675E-2,-1.356900930E0
1.242514142E1,8.728806376E-1,7.771244645E-1,-1.283596992E0
1.247713474E1,1.557049632E0,-1.188029051E0,-2.064282894E0
1.252912837E1,1.931510091E0,-9.335853904E-2,-2.236546993E0
1.258112239E1,1.827052116E0,-5.032491088E-1,-2.499829769E0
1.263311578E1,1.600421190E0,-3.902390301E-1,-2.470508337E0
1.268510907E1,8.686045408E-1,5.175067186E-1,-1.329411983E0
1.273710243E1,-1.429882795E-1,3.171429038E-1,3.101503253E-1
1.278909795E1,-7.013190985E-1,6.476210356E-1,2.134193897E0
1.284109681E1,-1.827143788E0,1.717569828E-1,2.741394043E0
1.289309263E1,-3.529014349E0,3.981008753E-2,4.724262714E0
1.294508589E1,-1.729405284E0,-2.601571321E0,2.165348053E0
1.299707908E1,1.074664667E-1,-1.005380392E0,9.197938442E-1
1.304907248E1,3.921296597E-1,3.769038711E-3,-1.503508568E0
1.310106577E1,3.353192210E-1,1.678761601E0,-1.724030852E0
1.315305913E1,5.369047523E-1,4.533658326E-1,-2.209057808E0
1.320505249E1,6.517473459E-1,7.673506141E-1,-2.176071405E0
1.325704621E1,5.228548646E-1,9.603840113E-1,-1.394163728E0
1.330904006E1,6.407518387E-1,2.181827426E-1,1.189495176E-1
1.336103352E1,5.326286554E-1,-2.193513155E0,4.262147248E-1
1.341302678E1,1.224738955E0,-1.266219854E0,2.179096788E-1
1.346502007E1,-1.342727661E0,-1.660514921E-1,1.801272392E0
1.351701347E1,-2.749550343E0,7.985047102E-1,3.377304792E0
1.356900676E1,-1.660377622E0,-1.126942515E0,2.727955103E0
1.362100015E1,-9.175654054E-1,-6.590197682E-1,3.092030764E0
1.367299437E1,7.891920805E-1,-5.020273924E-1,-8.150634766E-1
1.372498789E1,9.657320976E-1,7.392507792E-1,-1.956159711E0
1.377698112E1,1.486189365E0,1.285975218E0,-2.215166569E0
1.382897458E1,1.627910018E0,-7.866905928E-1,-1.868195057E0
1.388096910E1,1.375622630E0,-6.932281852E-1,-1.339185834E0
1.393296506E1,5.094158053E-1,-6.400829554E-1,-9.940469265E-1
1.398495852E1,-6.646671891E-1,1.162580490E0,-5.035221577E-1
1.403695191E1,-1.205893755E0,2.508316755E0,4.097213745E-1
1.408894517E1,-1.132589936E0,1.598634385E-2,1.555093765E0
1.414093853E1,-1.987801313E0,2.041328400E-1,2.517817497E0
1.419293189E1,-2.832628012E0,-2.164191723E0,2.587455988E0
1.424492515E1,-1.565693498E0,-4.146736562E-1,3.155560493E0
1.429691917E1,2.125352919E-1,-1.834935308E0,-5.884324312E-1
1.434891282E1,9.321345091E-1,1.310409784E0,-2.809538603E0
1.440090618E1,8.423373699E-1,1.972587824E0,-3.187664032E0
1.445289957E1,1.230847597E0,1.092941761E0,-2.876122713E0
1.450489287E1,1.174037218E0,5.828692913E-1,-2.352611303E0
1.455688633E1,9.608452320E-1,-8.053036779E-2,-1.902403593E0
1.460887962E1,6.071542501E-1,2.114632279E-1,-9.995447397E-1
1.466087284E1,1.361771375E-1,3.736662492E-2,2.912135124E-1
1.471286693E1,-2.126269192E-1,3.287493587E-1,3.194655895E0
1.476486055E1,-1.620060444E0,1.285975218E0,4.950893402E0
1.481685388E1,-1.400148869E0,-7.842471600E-1,2.979020596E0
1.486884724E1,-1.601734519E0,2.023002505E-1,3.669909239E0
1.492084186E1,8.496677279E-1,-3.126591444E-1,-1.228008270E0
1.497284068E1,1.803228378E0,-8.175209910E-2,-2.421028137E0
1.502483754E1,2.020696402E0,4.958393052E-2,-2.987300396E0
1.507683170E1,1.821554303E0,-2.265271544E-1,-3.010513067E0
1.512882489E1,1.368903160E0,1.320507377E-1,-2.686143875E0
1.518081815E1,6.596886516E-1,3.678447306E-1,-1.963490129E0
1.523281161E1,5.876065493E-1,1.204442978E-1,-1.188302159E0
1.528480491E1,5.737552047E-2,5.211718678E-1,9.084970504E-2
1.533679836E1,-6.457304358E-1,3.053208351E0,2.575238705E0
1.538879252E1,-2.373868227E0,4.881851673E-1,3.064541817E0
1.544078591E1,-4.263274193E0,-1.635182381E0,4.545890331E0
1.549277920E1,-1.697029471E0,-3.465945482E0,2.787209034E0
1.554477256E1,-8.597928099E-3,-1.046308398E0,4.818034768E-1
1.559676598E1,7.568162084E-1,1.183349848E0,-2.711189270E0
1.564875928E1,1.249784470E0,8.791388869E-1,-2.344669819E0
1.570075277E1,1.300486326E0,-5.771638155E-1,-2.968974352E0
1.575274656E1,1.384174824E0,2.682736814E-1,-2.678202391E0
1.580474024E1,1.532615066E0,-1.214583367E-1,-2.822977543E0
1.585673357E1,1.784291625E0,5.773715377E-1,-2.129645586E0
1.590872723E1,1.570488811E0,4.148813486E-1,-9.085258245E-1
1.596072032E1,4.654335082E-1,5.266696811E-1,6.418501735E-1
1.601271474E1,-2.033005476E0,1.427085042E0,2.194058895E0
1.606471380E1,-3.583381414E0,2.196775198E0,3.451219559E0
1.611671019E1,-3.860714197E0,-1.277215362E0,3.633257389E0
1.616870371E1,-1.067227364E0,-3.697463274E0,2.285688400E0
1.622069694E1,-4.716337919E-1,3.309056908E-2,8.837528229E-1
1.627269023E1,6.743494272E-1,-3.456458747E-1,-1.492513061E0
1.632468356E1,8.924282789E-1,5.813604221E-2,-1.932335973E0
1.637667702E1,1.180756688E0,1.900829375E-1,-2.352000475E0
1.642867028E1,1.269332170E0,5.181175470E-1,-2.443630219E0
1.648066410E1,1.178924084E0,3.030930161E-1,-2.605509520E0
1.653265805E1,1.117837548E0,7.349747419E-1,-2.240212202E0
1.658465118E1,4.446640909E-1,9.677144289E-1,-1.051468253E0
1.663664460E1,1.092990637E-1,-1.418325186E0,1.317776740E-1
1.668863799E1,-2.481991291E0,3.071534157E0,3.591107607E0
1.674063135E1,-4.416601658E0,-1.531335354E0,4.486025333E0
1.679262461E1,-1.390375137E0,-3.064607143E0,1.974758148E0
1.684461800E1,-5.168378353E-1,-3.352611661E-1,2.878227711E0
1.689661229E1,8.044636846E-1,-3.847412765E-1,-2.391706467E0
1.694860558E1,1.222906351E0,2.160123348E0,-1.951883674E0
1.700059894E1,1.710376859E0,2.942537889E-2,-2.568857670E0
1.705259230E1,1.844767213E0,4.961264431E-1,-2.640328884E0
1.710458632E1,1.973048925E0,4.142704904E-1,-2.849855423E0
1.715658268E1,2.130041361E0,4.460354745E-1,-2.240823030E0
1.720857637E1,2.012755156E0,-2.760072351E-1,-8.156743050E-1
1.726056963E1,1.240621448E0,-3.615283668E-1,5.080707073E-1
1.731256302E1,-2.462245077E-1,-9.143614769E-1,7.640231848E-1
1.736455648E1,-2.990842104E0,1.557810187E0,3.151895523E0
1.741654968E1,-4.365289211E0,4.258769155E-1,4.520233631E0
1.746854320E1,-3.287722588E0,-1.867311120E0,3.231918812E0
1.752053729E1,-1.571802139E0,-3.010526896E-1,2.864788771E0
1.757253091E1,2.919477820E-1,-1.001104355E0,-5.713281631E-1
1.762452411E1,6.340323091E-1,6.842729449E-1,-1.396607161E0
1.767651737E1,9.058673978E-1,-2.870028019E-1,-2.097880363E0
1.772851069E1,1.201526165E0,6.241210178E-2,-2.600011826E0
1.778050408E1,1.231458545E0,4.527550042E-1,-2.866348982E0
1.783249738E1,1.178924084E0,1.061176777E0,-2.184623241E0
1.788449103E1,2.449111491E-1,2.493655682E0,-1.405159354E0
1.793648505E1,-9.224523306E-1,1.973809481E0,-6.599037051E-1
1.798847841E1,-7.251428962E-1,1.406315684E0,-5.071873665E-1
1.804047160E1,-4.970656395E0,4.352518559E0,4.331476212E0
1.809246510E1,-4.114223003E0,-5.421325207E0,1.962540746E0
1.814428009E1,-1.803320050E0,4.026640356E-1,3.811629772E0
1.819627861E1,5.271309018E-1,-4.693277925E-2,-1.056355238E0
1.824827570E1,1.745807052E0,1.080724478E0,-1.575590730E0
1.830026949E1,2.533212423E0,1.332724690E-1,-2.231049061E0
1.835226275E1,2.567420959E0,3.189755082E-1,-1.986092210E0
1.840425614E1,2.520995140E0,-3.181569576E-1,-1.742967725E0
1.845624947E1,2.315744400E0,2.148413099E-2,-1.227397442E0
1.850824280E1,1.742141843E0,-1.394501448E0,-1.347737908E0
1.856023626E1,1.673312634E-1,-4.207823277E-1,-7.093837857E-1
1.861222978E1,-1.159468055E0,1.015972733E0,4.066670537E-1
1.866422380E1,-1.536371946E0,-8.236295730E-2,2.019351244E0
1.871621719E1,-3.612092018E0,7.252008915E-1,3.800023556E0
1.876821052E1,-4.302369595E0,-2.330957890E0,3.563618660E0
1.882020381E1,-3.028715849E0,-2.289419174E0,3.635089874E0
1.887219714E1,5.065600201E-2,-8.599944711E-1,-5.499479175E-1
1.892419053E1,9.388540387E-1,2.626824379E0,-1.526110649E0
1.897618386E1,1.736644030E0,4.649722874E-1,-2.495553732E0
1.902817761E1,2.031081200E0,4.530787840E-2,-2.592681408E0
1.908017153E1,2.199069023E0,9.414471984E-1,-2.799764633E0
1.913216482E1,2.483121395E0,1.296072900E-1,-2.777162552E0
1.918415818E1,2.089113235E0,-3.450350165E-1,-1.909734011E0
1.923615194E1,1.562547445E0,-4.604885578E-1,-5.114634037E-1
1.928814806E1,7.586488128E-1,-9.113071561E-1,1.328462601E0
1.934014219E1,-8.387637734E-1,1.398374438E0,2.724289894E0
1.939213562E1,-3.626752615E0,6.842729449E-1,2.602727652E0
1.944412884E1,-4.229065895E0,-1.015765071E0,3.027889967E0
1.949612223E1,-2.821021557E0,-2.278423548E0,4.451817036E0
1.954811553E1,-3.378542960E-1,-1.605860829E0,1.564867496E0
1.960010882E1,9.254150391E-1,-9.681175351E-1,-8.914216161E-1
1.965210241E1,1.671892285E0,2.637105249E-2,-1.201130271E0
1.970409653E1,2.394545794E0,-1.122055650E0,-2.366661072E0
1.975608989E1,2.954098463E0,-2.722522497E0,-4.022716999E0
1.980808321E1,2.957152843E0,-3.737457097E-1,-3.984232426E0
1.986007654E1,1.796508908E0,2.502207994E0,-2.766777754E0
1.991206993E1,2.968346775E-1,4.148813486E-1,-1.392942071E0
1.996406316E1,-1.300577879E0,8.840258718E-1,1.348320097E-1
2.001605655E1,-3.811234236E0,2.563294411E0,3.632035732E0
2.006805034E1,-3.981665611E0,3.238624334E-1,3.193434238E0
2.012004426E1,-4.588254929E0,-1.992538571E0,4.181814671E0
2.017203762E1,-1.863795638E0,-1.698101521E0,3.031554937E0
2.022403098E1,2.992781699E-1,7.997264266E-1,-1.240225673E0
2.027602444E1,1.046366334E0,8.027807474E-1,-1.757017732E0
2.032802239E1,1.860649824E0,8.663107753E-1,-2.205392838E0
2.038002015E1,1.942505598E0,1.601505429E-1,-2.292746544E0
2.043201518E1,1.328586102E0,-1.080192998E-1,-2.188288689E0
2.048400860E1,1.436098337E0,-2.808941603E-1,-2.244488001E0
2.053600190E1,1.557660580E0,-1.709384173E-1,-1.458304524E0
2.058799529E1,7.293272614E-1,1.307355523E0,-2.193786383E0
2.063998865E1,-2.333963364E-1,1.419754624E0,-1.937833786E0
2.069198191E1,-1.496665597E0,8.369892836E-1,7.707427144E-1
2.074397596E1,-3.490529776E0,-2.906680107E-1,2.726122379E0
2.079596958E1,-4.199133396E0,-3.138808906E-1,4.056586742E0
2.084796301E1,-3.112404346E0,-3.487936735E0,3.966178656E0
2.089995630E1,-6.848257184E-1,-1.328528047E0,1.373055935E0
2.095194959E1,4.800942540E-1,3.495187759E-1,-1.488236904E0
2.100394305E1,1.253449678E0,5.162850022E-1,-1.620183825E0
2.105593628E1,1.717707276E0,-1.266219854E0,-2.232270718E0
2.110792977E1,1.564990997E0,-3.383154869E-1,-1.940277219E0
2.115992382E1,1.559493184E0,3.409666419E-1,-1.811384678E0
2.121191721E1,1.336527348E0,2.615541816E-1,-1.339796782E0
2.126391074E1,6.187607050E-1,1.497658342E-1,-1.747243762E0
2.131590406E1,2.473546118E-1,6.152451634E-1,-6.867817640E-1
2.136789742E1,-7.495774627E-1,2.817127407E-1,6.705608368E-1
2.141989531E1,-2.246808052E0,8.669216037E-1,2.880060196E0
2.147189310E1,-3.670124292E0,-1.184974790E0,3.404793739E0
2.152388729E1,-3.132562637E0,-6.400829554E-1,5.317412376E0
2.157588068E1,-1.556530476E0,-2.154417992E0,2.461006880E0
2.162787401E1,2.589610517E-1,-1.274160981E0,-1.079568148E0
2.167986727E1,8.234004974E-1,7.007663250E-1,-1.912177324E0
2.173186066E1,1.251006246E0,3.605143428E-1,-2.276864052E0
2.178385399E1,1.780626297E0,-2.882245481E-1,-3.153455496E0
2.183584751E1,1.668227196E0,1.381270170E0,-2.988522053E0
2.188784163E1,2.094611168E0,2.439899683E0,-2.534038305E0
2.193983495E1,2.004203081E0,2.946917772E0,-1.479074001E0
2.199182835E1,1.181978345E0,-1.168481350E0,-1.100337505E0
2.204382164E1,1.612226069E-1,7.765135765E-1,6.009221673E-1
2.209581503E1,-2.009181738E0,-2.295814753E-1,1.836702585E0
2.214780832E1,-4.221735477E0,-4.372756779E-1,3.199542999E0
2.219980168E1,-3.978610992E0,-1.305926085E0,2.680918455E0
2.225179537E1,-2.163730383E0,-3.517545462E-1,3.862942696E0
2.230378929E1,2.198656797E-1,-3.283296824E0,-1.095140949E-1
2.235578262E1,9.400758147E-1,4.209899902E-1,-6.366907954E-1
2.240777605E1,1.674335837E0,-9.815565944E-1,-1.576201558E0
2.245976960E1,1.779404640E0,-6.070961952E-1,-2.125369310E0
2.251176539E1,1.401279092E0,8.565369248E-1,-2.625057220E0
2.256376009E1,6.548017859E-1,1.085000515E0,-2.855964184E0
2.261575351E1,-7.874510884E-1,2.255418301E0,-2.463177919E0
2.266774687E1,-1.422140121E0,2.065439224E0,-1.469910979E0
2.271974010E1,-2.391583204E0,4.354351044E0,2.347996712E0
2.277173336E1,-3.224803448E0,1.971365929E0,2.789041519E0
2.282372668E1,-4.572371960E0,-2.715192080E0,3.653415680E0
2.287572060E1,-1.824700356E0,-2.247269392E0,3.289950848E0
2.292771439E1,7.726987600E-1,-9.033658504E-1,-1.253053784E0
2.297970788E1,1.722594142E0,-8.874833584E-1,-2.178514719E0
2.303170128E1,2.524660110E0,-9.601763487E-1,-2.042902470E0
2.308369457E1,2.478234291E0,-1.153820515E0,-1.967766166E0
2.313568770E1,1.433044076E0,6.818294525E-1,-1.436313391E0
2.318768115E1,4.941441715E-1,2.380034924E0,-1.670274734E0
2.323967441E1,5.662262440E-1,1.421587229E0,-8.785934448E-1
2.329166817E1,1.049420595E0,-1.741473079E0,-8.385775238E-2
2.334366219E1,5.002527833E-1,-7.976861596E-1,7.890686393E-1
2.339565578E1,-1.525376320E0,1.257264495E0,3.158004045E0
2.344764867E1,-3.674400091E0,-1.132440329E0,3.793914795E0
2.349964213E1,-3.013444185E0,-1.586924076E0,3.822625399E0
2.355163915E1,-7.226994038E-1,-1.204522491E0,2.482998133E0
2.360363741E1,8.576090336E-1,-1.179476976E0,-2.684311152E0
2.365563217E1,1.439763546E0,7.661288381E-1,-2.114984512E0
2.370762543E1,1.883251667E0,-6.559654474E-1,-1.837651849E0
2.375961875E1,1.594923377E0,-1.359682083E0,-1.871249557E0
2.381161211E1,1.395170450E0,-5.148555040E-1,-1.017870784E0
2.386360537E1,1.003605723E0,-2.912788689E-1,-7.234336734E-1
2.391559873E1,-5.553223491E-1,-4.220040143E-1,-1.742658019E-1
2.396759222E1,4.104556143E-1,4.246228218E0,1.684295982E-1
2.401958604E1,-1.205282927E0,4.772182941E0,2.525147676E0
2.407157970E1,-3.532068491E0,-2.023081779E0,2.641212225E0
2.412357319E1,-1.537593603E0,-4.269233227E0,1.974147201E0
2.417556642E1,1.514487565E-1,-2.629060030E0,2.539808512E0
2.422755968E1,1.642570853E0,-9.925521612E-1,-1.007485986E0
2.427955337E1,1.994429231E0,3.370143473E-2,-9.580059052E-1
2.433154660E1,2.357893944E0,-8.770986199E-1,-6.867817640E-1
2.438354019E1,2.420202494E0,-1.474524856E0,-1.176084876E0
2.443553427E1,2.187462568E0,-1.042032242E0,-1.461969733E0
2.448752747E1,2.283368349E0,-2.133037567E0,-1.551156163E0
2.453952073E1,1.948003411E0,-1.002326012E0,-1.296425343E0
2.459151432E1,1.120280981E0,-8.825964332E-1,-7.820767164E-1
2.464350967E1,-1.564273238E-1,1.625940055E-1,4.836360812E-1
2.469550483E1,-2.881497145E0,1.764282703E0,2.617388487E0
2.474749836E1,-4.732419014E0,1.644266099E-1,4.357743740E0
2.479949172E1,-3.091023922E0,-1.536833167E0,2.660148859E0
2.485148494E1,-2.359207392E0,4.050140381E0,3.205651522E0
2.490347814E1,-4.197102487E-1,-2.950479044E-3,-3.917338252E-1
2.495547146E1,1.093402982E0,-3.448230505E0,-1.163867593E0
2.500746512E1,1.995651007E0,-8.062382936E-1,-2.424082518E0
2.505945910E1,2.368278742E0,-1.173368335E0,-3.134518862E0
2.511145273E1,2.201512337E0,4.099944234E-1,-2.830918789E0
2.516344599E1,2.853916407E0,1.705352515E-1,-1.892629743E0
2.521543915E1,2.020085573E0,-2.705094516E-1,-1.025812030E0
2.526743261E1,8.288983107E-1,-1.489185691E0,-5.114634037E-1
2.531942620E1,3.176041245E-1,-9.497916102E-1,-1.318416357E0
2.537141916E1,-1.239491463E0,4.319855571E-1,6.381850243E-1
2.542341265E1,-3.275505304E0,3.100244761E0,3.701673985E0
2.547540674E1,-3.839334011E0,1.359279037E0,4.309484959E0
2.552740019E1,-2.791089058E0,-1.765296698E0,2.907549381E0
2.557743052E1,-1.824089527E0,-1.862424374E0,2.974133730E0
2.562942378E1,9.280569851E-2,-8.236295730E-2,-5.762151480E-1
2.568141947E1,2.009288520E-1,1.515984386E-1,-1.362398624E0
2.573341832E1,1.013990521E0,-1.058525681E0,-2.271976948E0
2.578541378E1,1.344468594E0,5.584346652E-1,-2.505327702E0
2.583740714E1,1.330418706E0,9.548862576E-1,-2.111930370E0
2.588940044E1,2.028637648E0,1.564853489E-1,-1.504730344E0
2.594139380E1,1.965107679E0,-3.853521049E-1,-1.589029670E0
2.599338709E1,9.938319325E-1,2.291783094E-1,-9.653363228E-1
2.604538048E1,-3.347999454E-1,1.664100885E0,-4.845853448E-1
2.609737381E1,-2.193662882E0,1.877292752E0,2.158017874E0
2.614936723E1,-5.007918835E0,1.691589713E0,3.570949078E0
2.620136152E1,-4.059245586E0,1.247203574E-1,3.782919168E0
2.625335484E1,-2.259636402E0,-2.455574512E0,3.358367920E0
2.630534807E1,4.923115969E-1,-1.643734455E0,-1.308031797E0
2.635734159E1,9.455736279E-1,-7.494277954E-1,-2.960422039E0
2.640933485E1,1.276051641E0,3.916684687E-1,-3.178500891E0
2.646132821E1,2.042687654E0,-3.627501130E-1,-3.072821379E0
2.651332157E1,2.385993958E0,-5.609575659E-2,-3.096034288E0
2.656531542E1,2.827038527E0,-1.475135684E0,-3.037391186E0
2.661730918E1,1.840491176E0,-2.555249445E-2,-2.342837334E0
2.666930251E1,4.576907679E-2,1.231608152E0,-2.083219767E0
2.672129583E1,-1.209558964E0,1.541316867E0,-1.229230046E0
2.677329059E1,-7.135364413E-1,2.835129499E0,5.380030274E-1
2.682528648E1,-2.705567837E0,8.351566195E-1,1.533713341E0
2.687727990E1,-4.976154327E0,7.551332712E-1,3.928915977E0
2.692927320E1,-4.624295712E0,-9.946718812E-2,4.128668785E0
2.698126649E1,-3.425167322E0,-1.407329679E0,3.332711697E0
2.703325988E1,-4.698011875E-1,-1.037145376E0,-1.333378255E-1
2.708525318E1,5.295743346E-1,7.997264266E-1,-1.746632934E0
2.713724654E1,1.303540707E0,-2.637899518E-1,-2.248764277E0
2.718924046E1,1.876532197E0,-9.326874018E-1,-2.546866417E0
2.724123414E1,2.118434906E0,4.338181615E-1,-2.807095051E0
2.729322757E1,2.193571329E0,1.038470946E-4,-2.504106045E0
2.734522096E1,1.969383836E0,-1.074084416E-1,-1.952494502E0
2.739721419E1,9.400758147E-1,2.026239969E-2,-7.191575766E-1
2.744920758E1,-6.225175261E-1,7.685723305E-1,7.340908051E-1
2.750120094E1,-1.898004174E0,1.931372732E-1,2.539197445E0
2.755319427E1,-3.015887499E0,1.375161529E0,3.508029699E0
2.760518829E1,-2.972516060E0,-1.257343888E-1,3.963124514E0
2.765718188E1,-1.331732035E0,-3.680359364E0,2.737118006E0
2.770917537E1,-1.533729881E-1,-2.428696394E0,9.521696568E-1
2.776116853E1,5.753892064E-1,-1.801013947E-1,-1.937222958E0
2.781316345E1,1.025596976E0,5.547694564E-1,-2.081387281E0
2.786516217E1,1.661507726E0,-8.044056892E-1,-3.191940069E0
2.791715897E1,1.865536571E0,-1.788796633E-1,-3.592056990E0
2.796915293E1,1.177091599E0,2.701062858E-1,-3.703234434E0
2.802114635E1,6.847341061E-1,1.366609335E0,-2.852298975E0
2.807313958E1,2.744312026E-2,1.321405411E0,-1.658057451E0
2.812513297E1,-6.799388528E-1,1.659213901E0,-8.425523639E-1
2.817712626E1,-2.211790383E-1,9.005192518E-1,-6.617362499E-1
2.822911952E1,-2.494208574E0,1.263373137E0,1.901454329E0
2.828111377E1,-4.949886799E0,-1.020041108E0,4.188533783E0
2.833310723E1,-2.836293221E0,-3.122639418E0,4.462201118E0
2.838510059E1,-1.680536151E0,-1.896021843E0,2.539197445E0
2.843709405E1,-1.226312015E-2,-5.814398527E-1,-2.206915617E-1
2.848908724E1,7.788074017E-1,-8.166229725E-1,-8.712630868E-1
2.854108063E1,1.430600643E0,-1.016375899E0,-1.545047402E0
2.859307403E1,1.904632092E0,-5.670661852E-2,-2.151636600E0
2.864506745E1,2.409817696E0,6.720556021E-1,-2.668428659E0
2.869706157E1,2.616900921E0,6.787751317E-1,-2.967752695E0
2.874905496E1,2.393934965E0,-5.243056640E-2,-2.303131104E0
2.880104829E1,1.481302381E0,-9.458027035E-2,-1.195632458E0
2.885304161E1,3.829666972E-1,-4.543798864E-1,-2.854432762E-1
2.890503630E1,-1.241934776E0,7.646200806E-2,1.236222029E0
2.895703519E1,-3.090413094E0,2.394084692E0,3.948463678E0
2.900903155E1,-4.073295116E0,-9.827783108E-1,3.460993052E0
2.906102497E1,-3.204644680E0,-1.234454870E0,4.395617008E0
2.911301830E1,-1.439244390E0,-9.284113050E-1,2.497658730E0
2.916501169E1,4.332561791E-2,-8.606052995E-1,-4.292977601E-2
2.921700518E1,6.816797853E-1,4.103181884E-2,-1.474187016E0
2.926899844E1,1.324920893E0,-3.279307783E-1,-2.118649960E0
2.932099164E1,1.733589768E0,-4.097867310E-1,-2.879177094E0
2.937298529E1,1.681666255E0,-1.080192998E-1,-3.206600904E0
2.942497935E1,1.502682686E0,3.189755082E-1,-3.321443558E0
2.947697267E1,1.042701125E0,1.183960676E0,-2.120482445E0
2.952896606E1,9.345780015E-1,6.922141910E-1,-1.377670288E0
2.958095929E1,2.027614415E-1,-4.452169240E-1,-1.571615785E-1
2.963295272E1,-9.853714705E-1,-1.520016044E-1,2.234375954E0
2.968494604E1,-2.088593960E0,4.246551692E-1,4.126225471E0
2.973693940E1,-4.868641376E0,-2.607356310E-1,5.102388382E0
2.978893306E1,-1.708024979E0,-3.619272709E0,2.846462965E0
2.984092701E1,5.554292351E-2,1.926162004E0,1.308915019E0
2.989292037E1,7.445989251E-1,-1.620521665E0,-1.691044211E0
2.994491376E1,1.150213480E0,1.339120507E0,-1.636066318E0
2.999690765E1,1.568656087E0,-1.190148741E-1,-2.439354181E0
3.004890401E1,1.616303563E0,7.881199718E-1,-2.735013008E0
3.010089773E1,1.601642847E0,8.088893890E-1,-2.902390003E0
3.015289116E1,1.356075048E0,8.883019686E-1,-2.196840525E0
3.020488445E1,6.596886516E-1,8.156089187E-1,-1.386222363E0
3.025687761E1,-5.284442902E-1,1.668700576E-1,4.781382680E-1
3.030887094E1,-8.161618114E-1,-2.808941603E-1,2.582267821E-1
3.036086463E1,-2.868669033E0,2.620715857E0,2.706574678E0
3.041285819E1,-4.329858780E0,-6.064853668E-1,3.536129713E0
3.046485201E1,-3.018941879E0,-1.324252009E0,4.003441811E0
3.051684540E1,-2.009792566E0,-1.454366326E0,3.296670437E0
3.056883869E1,5.943260789E-1,-1.222848415E0,-1.399661541E0
3.062083209E1,1.166095972E0,8.107220531E-1,-2.064282894E0
3.067282541E1,1.949225187E0,3.366905749E-1,-2.647048235E0
3.072481867E1,2.153865099E0,-1.184040084E-1,-3.099088669E0
3.077681206E1,2.249770880E0,-2.900571525E-1,-2.407589197E0
3.082880618E1,1.874699593E0,-5.600595474E-1,-1.822991133E0
3.088079977E1,1.458700418E0,-7.014565170E-2,-1.022146821E0
3.093279303E1,7.720878124E-1,-3.346503079E-1,-2.872758806E-1
3.098478643E1,-1.594816446E-1,8.736411929E-1,2.069141120E-1
3.103678058E1,-1.505828619E0,6.769425869E-1,1.325408340E0
3.108877907E1,-2.985344172E0,1.533986449E0,2.899608135E0
3.114077630E1,-4.042140961E0,-2.210293710E-1,2.990016222E0
3.119277076E1,-2.915705681E0,-3.063996315E0,4.354078293E0
3.124476405E1,1.196837798E-1,-2.899673700E0,1.163529038E0
3.129675741E1,1.026818633E0,-2.906680107E-1,-9.806079268E-1
3.134875073E1,1.599810362E0,-9.204701185E-1,-1.440589428E0
3.140074406E1,1.693272710E0,-2.799595520E-2,-2.184623241E0
3.145273778E1,1.648679495E0,2.120740861E-1,-2.554196835E0
3.150473214E1,1.515510917E0,8.449304700E-1,-2.447906256E0
3.155672516E1,1.080574870E0,1.583179533E-1,-2.209057808E0
3.160871849E1,2.950021029E-1,6.119037420E-2,-1.620183825E0
3.166071175E1,-7.172015905E-1,5.981409550E-1,-9.989339113E-1
3.171270517E1,-1.488724351E0,1.226721287E0,5.306726694E-1
3.176469847E1,-2.281627417E0,5.071219802E-1,2.506211042E0
3.181669182E1,-3.272450924E0,1.209006190E0,3.813462496E0
3.186868532E1,-3.032380819E0,1.001312017E0,2.669312000E0
3.192067943E1,-2.776428461E0,5.443847775E-1,3.366309166E0
3.197267286E1,-4.765206873E-1,-5.386793017E-1,1.634506226E0
3.202466608E1,6.132628918E-1,-2.718857527E0,-1.168143511E0
3.207665958E1,1.146548271E0,3.794511855E-1,-1.248777747E0
3.212865347E1,1.608362436E0,-9.925521612E-1,-1.859032154E0
3.218065202E1,2.021918058E0,-3.462567329E-1,-2.697139263E0
3.223264904E1,2.238164663E0,-5.325706005E-1,-2.509603500E0
3.228464287E1,1.718318105E0,-1.089068890E0,-2.171184301E0
3.233663610E1,3.548668921E-1,3.837272227E-1,-1.740524292E0
3.238862956E1,-1.007362604E0,6.485556066E-2,-5.334545970E-1
3.244062282E1,-1.686033964E0,6.182994843E-1,1.762176991E0
3.249261624E1,-3.923633337E0,1.655548692E0,5.527550220E0
3.254460953E1,-2.204658508E0,-1.749414206E0,2.602727652E0
3.259660326E1,-2.152734756E0,-3.026733398E0,3.271014214E0
3.264859725E1,3.066085577E-1,2.819857836E0,-1.482128263E0
3.270059047E1,1.117837548E0,-6.596305966E-1,-2.345281124E0
3.275258396E1,1.628520846E0,6.134125590E-1,-2.297022343E0
3.280457732E1,2.133706570E0,1.729787141E-1,-2.784492970E0
3.285657052E1,2.340178967E0,3.330253959E-1,-2.758225918E0
3.290856401E1,2.390269756E0,2.047436982E-1,-2.664152622E0
3.296049679E1,2.235110044E0,-9.059132077E-3,-1.757017732E0
3.301249048E1,1.844767213E0,-8.887050748E-1,-1.127215624E0
3.306448440E1,-6.174320728E-2,-6.400829554E-1,3.077068925E-1
3.311647770E1,-1.832641602E0,1.687924504E0,1.696203589E0
3.316847102E1,-4.091010094E0,2.681191444E0,3.388300180E0
3.322046468E1,-3.678065538E0,-1.063412547E0,4.391951561E0
3.327246090E1,-2.047666073E0,-1.145268440E0,3.688235044E0
3.332445500E1,-1.686446220E-1,9.371711612E-1,-3.746296167E-1
3.337644846E1,5.576741099E-1,2.421573639E0,-1.176084876E0
3.342844171E1,1.272997260E0,1.524212599E0,-1.484571815E0
3.348043504E1,1.598588467E0,4.148813486E-1,-2.133310556E0
3.353242857E1,1.811780572E0,4.057183862E-1,-2.366050243E0
3.358442189E1,1.466030717E0,4.191574156E-1,-2.835194826E0
3.363641562E1,1.063470602E0,5.620998740E-1,-2.749062777E0
3.368840940E1,8.759349585E-1,7.361964583E-1,-1.361787796E0
3.374040273E1,9.229715466E-1,5.601634271E-3,-1.223121405E0
3.379239605E1,-1.324401617E0,-6.098267809E-2,2.112813711E0
3.384438948E1,-3.906528950E0,-1.233844042E0,3.102415323E0
3.389638281E1,-4.259609222E0,-9.870544076E-1,4.168986320E0
3.394837603E1,-3.216251135E0,-3.327279091E0,4.653402328E0
3.400036942E1,-6.713867188E-1,-4.112241268E0,2.038288116E0
3.405236348E1,1.416749209E-1,-1.776903152E0,-2.654989481E0
3.410435707E1,7.006166577E-1,4.171092033E0,-2.130867243E0
3.415635049E1,1.528949976E0,4.655831456E-1,-2.921326876E0
3.420834375E1,1.769019842E0,-5.365229398E-2,-2.904222727E0
3.426033728E1,1.816667438E0,1.650050879E0,-3.137573004E0
3.431233523E1,1.706711650E0,5.394978523E-1,-2.843746901E0
3.436433295E1,2.294974804E0,9.408363104E-1,-1.631179452E0
3.441632708E1,1.235734582E0,7.563550472E-1,-4.109717906E-2
3.446832054E1,-1.248654366E0,-2.240549803E0,1.861137152E0
3.452031377E1,-2.974348545E0,1.477176070E0,3.984504938E0
3.457230712E1,-4.168590546E0,1.218780041E0,4.616750717E0
3.462430055E1,-2.839958191E0,-5.128720760E0,3.661357164E0
3.467629384E1,-8.766374588E-1,3.420949221E0,4.285661221E0
3.472828737E1,3.664733171E-1,-3.471547365E-2,-5.047438741E-1
3.478028159E1,1.351188064E0,-2.796724141E-1,-2.312294245E0
3.483227481E1,1.940673113E0,5.743172169E-1,-2.847412109E0
3.488426814E1,2.114769697E0,1.168689132E0,-3.096645117E0
3.493626150E1,2.124543428E0,2.213268518E0,-2.645215750E0
3.498825483E1,1.677390099E0,9.218994975E-1,-2.003196239E0
3.504024808E1,1.685331464E0,-1.098518968E-1,-1.379502892E0
3.509224154E1,1.243675828E0,-1.030425787E0,-7.203793526E-1
3.514423497E1,-2.150703818E-1,-9.113071561E-1,-2.750585675E-1
3.519622905E1,-1.876012921E0,7.080966830E-1,1.307082415E0
3.524822258E1,-3.916913748E0,5.901996493E-1,3.073093653E0
3.530021590E1,-4.264496326E0,-1.923187077E-1,3.668687582E0
3.535220933E1,-3.006113768E0,-2.660214424E0,3.595994473E0
3.540420528E1,-4.917923212E-1,2.279565930E-1,9.631652832E-1
3.545619984E1,6.334214211E-1,-3.456458747E-1,-1.364842176E0
3.550819320E1,1.569266915E0,4.698592126E-1,-1.890797138E0
3.556018660E1,2.058570147E0,-3.529762626E-1,-2.872457504E0
3.561217982E1,1.822165132E0,3.348580003E-1,-2.863294601E0
3.566417322E1,2.218616724E0,1.858068854E-1,-2.896892071E0
3.571616654E1,2.431808949E0,-5.576161742E-1,-2.156523466E0
3.576816020E1,2.525270939E0,-8.642704487E-1,-1.103391886E0
3.582015419E1,2.692037344E0,-1.089679837E0,-2.646738589E-1
3.587214751E1,1.351188064E0,-4.891992211E-1,2.655571699E-1
3.592414094E1,-1.797211409E0,2.016893774E-1,2.613112211E0
3.597613423E1,-3.354306936E0,1.818649650E0,3.880657673E0
3.602812749E1,-3.543674946E0,-1.148933768E0,3.561786175E0
3.608012088E1,-2.125856876E0,5.871453285E-1,3.581944466E0
3.613211431E1,-2.517222762E-1,-8.740442991E-1,3.242002130E-1
3.618410780E1,3.237127662E-1,2.560563982E-1,-1.017259836E0
3.623610192E1,1.091570377E0,6.781642437E-1,-1.642175078E0
3.628809518E1,1.489854455E0,-3.792434633E-1,-2.530983925E0
3.634008850E1,1.360351086E0,6.317385435E-1,-2.847412109E0
3.639208200E1,1.319423079E0,-3.349373862E-2,-3.336104155E0
3.644407912E1,1.459509730E-1,2.682736814E-1,-3.501648664E0
3.649607721E1,-1.764224648E0,2.478384018E0,-2.570690155E0
3.654807293E1,-2.722061396E0,2.230983734E0,-1.247555971E0
3.660006623E1,-1.968253613E0,1.619507551E0,8.605399132E-1
3.665205959E1,-3.863768578E0,5.504934192E-1,3.658302784E0
3.670405294E1,-4.476466179E0,-3.031009436E0,4.299711227E0
3.675604624E1,-2.248640776E0,-3.649816036E0,4.376069546E0
3.680803956E1,5.729457736E-1,-2.547815084E0,1.238364354E-1
3.686003375E1,1.357296705E0,4.527550042E-1,-2.034350395E0
3.691202727E1,2.175856113E0,-2.249816619E-2,-2.071613312E0
3.696402060E1,2.643779039E0,-5.551726818E-1,-2.454014778E0
3.701601399E1,2.530158043E0,1.094487235E-1,-2.700193644E0
3.706800735E1,2.039022446E0,5.840910077E-1,-2.642161369E0
3.712000061E1,2.281535864E0,9.438906312E-1,-1.770456672E0
3.717199400E1,2.166693211E0,-1.703275591E-1,-5.664412975E-1
3.722398740E1,1.408609509E0,-1.266219854E0,2.295161337E-1
3.727598155E1,7.763639092E-1,-8.074600101E-1,2.490638196E-1
3.732797504E1,-1.411755323E0,2.670519650E-1,2.043174982E0
3.737996856E1,-5.145363808E0,5.157028198E0,4.465866566E0
3.743196166E1,-5.547924042E0,-2.269871235E0,5.126822948E0
3.748395508E1,-1.832030654E0,-2.540484667E0,2.952753305E0
3.753595190E1,4.699081182E-2,1.680918038E-1,-1.604301333E0
3.758795015E1,5.045288801E-1,8.687542081E-1,-1.719754934E0
3.763994502E1,1.158765554E0,1.650374532E-1,-1.843760490E0
3.769193831E1,1.133109212E0,-2.735637724E-1,-2.347113609E0
3.774393160E1,1.103176713E0,1.053235531E0,-2.434467316E0
3.779592496E1,1.469085097E0,9.273972511E-1,-2.184012413E0
3.784791845E1,1.128833175E0,8.929017931E-2,-2.280529022E0
3.789991164E1,-4.341724887E-2,6.347928643E-1,-1.722809196E0
3.795190497E1,-6.029697657E-1,1.094163418E0,-4.241096675E-1
3.800389922E1,-7.654599547E-1,2.969519854E0,1.865413189E0
3.805589261E1,-2.274297237E0,-2.408537865E0,3.413345814E0
3.810788604E1,-4.417823315E0,-2.037742615E0,3.653415680E0
3.815987953E1,-4.059245586E0,-1.345021367E0,4.324756622E0
3.821187272E1,-1.649381995E0,-4.220040143E-1,4.581320286E0
3.826386605E1,3.786906302E-1,-2.611345053E0,-5.059656501E-1
3.831585938E1,1.543610692E0,-6.736805439E-1,-1.722809196E0
3.836785277E1,2.273594618E0,-5.466205478E-1,-2.435078144E0
3.841984702E1,2.078117609E0,1.412137151E-1,-2.968363523E0
3.847184038E1,1.846599817E0,1.120430708E0,-2.918272495E0
3.852383370E1,1.695105195E0,2.206262052E-1,-3.040445566E0
3.857582710E1,3.768580258E-1,-3.981803060E-1,-3.667193413E0
3.862782248E1,-1.738568306E0,3.044045448E0,-2.524875164E0
3.867981764E1,-3.000005245E0,4.467972279E0,3.351958096E-1
3.873181104E1,-3.104462862E0,1.273757935E0,2.965581656E0
3.878380436E1,-4.674997330E0,-1.860591650E0,4.246565819E0
3.883579786E1,-4.031756401E0,-1.530113697E0,4.556885719E0
3.888779105E1,-1.421529293E0,-5.079851627E0,4.509237766E0
3.893978451E1,1.056140184E0,-3.316283464E0,-2.017857075E0
3.899177800E1,1.670670629E0,3.263058662E-1,-2.158356190E0
3.904377215E1,2.718304396E0,-2.859356403E0,-1.943942428E0
3.909576541E1,2.714028597E0,-2.696255445E0,-2.441186666E0
3.914775880E1,2.317576885E0,-9.992716908E-1,-1.854756117E0
3.919975209E1,1.949836016E0,-3.755782843E-1,-1.674550891E0
3.925174542E1,9.357997179E-1,-6.009875536E-1,-1.557875633E0
3.930373874E1,2.803413272E-1,-5.362358689E-1,-1.660501003E0
3.935573210E1,1.378066182E0,1.853469014E0,-1.290316701E0
3.940772602E1,4.605465829E-1,-7.640885711E-1,-5.536131263E-1
3.945971968E1,-9.505521059E-1,-1.281778514E-1,1.649166942E0
3.951171314E1,-3.494805813E0,3.414840460E0,4.426771164E0
3.956370640E1,-3.969448328E0,-1.304093480E0,4.483581543E0
3.961569962E1,-3.038489580E0,1.011085868E0,5.139650822E0
3.966769568E1,-6.255718470E-1,-1.927786827E0,-5.780477524E-1
3.971969476E1,-6.235406920E-2,1.364776850E0,-1.744800329E0
3.977169026E1,5.998238325E-1,8.528717160E-1,-2.012970209E0
3.982368308E1,9.571800828E-1,-4.684298038E-1,-2.416141272E0
3.987567641E1,1.241843224E0,1.031244397E0,-2.563970804E0
3.992766970E1,1.442817926E0,-4.452169240E-1,-3.248750448E0
3.997966300E1,1.363405347E0,7.661288381E-1,-3.024563074E0
4.003165642E1,1.261390924E0,-6.742913723E-1,-2.697750330E0
4.008364982E1,7.116121650E-1,-1.515452862E0,-2.221885920E0
4.013564354E1,8.547531813E-2,1.925264001E-1,-1.458304524E0
4.018763749E1,-1.893117189E0,2.092317343E0,1.104885936E0
4.023963085E1,-4.439814568E0,1.344007492E0,3.302778959E0
4.029162404E1,-6.079377174E0,9.084604383E-1,5.078564644E0
4.034361757E1,-4.681106091E0,-1.240563512E0,4.719986439E0
4.039369366E1,-1.454515934E0,2.992732763E0,2.773159027E0
4.044568695E1,1.508379132E-1,-1.236898303E0,-1.705094099E0
4.049768034E1,7.702552676E-1,1.298803329E0,-1.461969733E0
4.054967446E1,1.625466585E0,-1.419546962E0,-2.549920559E0
4.060166805E1,2.094000340E0,-4.293344021E-1,-2.768610477E0
4.065366131E1,2.137982368E0,1.528201550E-1,-3.412462473E0
4.070565470E1,1.941283941E0,8.046134114E-1,-3.418570995E0
4.075764946E1,1.949225187E0,6.121907830E-1,-2.882231474E0
4.080964532E1,1.349355459E0,2.120740861E-1,-1.423485279E0
4.086163871E1,7.513183951E-1,9.958142042E-1,-1.004431725E0
4.091363200E1,-1.568136811E0,3.493031263E0,1.052351594E0
4.096562529E1,-3.893700838E0,1.216336489E0,3.127460957E0
4.101761872E1,-5.174074173E0,-1.117883483E-3,5.694927216E0
4.106961198E1,-3.003059387E0,-3.688300610E0,2.953364372E0
4.112160537E1,-1.095327139E0,6.897706985E-1,2.117089748E0
4.117359929E1,2.174222171E-1,-1.000780538E-1,-1.104002714E0
4.122559295E1,1.045755506E0,1.613398910E0,-9.787753224E-1
4.127758637E1,1.854541063E0,3.919922188E-2,-2.226162195E0
4.132957977E1,2.502058268E0,4.460354745E-1,-2.579242229E0
4.138157302E1,2.522827625E0,-6.150375009E-1,-3.064269304E0
4.143356632E1,2.328572512E0,-7.671428919E-1,-2.149803877E0
4.148555971E1,1.623023152E0,-3.083830774E-1,-1.304977417E0
4.153755320E1,5.949369669E-1,-3.584740460E-1,-1.412790865E-1
4.158954735E1,-1.090440273E0,5.431630015E-1,1.565478444E0
4.164154074E1,-3.230912209E0,1.698920012E0,3.836675406E0
4.169353401E1,-5.089164257E0,-2.444578886E0,5.263656616E0
4.174552736E1,-1.833252430E0,-2.637001514E0,5.059627533E0
4.179752222E1,-3.818365932E-1,6.494536400E-1,2.023627281E0
4.184952101E1,6.462496519E-1,1.105769873E0,-2.505938530E0
4.190151777E1,1.186254501E0,9.005192518E-1,-2.487001657E0
4.195351169E1,1.542999744E0,-2.063686103E-1,-2.787547350E0
4.200550512E1,1.574153900E0,3.415775001E-1,-3.510200977E0
4.205749841E1,1.572321296E0,8.931888342E-1,-3.227981091E0
4.210949177E1,1.646235943E0,9.539882839E-2,-2.903000832E0
4.216148513E1,1.495352268E0,-4.448931664E-2,-2.260981560E0
4.221347869E1,1.431822300E0,8.076677322E-1,-4.289966226E-1
4.226547277E1,-2.627178729E-1,1.011085868E0,1.304028034E0
4.231746603E1,-3.004281044E0,1.659824729E0,2.084713936E0
4.236945936E1,-5.498444080E0,1.583466530E0,4.646071911E0
4.242145285E1,-3.993272066E0,-2.924108267E0,4.118895054E0
4.247344608E1,-1.682368636E0,-6.975042820E-1,3.726108789E0
4.252543947E1,3.896862268E-1,-6.052635908E-1,-1.796723843E0
4.257743280E1,9.376323223E-1,2.205327511E0,-1.614075184E0
4.262942642E1,1.401279092E0,2.792692482E-1,-2.657433033E0
4.268142041E1,1.582706094E0,1.008642435E0,-2.871846676E0
4.273341380E1,1.712209463E0,1.195567131E0,-3.189496517E0
4.278540709E1,1.697548747E0,1.019027114E0,-3.490653276E0
4.283740048E1,1.075687885E0,1.462515235E0,-2.807705879E0
4.288939514E1,1.563356966E-1,6.790988892E-2,-1.852312565E0
4.294139406E1,-1.031797290E0,1.057835296E-1,-2.103068531E-1
4.299339032E1,-2.007349014E0,1.610955477E0,2.363879442E0
4.304538381E1,-3.589489937E0,1.467114985E-1,2.950920820E0
4.309737720E1,-4.567485332E0,-8.416684866E-1,3.806742907E0
4.314937050E1,-3.253514051E0,-3.621105194E0,3.972287655E0
4.320136392E1,-7.697360516E-1,-1.562489510E0,3.380970001E0
4.325335718E1,6.945080161E-1,-8.483880162E-1,-1.360566139E0
4.330535037E1,1.489854455E0,7.306986451E-1,-1.722198367E0
4.335734463E1,2.095832825E0,3.641795218E-1,-2.480893135E0
4.340933808E1,2.392102480E0,1.448789090E-1,-2.753338814E0
4.346133148E1,2.744571686E0,-3.914607763E-1,-2.713021755E0
4.351332487E1,2.814210415E0,-2.088120729E-1,-2.104600191E0
4.356531809E1,2.298640251E0,-9.675067067E-1,-1.202962875E0
4.361731152E1,9.437409639E-1,-9.467372894E-1,-3.361450732E-1
4.366930481E1,-2.498897016E-1,2.585285664E0,4.158300161E-1
4.372129817E1,-1.904723644E0,6.286842227E-1,2.132361412E0
4.377329216E1,-5.104435921E0,3.531839550E-1,4.402336597E0
4.382528585E1,-4.441647053E0,-1.308369517E0,3.279566288E0
4.387727924E1,-2.284681797E0,-1.000493407E0,3.073093653E0
4.392927253E1,3.847992718E-1,-1.728644729E0,-1.767092645E-1
4.398126653E1,1.269332170E0,-1.813231409E-1,-1.935390234E0
4.403326285E1,2.111715317E0,3.183646500E-1,-2.551142693E0
4.408525654E1,2.723191500E0,-3.236547112E-1,-3.209044456E0
4.413724980E1,2.586968422E0,3.318036795E-1,-2.918272495E0
4.418924326E1,1.945559978E0,-2.784507275E-1,-2.369104624E0
4.424123652E1,5.356829762E-1,6.237972379E-1,-1.582310200E0
4.429322991E1,-6.646671891E-1,1.552636325E-1,-6.385233998E-1
4.434522327E1,-8.234921694E-1,1.431971908E0,1.306471586E0
4.439721742E1,-1.552865267E0,3.553403169E-2,2.627773285E0
4.444921081E1,-4.442868710E0,1.516882181E0,4.225796223E0
4.450120424E1,-3.331094027E0,-2.961370945E0,3.665632963E0
4.455319756E1,-1.930990815E0,-7.384322286E-1,3.559342623E0
4.460519089E1,3.695276380E-1,7.340767980E-2,-1.231673598E0
4.465718421E1,1.294988513E0,3.336362541E-1,-1.681270361E0
4.470917777E1,2.064067841E0,-3.786326051E-1,-2.585350752E0
4.476117087E1,2.236942530E0,-4.143498838E-2,-2.761890888E0
4.481316508E1,2.189295053E0,7.154270411E-1,-2.577409744E0
4.486515844E1,2.071398258E0,1.709915638E0,-1.913399220E0
4.491715180E1,1.955944657E0,4.674157798E-1,-1.162645698E0
4.496914526E1,1.119059324E0,-1.112892628E0,-1.137901470E-1
4.502113941E1,2.632370889E-1,9.518319368E-1,5.942026973E-1
4.507313787E1,-1.066005588E0,-6.443589926E-1,5.294509530E-1
4.512513479E1,-4.598028183E0,2.339717865E0,4.194031715E0
4.517712852E1,-4.196079254E0,-2.888354063E-1,4.752362251E0
4.522912184E1,-2.996950626E0,-1.511787653E0,3.030944109E0
4.528111527E1,-4.209319651E-1,-6.895629764E-1,-2.487913668E-1
4.533310856E1,5.588958859E-1,1.268260121E0,-1.616518736E0
4.538510192E1,1.370735884E0,6.024169922E-1,-2.095437050E0
4.543709531E1,1.932120919E0,2.933191657E-1,-2.890783548E0
4.548908867E1,2.012144327E0,8.745758235E-2,-3.386806250E0
4.554108306E1,1.880808234E0,-1.214583367E-1,-3.201713800E0
4.559307632E1,1.205191255E0,4.924612343E-1,-2.225551367E0
4.564506951E1,2.766761482E-1,9.267864227E-1,-1.455250263E0
4.569706293E1,-8.570897579E-1,3.586817384E-1,9.940182418E-2
4.574905623E1,-8.161618114E-1,1.363268048E-1,9.087982774E-1
4.580104962E1,-2.863781929E0,1.502221465E0,4.204416275E0
4.585304294E1,-4.426986217E0,-2.242993355E0,4.401725769E0
4.590503657E1,-2.667694330E0,-2.959538221E0,3.979617834E0
4.595703059E1,-2.724916935E-1,-2.211228371E0,6.278002262E-1
4.600902394E1,7.177208066E-1,1.841862559E0,-1.713646293E0
4.606101727E1,1.397613883E0,4.851308465E-1,-1.944553375E0
4.611301100E1,1.798952341E0,-1.409162283E0,-2.279307365E0
4.616500725E1,1.831328273E0,3.403557837E-1,-2.342837334E0
4.621700138E1,1.629742622E0,1.261540532E0,-2.005028963E0
4.626899464E1,2.010922670E0,9.420580268E-1,-1.217623711E0
4.632098793E1,1.360961914E0,-2.705094516E-1,-1.553289741E-1
4.637298152E1,3.102737367E-1,1.329957485E0,8.874179721E-1
4.642497478E1,-1.679925323E0,-1.164205313E0,1.483011603E0
4.647696797E1,-4.640789032E0,6.140234470E-1,4.311317921E0
4.652896160E1,-3.500303745E0,-2.360279560E0,2.964359760E0
4.658095568E1,-1.753229141E0,-4.794253707E-1,3.396852493E0
4.663294898E1,-1.387122124E-1,-1.927175999E0,-8.321676850E-1
4.668494230E1,5.051397681E-1,4.222117364E-1,-1.241447330E0
4.673693560E1,8.435590863E-1,4.164268449E-2,-2.056341648E0
4.678892905E1,1.257725716E0,4.570310414E-1,-2.574355364E0
4.684092235E1,1.240010619E0,1.007420659E0,-3.046554089E0
4.689291590E1,1.295599341E0,6.073039174E-1,-2.753338814E0
4.694490939E1,1.258947492E0,4.775133356E-2,-2.529762268E0
4.699690321E1,1.353020787E0,2.187001467E0,-4.919157326E-1
4.704889664E1,-2.254550904E-1,1.372717977E0,4.976859689E-1
4.710089003E1,-4.695766926E0,1.222768947E-1,2.991848946E0
4.715288349E1,-4.556489944E0,-2.597906113E0,4.985713005E0
4.720488174E1,-1.927936554E0,-1.239017919E-1,4.693108559E0
4.725687944E1,1.844354868E-1,1.552312374E0,-3.587470949E-1
4.730887443E1,4.935332835E-1,9.365602136E-1,-2.312294245E0
4.736086776E1,1.030483842E0,1.969533443E0,-2.636052847E0
4.741286098E1,1.050031543E0,5.242262483E-1,-2.926824808E0
4.746485447E1,6.810688972E-1,1.276201248E0,-2.895670414E0
4.751684777E1,4.324467778E-1,6.457883716E-1,-2.623835564E0
4.756884119E1,1.166294515E-1,1.877292752E0,-1.987924695E0
4.762083508E1,-5.070639849E-1,2.627758980E-1,-1.331855416E0
4.767282870E1,-1.160689831E0,8.058350682E-1,6.559000611E-1
4.772482199E1,-2.723283052E0,1.508941054E0,3.060265541E0
4.777681539E1,-4.253500462E0,-1.411605716E0,3.459160566E0
4.782880875E1,-2.838125706E0,-1.257667780E0,3.568505526E0
4.788067847E1,-7.324732542E-1,-1.638847709E0,2.029736042E0
4.793267160E1,9.645104408E-1,-1.933284640E0,-1.477852345E0
4.798466502E1,1.690218210E0,-1.904861182E-1,-2.490055799E0
4.803665931E1,2.060402632E0,-5.063034296E-1,-2.706302166E0
4.808865266E1,1.916849375E0,-4.937623441E-2,-2.931711435E0
4.814064602E1,1.548497558E0,5.633215904E-1,-3.143070698E0
4.819263938E1,1.140439630E0,9.280081987E-1,-2.300687790E0
4.824463287E1,3.927405477E-1,9.145690799E-1,-1.092396259E0
4.829663089E1,-6.542824507E-1,1.454573989E0,6.168046594E-1
4.834862848E1,-1.007973433E0,1.965153590E-2,2.081659317E0
4.840062267E1,-4.477077007E0,7.966721058E-1,4.932568073E0
4.845261613E1,-3.748925686E0,-3.231984138E0,4.083464622E0
4.850460933E1,-1.854632735E0,-4.342213571E-1,3.155560493E0
4.855660272E1,4.593248665E-1,-2.338288307E0,-1.514504194E0
4.860859608E1,9.944428205E-1,7.306986451E-1,-1.838262677E0
4.866058937E1,1.558271527E0,5.388869643E-1,-2.140641212E0
4.871258290E1,1.864314914E0,-8.636596203E-1,-2.837638140E0
4.876457708E1,2.178299665E0,5.333892107E-1,-2.860851049E0
4.881657044E1,2.560090303E0,2.987234831E0,-2.822366714E0
4.886856370E1,9.651212692E-1,1.541927695E0,-2.482114792E0
4.892055706E1,-8.302116990E-1,3.837272227E-1,-1.560319066E0
4.897255045E1,-5.131726265E-1,-8.948137164E-1,6.946942955E-2
4.902454378E1,-2.693961382E0,9.261755347E-1,3.004066229E0
4.907653710E1,-5.116042614E0,-2.295814753E-1,4.871480942E0
4.912853073E1,-3.605372667E0,-2.571638823E0,3.903870583E0
4.918052474E1,-1.064783931E0,-2.776889563E0,2.807978153E0
4.923251814E1,1.347522974E0,-5.010823727E0,-1.837041020E0
4.928451153E1,1.316368818E0,1.133869767E0,-1.388055086E0
4.933650486E1,2.254046917E0,-1.583258867E0,-1.995865941E0
4.938850091E1,2.586357594E0,-1.641291022E0,-2.413086891E0
4.944049544E1,2.637670517E0,-7.885231972E-1,-2.049622059E0
4.949248880E1,2.315133572E0,-1.011489034E0,-1.969598770E0
4.954448216E1,1.089126945E0,2.523911893E-1,-1.160813212E0
4.959647542E1,-2.107943296E-1,4.897306859E-2,-3.703535497E-1
4.964846881E1,-1.704970717E0,2.433180094E0,1.089003563E0
4.970046207E1,-2.898601294E0,2.251753092E0,3.252077341E0
4.975245602E1,-2.805749893E0,-1.792174816E0,2.973522663E0
4.980444978E1,-3.257179260E0,-8.471662402E-1,4.046202183E0
4.985644310E1,-1.176572323E0,-1.396334052E0,2.138469934E0
4.990843646E1,5.705023408E-1,-4.562124908E-1,-9.384582639E-1
4.996042979E1,1.326142550E0,1.369663715E0,-2.413086891E0
5.001242305E1,1.808115363E0,-1.122953594E-1,-2.735013008E0
5.006441651E1,2.042687654E0,-3.957368433E-1,-2.978137255E0
5.011640977E1,1.891193032E0,4.093835652E-1,-2.732569218E0
5.016840385E1,1.773295999E0,-2.674551308E-1,-2.329398394E0
5.022039748E1,1.477637172E0,-1.611645818E-1,-1.658057451E0
5.027239074E1,5.747783780E-1,1.234986261E-1,-6.238626242E-1
5.032438416E1,-5.528788567E-1,2.151284218E-1,5.832070708E-1
5.037637755E1,-2.583395004E0,3.076421261E0,3.460993052E0
5.042837461E1,-4.170423031E0,-1.294930458E0,2.748113632E0
5.048037293E1,-2.313392639E0,-2.647386312E0,3.954572201E0
5.053236752E1,-1.496054769E0,1.690978885E0,2.938703299E0
5.058436078E1,4.623791873E-1,-8.477771282E-1,-1.174862981E0
5.063635410E1,7.470423579E-1,5.263825879E-2,-1.522445440E0
5.068834750E1,1.169150233E0,1.876394749E-1,-2.156523466E0
5.074034089E1,1.430600643E0,2.707171738E-1,-2.622613668E0
5.079233412E1,1.675557494E0,2.090197653E-1,-2.957978725E0
5.084432754E1,1.902188540E0,-3.395372331E-1,-2.884674788E0
5.089632150E1,1.730535388E0,2.407847643E-1,-2.212723255E0
5.094831508E1,5.906608701E-1,5.596564412E-1,-8.425523639E-1
5.100030851E1,-7.153690457E-1,2.401738912E-1,1.096333861E0
5.105230207E1,-2.164341211E0,3.159211874E-1,3.380970001E0
5.110429533E1,-3.192427397E0,7.936177850E-1,3.503143072E0
5.115628862E1,-4.139879227E0,-1.278437138E0,4.273443699E0
5.120828188E1,-2.226649761E0,-3.492823839E0,4.131112099E0
5.126027520E1,-1.179428101E-1,-1.728644729E0,7.487515807E-1
5.131226936E1,6.957296729E-1,9.109039307E-1,-1.721587539E0
5.136426288E1,1.135552764E0,-6.480241418E-1,-1.928670764E0
5.141625611E1,1.627910018E0,9.054061174E-1,-2.454625845E0
5.146824957E1,1.889971256E0,1.218780041E0,-2.800375462E0
5.152024512E1,2.137982368E0,-1.089172717E-2,-2.552364349E0
5.157224018E1,2.266875029E0,-1.398777604E0,-2.094826221E0
5.162423361E1,1.961442471E0,-8.581618071E-1,-1.204184532E0
5.167622687E1,1.081185699E0,1.131139174E-1,-1.620484889E-1
5.172822029E1,-1.949316740E0,1.518103957E0,2.216049910E0
5.178021359E1,-3.997548103E0,8.088893890E-1,4.058419228E0
5.183220688E1,-2.353709698E0,-1.308369517E0,3.501310349E0
5.188420037E1,-1.665264487E0,2.097204447E0,3.357146263E0
5.193619452E1,3.621972799E-1,-1.299206495E0,-6.489080787E-1
5.198818798E1,7.836942673E-1,1.384935260E0,-1.851090908E0
5.204018120E1,1.699992180E0,1.839742959E-1,-2.599400997E0
5.209217460E1,1.982822776E0,-9.015332460E-1,-3.276850224E0
5.214416792E1,1.875921369E0,4.234334826E-1,-2.863905430E0
5.219616121E1,1.532004237E0,-2.283597589E-1,-2.293968201E0
5.224815461E1,7.329924703E-1,-2.027034163E-1,-8.071221709E-1
5.230014797E1,-1.674228907E-1,-6.464786828E-2,6.339089274E-1
5.235214218E1,-1.654268980E0,3.434101343E-1,3.038274527E0
5.240413558E1,-3.925465822E0,7.569658756E-1,3.524523258E0
5.245612890E1,-4.423321247E0,-8.236295730E-2,4.790235996E0
5.250812226E1,-1.730627060E0,-2.136702776E0,2.969246864E0
5.256011832E1,6.077650785E-1,-1.123888135E0,9.643869996E-1
5.261211677E1,1.144104719E0,-3.676370382E-1,-2.264646769E0
5.266411313E1,1.693272710E0,1.166856408E0,-1.710591912E0
5.271610662E1,2.054904699E0,-5.789964199E-1,-2.625668049E0
5.276810002E1,2.171580076E0,1.199843168E0,-2.819923162E0
5.282009328E1,3.016406775E0,2.816192627E0,-2.672093868E0
5.287208650E1,2.382939339E0,1.486949801E0,-1.917064309E0
5.292407993E1,1.317590594E0,-1.944891095E0,-1.451585054E0
5.297607368E1,-4.728555381E-1,-2.753964067E-1,2.435660213E-1
5.302806767E1,-1.499719977E0,1.129593611E0,1.389549136E0
5.308006103E1,-5.152083397E0,5.614889860E-1,4.318647861E0
5.313205432E1,-4.286487103E0,-2.955262184E0,3.694954634E0
5.318404755E1,-2.257803679E0,-2.576812804E-1,4.426160336E0
5.323604097E1,-3.975205496E-2,-1.325473785E0,3.089286089E-1
5.328803430E1,9.083107710E-1,-8.969334513E-2,-2.050843716E0
5.334002752E1,1.345079422E0,8.461522460E-1,-2.063672066E0
5.339202151E1,1.801395774E0,-1.040810585E0,-2.777773380E0
5.344401527E1,1.751915693E0,4.295421243E-1,-2.669039488E0
5.349600863E1,1.751915693E0,-1.801013947E-1,-2.462566853E0
5.354800205E1,8.967043161E-1,-1.159605458E-1,-2.699582815E0
5.359999531E1,-1.262704253E0,3.258459091E0,-2.713021755E0
5.365199127E1,-1.926103830E0,4.430709362E0,-1.165700078E0
5.370398995E1,-2.493597746E0,1.974133104E-1,1.699257970E0
5.375598528E1,-3.690282822E0,-4.232257605E-1,3.482373476E0
5.380797867E1,-3.042154789E0,-2.342564344E0,3.880046844E0
5.385997216E1,-1.263315201E0,-2.311410189E0,2.894721270E0
5.391196532E1,7.592597008E-1,2.316217870E-1,-1.031920671E0
5.396395855E1,1.599199295E0,-7.164410949E-1,-1.240836501E0
5.401595194E1,2.199679852E0,-1.677332163E0,-2.177293062E0
5.406794547E1,2.184408188E0,-8.196772933E-1,-2.343448162E0
5.411993952E1,1.893636465E0,-8.825964332E-1,-2.347113609E0
5.417193298E1,2.368889570E0,-7.258912176E-2,-1.457082748E0
5.422392640E1,2.604683638E0,-7.592016459E-1,-8.022353053E-1
5.427591956E1,1.910129786E0,-1.249115586E0,-4.467116892E-1
5.432791309E1,1.826028973E-1,-8.062382936E-1,8.257206082E-1
5.437990631E1,-1.866850019E0,1.425863266E0,2.933205843E0
5.443189964E1,-3.312157154E0,3.013502121E0,3.919753075E0
5.448389333E1,-3.662182808E0,-1.640680194E0,4.159212589E0
5.453588728E1,-1.769722462E0,4.530787840E-2,3.396241426E0
5.458788071E1,2.561052516E-2,-1.159605458E-1,-3.990642130E-1
5.463987407E1,5.778326988E-1,-1.568885148E-1,-2.018467903E0
5.469186753E1,1.364016294E0,3.708990514E-1,-2.265257597E0
5.474386228E1,1.912573218E0,-1.581102461E-1,-2.730736732E0
5.479585807E1,2.128208637E0,3.531839550E-1,-2.542590380E0
5.484785136E1,2.274816513E0,-3.566414416E-1,-2.572522640E0
5.489984486E1,2.362781048E0,-3.267090321E-1,-1.514504194E0
5.495183825E1,1.214965224E0,-6.034310460E-1,-6.782296300E-1
5.500383147E1,-9.853714705E-1,2.279565930E-1,5.966461301E-1
5.505582467E1,-2.659753084E0,2.352869660E-1,1.539821982E0
5.510781803E1,-3.282835722E0,2.011682987E0,3.932581186E0
5.515981221E1,-3.127064943E0,3.003624268E-2,3.768258572E0
5.521180604E1,-2.683576822E0,8.045095019E-3,3.123795748E0
5.526379916E1,-2.767677605E-1,1.913046688E-1,8.745898604E-1
5.531383066E1,-5.807801336E-2,-1.224070072E0,-1.637288094E0
5.536582395E1,8.056854010E-1,1.283855438E-1,-1.745411277E0
5.541781748E1,1.524673820E0,-1.931452036E0,-3.030671597E0
5.546981074E1,2.063457012E0,-1.136716485E0,-4.132672310E0
5.552180410E1,2.499614716E0,-9.213680029E-2,-3.697125673E0
5.557379828E1,2.550316572E0,4.185465276E-1,-2.424693346E0
5.562579160E1,1.833771586E0,-3.835195303E-1,-1.185858607E0
5.567778496E1,6.706842184E-1,-7.885231972E-1,1.928642094E-1
5.572977822E1,3.646407425E-1,4.515332580E-1,1.514776587E0
5.578177335E1,-1.873569608E0,1.186117008E-1,3.128071785E0
5.583377207E1,-3.955398083E0,2.478384018E0,4.931956768E0
5.588576826E1,-3.435552120E0,-1.300428271E0,4.000387192E0
5.593776172E1,-9.639911652E-1,1.296072900E-1,2.564853907E0
5.598975504E1,-2.553874850E-1,8.846367002E-1,-1.391720176E0
5.604174834E1,3.744145930E-1,1.901727319E0,-1.497399926E0
5.609374170E1,9.064782262E-1,-5.026382208E-1,-2.452182293E0
5.614573502E1,7.244403958E-1,6.030278206E-1,-2.874901056E0
5.619772832E1,7.232186198E-1,1.499167085E0,-2.898113966E0
5.624972201E1,2.333047092E-1,1.088054776E0,-2.848633766E0
5.630171599E1,-2.569955826E0,3.182711601E0,-3.732555866E0
5.635370929E1,-3.376298189E0,4.967659950E0,-2.147360563E0
5.640570278E1,-3.039100409E0,-6.571871042E-1,-9.219648242E-1
5.645769607E1,-4.404994965E0,-1.898752451E-1,4.249619961E0
5.650968933E1,-4.502122402E0,-4.466543198E0,4.168375015E0
5.656168279E1,-8.644201756E-1,-5.999203682E0,3.906313896E0
5.661367598E1,7.836942673E-1,-1.142825127E0,-5.969845653E-1
5.666566984E1,1.772074223E0,-2.353559971E0,-1.342851043E0
5.671766369E1,2.508167028E0,-1.489185691E0,-2.028852701E0
5.676965709E1,2.955320358E0,-1.119001389E0,-2.310461760E0
5.682165041E1,2.674933195E0,-1.566154718E0,-2.616505146E0
5.687364454E1,2.045742035E0,-1.086301655E-1,-2.272587776E0
5.692564076E1,1.358518481E0,-7.879123092E-1,-1.601247072E0
5.697763432E1,8.557763696E-1,-5.588378310E-1,-3.214843273E-1
5.702962771E1,2.614045143E-1,-4.782036543E-1,1.409707785E0
5.708162107E1,-1.408701062E0,3.110018730E0,3.787806034E0
5.713361436E1,-2.576064348E0,-5.319597721E-1,3.466490984E0
5.718560772E1,-2.510091066E0,-5.698334575E-1,4.732203484E0
5.723760112E1,-2.091037512E0,-7.543147802E-1,3.772534370E0
5.728959477E1,4.202294648E-1,-2.230776072E0,4.320222139E-2
5.734158876E1,1.122724533E0,-1.666336536E0,-2.106432676E0
5.739358205E1,1.607140660E0,1.045618057E-1,-2.252429485E0
5.744557551E1,2.226558208E0,-9.241352677E-1,-2.938431263E0
5.749756884E1,2.455632687E0,3.370143473E-2,-2.874901056E0
5.754956200E1,2.203956127E0,-3.438133001E-1,-2.571911812E0
5.760155539E1,1.957777381E0,2.148413099E-2,-1.546269178E0
5.765354875E1,1.412885547E0,2.609432936E-1,-3.214843273E-1
5.770554267E1,6.401410103E-1,-1.031036735E0,9.332329035E-1
5.775753652E1,-3.732844889E-1,2.047113180E0,3.617985487E0
5.780952971E1,-3.803292751E0,1.365998507E0,4.795123100E0
5.786152311E1,-3.232133865E0,4.307638407E-1,4.579487324E0
5.791351726E1,-2.761156797E0,-5.915008113E-2,4.520233631E0
5.796551595E1,-9.900598228E-2,-3.202662706E0,-2.259148836E0
5.801751311E1,7.226077914E-1,-3.450350165E-1,-2.474784374E0
5.806950740E1,1.236956358E0,2.016893774E-1,-2.724017382E0
5.812150076E1,1.429989696E0,-5.548489094E-2,-2.766777754E0
5.817349416E1,1.651122928E0,-3.425915539E-1,-2.372159004E0
5.822548748E1,1.622412205E0,-2.295814753E-1,-1.579866648E0
5.827748081E1,1.599810362E0,2.499477416E-1,-9.580059052E-1
5.832947446E1,2.170358419E0,2.031230927E0,4.408755004E-1
5.838146842E1,6.531676650E-2,7.056531906E-1,2.458563566E0
5.843346174E1,-3.201590538E0,-8.887050748E-1,3.769480228E0
5.848545514E1,-2.748328686E0,-2.540161014E-1,4.405391216E0
5.853744846E1,-2.945027113E0,-2.756120205E0,4.541002750E0
5.858944179E1,1.581682861E-1,-3.059720278E0,-1.140654683E0
5.864143515E1,8.038528562E-1,1.788717270E0,-2.422860861E0
5.869342844E1,1.425713658E0,3.873924315E-1,-2.557251215E0
5.874542200E1,1.585760355E0,-1.452820748E-1,-2.816868782E0
5.879741622E1,1.170371890E0,8.718085289E-1,-3.008680344E0
5.884940964E1,1.312092781E0,-4.021326080E-2,-3.093590736E0
5.890140293E1,1.403111696E0,1.173899770E-1,-2.619559288E0
5.895339619E1,1.148991704E0,2.963735163E-1,-2.020300627E0
5.900539018E1,1.215163693E-1,9.402254820E-1,-1.350792289E0
5.905738880E1,-1.362275243E0,1.056900740E0,5.288400650E-1
5.910938579E1,-2.978624821E0,1.176019430E0,2.822028399E0
5.916137955E1,-5.719577312E0,1.651883364E0,4.426771164E0
5.921337281E1,-3.671345949E0,2.884322405E-1,4.087130070E0
5.926536621E1,-2.210767031E0,1.538873434E0,3.328435659E0
5.931735946E1,5.124701262E-1,-9.656741619E-1,-2.345891953E0
5.936935279E1,1.199693441E0,2.295735359E0,-2.309850693E0
5.942134622E1,1.902188540E0,2.499477416E-1,-3.191940069E0
5.947333987E1,1.935175300E0,-1.074084416E-1,-3.042278051E0
5.952533386E1,2.250381947E0,1.033400744E-1,-2.830307961E0
5.957732735E1,2.582081556E0,-9.051984549E-1,-2.038626671E0
5.962932078E1,1.849043369E0,-8.508314490E-1,-1.654392362E0
5.968131384E1,4.025143683E-1,-8.783203959E-1,-1.058187842E0
5.973330720E1,-4.154341817E-1,-6.648045778E-2,-3.379776776E-1
5.978530052E1,-1.806985259E0,1.342785597E0,2.225823641E0
5.983729388E1,-3.987774134E0,4.301529825E-1,4.443264484E0
5.988928777E1,-3.451434612E0,-1.853261352E0,4.705936432E0
5.994128176E1,-2.898601294E0,-1.094566703E0,4.641185284E0
5.999327492E1,-4.019951522E-1,-4.574342370E-1,8.348836303E-1
6.004526831E1,6.651864648E-1,4.002205729E-1,-1.524277925E0
6.009726213E1,1.384174824E0,-3.706913590E-1,-2.594513893E0
6.014925832E1,2.229001522E0,-4.464386702E-1,-3.256081104E0
6.020125225E1,2.290699005E0,2.523911893E-1,-3.555405140E0
6.025324561E1,1.795287132E0,3.336362541E-1,-3.589002371E0
6.030523887E1,1.079964042E0,8.345457911E-1,-2.887729168E0
6.035723229E1,2.406350821E-1,4.234334826E-1,-2.227994919E0
6.040922558E1,-4.606382251E-1,2.908757031E-1,-9.415125847E-1
6.046121905E1,-1.399538040E0,3.965553939E-1,1.876761205E-2
6.051321303E1,-1.937710285E0,2.590783358E0,1.605795503E0
6.056520652E1,-3.468538523E0,1.906937957E-1,2.966192484E0
6.061720015E1,-4.492348671E0,-1.391734332E-1,4.495799065E0
6.066919350E1,-2.742830753E0,-9.717828035E-1,3.928915977E0
6.072118656E1,-5.571548939E-1,-9.479590058E-1,-2.536782920E-1
6.077317986E1,6.444169879E-1,-7.653102875E-1,-1.360566139E0
6.082517325E1,1.117226720E0,-1.084792852E0,-2.161410332E0
6.087716661E1,1.678000927E0,-5.124121308E-1,-2.406367540E0
6.092916079E1,2.080561161E0,-1.101286173E0,-2.580464125E0
6.098115422E1,1.663951159E0,-8.294511437E-1,-2.805262566E0
6.103314764E1,1.984044552E0,5.889779925E-1,-2.578020573E0
6.108514090E1,1.445872188E0,1.577070802E-1,-1.827267170E0
6.113713436E1,4.454734921E-2,-3.077722490E-1,-1.163867593E0
6.118913265E1,-9.267283678E-1,8.180524111E-1,1.103053451E0
6.124113010E1,-3.152721405E0,3.700114727E0,4.194642544E0
6.129312433E1,-5.068394661E0,-3.230438530E-1,5.088338375E0
6.134511772E1,-4.363456249E0,-1.413438320E0,5.693094730E0
6.139711102E1,-1.923049569E0,-2.442422509E-1,4.082853794E0
6.144910424E1,5.204113722E-1,-2.308966875E0,-1.641564131E0
6.150109763E1,1.226571679E0,1.902949095E0,-2.500440598E0
6.155309096E1,2.063457012E0,6.518970132E-1,-3.651310682E0
6.160508432E1,2.253436089E0,3.757859766E-1,-3.807692289E0
6.165707847E1,2.353007078E0,3.550165296E-1,-3.453390360E0
6.170907193E1,2.655996323E0,-8.236295730E-2,-2.184012413E0
6.176106525E1,3.001135349E0,-7.598124743E-1,-1.011151195E0
6.181305868E1,1.471528530E0,-6.749022007E-1,-2.897193432E-1
6.186505207E1,-6.750519276E-1,-1.281778514E-1,3.663499355E-1
6.191704523E1,-2.116693735E0,3.380021334E0,3.094474077E0
6.196903873E1,-4.524113655E0,-6.333634257E-1,3.572170734E0
6.202103208E1,-4.290152550E0,-1.837378740E0,3.874549150E0
6.207302627E1,-1.750174642E0,4.942938089E-1,3.563618660E0
6.212501963E1,-1.423774064E-1,1.070052609E-1,-1.266183108E-1
6.217701302E1,6.798472404E-1,3.965553939E-1,-3.147647977E-1
6.222900664E1,1.433654904E0,1.106380820E0,-1.323914170E0
6.228100273E1,2.086669922E0,5.578237772E-1,-2.169351816E0
6.233299703E1,2.258322954E0,5.908105373E-1,-2.634830952E0
6.238499026E1,2.682874203E0,4.509223998E-1,-2.589016199E0
6.243698372E1,1.840491176E0,6.363382936E-2,-2.417362928E0
6.248897697E1,1.123335361E0,4.613071084E-1,-1.457082748E0
6.254097030E1,3.402061164E-1,-1.837665886E-1,-2.860541344E-1
6.259296379E1,-7.306406498E-1,-9.504024386E-1,-1.034054309E-1
6.264495708E1,-2.569344997E0,1.034298658E0,2.126863480E0
6.269690098E1,-4.827103138E0,7.954503894E-1,3.589885712E0
6.274889437E1,-4.466692448E0,-1.164205313E0,3.429228306E0
6.280088767E1,-2.502149820E0,6.744990945E-1,3.119519472E0
6.285288099E1,-4.832402468E-1,-6.113722324E-1,-1.276877522E0
6.290487428E1,4.941441715E-1,1.865686297E0,-1.199297786E0
6.295686774E1,1.381731272E0,-3.523653746E-1,-2.377045870E0
6.300886094E1,1.887527823E0,1.051726714E-1,-2.921326876E0
6.306085496E1,2.126376152E0,5.144523978E-1,-3.331217289E0
6.311284875E1,2.296196461E0,3.858835623E-2,-2.778384209E0
6.316484207E1,3.630937338E0,-1.930841208E0,-1.992200851E0
6.321683536E1,2.254046917E0,-1.853872180E0,-1.044137955E0
6.326882879E1,4.745964706E-1,1.760330349E-1,-4.045620263E-1
6.332082611E1,-2.863171101E0,1.540706038E0,2.710850716E0
6.337282414E1,-5.486226559E0,1.337287784E0,5.424314022E0
6.342481966E1,-4.959660530E0,-9.504024386E-1,6.572129726E0
6.347681299E1,-1.733070612E0,5.859236717E-1,3.633868217E0
6.352880641E1,9.559583068E-1,-1.819663644E0,-2.344669819E0
6.358079964E1,7.971333265E-1,2.187001467E0,-2.271366119E0
6.363279303E1,1.319423079E0,7.178704739E-1,-2.774108410E0
6.368478639E1,1.878975749E0,-8.129577637E-1,-3.356262922E0
6.373678061E1,1.527117252E0,5.645433068E-1,-3.089314699E0
6.378877400E1,1.326142550E0,-9.702372551E-2,-3.134518862E0
6.384076733E1,1.486189365E0,-1.177931428E-1,-2.267700911E0
6.389276072E1,8.185136318E-1,-4.433843195E-1,-5.023004413E-1
6.394475408E1,-7.837859392E-1,-2.741746604E-1,1.008980155E0
6.399674734E1,-1.967031837E0,1.890120983E0,2.764606953E0
6.404874080E1,-4.547937393E0,5.639324784E-1,4.057197571E0
6.410073403E1,-3.934018135E0,-1.525837541E0,4.231905460E0
6.415272814E1,-1.319514751E0,-1.690771103E0,3.884933949E0
6.420472174E1,3.768580258E-1,-1.750635982E0,-1.001377344E0
6.425671499E1,1.282160282E0,1.681815863E0,-1.978761673E0
6.430870839E1,1.772685170E0,-6.718478799E-1,-2.647048235E0
6.436070185E1,1.857595325E0,-3.395372331E-1,-3.340380430E0
6.441269887E1,1.358518481E0,4.380942285E-1,-3.378253937E0
6.446469702E1,1.057972789E0,1.430750251E0,-2.858407736E0
6.451669178E1,1.752725095E-1,1.420365572E0,-2.261592388E0
6.456868507E1,1.984854043E-1,5.547694564E-1,-1.503508568E0
6.462067840E1,-8.656418324E-1,1.075837493E0,1.180633307E0
6.467267172E1,-2.095313787E0,-4.360539317E-1,2.796371937E0
6.472466508E1,-4.091010094E0,1.897451282E0,4.765190601E0
6.477665838E1,-3.464873552E0,-2.842863083E0,4.413942814E0
6.482865177E1,-5.571548939E-1,-1.737196922E0,1.552039385E0
6.488064599E1,5.564524531E-1,4.808548093E-1,-1.122328639E0
6.493263938E1,1.351798892E0,-4.055106938E-1,-1.736859083E0
6.498463277E1,2.047574520E0,-7.341561913E-1,-2.435688972E0
6.503662610E1,1.887527823E0,-3.523653746E-1,-2.876122713E0
6.508861935E1,1.767798185E0,3.525730968E-1,-3.073432446E0
6.514061278E1,2.159973621E0,2.901713848E0,-2.754560471E0
6.519260611E1,2.778780222E0,2.954248190E0,-1.024590254E0
6.524459966E1,1.998705268E0,-1.349908352E0,4.836360812E-1
6.529659382E1,-2.999806404E-1,-2.397542238E0,1.604573727E0
6.534858707E1,-2.788034916E0,1.747178435E0,3.223977566E0
6.540058047E1,-3.247405529E0,-1.074084416E-1,2.760330915E0
6.545257393E1,-4.973099709E0,2.737714946E-1,5.239222050E0
6.550456938E1,-2.585227489E0,-2.013918877E0,4.517179012E0
6.555656444E1,-2.584418058E-1,-7.909666896E-1,-6.980784237E-2
6.560855787E1,5.527872443E-1,6.702229977E-1,-1.818715096E0
6.566055109E1,1.274829984E0,1.485441029E-1,-2.328176737E0
6.571254455E1,1.745807052E0,-1.010878086E0,-2.956757069E0
6.576453784E1,1.808115363E0,3.482970297E-1,-3.064880133E0
6.581653117E1,1.879586577E0,2.334543765E-1,-2.896281242E0
6.586852463E1,1.450759172E0,4.399268329E-1,-2.611007214E0
6.592051878E1,-2.938719988E-1,7.252008915E-1,-2.392317533E0
6.597251220E1,-1.511326432E0,2.245033741E0,-9.946578145E-1
6.602450546E1,-3.213807821E0,4.533334732E0,2.611890554E0
6.607649886E1,-5.203395844E0,-9.442937970E-1,4.391340733E0
6.612849232E1,-4.527778625E0,-3.585675001E0,4.084075928E0
6.618048564E1,-1.284084558E0,-2.172743797E0,3.077369928E0
6.623247890E1,1.021931767E0,-6.022092700E-1,-1.831543207E0
6.628447279E1,1.781237125E0,-5.221859217E-1,-1.951272845E0
6.633646648E1,2.252214432E0,-5.545617938E-1,-2.469286680E0
6.638845994E1,2.498393059E0,-6.871195436E-1,-2.918272495E0
6.644045323E1,2.158141136E0,2.514932305E-2,-3.037391186E0
6.649244649E1,1.722594142E0,-4.354430735E-1,-3.089314699E0
6.654444274E1,1.731146216E0,5.193393230E-1,-1.954327106E0
6.659644126E1,1.218630314E0,-4.855340123E-1,-5.878216028E-1
6.664843656E1,-2.040748149E-1,-9.345199466E-1,1.297308564E0
6.670042988E1,-2.492376089E0,3.565113544E0,3.969844103E0
6.675242318E1,-3.974946022E0,1.132648110E0,4.298489571E0
6.680441657E1,-3.516186237E0,-2.772002697E0,4.643017769E0
6.685640999E1,-1.362886190E0,1.448789090E-1,4.410888672E0
6.690840322E1,4.770399332E-1,-1.090290666E0,-1.108889699E0
6.696039658E1,1.318812251E0,6.140234470E-1,-1.163256645E0
6.701239030E1,1.815445662E0,-4.201714396E-1,-2.277474880E0
6.706438415E1,2.142258644E0,6.848837733E-1,-2.725239038E0
6.711637751E1,2.018252850E0,9.805425406E-1,-3.060604095E0
6.716837084E1,1.324310064E0,3.888872147E0,-2.468064785E0
6.722036443E1,4.275598526E-1,1.650050879E0,-2.698361158E0
6.727235769E1,-2.169029713E-1,-6.474133134E-1,-1.288483977E0
6.732435088E1,1.270141453E-1,-2.633336067E0,-8.614891768E-1
6.737634438E1,-2.475271702E0,2.541303158E0,2.893499613E0
6.742833830E1,-4.103227615E0,-2.045073032E0,2.795150042E0
6.748033209E1,-4.092232227E0,-1.288210988E0,4.449373245E0
6.753232528E1,-1.721464157E0,-3.372483253E0,2.403585434E0
6.758431857E1,1.899332702E-1,-4.268909693E-1,-8.633217812E-1
6.763631356E1,9.974971414E-1,8.186632395E-1,-1.460137129E0
6.768830922E1,1.473972082E0,-7.317126989E-1,-2.435078144E0
6.774030258E1,1.841712832E0,2.270586230E-2,-2.645826578E0
6.779229601E1,1.994429231E0,-1.874317825E-1,-2.853520870E0
6.784428927E1,1.174648046E0,-3.028853238E-1,-2.622613668E0
6.789628269E1,1.094975974E-2,1.124095917E0,-1.838873625E0
6.794827582E1,-6.292369962E-1,4.942938089E-1,-9.152453542E-1
6.800026928E1,-1.323790789E0,2.615217924E0,1.110383749E0
6.805226350E1,-2.026896715E0,2.920974493E-1,2.673587799E0
6.810425692E1,-4.195468426E0,-9.705610275E-1,4.818946838E0
6.815625031E1,-4.044584751E0,-3.232594967E0,4.536116123E0
6.820824367E1,-9.829279780E-1,-1.527670145E0,2.811643600E0
6.826023700E1,1.069579244E0,-5.246294141E-1,-1.957381487E0
6.831223036E1,1.367681503E0,8.705868125E-1,-2.113152027E0
6.836422365E1,1.749472260E0,-6.614632010E-1,-2.651324511E0
6.841621691E1,1.936396956E0,-6.345851421E-1,-2.537092447E0
6.846821113E1,2.050018072E0,-2.405770570E-1,-2.696528435E0
6.852020468E1,1.982211947E0,-1.251235306E-1,-2.223718643E0
6.857219804E1,1.651733756E0,3.556274176E-1,-1.212736726E0
6.862419134E1,6.138737798E-1,5.874691159E-2,-1.082923561E-1
6.867618662E1,-3.853032738E-2,2.725497484E-1,7.161173504E-3
6.872818521E1,-1.527209044E0,7.722374797E-1,2.406639814E0
6.878018184E1,-3.268785715E0,1.386157155E0,4.287494183E0
6.883217563E1,-2.720839500E0,-1.993149400E0,3.630813837E0
6.888416909E1,-1.879678249E0,-3.731348217E-1,3.841562271E0
6.893616228E1,2.815630436E-1,-6.736805439E-1,-3.312581778E-1
6.898815568E1,7.739204764E-1,3.397449255E-1,-1.442422032E0
6.904014914E1,1.459922075E0,2.163501382E-1,-2.284194231E0
6.909214292E1,1.762300372E0,-2.973875105E-1,-2.615283251E0
6.914413658E1,1.715263844E0,-2.925006151E-1,-2.978137255E0
6.919613000E1,1.366459727E0,5.230045319E-1,-2.129645586E0
6.924812356E1,4.513836205E-1,-8.969334513E-2,-1.681881189E0
6.930011676E1,-3.775605559E-1,2.982060909E-1,-4.980243742E-1
6.935210988E1,-1.814727932E-1,2.469221115E0,1.435364127E0
6.940410348E1,-2.943805456E0,2.871781349E0,4.015658855E0
6.945609663E1,-4.583367825E0,-1.420768619E0,3.785973549E0
6.950809062E1,-1.572412968E0,-4.679734707E0,4.292991638E0
6.956008444E1,1.172403097E-1,8.736411929E-1,7.518059015E-1
6.961207764E1,1.293155909E0,-7.243823409E-1,-2.060617685E0
6.966407100E1,1.318812251E0,7.258117795E-1,-1.935390234E0
6.971606439E1,1.525895476E0,-4.305561483E-1,-2.679424047E0
6.976805944E1,1.764133096E0,-2.387444675E-1,-2.582907438E0
6.982005833E1,2.315133572E0,-1.786066175E0,-2.213334084E0
6.987205446E1,1.970605493E0,-1.087236285E0,-1.846203923E0
6.992404772E1,6.004347205E-1,4.362616241E-1,-4.424356520E-1
6.997604107E1,1.593900174E-1,8.400436044E-1,1.391381860E0
7.002803430E1,-1.471620202E0,3.653688908E0,3.437780380E0
7.008002783E1,-4.198522568E0,-1.214583367E-1,4.178759575E0
7.013202102E1,-2.996950626E0,-2.317518711E0,4.235570431E0
7.018398353E1,-1.894949794E0,-1.447646737E0,4.595370293E0
7.023597738E1,6.260910630E-1,-1.997425556E0,-2.817780674E-1
7.028797114E1,1.721983314E0,1.595396698E-1,-2.356276274E0
7.033996440E1,2.228390694E0,4.173248112E-1,-3.218818188E0
7.039195786E1,2.651720285E0,-6.052635908E-1,-3.380086660E0
7.044395115E1,2.409206867E0,2.920974493E-1,-3.420403719E0
7.049594444E1,2.159362793E0,9.793208838E-1,-2.587794542E0
7.054793787E1,1.379898787E0,1.813762784E0,-1.413711429E0
7.059993132E1,3.634189963E-1,-1.110736281E-1,-9.971013069E-1
7.065192551E1,-4.716337919E-1,-4.754364118E-2,8.935266733E-1
7.070391880E1,-2.133187294E0,1.564529777E0,2.358381510E0
7.075591216E1,-3.975556850E0,4.332073033E-1,2.853182316E0
7.080790546E1,-3.817953587E0,-2.405770570E-1,3.774367094E0
7.085989978E1,-3.271229267E0,-2.956483841E0,3.679072380E0
7.091189597E1,-6.206848621E-1,-1.456809759E0,1.156809568E0
7.096388946E1,6.132628918E-1,-4.097867310E-1,-1.238393068E0
7.101588286E1,1.271164775E0,7.594093680E-1,-2.297022343E0
7.106787618E1,1.833771586E0,-4.366647899E-1,-3.322054386E0
7.111986957E1,1.883862495E0,5.608780980E-1,-3.722781897E0
7.117186290E1,2.448912859E0,-4.281127155E-1,-3.709953785E0
7.122385619E1,1.453813434E0,2.462825477E-1,-2.221275091E0
7.127585021E1,2.436894178E-1,5.156741142E-1,-6.287495494E-1
7.132784390E1,-2.158232689E0,8.388218284E-1,3.432282686E0
7.137983720E1,-3.051317692E0,3.314047813E0,3.060265541E0
7.143183055E1,-4.683549881E0,1.827525496E-1,5.172637463E0
7.148382401E1,-1.618227959E0,-3.946696520E0,5.621623516E0
7.153581721E1,7.959116101E-1,4.038857818E-1,-1.073459506E0
7.158781053E1,1.532004237E0,1.362944245E0,-2.672093868E0
7.163980396E1,1.732978940E0,9.784228355E-2,-2.964698315E0
7.169179804E1,1.996261835E0,3.519622087E-1,-2.545033932E0
7.174379157E1,1.591868997E0,1.232115179E-2,-2.568857670E0
7.179578486E1,8.912066221E-1,-5.050817132E-1,-2.395371914E0
7.184777822E1,4.104556143E-1,9.078496099E-1,-1.640953302E0
7.189977248E1,-2.529440224E-1,8.852475882E-1,-8.828694820E-1
7.195177123E1,-1.708635807E0,2.338496208E0,1.376721025E0
7.200376795E1,-4.262663364E0,1.989081025E0,3.031554937E0
7.205576155E1,-5.670097351E0,-1.647399664E0,4.425549507E0
7.210775494E1,-2.551018953E0,-3.835195303E-1,4.591704845E0
7.215974823E1,-1.961335540E-1,4.087727070E-1,1.376721025E0
7.221174149E1,1.119670153E0,-1.654119253E0,-3.094201565E0
7.226373495E1,1.251617074E0,1.210227847E0,-2.235325098E0
7.231572824E1,1.731146216E0,-8.086817861E-1,-2.481503963E0
7.236772173E1,1.663340211E0,2.688845396E-1,-2.480893135E0
7.241971592E1,1.873477936E0,-1.910969764E-1,-2.213944912E0
7.247170924E1,1.131276608E0,-5.197424889E-1,-1.410657048E0
7.252370257E1,6.456387043E-1,2.865061760E0,9.992063642E-1
7.257569596E1,-3.300550699E0,3.343980312E0,2.824471712E0
7.262768926E1,-4.188137531E0,-3.257640600E0,3.553844690E0
7.267968265E1,-2.835071564E0,-1.674888730E0,4.913020134E0
7.273167598E1,-2.669939399E-1,-8.661031127E-1,-3.257603645E-1
7.278366960E1,1.211299896E0,-5.887702703E-1,-1.921951294E0
7.283566362E1,1.691440105E0,2.823235691E-1,-2.185844898E0
7.288765694E1,2.139815092E0,-4.696515203E-1,-3.161396980E0
7.293965037E1,1.834382534E0,8.522608876E-1,-3.309226274E0
7.299164419E1,1.610194921E0,1.278644800E0,-2.735013008E0
7.304364045E1,9.797820449E-1,1.002533674E0,-1.685546398E0
7.309563424E1,1.703855842E-1,2.924926758E0,1.501036435E-1
7.314762760E1,-2.194884539E0,1.981139898E0,1.875797987E0
7.319962096E1,-4.395832062E0,-1.916180372E0,3.879436016E0
7.325161432E1,-3.394623995E0,-1.762853265E0,4.480527401E0
7.330360764E1,-9.395565987E-1,-4.739275873E-1,7.499733567E-1
7.335560090E1,4.196186364E-1,-3.242655993E-1,-1.225564957E0
7.340759476E1,9.565691352E-1,1.705352515E-1,-1.433869958E0
7.345958858E1,1.390283465E0,-9.840000868E-1,-1.777176142E0
7.351158197E1,1.764133096E0,1.241094917E-1,-2.584129095E0
7.356357537E1,2.246105671E0,3.275276124E-1,-2.830918789E0
7.361556866E1,2.481899738E0,3.501296341E-1,-2.344058990E0
7.366756198E1,1.168539405E0,1.552312374E0,-5.004678369E-1
7.371955548E1,-8.967960477E-1,8.650890589E-1,1.935662746E0
7.377154864E1,-2.244975567E0,-8.053036779E-2,2.811643600E0
7.382354242E1,-3.649354696E0,-8.612161279E-1,3.903259754E0
7.387553635E1,-2.681744099E0,-1.122055650E0,4.577044010E0
7.392752974E1,-6.597802639E-1,-6.150375009E-1,1.750570536E0
7.397952293E1,8.282874823E-1,-2.288808107E0,-1.810773849E0
7.403151709E1,1.588814735E0,8.867930621E-2,-2.294579029E0
7.408351514E1,2.236942530E0,-8.935920000E-1,-3.458888292E0
7.413551240E1,2.689593792E0,-2.753964067E-1,-3.397190809E0
7.418750643E1,2.357283115E0,1.222768947E-1,-2.816868782E0
7.423949982E1,1.484967709E0,2.743823528E-1,-2.586572647E0
7.429149298E1,-8.259356022E-1,4.576418996E-1,-1.712424397E0
7.434348647E1,-2.737333059E0,1.186404228E0,1.110994577E0
7.439547973E1,-2.864392996E0,-1.227124333E0,3.451219559E0
7.444747309E1,-5.796545982E0,-5.820507407E-1,4.982658863E0
7.449946641E1,-2.314614296E0,-7.049281120E0,5.477459431E0
7.455146027E1,7.439880371E-1,-7.030020952E-1,-1.345905423E0
7.460345429E1,1.843545556E0,1.081335306E0,-3.640926123E0
7.465544742E1,1.993207574E0,1.004977226E0,-2.702026129E0
7.470744064E1,2.205788612E0,-1.246061325E0,-2.640328884E0
7.475943430E1,1.991374850E0,-1.171822846E-1,-2.527929783E0
7.481142746E1,2.201512337E0,3.831163645E-1,-2.856575251E0
7.486342075E1,1.549108386E0,2.142408133E0,-3.384973526E0
7.491541424E1,1.360961914E0,1.756341457E0,-2.199284077E0
7.496740863E1,-1.368796229E-1,-9.827783108E-1,-6.492093205E-2
7.501940186E1,-1.559584856E0,1.866297126E0,2.363268375E0
7.507139501E1,-5.145363808E0,1.055678964E0,5.139039993E0
7.512338864E1,-5.799600601E0,-4.676069736E0,5.550152302E0
7.517538486E1,-1.692142606E0,-9.864435196E-1,4.600256920E0
7.522737912E1,7.195534706E-1,-2.834310770E0,-2.023354769E0
7.527937271E1,8.160701394E-1,2.362930775E0,-1.785117388E0
7.533136574E1,1.135552764E0,-3.471547365E-2,-2.345281124E0
7.538335900E1,1.370735884E0,-1.654406339E-1,-2.454625845E0
7.543535242E1,1.776961207E0,-4.998710379E-2,-2.455236673E0
7.548734588E1,1.672503233E0,2.988169491E-1,-2.203560114E0
7.553933908E1,1.954310536E-1,1.537040830E0,-2.260981560E0
7.559133333E1,6.505256891E-1,-1.312321723E-1,-1.647672772E0
7.564332672E1,-1.381822944E0,2.095982313E0,1.944825649E0
7.569532008E1,-3.209531784E0,-1.099453568E0,3.439002275E0
7.574731341E1,-3.392791510E0,-2.237495661E0,4.190366268E0
7.579930683E1,-9.548282027E-1,-2.528267384E0,2.120754957E0
7.585130016E1,3.469256461E-1,1.333622694E0,-6.873926520E-1
7.590329342E1,6.786254644E-1,7.429159880E-1,-1.378281236E0
7.595528727E1,1.294988513E0,-1.245126650E-1,-1.837041020E0
7.600728119E1,1.568045259E0,2.652193606E-1,-2.408810854E0
7.605927452E1,1.476415515E0,5.193393230E-1,-2.503494978E0
7.611126788E1,9.693973660E-1,1.265816689E0,-2.196840525E0
7.616326157E1,7.146664858E-1,1.592629552E0,-1.457082748E0
7.621525882E1,7.201642990E-1,-3.181569576E-1,-1.137901470E-1
7.626725682E1,-2.114052027E-1,-1.746359825E0,1.798828959E0
7.631925214E1,-2.329274893E0,2.342772007E0,2.906327724E0
7.637124553E1,-3.255346775E0,3.385231793E-1,2.304014444E0
7.642323889E1,-4.058023453E0,-2.793993950E0,4.840327263E0
7.647523215E1,-9.481087327E-1,-1.260722041E0,2.701687813E0
7.652722538E1,5.595067739E-1,-7.256040573E-1,-1.224343181E0
7.657921881E1,1.305984139E0,5.675976276E-1,-2.307407141E0
7.663121249E1,1.935786128E0,-2.027034163E-1,-2.892005444E0
7.668320652E1,1.629742622E0,6.586166024E-1,-3.709342957E0
7.673519981E1,9.828363657E-1,6.934359074E-1,-2.747230291E0
7.678719317E1,6.468604803E-1,7.502463460E-1,-1.253053784E0
7.683918653E1,-3.329673707E-1,-2.320249528E-1,-1.834287941E-1
7.689117985E1,-1.412366152E0,1.459460974E0,1.797607183E0
7.694317318E1,-2.126467705E0,1.418245882E-1,1.999803543E0
7.699516647E1,-3.458764791E0,3.104234040E-1,3.448775768E0
7.704716049E1,-3.461819172E0,-2.593019009E0,3.881879330E0
7.709915418E1,-9.847606421E-1,-1.688938618E0,2.461006880E0
7.715114771E1,6.077650785E-1,-2.735637724E-1,-1.836430192E0
7.720314080E1,1.547886729E0,4.222117364E-1,-2.692252398E0
7.725513436E1,2.105606794E0,-6.235895157E-1,-3.624432564E0
7.730713181E1,2.070787430E0,1.018416166E0,-2.837027311E0
7.735912976E1,1.584538579E0,1.308290064E-1,-2.270755291E0
7.741112416E1,9.748951197E-1,6.812185645E-1,-7.967374921E-1
7.746311765E1,-1.092883825E0,1.617675066E0,1.189796209E0
7.751511085E1,-2.087372303E0,1.741069794E0,3.464658499E0
7.756710414E1,-3.144779921E0,1.424030781E0,3.545903683E0
7.761899898E1,-3.262066126E0,-3.138808906E-1,2.926486015E0
7.767099238E1,-1.446574688E0,-9.956064820E-1,2.986961842E0
7.772298574E1,8.364272118E-2,-9.015332460E-1,-1.555432081E0
7.777498002E1,1.103176713E0,-9.213680029E-2,-2.234103441E0
7.782697335E1,1.602253675E0,-7.402648330E-1,-3.267076731E0
7.787896671E1,1.718318105E0,5.437739491E-1,-3.257302761E0
7.793096000E1,1.992596507E0,2.737714946E-1,-3.045332432E0
7.798295333E1,2.231444836E0,2.597215772E-1,-1.761293650E0
7.803494675E1,2.073230743E0,1.900829375E-1,-2.390175164E-1
7.808694008E1,2.070375085E-1,2.560563982E-1,1.548985124E0
7.813893337E1,-2.412963629E0,7.545223832E-1,2.317453623E0
7.819092759E1,-3.075141430E0,4.765787423E-1,3.805521250E0
7.824292095E1,-3.522294998E0,-1.883804560E0,3.521468878E0
7.829491447E1,-5.571548939E-1,-1.416492701E0,2.466504574E0
7.834690780E1,3.860210180E-1,1.898062110E0,-3.752404749E-1
7.839890352E1,1.514289141E0,-1.273550153E0,-1.300090432E0
7.845089841E1,2.070176601E0,-1.145268440E0,-2.615894318E0
7.850289170E1,2.223503590E0,-2.564595640E-1,-3.273796082E0
7.855488503E1,2.137982368E0,-1.184040084E-1,-3.123523235E0
7.860687842E1,2.454410553E0,-2.753964067E-1,-2.136364937E0
7.865887171E1,2.451967239E0,-8.172338009E-1,-1.064597592E-1
7.871086504E1,3.805232346E-1,-2.170300245E0,2.534310818E0
7.876285863E1,-2.945637941E0,-6.987259984E-1,3.189158201E0
7.881485272E1,-3.101408720E0,2.088652134E0,3.900816202E0
7.886684604E1,-3.934628963E0,-1.415881872E0,3.651583195E0
7.891883937E1,-9.120676517E-1,1.790873557E-1,2.521482468E0
7.897083279E1,3.420387208E-1,-3.419806957E-1,-1.639120579E0
7.902282609E1,1.200304389E0,-8.114122599E-2,-2.201727629E0
7.907481938E1,1.563769221E0,1.936442801E-3,-2.915829182E0
7.912681280E1,1.638905644E0,1.351948619E0,-3.277461290E0
7.917880623E1,1.739087582E0,1.410591722E0,-2.949426413E0
7.923080041E1,1.334083915E0,1.522379994E0,-2.277474880E0
7.928279394E1,5.705023408E-1,2.176616669E0,-6.220300198E-1
7.933478710E1,-2.023842335E0,-1.259500265E0,1.533102512E0
7.938678036E1,-3.175323248E0,-1.032869220E0,2.189171791E0
7.943877701E1,-3.908972502E0,1.452741504E0,3.231918812E0
7.949077534E1,-3.706776142E0,-1.683440804E0,4.358965397E0
7.954277150E1,-8.705288172E-1,-4.409408569E-1,1.062125444E0
7.959476516E1,4.269489944E-1,-4.604885578E-1,-1.186469436E0
7.964675805E1,1.206413031E0,4.967373013E-1,-1.631179452E0
7.969875144E1,1.547275901E0,-2.582921386E-1,-2.152858496E0
7.975074477E1,1.553995371E0,1.114932895E0,-2.410032749E0
7.980273810E1,9.981079698E-1,1.042850852E0,-2.421639204E0
7.985473188E1,-1.979661584E-1,2.133245468E0,-2.135143280E0
7.990672584E1,-1.634110332E0,2.181503773E0,-8.657652736E-1
7.995871930E1,-1.100214124E0,2.343993902E0,2.539507151E-1
8.001071239E1,-5.797157288E0,-6.883413196E-1,5.255104542E0
8.006270581E1,-3.232133865E0,-4.559394360E0,3.400517464E0
8.011469921E1,-1.383044720E0,-7.304909825E-1,2.607614517E0
8.016669243E1,4.831486046E-1,-1.379840732E0,-2.741121531E0
8.021868583E1,1.310871005E0,9.866512418E-1,-2.579853058E0
8.027067981E1,1.351188064E0,-5.539509058E-1,-2.662930965E0
8.032267340E1,1.424492002E0,6.421232224E-1,-1.813828111E0
8.037466683E1,2.357893944E0,-3.120482862E-1,-1.138211131E0
8.042666009E1,2.298029184E0,2.499477416E-1,-6.678448915E-1
8.047865345E1,6.511365175E-1,7.771244645E-1,1.754588261E-2
8.053064980E1,-7.575187087E-1,-3.914607763E-1,7.924327254E-2
8.058264835E1,-2.204658508E0,2.426173538E-1,2.814697742E0
8.063464348E1,-3.343922138E0,-1.432375073E0,3.646696329E0
8.068663687E1,-2.842401743E0,-2.387768269E0,3.463436842E0
8.073863016E1,2.290286571E-1,-1.824550629E0,1.258213162E0
8.079062342E1,1.441596150E0,4.026640356E-1,-3.133908033E0
8.084261692E1,1.942505598E0,1.681815863E0,-3.419792891E0
8.089461018E1,1.988931417E0,-4.754364118E-2,-3.507146597E0
8.094660360E1,1.609584093E0,5.205610394E-1,-2.547477245E0
8.099859759E1,1.218630314E0,8.638672829E-1,-1.644007564E0
8.105059121E1,1.332862139E0,3.880032599E-1,6.442936659E-1
8.110258447E1,1.709155202E0,1.110656857E0,2.814697742E0
8.115457793E1,-1.983525276E0,-7.060564160E-1,1.349843025E0
8.120657122E1,-3.828949213E0,-1.022484541E0,3.925251007E0
8.125856445E1,-2.841790915E0,-3.642485619E0,5.267321587E0
8.131055791E1,5.008636713E-1,1.056289792E0,2.539507151E-1
8.136255133E1,1.393337727E0,1.099661231E0,-2.210890532E0
8.141454545E1,1.978546739E0,-4.763710201E-1,-2.502273083E0
8.146653891E1,1.678611994E0,1.449687123E0,-2.300687790E0
8.151853220E1,1.698159575E0,6.665577888E-1,-1.946385860E0
8.157052553E1,2.263820887E0,-1.286378384E0,-1.383168101E0
8.162252068E1,1.209055036E-1,-7.842471600E-1,-2.463479042E-1
8.167451617E1,-1.223608851E0,2.240757465E0,1.483622432E0
8.172650950E1,-4.621851921E0,2.914865613E-1,3.862942696E0
8.177850293E1,-2.921203375E0,-2.341953516E0,3.647917986E0
8.183049618E1,-5.950285792E-1,7.142053246E-1,1.771950841E0
8.188248961E1,8.753240705E-1,-1.874030709E0,-2.951870203E0
8.193448290E1,1.098289967E0,1.132037163E0,-2.296411514E0
8.198647656E1,1.148380876E0,-1.322419405E0,-2.330009222E0
8.203847054E1,1.195417523E0,2.762149274E-1,-2.087495804E0
8.209046414E1,5.451972596E-3,1.644266099E-1,-1.621405482E0
8.214245723E1,-6.738302112E-1,2.755717039E0,-6.256951690E-1
8.219445102E1,-6.164088845E-1,-7.659211159E-1,5.752658844E-1
8.224644388E1,-4.375062466E0,3.006495237E-1,4.096292973E0
8.229843731E1,-3.008557081E0,-3.940587997E0,2.811032772E0
8.235043053E1,-4.862945676E-1,1.965153590E-2,1.789055109E0
8.240242412E1,2.029859304E0,3.977771401E-1,-3.204768419E0
8.245441834E1,2.205177784E0,-6.596305966E-1,-3.554794073E0
8.250641163E1,1.566212654E0,1.325681448E0,-2.692252398E0
8.255840489E1,1.312092781E0,3.140885830E-1,-2.231659889E0
8.261039829E1,1.424492002E0,-7.503257692E-2,-2.029463530E0
8.266239371E1,1.098900795E0,8.418761492E-1,-1.877969027E0
8.271439256E1,1.557248235E-1,2.737714946E-1,-1.042305350E0
8.276638825E1,-3.242167458E-2,-5.643356442E-1,7.163757086E-1
8.281838165E1,-1.359831929E0,1.705639601E0,3.149451971E0
8.287037491E1,-3.510077477E0,4.167139530E-1,3.104248047E0
8.292236826E1,-3.581548929E0,-3.445787191E0,4.059030056E0
8.297436159E1,-2.138684988E0,-1.461696625E0,5.475626945E0
8.302635485E1,4.550487995E-1,-1.319365144E0,3.284762800E-1
8.307834828E1,1.691440105E0,6.830512285E-1,-3.891991615E0
8.313034203E1,2.043909311E0,1.400817871E0,-4.229189396E0
8.318233592E1,2.447691202E0,4.564201832E-1,-4.271949768E0
8.323432931E1,2.370111227E0,9.295536578E-2,-4.205365658E0
8.328632257E1,2.218005896E0,2.475042790E-1,-3.936584949E0
8.333831586E1,1.616914392E0,6.402906775E-1,-2.972639322E0
8.339030936E1,7.470423579E-1,1.252377510E0,-1.328801155E0
8.344230262E1,-9.432217479E-1,-7.133867741E-1,-1.907591671E-1
8.349429601E1,-2.336605549E0,2.345826387E0,3.716945887E0
8.354628990E1,-3.931574345E0,7.484137416E-1,3.649750710E0
8.359828365E1,-6.212545395E0,-5.716660023E-1,5.898345470E0
8.365027698E1,-4.197300911E0,-6.584088802E-1,6.138415337E0
8.370227064E1,-8.008901477E-1,1.862021089E0,8.104490042E-1
8.375426482E1,1.180145860E0,-1.939393282E0,-3.282348156E0
8.380626082E1,1.695716023E0,4.655831456E-1,-2.983634949E0
8.385825438E1,2.109272003E0,-7.927992344E-1,-2.780827999E0
8.391024767E1,2.429975986E0,-1.168481350E0,-2.798542976E0
8.396224099E1,2.404930592E0,-1.883297600E-2,-2.593292236E0
8.401423432E1,1.372568369E0,7.410833836E-1,-2.921326876E0
8.406622768E1,-9.316152930E-1,1.430750251E0,-1.906068683E0
8.411822097E1,-1.085553288E0,2.444175720E0,2.426539920E-2
8.417021489E1,-1.209971309E-1,1.323848844E0,1.219728589E0
8.422220885E1,-2.475882530E0,-2.772289813E-1,3.142121553E0
8.427420197E1,-4.280989170E0,-9.278004766E-1,3.891042471E0
8.432619540E1,-3.238853216E0,-2.597906113E0,4.792068958E0
8.437818889E1,-1.229106665E0,-2.563086748E0,3.606990099E0
8.443018195E1,5.191896558E-1,-9.522350430E-1,-7.490900159E-1
8.448217538E1,1.517954350E0,3.311928213E-1,-2.821755886E0
8.453416867E1,2.184408188E0,-1.296152234E0,-3.325719595E0
8.458616279E1,2.480067253E0,-3.899152577E-2,-3.687962532E0
8.463815638E1,2.530158043E0,5.388869643E-1,-3.461942673E0
8.469014981E1,1.651733756E0,-7.258912176E-2,-3.609771967E0
8.474214300E1,5.949369669E-1,1.800323725E0,-3.089925528E0
8.479413756E1,9.524916112E-2,7.044314742E-1,-2.570079327E0
8.484613641E1,-9.242849350E-1,-3.853521049E-1,-2.039237499E0
8.489813334E1,-2.294455528E0,1.577357888E0,5.172336698E-1
8.495012736E1,-3.975556850E0,8.095290184E0,4.409056187E0
8.500013785E1,-4.986538410E0,-2.155639648E0,2.540419340E0
8.505213108E1,-4.694545269E0,-8.373923898E-1,4.249009132E0
8.510412437E1,-2.430678606E0,-3.857510328E0,4.208692551E0
8.515611776E1,1.319010705E-1,-6.290873289E-1,-4.827527404E-1
8.520811139E1,1.195417523E0,-2.258264780E0,-1.458304524E0
8.526010537E1,2.051239729E0,-2.004755974E0,-1.904236197E0
8.531209880E1,2.721358776E0,-1.417714357E0,-2.477227688E0
8.536409212E1,2.996859074E0,-1.256445885E0,-2.597568035E0
8.541608541E1,2.191128016E0,-6.901738644E-1,-2.707523823E0
8.546807887E1,1.880808234E0,6.683904529E-1,-2.482725620E0
8.552007210E1,2.126986980E0,1.307355523E0,-1.612242579E0
8.557206546E1,1.709155202E0,-7.750841379E-1,-1.166310906E0
8.562405912E1,6.462496519E-1,-1.801337719E0,5.114347115E-2
8.567605307E1,-1.271256328E0,-2.487950087E0,1.975368977E0
8.572804646E1,-2.414796114E0,4.695214272E0,5.467074871E0
8.578003982E1,-5.316406250E0,2.937144041E0,4.054143429E0
8.583203324E1,-3.546118736E0,-2.440302849E0,3.506808043E0
8.588402740E1,-1.806985259E0,4.103285789E0,3.417011023E0
8.593602616E1,-4.032168984E-1,-2.918610334E0,-9.396799207E-1
8.598802291E1,6.871775985E-1,-9.033658504E-1,-1.530997515E0
8.604001661E1,1.327975273E0,3.919922188E-2,-2.611007214E0
8.609200983E1,1.627299190E0,4.808548093E-1,-3.359927893E0
8.614400312E1,1.872867107E0,1.042850852E0,-3.388638735E0
8.619599638E1,1.307816625E0,4.002205729E-1,-2.940874577E0
8.624798981E1,1.101955056E0,9.426689744E-1,-1.948218465E0
8.629998317E1,5.595067739E-1,7.838439345E-1,-6.489080787E-1
8.635197686E1,-4.875162542E-1,-4.556016326E-1,9.863781929E-1
8.640397088E1,-2.064770222E0,8.162198067E-1,2.561188698E0
8.645596420E1,-4.715925217E0,-4.281127155E-1,4.932568073E0
8.650795750E1,-3.441660643E0,1.029411793E0,4.957613468E0
8.655995086E1,-3.013444185E0,-3.897827387E0,3.410291433E0
8.661194411E1,-1.607033759E-1,7.404725552E-1,1.071899295E0
8.666393751E1,4.092338979E-1,-5.918245912E-1,-1.076513767E0
8.671593083E1,9.577909112E-1,-5.548489094E-2,-1.882244945E0
8.676792479E1,1.541778088E0,-9.540677071E-1,-3.089925528E0
8.681991854E1,1.906464577E0,8.278262615E-1,-3.474159956E0
8.687191180E1,2.352396250E0,9.243429303E-1,-3.597554684E0
8.692390520E1,2.203345299E0,1.232115179E-2,-3.508368492E0
8.697589912E1,1.659675002E0,8.684670925E-2,-2.167519093E0
8.702789531E1,-4.563621581E-1,9.561079741E-1,3.034308255E-1
8.707988917E1,-2.537580013E0,-6.571871042E-1,1.509889603E0
8.713188253E1,-4.674386501E0,3.538235426E0,4.544668674E0
8.718387582E1,-4.200355530E0,-6.828435063E-1,3.928305149E0
8.723586921E1,-2.086150646E0,6.256299019E-1,3.172664881E0
8.728786247E1,4.027128965E-2,-2.013918877E0,-1.389887691E0
8.733985596E1,8.771566749E-1,-6.138157248E-1,-2.216388464E0
8.739185032E1,1.749472260E0,-1.237509131E0,-3.126577616E0
8.744384361E1,1.786124110E0,-3.884064555E-1,-3.235311508E0
8.749583687E1,1.918681860E0,5.523260236E-1,-2.812592745E0
8.754783023E1,2.313300848E0,-5.533400774E-1,-2.276864052E0
8.759982359E1,2.010311842E0,-7.930862904E-2,-1.004431725E0
8.765181691E1,3.340974748E-1,-6.437481046E-1,1.403298080E-1
8.770381027E1,-6.719975471E-1,2.504040480E0,1.569143534E0
8.775580366E1,-4.233341694E0,8.388218284E-1,4.137221336E0
8.780779788E1,-5.767224789E0,-3.561851263E0,7.088922024E0
8.785979124E1,-5.479919314E-1,-1.326695442E0,2.303403616E0
8.791178460E1,1.496573925E0,1.216336489E0,-2.426525831E0
8.796377782E1,1.787346005E0,-1.597308755E0,-2.799153805E0
8.801577168E1,1.543610692E0,-3.960239515E-2,-1.637288094E0
8.806777003E1,1.475804567E0,-4.696515203E-1,-1.882855892E0
8.811976742E1,7.543727160E-1,6.546643376E-2,-1.867584229E0
8.817176125E1,3.505908549E-1,2.267348468E-1,-1.464413166E0
8.822375461E1,4.898681045E-1,-3.303742409E-1,-9.525080919E-1
8.827574783E1,-2.529440224E-1,2.670519650E-1,3.547435105E-1
8.832774129E1,-1.558363080E0,3.044656277E0,2.496437073E0
8.837973455E1,-3.146001816E0,-4.568233788E-1,2.820195675E0
8.843172791E1,-3.075141430E0,-2.066453457E0,3.940522432E0
8.848372134E1,-2.462245077E-1,-3.195943117E0,3.092641592E0
8.853571546E1,2.339155674E-1,7.386399508E-1,-9.677797556E-1
8.858770891E1,1.150213480E0,-4.326758534E-2,-1.830321550E0
8.863970234E1,1.616303563E0,-1.227735400E0,-2.741121531E0
8.869169557E1,1.867369294E0,4.154922068E-1,-2.757615089E0
8.874368903E1,1.562547445E0,-2.191967815E-1,-2.901778936E0
8.879568232E1,9.474061728E-1,2.963735163E-1,-2.587794542E0
8.884767571E1,3.829666972E-1,1.227332115E0,-1.458304524E0
8.889966947E1,-9.841496944E-1,8.052242398E-1,9.350655079E-1
8.895166332E1,-2.850342989E0,4.344577789E0,3.858055592E0
8.900365668E1,-3.329261541E0,7.893417478E-1,2.079216003E0
8.905564991E1,-2.517421484E0,-2.592408180E0,2.542862892E0
8.910764356E1,-1.556530476E0,-1.469027042E0,4.263059616E0
8.915963969E1,1.086882055E-1,8.828041553E-1,3.761237860E-1
8.921163388E1,1.095846415E0,-2.571638823E0,-1.941498876E0
8.926362734E1,1.968772769E0,-3.981803060E-1,-2.808927536E0
8.931562067E1,2.398211241E0,4.203791618E-1,-3.075264931E0
8.936761396E1,2.177077770E0,5.663759112E-1,-3.218818188E0
8.941960732E1,1.801395774E0,4.362616241E-1,-3.096034288E0
8.947160071E1,5.796653032E-1,3.941119313E-1,-3.047165155E0
8.952359424E1,-2.676047981E-1,7.936177850E-1,-2.702636957E0
8.957558849E1,-5.685628206E-2,9.234450012E-2,-1.409435272E0
8.962758158E1,-8.460941911E-1,-1.424433947E0,7.432537675E-1
8.967957501E1,-2.965185881E0,3.186883777E-2,3.815295219E0
8.973156837E1,-4.291985035E0,3.541289806E0,3.219090462E0
8.978356173E1,-3.701278210E0,-4.867557585E-1,2.989405155E0
8.983555495E1,-1.495443940E0,-2.673653364E0,2.892277718E0
8.988754841E1,-6.017481089E-1,1.840029955E0,-1.815961897E-1
8.993954226E1,4.825377166E-1,-1.802559495E0,-1.611631751E0
8.999153605E1,1.344468594E0,-6.388611794E-1,-3.072821379E0
9.004352928E1,1.731146216E0,8.186632395E-1,-3.152844667E0
9.009552264E1,1.865536571E0,1.672042012E0,-3.262189627E0
9.014751613E1,1.423270226E0,3.629578054E-1,-2.827253580E0
9.019951375E1,4.149302468E-2,7.233682871E-1,-2.190732002E0
9.025151177E1,-1.248043418E0,1.006809711E0,-7.069402933E-1
9.030350630E1,-2.616381645E0,4.416049004E0,2.130528927E0
9.035549926E1,-3.855827093E0,8.562498540E-2,2.959472895E0
9.040749268E1,-3.935850620E0,-2.595462561E0,2.913657904E0
9.045948594E1,-1.767889857E0,-1.128775120E0,3.685791731E0
9.051147933E1,4.238946438E-1,9.603840113E-1,-8.327785730E-1
9.056347276E1,1.313314438E0,-1.281491399E0,-1.824212909E0
9.061546609E1,2.126376152E0,4.319855571E-1,-2.449127913E0
9.066746024E1,2.861857891E0,-7.084997892E-1,-3.334271669E0
9.071945370E1,1.831939101E0,5.834801793E-1,-3.238365889E0
9.077144706E1,3.841884136E-1,1.645163894E0,-3.029449940E0
9.082344038E1,-7.788990140E-1,2.015959024E0,-2.133310556E0
9.087543371E1,-1.614562631E0,7.771244645E-1,-8.333894014E-1
9.092742710E1,-1.166798472E0,7.447485924E-1,9.582783580E-1
9.097942039E1,-2.627377272E0,1.017194510E0,2.751778841E0
9.103141375E1,-3.285889864E0,-1.736586094E0,3.107913017E0
9.108340774E1,-2.989620447E0,-3.126915216E0,3.440834761E0
9.113540139E1,-1.495443940E0,-1.767740130E0,2.937481642E0
9.118739475E1,1.954310536E-1,-6.822326183E-1,-1.034974933E0
9.123938828E1,1.273608327E0,-7.072781324E-1,-1.438145995E0
9.129138397E1,1.850265026E0,-9.522350430E-1,-2.574966192E0
9.134337879E1,2.200901508E0,7.954503894E-1,-3.113749266E0
9.139537215E1,1.711598635E0,1.464347959E0,-3.147957802E0
9.144736544E1,9.467952847E-1,2.204716444E0,-2.252429485E0
9.149935880E1,2.039831728E-1,3.214189708E-1,-1.267103791E0
9.155135220E1,-1.002277136E-1,-1.483364105E-1,3.364175558E-1
9.160334586E1,-1.619251072E-1,4.050751209E0,1.935662746E0
9.165533912E1,-5.382990360E0,1.391654849E0,4.865983486E0
9.170733270E1,-3.722658634E0,-6.390768528E0,3.506197214E0
9.175932662E1,-1.174128771E0,6.555622816E-1,3.501921177E0
9.181131988E1,9.022021294E-1,-2.338288307E0,-2.852909803E0
9.186331308E1,1.429989696E0,1.459460974E0,-1.983648658E0
9.191530647E1,1.566212654E0,-1.740251184E0,-2.313515902E0
9.196729976E1,1.672503233E0,-1.350519180E0,-1.358122706E0
9.201929315E1,1.791621923E0,-8.239533901E-1,-1.176695704E0
9.207128641E1,1.789789319E0,-7.726407051E-1,-1.425317883E0
9.212328053E1,8.930391669E-1,2.963735163E-1,-1.449141622E0
9.217527412E1,-7.823656499E-2,5.535477400E-1,-6.342473030E-1
9.222726738E1,-7.966140509E-1,2.305509329E0,1.707810044E0
9.227926084E1,-4.422099113E0,2.027565479E0,4.195253372E0
9.233125759E1,-3.825284004E0,-1.532557011E0,4.244122505E0
9.238325579E1,-1.806374431E0,-1.489796519E0,3.262462139E0
9.243525181E1,7.036709785E-1,-1.888080597E0,-1.133324265E0
9.248722336E1,1.315147042E0,-3.829086721E-1,-2.628722429E0
9.253921668E1,1.660285830E0,5.767606497E-1,-2.830307961E0
9.259121008E1,1.520397782E0,-5.967115164E-1,-3.090536356E0
9.264320337E1,1.125778794E0,7.050423622E-1,-2.667817593E0
9.269519676E1,1.123533919E-1,1.215114832E0,-2.250596762E0
9.274719058E1,5.613393784E-1,6.543405056E-1,-4.980243742E-1
9.279918437E1,-3.189174831E-1,7.340767980E-2,-8.401089311E-1
9.285117770E1,-2.255971193E0,2.937144041E0,-1.187080264E0
9.290317102E1,-2.216875792E0,7.478029132E-1,8.122815490E-1
9.295516438E1,-3.372021914E0,1.164412975E0,2.769493818E0
9.300715771E1,-4.404384136E0,-9.387960434E-1,3.606379032E0
9.305915103E1,-2.982290030E0,-3.327279091E0,4.258783340E0
9.311114436E1,-2.264782973E-2,-2.604625463E0,4.048344493E-1
9.316313815E1,6.829015613E-1,2.189444780E0,-2.136364937E0
9.321513207E1,1.026207805E0,1.331179142E0,-3.041056395E0
9.326712543E1,1.290101528E0,4.374833703E-1,-3.240198374E0
9.331911869E1,1.127000570E0,1.052013755E0,-2.990354538E0
9.337111204E1,1.327364326E0,-3.468676209E-1,-2.489444971E0
9.342310863E1,1.327975273E0,7.423051000E-1,-2.102767229E0
9.347510722E1,8.136267066E-1,1.989691854E0,-1.262827635E0
9.352710205E1,-7.208667994E-1,9.170125723E-1,6.381850243E-1
9.357909564E1,-2.992674589E0,4.243173599E0,3.731606722E0
9.363108880E1,-5.587019444E0,-2.219780445E0,4.484803200E0
9.368308212E1,-3.114847660E0,-4.181879520E0,4.440210342E0
9.373507542E1,-6.713867188E-1,4.063292146E-1,2.679085732E0
9.378706884E1,1.234512806E0,-1.474524856E0,-2.371548176E0
9.383906210E1,2.015809536E0,-5.264619589E-1,-1.733804822E0
9.389105625E1,2.757399797E0,-9.821674824E-1,-2.606731176E0
9.394304981E1,3.006632805E0,-4.073432684E-1,-2.722184896E0
9.399504310E1,2.838034153E0,-4.782036543E-1,-2.139419079E0
9.404703653E1,2.221060276E0,-1.045086503E0,-2.054508924E0
9.409902982E1,6.309779882E-1,-3.288287669E-2,-1.725863576E0
9.415102325E1,-7.165907621E-1,3.550165296E-1,6.198589802E-1
9.420301647E1,-1.741622686E0,2.200153321E-1,2.230710745E0
9.425500990E1,-4.530833721E0,4.900177717E-1,5.200126648E0
9.430700402E1,-3.360415459E0,-3.616829395E0,4.261837482E0
9.435899751E1,-1.104490280E0,-8.502205610E-1,1.991251469E0
9.441099080E1,3.634189963E-1,-9.980499744E-1,-9.476212263E-1
9.446298413E1,7.830834389E-1,7.765135765E-1,-1.981816053E0
9.451497938E1,1.458089471E0,2.279565930E-1,-2.638496161E0
9.456697478E1,1.489854455E0,-2.918897271E-1,-2.924991846E0
9.461896827E1,1.271164775E0,6.237972379E-1,-2.735623837E0
9.467096156E1,2.151421547E0,5.663759112E-1,-1.884077668E0
9.472295485E1,2.788553953E0,2.881451324E-2,-3.520275950E-1
9.477494818E1,2.246105671E0,-2.641888380E0,1.660162449E0
9.482694157E1,-1.003086567E0,6.158559918E-1,3.040718079E0
9.487893480E1,-2.461832762E0,2.767323494E0,3.104248047E0
9.493092888E1,-3.937683105E0,4.216008484E-1,4.522066593E0
9.498292248E1,-2.366537809E0,-1.917402148E0,4.486025333E0
9.503491607E1,-4.752989709E-1,-9.980499744E-1,1.233167768E0
9.508690916E1,8.453916907E-1,-7.457626462E-1,-1.620794654E0
9.513890259E1,1.433044076E0,-2.112555206E-1,-2.543812037E0
9.519089585E1,1.877143025E0,-4.006237388E-1,-3.323886871E0
9.524288914E1,1.332862139E0,1.069728851E0,-2.938431263E0
9.529488290E1,1.050642490E0,1.162580490E0,-3.477214098E0
9.534687691E1,3.530342877E-1,1.669598460E0,-2.726460695E0
9.539887011E1,-7.025408149E-1,1.506497502E0,-1.557875633E0
9.545086356E1,-2.135630608E0,4.661940336E-1,2.107926846E0
9.550285692E1,-3.197314501E0,-2.002599537E-1,2.919155836E0
9.555485258E1,-3.687228441E0,-9.885632247E-2,3.870883703E0
9.560685117E1,-2.702513695E0,-2.985194683E0,3.487260580E0
9.565884759E1,-3.635106385E-1,2.340652347E-1,5.178445578E-1
9.571084122E1,1.009714365E0,-1.809279084E0,-1.118052602E0
9.576283455E1,1.908908129E0,-1.672732234E-1,-1.978761673E0
9.581482787E1,2.370722055E0,-6.144265532E-1,-3.070988655E0
9.586682120E1,2.096443653E0,8.192741871E-1,-3.133908033E0
9.591881456E1,2.871020794E0,-5.792835355E-2,-2.091771841E0
9.597080848E1,2.034135580E0,-1.071353793E0,-1.437535167E0
9.602280227E1,9.174737334E-1,-1.054249525E0,-9.851851314E-2
9.607479549E1,-7.874510884E-1,5.077328682E-1,2.062722683E0
9.612678895E1,-2.755658865E0,-5.484531522E-1,2.776213408E0
9.617878225E1,-3.601096392E0,-3.309850991E-1,3.673574448E0
9.623077577E1,-2.266355991E0,-2.803156853E0,3.240470886E0
9.628276896E1,-4.337601364E-1,-3.729228497E0,3.237416506E0
9.633476222E1,1.190729067E-1,1.039796472E0,-7.887962461E-1
9.638675601E1,7.946898937E-1,-6.663501859E-1,-1.562151670E0
9.643874997E1,1.276662588E0,-4.464386702E-1,-2.636052847E0
9.649074322E1,1.537501931E0,1.137534857E0,-3.405132055E0
9.654273655E1,1.758635283E0,3.751751184E-1,-3.214542150E0
9.659472998E1,2.398211241E0,2.878213823E-1,-2.025187492E0
9.664672537E1,2.150199890E0,-9.180266261E-1,-3.911229670E-1
9.669872419E1,2.888934314E-1,-2.022470951E0,1.335182309E0
9.675071994E1,-1.709246874E0,4.832658768E0,4.363241196E0
9.680271330E1,-3.581548929E0,9.499993324E-1,3.206873178E0
9.685470663E1,-2.742830753E0,-1.861813426E0,3.357757092E0
9.690670006E1,-1.128924847E0,-4.598776996E-1,3.526966810E0
9.695869328E1,2.919477820E-1,1.044072509E0,-3.789056838E-1
9.701068661E1,1.024375200E0,-2.387768269E0,-1.347127080E0
9.706267997E1,1.808726192E0,-1.980321288E0,-2.403312922E0
9.711467415E1,2.175856113E0,-1.471146643E-1,-3.366036654E0
9.716666758E1,2.478234291E0,2.071871608E-1,-3.102142811E0
9.721866100E1,1.734200597E0,1.168689132E0,-2.833973169E0
9.727065440E1,1.215576053E0,8.174415231E-1,-2.132699728E0
9.732264755E1,7.830834389E-1,1.308290064E-1,-6.318038702E-1
9.737464101E1,1.278235577E-2,-4.824796915E-1,1.916115165E0
9.742663427E1,-2.124024153E0,-5.680008531E-1,4.988767147E0
9.747862780E1,-3.560168505E0,1.816206217E0,4.694330215E0
9.753062205E1,-1.932212472E0,-2.435415745E0,3.527577639E0
9.758261524E1,-7.898945808E-1,-3.588729382E0,4.575211525E0
9.763460884E1,7.293272614E-1,-2.723420262E-1,-1.638509750E0
9.768660203E1,9.474061728E-1,8.003373146E-1,-1.998920321E0
9.773859648E1,1.940062284E0,-5.386793017E-1,-2.699582815E0
9.779059267E1,1.812391400E0,8.327131867E-1,-2.775940895E0
9.784258607E1,2.499003887E0,8.602020741E-1,-2.140030384E0
9.789457969E1,2.563144684E0,1.589288116E-1,-1.270768881E0
9.794657265E1,1.282160282E0,2.102414817E-1,-8.908107281E-1
9.799856604E1,3.066085577E-1,1.679372430E0,-2.293357372E0
9.805055957E1,-7.679034472E-1,8.192741871E-1,-2.921628058E-1
9.810255266E1,-2.243753910E0,-4.206314564E0,9.430066943E-1
9.815454681E1,-1.957868934E0,1.972587824E0,4.166542530E0
9.820654041E1,-3.423334599E0,1.320507377E-1,4.181203842E0
9.825853360E1,-4.930140674E-1,-6.479343891E0,3.142121553E0
9.831052709E1,1.573543072E0,-3.388365746E0,-1.430204749E0
9.836252052E1,2.149588823E0,-1.228957057E0,-1.942109823E0
9.841451364E1,2.131263018E0,-1.528891802E0,-2.195618868E0
9.846650713E1,1.889360309E0,-1.161761880E0,-1.998309493E0
9.851850072E1,1.569266915E0,-7.665320635E-1,-1.866973400E0
9.857049465E1,1.675557494E0,2.481151372E-1,-1.628125072E0
9.862248807E1,1.467863441E0,-4.739275873E-1,-1.554210424E0
9.867448133E1,5.894391537E-1,-4.220040143E-1,-7.906288505E-1
9.872647472E1,-5.724265575E-1,2.110643387E0,1.241109014E0
9.877846924E1,-2.746495962E0,-1.718870997E0,2.209330320E0
9.883046817E1,-4.474022865E0,1.283531785E0,5.486622334E0
9.888246462E1,-3.188762426E0,2.179671049E0,5.117048740E0
9.893445805E1,-1.486281037E0,-8.074600101E-1,3.214814663E0
9.898645134E1,-2.633287311E-1,9.051190317E-2,-2.541368723E0
9.903844477E1,2.394133657E-1,1.766115189E0,-1.950051069E0
9.909043796E1,5.741675496E-1,3.287493587E-1,-2.909720421E0
9.914243152E1,8.429482579E-1,1.645774722E0,-3.368480206E0
9.919442478E1,1.218019485E0,-9.519112855E-2,-3.655586958E0
9.924641857E1,1.263834357E0,1.124706745E0,-2.577409744E0
9.929841259E1,1.275440812E0,7.197031379E-1,-2.045956850E0
9.935040578E1,4.086230397E-1,-4.036780596E-1,-8.309459090E-1
9.940239901E1,-1.284084558E0,1.362944245E0,1.834259152E0
9.945439244E1,-3.202201366E0,3.201648712E0,1.925888896E0
9.950638586E1,-4.979208469E0,7.270334959E-1,3.256353617E0
9.955837919E1,-2.941972971E0,1.047126889E0,3.954572201E0
9.961037251E1,-1.961534023E0,-1.809279084E0,2.501934767E0
9.966236614E1,-2.010204792E-1,-6.315308213E-1,-7.002207637E-1
9.971436006E1,2.186439335E-1,1.275590420E0,-1.799778223E0
9.976635348E1,4.293924570E-1,1.588353515E0,-2.934154987E0
9.981834678E1,8.973152637E-1,1.728852510E0,-3.179111958E0
9.987025826E1,1.034149051E0,1.474732518E0,-2.913385391E0
9.992225448E1,1.718928933E0,-1.661449552E0,-3.539522409E0
9.997424821E1,2.767784595E0,2.401738912E-1,-2.199894905E0
1.000262415E2,2.265042543E0,-9.998825788E-1,-1.606133938E0
1.000782349E2,5.179678798E-1,-6.211461425E-1,-7.591649890E-2
1.001302283E2,-1.486281037E0,1.577968717E0,1.511722326E0
1.001822215E2,-3.940126657E0,2.488768816E0,4.372404099E0
1.002342149E2,-5.872904301E0,-8.037948012E-1,5.250217915E0
1.002862086E2,-1.649381995E0,2.524199009E0,4.583763599E0
1.003382025E2,-6.671106815E-1,-1.106783986E0,1.843120903E-1
1.003901959E2,4.306142032E-1,-2.534986734E0,-1.931114316E0
1.004421892E2,1.202136993E0,-2.038964272E0,-2.871235847E0
1.004941825E2,1.468474269E0,-3.126591444E-1,-2.785714865E0
1.005461760E2,1.707322478E0,1.059955120E0,-3.211487770E0
1.005981692E2,2.034746408E0,5.059002638E-1,-2.586572647E0
1.006501626E2,1.804450035E0,9.356623143E-2,-1.719754934E0
1.007021565E2,8.032420278E-1,-8.435010314E-1,-7.637507915E-1
1.007541503E2,-6.561151147E-1,2.286572456E0,-1.141265512E0
1.008061436E2,-1.210780740E0,1.094774365E0,-4.418247640E-1
1.008581370E2,-4.929117680E0,1.925551176E0,5.614293575E0
1.009101309E2,-5.632223129E0,-1.979099512E0,3.599659681E0
1.009621294E2,-1.962755919E0,-1.652897477E0,3.121963024E0
1.010141268E2,-4.341724887E-2,1.661657333E0,7.096561790E-1
1.010661213E2,1.210689068E0,-2.941212416E0,-1.995255113E0
1.011181146E2,1.570488811E0,-7.442171127E-2,-2.359330893E0
1.011701080E2,1.973048925E0,-2.973875105E-1,-2.951259375E0
1.012221013E2,2.031692028E0,2.759278379E-2,-3.210266113E0
1.012740945E2,2.133095741E0,1.754221618E-1,-2.581074953E0
1.013260883E2,1.442206979E0,-7.274366617E-1,-1.498621702E0
1.013780823E2,1.441183835E-1,-3.768000305E-1,-2.338209003E-2
1.014300756E2,-2.363483429E0,3.321989059E0,3.192823410E0
1.014820690E2,-2.560792923E0,-1.581426263E0,3.097528458E0
1.015340623E2,-3.623087645E0,-1.287887245E-1,4.187922955E0
1.015860556E2,-2.711065769E0,-3.340394199E-1,4.925848007E0
1.016380490E2,-8.546463251E-1,1.724576473E0,1.938717008E0
1.016900423E2,7.177208066E-1,-3.222210169E0,-1.515725851E0
1.017420360E2,1.253449678E0,-1.043864846E0,-2.719741106E0
1.017940300E2,1.980379224E0,-9.455155730E-1,-3.582893848E0
1.018460233E2,1.978546739E0,4.124378860E-1,-4.006834507E0
1.018980166E2,1.781237125E0,1.084389687E0,-3.499816179E0
1.019500100E2,1.567434430E0,-6.962825060E-1,-2.718519449E0
1.020020039E2,3.518125713E-1,-1.362736583E0,-2.353222132E0
1.020540024E2,-6.707758904E-1,1.974420309E0,-8.010135293E-1
1.021059995E2,-2.102643967E0,1.206562757E0,1.598465085E0
1.021579933E2,-2.786202192E0,1.609122872E0,4.352856636E0
1.022099866E2,-3.353085279E0,3.800620437E-1,3.607600927E0
1.022619800E2,-2.608440399E0,-2.425642014E0,3.372417688E0
1.023139734E2,-1.022634268E0,-1.958940983E0,3.462826014E0
1.023659667E2,9.586003423E-2,-1.040810585E0,-1.622016430E0
1.024179600E2,5.149135590E-1,-1.146490216E0,-2.382543802E0
1.024699537E2,1.007271051E0,-9.216918349E-1,-2.494332075E0
1.025219477E2,1.117226720E0,2.218479365E-1,-2.613450766E0
1.025739410E2,1.446483016E0,5.810366869E-1,-2.534649134E0
1.026259344E2,1.709766030E0,5.480499864E-1,-2.530983925E0
1.026779277E2,2.000537872E0,7.478029132E-1,-2.537092447E0
1.027299211E2,1.751304865E0,-2.436313778E-1,-2.209057808E0
1.027819144E2,3.108845949E-1,4.252660573E-1,-3.520275950E-1
1.028339077E2,-2.431900501E0,1.956705213E0,4.676004410E0
1.028859015E2,-4.642621517E0,4.621910095E0,5.242887020E0
1.029378953E2,-2.460611105E0,-1.385338545E0,3.133569479E0
1.029898887E2,-1.862573981E0,-4.486090183E0,3.709004641E0
1.030418820E2,6.218150258E-1,4.429811537E-1,-3.110996187E-1
1.030938757E2,9.797820449E-1,-2.376161814E0,-1.602468729E0
1.031458719E2,2.029859304E0,7.997264266E-1,-2.153469324E0
1.031978660E2,2.423867464E0,-5.796073079E-1,-3.042278051E0
1.032498594E2,1.895468950E0,9.591622949E-1,-3.357484579E0
1.033018528E2,1.602253675E0,2.383089066E0,-3.531581402E0
1.033538460E2,5.998238325E-1,1.824758291E0,-3.431399107E0
1.034058395E2,-5.870873332E-1,4.472571909E-1,-2.377656698E0
1.034578327E2,-1.265147686E0,4.613071084E-1,-1.039250970E0
1.035098268E2,-1.687866449E0,4.545875788E-1,7.762405276E-1
1.035618204E2,-4.299315453E0,2.138743162E0,4.033373833E0
1.036138137E2,-4.153929710E0,-1.397555828E0,3.323548555E0
1.036658071E2,-3.232133865E0,-1.984597325E0,4.055365086E0
1.037178005E2,-8.259356022E-1,-1.523393989E0,1.008369327E0
1.037697937E2,5.493205786E-2,3.886141479E-1,2.264617980E-1
1.038217871E2,9.186955094E-1,-1.306536913E0,-8.315567970E-1
1.038737804E2,1.551551938E0,-1.103729606E0,-1.948829293E0
1.039257746E2,1.830106497E0,2.908757031E-1,-2.663541794E0
1.039777681E2,2.641946316E0,-6.865086555E-1,-2.805873394E0
1.040297615E2,2.854527473E0,-1.136105418E0,-1.947607636E0
1.040817550E2,1.540556312E0,5.630345270E-2,-6.550167203E-1
1.041337482E2,-4.038277268E-1,2.260915995E0,1.002871513E0
1.041857461E2,-2.332940102E0,1.210227847E0,2.106705189E0
1.042377438E2,-3.394623995E0,1.479332447E-1,2.844630241E0
1.042897380E2,-3.998769760E0,-1.338912725E0,4.075523853E0
1.043417315E2,-1.134422660E0,9.774882197E-1,2.845241308E0
1.043937248E2,4.177860022E-1,-3.640042305E0,-5.591108799E-1
1.044457181E2,1.101344228E0,1.274368763E0,-1.403326631E0
1.044977115E2,1.534447670E0,-4.708732665E-1,-2.030074358E0
1.045497048E2,1.434876561E0,8.791388869E-1,-2.753338814E0
1.046016983E2,1.506347895E0,1.050181150E0,-2.645215750E0
1.046536923E2,8.759349585E-1,2.304000407E-1,-2.519988298E0
1.047056858E2,1.346301198E0,9.041844010E-1,-1.424706936E0
1.047576792E2,8.331743479E-1,-5.227968097E-1,2.197422832E-1
1.048096726E2,-3.238043785E-1,-2.010253668E0,1.857472062E0
1.048616658E2,-2.664029121E0,3.434101343E-1,2.476889372E0
1.049136593E2,-4.322528362E0,-2.912788689E-1,3.570338249E0
1.049656525E2,-2.685409307E0,-2.173965693E0,4.581931114E0
1.050176461E2,-3.409086168E-1,-1.279047966E0,1.546541572E0
1.050696402E2,5.637827516E-1,1.279866576E0,-2.344669819E0
1.051216334E2,1.014601350E0,7.264226079E-1,-2.127201796E0
1.051736269E2,8.081288934E-1,1.375485212E-1,-2.238379478E0
1.052256203E2,6.890102029E-1,1.533986449E0,-2.286638021E0
1.052776162E2,7.525401711E-1,1.251155853E0,-2.374602556E0
1.053296111E2,-3.934430182E-1,3.130177259E0,-1.992200851E0
1.053816041E2,-1.954203725E0,2.031230927E0,1.575252175E0
1.054335976E2,-1.921217084E0,1.004366279E0,1.451246619E0
1.054855909E2,-3.706776142E0,-1.783011794E0,3.729773998E0
1.055375843E2,-2.391583204E0,-4.794577599E0,3.836064339E0
1.055895776E2,-4.661359787E-1,-1.332193255E0,7.353125811E-1
1.056415709E2,1.155711174E0,1.015972733E0,-1.730139494E0
1.056935651E2,1.703046560E0,-1.017597675E0,-2.616505146E0
1.057455586E2,2.073230743E0,2.084088922E-1,-2.851077318E0
1.057975518E2,1.876532197E0,9.646601081E-1,-3.248139620E0
1.058495452E2,1.148380876E0,1.210227847E0,-2.763112783E0
1.059015385E2,9.535148144E-1,1.395930886E0,-8.138417602E-1
1.059535319E2,-2.509128861E-2,-4.177279770E-1,1.837924361E0
1.060055253E2,-1.390985966E0,-3.755782843E-1,2.263697624E0
1.060575188E2,-3.945624590E0,6.005843878E-1,5.506780624E0
1.061095129E2,-3.064756870E0,-6.968933940E-1,4.453649521E0
1.061615062E2,-1.160689831E0,4.222117364E-1,2.621053457E0
1.062134997E2,4.581031203E-1,-2.101272821E0,-2.556640387E0
1.062654933E2,7.568162084E-1,1.716635108E0,-2.376435041E0
1.063174899E2,1.129444003E0,-1.599428356E-1,-2.694084883E0
1.063694881E2,1.237567186E0,-1.214583367E-1,-2.730125904E0
1.064214829E2,1.579651713E0,3.159211874E-1,-2.103989124E0
1.064734762E2,2.111715317E0,1.109942142E-2,-3.697426617E-1
