"Time (s)","Linear Acceleration x (m/s^2)","Linear Acceleration y (m/s^2)","Linear Acceleration z (m/s^2)"
5.999626600E-2,9.677607536E0,8.049687386E0,8.694854736E0
1.199910590E-1,9.670546532E0,7.181698799E0,7.168007851E0
1.799856800E-1,9.381293297E0,6.187523842E0,5.732623100E0
2.399804820E-1,7.295031548E0,3.459717035E0,2.669112682E0
2.999747420E-1,3.170752287E0,8.098435402E-1,1.039604187E0
3.599683410E-1,4.454232156E-1,-2.098875046E-1,1.149787903E0
4.199616740E-1,1.774566650E0,3.584532738E-1,-1.000574589E0
4.799545050E-1,1.810999990E0,-7.859277725E-2,-1.173246384E0
5.399468690E-1,1.564740539E0,-3.192920685E-1,-6.768383980E-1
5.999393660E-1,3.407047987E-1,-8.477759361E-1,-2.322183132E0
6.599318960E-1,9.016110897E-1,-1.863949299E0,-3.703576803E0
7.199243600E-1,2.895653963E0,-2.041442394E0,-2.369577408E0
7.799169560E-1,2.967927933E0,-1.468341351E0,-1.655319691E0
8.399093860E-1,2.124755383E0,2.898998260E-1,-1.218836308E0
8.999017500E-1,1.395818710E0,-4.090328217E-1,-2.493205070E-1
9.598940140E-1,4.836540222E-1,-1.450881481E0,8.507900238E-1
1.019886577E0,-9.056749344E-1,-2.320928097E0,-1.255083084E-1
1.079879041E0,1.359772205E0,-2.615941525E0,5.523195267E-1
1.139871671E0,-5.341339111E-2,-2.436214685E0,7.720370293E-1
1.199864169E0,2.380375385E0,-2.538054228E0,2.087318897E0
1.259857402E0,4.444932938E-1,-9.033353329E-1,-4.222726822E-1
1.319850500E0,-8.750534058E-2,-2.123532295E-1,-2.644052505E-1
1.379843696E0,4.894652367E-1,5.873317719E-1,-1.564680576E0
1.439836726E0,-6.157522202E-1,1.464467764E0,-1.998744488E0
1.499829856E0,2.691473961E0,-1.717145920E0,6.404819489E-1
1.559822320E0,1.421837568E0,-9.441571236E-1,-2.053217888E-1
1.619814717E0,2.716938257E0,-4.273638725E-1,5.551919937E-1
1.679807181E0,2.524645329E-1,1.562938690E0,-1.046409607E-1
1.739799777E0,1.020500660E-1,7.839221954E-1,-2.644014359E-2
1.799792275E0,-3.581686020E-1,1.494749069E0,-1.147601128E0
1.859784772E0,3.382608891E-1,-9.530639648E-2,-4.285564423E-1
1.919777236E0,-7.531310320E-1,5.321569443E-1,-1.827741861E0
1.979769600E0,-3.613711596E-1,4.398281097E0,-2.025170326E-1
2.039761998E0,-7.821639776E-1,2.078509331E0,-1.792818308E0
2.099754528E0,-8.523733616E-1,-1.702864647E0,-2.060257673E0
2.159747058E0,-4.036438465E-1,3.632740974E-1,-5.238895416E-1
2.219739588E0,-7.245016098E-1,7.955698967E-1,6.149625778E-2
2.279732585E0,-2.280833721E-1,-5.638203621E-1,9.468126297E-2
2.339726650E0,6.023511887E-1,-1.751625061E0,-5.382218361E-1
2.399720980E0,1.250741482E0,-2.149459362E0,-1.097447395E0
2.459715310E0,3.631163120E0,-4.383073807E0,8.917913437E-1
2.519709640E0,5.971673489E0,-6.240359306E0,-1.175747156E0
2.579703404E0,4.922227859E0,-2.098657608E0,3.221579552E0
2.639696135E0,6.258998394E0,-7.319226265E0,5.951759815E0
2.699688399E0,7.432090759E0,-6.314337254E0,6.162765026E0
2.759680896E0,-7.221078873E-1,-4.423930168E0,2.822267056E0
2.819673360E0,-3.705312252E0,-3.917822123E0,1.736563206E0
2.879665956E0,-1.193853855E0,-1.527106762E0,-7.738289833E-1
2.939658353E0,-9.791750908E-1,4.567329884E-1,-1.128513336E0
2.999650949E0,3.988714218E-1,1.349855900E0,-2.567984104E0
3.059643280E0,-5.574092865E-1,1.419615746E0,-3.485143661E0
3.119635611E0,-2.014048100E-1,1.330412865E0,-3.574239731E0
3.179628076E0,-2.530026436E-1,1.732735872E0,-4.366577625E0
3.239620672E0,1.315468669E0,1.785407305E0,-4.542297840E0
3.299613136E0,1.479277492E0,1.506176949E0,-3.774961948E0
3.359605767E0,-1.124512434E0,3.048648357E0,-1.895198822E0
3.419599100E0,-2.103291750E0,4.116412163E0,6.189746857E-1
3.470188795E0,-1.143590689E0,1.760830641E0,1.482006073E0
3.530181959E0,9.241891503E-1,1.346344948E0,-3.148394585E0
3.590175056E0,1.340849280E0,1.221591949E0,-3.550704002E0
3.650168153E0,1.218573809E0,2.033951998E0,-3.506629467E0
3.710160617E0,6.105797291E-1,1.827439427E0,-2.185093403E0
3.770153015E0,1.106008530E0,2.218681335E0,-3.496859074E0
3.830145445E0,3.161235094E0,-9.026582241E-1,-2.990622044E0
3.890138008E0,-2.039715290E0,2.492428064E0,-7.399641991E0
3.950130439E0,-2.096223116E0,1.445240259E0,-7.625449181E0
4.010122902E0,3.221604586E0,-1.737842560E1,2.107660294E0
4.070115299E0,6.279884338E0,-7.055232525E0,5.715122223E-1
4.130107697E0,-1.629901052E0,-7.189184189E0,2.654429436E0
4.190100128E0,6.737627506E0,-5.366736412E0,4.553216934E0
4.250092724E0,5.306981087E0,-4.356754780E0,5.523025036E0
4.310085188E0,4.011138916E0,2.498078346E-1,4.700725079E0
4.370077718E0,-3.091917038E-1,1.195244789E0,4.537630081E-2
4.430070916E0,-2.274927616E0,3.864531279E0,-2.610780716E0
4.490065149E0,-5.188512802E-1,2.922295094E0,-1.225666523E0
4.550059648E0,-1.755390167E-1,-2.055362463E0,-2.693850040E0
4.610054214E0,-4.375260353E0,-2.768450499E0,-4.117723465E0
4.670048747E0,-9.613780975E0,-2.092476845E0,-1.188876247E1
4.730042544E0,3.187620163E0,-1.124190903E1,-6.580410004E0
4.790035208E0,-5.485547543E0,-7.175029755E0,-8.881108284E0
4.850027639E0,8.970973492E-1,3.658796310E0,6.510653496E-1
4.910020136E0,4.814287663E0,-7.370276451E-1,1.410123348E0
4.970012666E0,-2.074297428E0,-1.934835911E0,2.960370541E0
5.030005196E0,9.217226028E0,-5.903248787E-1,9.759296417E0
5.089997660E0,7.659195900E0,-3.469953060E0,6.370519638E0
5.149990057E0,2.520993233E0,-1.442008018E-1,3.952841282E0
5.209982388E0,-3.244112968E0,2.268625975E0,4.053649902E-1
5.269974885E0,-5.642776489E0,3.961103439E0,-4.064077377E0
5.329967349E0,-3.290736198E0,2.753597736E0,-1.015429115E1
5.389959945E0,-1.537658215E0,1.911553741E0,-2.688806772E0
5.449952409E0,-4.629442692E0,4.176068306E-2,-4.392963409E0
5.509945375E0,3.171349049E0,-1.127011871E1,6.861798763E0
5.569939306E0,3.798036098E0,-6.126410484E0,7.203618050E0
5.629933702E0,5.889622688E0,-3.518179893E0,6.448957443E0
5.689927966E0,1.468196392E0,4.727740288E0,4.089041710E0
5.749922362E0,8.305702209E-1,2.690969944E0,5.356311798E-1
5.809916192E0,3.967547417E-1,5.851354599E-1,-4.509377480E-1
5.869908891E0,1.660318851E0,-5.730628967E-3,-3.865003586E-1
5.929901155E0,2.968824387E0,1.091341376E0,-1.836926937E0
5.989893718E0,2.766077995E0,1.077573061E0,-1.871957541E0
6.049886182E0,-2.345328331E-1,-1.451098919E-2,-2.327215672E0
6.109878712E0,-3.807112694E0,-4.185011387E-1,-2.116806030E0
6.169871242E0,-9.648939133E0,2.865250111E-1,-6.751439571E0
6.229863772E0,-1.336236191E1,4.772360325E0,-9.833906174E0
6.289856069E0,9.591444969E0,-1.626601982E1,6.519984722E0
6.349848400E0,-1.224439240E1,-4.256903648E0,-1.070569611E1
6.409840930E0,3.333981991E0,-7.116256714E0,3.576145172E-1
6.469833460E0,1.316581249E0,-1.307912827E0,2.906359911E0
6.529825990E0,1.499798775E0,-3.112174988E0,2.599794865E0
6.589818621E0,3.846438885E0,5.817317963E-1,2.792202473E0
6.649811887E0,-1.933345795E-1,4.835844040E0,3.416956663E0
6.709805017E0,-1.592983246E0,7.256474495E0,1.043628693E0
6.769798147E0,-1.798336506E0,2.079202175E0,2.516126633E-1
6.829791277E0,-3.732698917E0,1.592729926E0,-2.313623905E0
6.889784308E0,-2.548402786E0,1.686052799E0,-4.621540546E0
6.949776639E0,-4.961929798E0,-1.209621906E0,-8.605434418E0
7.009769103E0,1.811517715E0,-7.804394722E0,3.874484539E0
7.069761666E0,-3.616381407E0,-1.394152641E1,-3.945314407E0
7.129754196E0,3.857026577E0,-3.538551331E-1,1.244478703E0
7.189746660E0,2.420487404E-1,1.362863541E0,-2.157402039E-2
7.249739256E0,3.125419617E-1,-5.469202995E-1,-8.133769035E-1
7.309731587E0,4.018041134E0,-4.094877243E0,-2.534837723E-1
7.369723885E0,1.899064541E0,-4.504313469E-1,-4.728066921E-1
7.429716316E0,-3.092317581E-1,2.750263214E-1,-1.136860609E0
7.489708946E0,7.410311699E-1,2.537147045E0,-6.020498276E-1
7.549701410E0,-7.185205460E0,9.724593163E-1,-3.639554501E0
7.609694006E0,-8.759086609E0,9.294739723E0,-8.544992447E0
7.669687305E0,-3.917176723E0,-8.002996445E-1,-1.996088028E-1
7.729681535E0,8.340116501E0,-3.885574818E0,5.385299683E0
7.789675766E0,1.607265949E0,-8.223342896E0,-8.964115381E-1
7.849670162E0,4.789637089E0,-1.433134079E0,1.382655382E0
7.909664426E0,3.285794258E0,-3.400325775E0,1.833245277E0
7.969658023E0,9.900212288E-1,-1.488063812E0,6.991007328E-1
8.029650488E0,2.304477215E0,-2.132420540E0,6.455497742E-1
8.089642819E0,2.401904583E0,1.241383553E-1,-9.726319313E-1
8.149635250E0,1.644802094E-1,4.005932808E-1,-2.834569931E0
8.209627780E0,-2.376491547E0,-9.736962318E-1,-1.237488270E0
8.269620210E0,-1.509291077E1,6.698145866E0,-1.049677277E1
8.329612740E0,-9.663410187E0,7.968481064E0,-6.598369598E0
8.389605270E0,6.620667458E0,-1.776296616E1,5.717577934E0
8.449597568E0,2.728644848E0,-1.404954720E1,-3.116801023E0
8.509589933E0,5.566099167E0,-8.232202530E-1,5.026262283E0
8.569582463E0,3.756510258E0,-1.129867554E0,3.028162479E0
8.629574993E0,5.327987671E0,5.475702286E-1,2.731995106E0
8.689567457E0,5.904452801E-1,3.991328478E0,8.585586548E-1
8.749560355E0,-2.142022133E0,5.331198215E0,-4.236660004E-1
8.809553587E0,-2.739996672E0,1.106852293E0,-4.614950180E0
8.869546717E0,-6.692853451E0,-1.195350409E0,-1.029039860E1
8.929539781E0,2.605934143E-1,-7.766901970E0,-1.255864811E1
8.989532977E0,-5.660168648E0,7.843303680E-2,-5.877216339E0
9.049525742E0,8.676750183E0,-5.383301735E0,1.880200386E0
9.109518173E0,7.215970039E0,-4.540398598E0,-1.715875626E0
9.169510637E0,6.857872963E0,-2.236827850E0,3.781312704E0
9.229503267E0,3.727370739E0,3.325672150E-1,2.870087624E-1
9.289495731E0,6.851897717E0,-1.224843979E0,1.152132034E0
9.349488327E0,5.416648388E0,-2.657375813E0,-2.655715227E0
9.409480757E0,2.853558540E0,2.371229410E0,-2.561853647E0
9.469473088E0,-2.463280916E0,5.598015785E0,-3.390878677E0
9.529465319E0,-4.965449333E0,-2.634060383E-1,-3.405737400E0
9.589457849E0,-1.174966812E1,-2.632390499E0,-9.158210754E0
9.649450346E0,4.904110909E0,-1.966932774E0,-3.607984543E0
9.709442876E0,1.273391962E0,-4.189266205E0,2.979195595E0
9.769435473E0,-1.243119597E0,-1.026886368E1,1.564364910E0
9.829429272E0,1.018689919E1,-7.838163376E-1,4.169723988E0
9.889423671E0,7.289783478E0,-5.422849655E-1,6.672737122E0
9.949418103E0,4.900608540E0,-2.116179466E0,2.521659613E0
1.000941264E1,5.532236099E0,-5.632305145E-1,1.578595161E0
1.006940710E1,2.319557428E0,2.711334229E-1,-5.089325905E-1
1.012940040E1,-2.810008764E0,-2.232871056E0,-4.422339916E0
1.018939280E1,-3.165363550E0,-1.157276869E0,-4.862285614E0
1.024938539E1,-4.233687401E0,1.028285027E0,2.499499798E0
1.030937792E1,-1.370451927E1,1.132044220E1,-1.026573467E1
1.036937045E1,-1.304054737E0,-1.564359665E-1,-3.219676733E0
1.042936289E1,1.439238834E1,-1.033948326E1,3.344165325E0
1.048935548E1,8.419143677E0,-4.255072594E0,-1.774988174E-1
1.054934774E1,6.309925079E0,6.369056702E-1,2.472961903E0
1.060934011E1,3.757378101E0,5.763988495E-1,5.676436424E-1
1.066933257E1,4.304081917E0,-1.571966171E0,1.434185982E0
1.072932510E1,8.056735992E-1,-6.790614128E-1,1.735329628E-1
1.078931757E1,-2.157022476E0,3.278066635E0,-9.372262955E-1
1.084931023E1,-1.953743696E0,5.510642052E0,-6.747592449E0
1.090930366E1,1.638058186E0,5.417181015E0,-4.163317204E0
1.095932803E1,-4.642731667E0,-7.604031563E-1,-6.430352211E0
1.101932236E1,-7.955514908E0,3.774353981E0,-5.739957809E0
1.107931669E1,1.849112511E0,-2.866487980E0,1.594415665E0
1.113931095E1,3.100244999E0,-5.885383606E0,3.946342945E0
1.119930445E1,6.627047062E0,-6.126239777E0,-1.370476484E0
1.125929695E1,4.969317436E0,-8.367662430E-1,5.339800835E0
1.131928934E1,3.276459694E0,-8.890876770E-1,1.601687431E0
1.137928187E1,2.899940491E0,-1.340994835E0,3.158597946E-1
1.143927434E1,2.212368488E0,-1.530489922E-1,-1.828078747E0
1.149926693E1,-1.161772251E0,2.815674782E0,-1.208032608E0
1.155925940E1,-5.973424911E-1,-1.841831207E-1,-3.353198767E0
1.161925186E1,-2.987889767E0,-3.215584755E0,-4.440768242E0
1.167924412E1,-1.041976452E1,1.560476780E0,-4.110984802E0
1.173923659E1,-4.565195084E0,9.640169144E-2,-1.844599485E0
1.179922905E1,-8.703160286E-1,-1.059552956E1,1.160645485E1
1.185922165E1,9.902923584E0,-1.067282200E1,1.542429924E0
1.191921411E1,-6.036673784E-1,-1.326572418E0,4.150267601E0
1.197920698E1,6.317508698E0,-4.791564941E-1,5.581608772E0
1.203920021E1,2.121080637E0,-1.366150856E0,1.868093967E0
1.209919344E1,4.014110088E0,-1.766786575E0,2.054837704E0
1.215918650E1,2.663829803E0,2.157357454E0,-5.721888542E-1
1.221917970E1,-1.314276695E0,8.113772869E-1,-3.372453690E0
1.227917250E1,-4.728936195E0,-4.725301266E-1,-5.308853149E0
1.233916483E1,-9.448032379E0,-9.082529545E-1,-9.213220596E0
1.239915726E1,-9.308343887E0,-5.330939293E-1,-4.642065525E0
1.245914986E1,-4.358968735E0,3.168621063E-1,1.240173817E0
1.251914232E1,3.713139057E0,-1.172159958E1,6.958590508E0
1.257913488E1,4.550669670E0,-6.865149498E0,1.883594871E0
1.263912741E1,4.077757835E0,-1.077320099E0,4.440556526E0
1.269911974E1,1.632434845E0,8.783226013E-1,2.679344893E0
1.275911201E1,3.468036175E0,-1.156075478E0,1.956254959E0
1.281910454E1,1.353810787E0,-1.911427021E0,-2.188935280E-1
1.287909704E1,-1.060106754E0,-5.035638809E-1,-1.693904877E0
1.293908950E1,-5.799356461E0,2.749944687E0,-3.820987701E0
1.299908206E1,-5.717372894E0,4.117724419E0,-1.775926113E0
1.305907573E1,2.814191818E0,3.384798527E0,-3.316543818E0
1.311906999E1,-6.497116089E0,8.018400192E0,-1.256752968E0
1.317906432E1,1.031447029E1,-5.937140465E0,7.120441914E0
1.323905869E1,1.339361429E0,-1.161191654E1,-3.924901962E0
1.329905295E1,4.351736069E0,-1.162567139E-1,1.213821888E0
1.335904615E1,8.645420074E-1,-2.281532288E-1,9.163188934E-1
1.341903848E1,9.375433922E-1,-8.732275963E-1,5.298054218E-1
1.347903085E1,6.057786942E-2,1.381917000E-1,2.465903759E-1
1.353902331E1,-2.298796892E0,1.289801598E-1,-1.673844337E0
1.359901587E1,-4.683092594E0,2.535629272E0,-2.119719982E0
1.365900834E1,7.374090672E0,2.775192261E-2,-3.552609921E0
1.371900093E1,-9.772155762E0,1.139760590E1,-9.099783897E-1
1.377899336E1,2.331621647E0,-1.896144867E0,6.144736290E0
1.383898570E1,3.737790823E0,-5.873218536E0,-3.282769680E0
1.389897809E1,5.695855141E0,-2.465562820E0,1.769590020E0
1.395897069E1,2.446065426E0,-1.870537758E0,1.531202316E0
1.401896315E1,-2.787961960E-1,-2.011835098E0,9.282922745E-2
1.407895568E1,1.366381168E0,-9.317817688E-1,-3.048980236E-1
1.413894875E1,1.568889618E-1,5.236411095E-1,-3.796441317E0
1.419894195E1,-7.841625214E-1,3.787075996E0,-2.398339272E0
1.425893501E1,-2.067269325E0,4.121887207E0,-2.312631607E-1
1.431892814E1,-6.066772938E0,3.704383612E0,3.601350784E0
1.437892127E1,-2.513087749E0,5.416584969E0,5.263547897E-1
1.443891387E1,2.661842585E0,-2.314428329E0,2.633691788E0
1.449890620E1,-1.032560229E0,-9.559133530E0,-5.207326889E0
1.455889866E1,3.842673779E0,-3.162975311E-1,1.463755488E0
1.461889116E1,8.550667763E-2,-3.499137878E0,-7.243373394E-1
1.467888369E1,-2.087054968E0,-3.717654228E0,-1.117043376E0
1.473887625E1,-7.244229317E-1,-2.183115005E0,1.257855892E-1
1.479886872E1,-9.866595268E-1,9.719405174E-1,-4.147450924E-1
1.485886112E1,-3.539035559E0,3.653362751E0,-1.269620419E0
1.491885345E1,-6.642560959E0,5.912230968E0,-3.456169367E0
1.497884598E1,-8.317794800E0,9.352107048E0,-6.244799614E0
1.503883841E1,8.665399551E0,-5.703245163E0,9.909385681E0
1.509883104E1,-2.824239969E0,-8.369022369E0,-2.982600689E0
1.515882380E1,6.858820915E0,1.036009789E0,2.043055058E0
1.521881783E1,1.221865654E0,-3.518555641E0,-1.394177914E0
1.527881230E1,1.963731289E0,-4.202937126E0,-1.488485217E0
1.533880683E1,1.444472790E0,7.736158371E-2,-1.528360367E0
1.539880127E1,-1.094839096E0,4.616862297E0,-2.063837528E0
1.545879556E1,-3.053147554E0,7.159560204E0,8.235359192E-1
1.551878859E1,-4.332861900E0,6.918268204E0,-1.793863058E0
1.557878096E1,-5.777432442E0,7.389464378E0,2.145124435E0
1.563877349E1,-5.737873077E0,1.244174957E1,-9.837335587E0
1.569876602E1,4.476646423E0,-1.258911896E1,8.353145599E0
1.575875848E1,-6.424923897E0,-1.074072456E1,-4.197669029E0
1.581875108E1,5.347303391E0,-2.095731735E0,2.991652966E0
1.587874358E1,1.102382421E0,-1.845864296E0,1.224058867E0
1.593873591E1,1.616299152E0,-6.028246880E-1,1.098993301E0
1.599872837E1,2.759278774E0,-2.940053940E-1,1.630074024E0
1.605872087E1,-7.177495956E-2,1.850200176E0,1.136894703E0
1.611871333E1,-3.374146938E0,1.716578007E0,-5.758900642E-1
1.617870586E1,-6.205869675E0,1.178604722E0,-4.357855797E0
1.623869846E1,-6.857263088E0,3.830497980E0,-6.754244804E0
1.629869209E1,-5.666963100E0,3.873274803E0,-4.503413677E0
1.635868645E1,4.190070152E0,-6.049463749E0,4.571698666E0
1.641868068E1,3.872481108E0,-5.211584091E0,4.819631577E-3
1.647867498E1,7.198866367E0,-2.805287361E0,3.851433992E0
1.653866918E1,4.256271362E0,2.675876617E-1,3.217326880E0
1.659866228E1,1.848381996E0,-5.361461639E-1,7.964448929E-1
1.665865454E1,1.632098675E0,-1.176080704E0,4.756879807E-2
1.671864704E1,1.151881218E-1,-1.371969700E0,-1.358316898E0
1.677863957E1,-2.240891933E0,-1.660494804E-1,-2.129221201E0
1.683863207E1,-6.235047340E0,2.100349426E0,-6.453376293E0
1.689862453E1,-1.252128983E1,4.038056850E0,-2.749342918E0
1.695861713E1,-1.078437996E1,8.749393463E0,-6.744569778E0
1.701860949E1,1.252782249E1,-8.818801880E0,1.142464638E1
1.707860186E1,-4.069327354E0,-1.404083729E1,-3.134283781E0
1.713859445E1,6.055911541E0,-2.411108971E0,3.356563568E0
1.719858698E1,1.405599117E0,7.697043419E-1,7.737972736E-1
1.725857945E1,1.691437721E0,9.141921997E-3,8.756420612E-1
1.731857204E1,2.309757233E0,-1.326655388E0,4.772219658E-1
1.737856508E1,-7.316431999E-1,2.555607557E0,1.214451790E-1
1.743855817E1,-5.403697014E0,4.891161919E0,-2.499900579E0
1.749855130E1,-4.412726402E0,-1.845582962E0,-3.416394234E0
1.755854443E1,-7.357308388E0,-2.995261908E0,-8.074132919E0
1.761853756E1,-8.339522362E0,7.775056362E-1,-4.215654373E0
1.767853013E1,4.480683804E0,-3.709571362E0,3.668326378E0
1.773852253E1,6.178214073E0,-5.454116821E0,5.476632595E0
1.779851506E1,5.804437637E0,-4.671049118E0,1.565193653E0
1.785850759E1,5.595594883E0,5.694875717E-1,3.453443527E0
1.791849998E1,2.001483917E0,4.917273521E-1,8.237428665E-1
1.797849251E1,4.315746784E0,-3.030643463E-1,2.549672127E0
1.803848498E1,8.177599907E-1,1.048147678E0,1.078668594E0
1.809847734E1,-9.944729805E-1,2.055245399E0,-2.429567575E0
1.815846981E1,-4.726961136E0,-7.260560989E-2,-4.917264462E0
1.821846240E1,-2.439723253E0,-8.380637169E0,-3.432168961E-1
1.827845487E1,-1.652788353E1,8.705028534E0,-6.444735527E0
1.833826263E1,8.698276520E0,-1.068569088E1,8.146396637E0
1.839825546E1,-3.540120125E-1,-8.068444252E0,-2.630712032E0
1.845824946E1,2.231828213E0,-2.532816887E0,6.459026337E0
1.851824372E1,1.746068716E0,-8.374681473E-1,4.203174591E0
1.857823812E1,1.849183798E0,-8.220481873E-2,1.971947670E0
1.863823238E1,6.453447342E-1,-5.104722977E-1,-2.780466080E-1
1.869822632E1,-2.188713312E0,-7.962870598E-1,-2.420961380E0
1.875821898E1,-1.242044449E0,1.046323299E0,-5.230323315E0
1.881821138E1,-3.042678833E0,4.704060555E0,-5.228089809E0
1.887820381E1,-5.171884060E0,6.685569286E0,1.943991661E0
1.893819634E1,-6.056913376E0,4.737218857E0,-5.042417049E0
1.899818887E1,-9.095833302E-1,-1.471745968E0,3.348471642E0
1.905818140E1,2.597003222E0,-8.265084267E0,-3.223532915E0
1.911817386E1,1.115513229E1,-2.877493858E0,7.395583153E0
1.917816623E1,2.791880369E0,1.090312958E0,4.367191315E0
1.923815856E1,1.400049210E0,-9.454002380E-1,3.286054850E0
1.929815109E1,3.333052635E0,-1.689171791E0,2.098485947E0
1.935814362E1,2.070202827E-1,-1.149455547E0,2.374558449E-1
1.941813608E1,-2.928653717E0,7.973687649E-1,-3.176707506E0
1.947812871E1,-5.430232525E0,4.544439316E-1,-4.458114624E0
1.953812198E1,-9.388328552E0,9.335997105E-1,-7.792653084E0
1.959811514E1,3.714624405E0,4.103849411E0,-9.393024445E0
1.965810820E1,-3.297474861E0,3.633942604E-1,-7.708015442E-1
1.971810140E1,2.203197718E0,-1.776519775E0,1.791765451E0
1.977809437E1,1.113199711E1,-6.992384911E0,5.972721100E0
1.983808676E1,6.153076649E0,-7.504625320E-1,5.739182472E0
1.989807906E1,5.079713821E0,2.118396759E-1,3.269947052E0
1.995807166E1,4.676842213E0,-1.761616707E0,2.955436707E-1
2.001806412E1,4.642241955E0,-3.140663624E0,1.237767696E0
2.007805672E1,-1.717673302E0,1.992552519E0,-2.738374472E0
2.013804918E1,-6.214590073E0,3.414902210E0,-7.052009106E0
2.019804165E1,-4.895035744E0,3.119778633E-1,-8.443278313E0
2.025803391E1,-1.229100037E1,2.424560547E0,-1.486664200E1
2.031802641E1,-4.759840012E0,1.327147484E1,-1.112690544E1
2.037801887E1,5.365149498E0,-1.309226513E1,9.437570572E0
2.043801140E1,6.742421627E0,-5.470047951E0,3.134036303E0
2.049800393E1,3.589058399E0,-2.160405159E0,4.827810287E0
2.055799723E1,2.355497122E0,-1.330347061E0,2.228568792E0
2.061799143E1,1.865997791E0,-7.237615585E-1,5.955049992E-1
2.067798600E1,1.340398788E0,9.108295441E-1,1.337871552E-1
2.073798053E1,-3.521871567E-1,6.513857841E0,1.319673538E0
2.079797506E1,2.539184093E0,4.763373852E0,3.947501183E-1
2.085796882E1,6.151447296E-1,1.205526233E0,-2.064466000E0
2.091796146E1,-1.148018265E1,2.452095509E0,-8.199048042E0
2.097795389E1,-3.583838463E0,3.928647518E0,-5.638632298E0
2.103794642E1,-2.939647675E0,1.865963936E-1,8.781971931E-1
2.109793898E1,6.306576252E0,-1.610510635E1,7.879121780E0
2.115793145E1,-1.559852004E0,-7.183485985E0,-2.753147364E0
2.121792404E1,2.605136395E0,-2.221689224E0,3.455118656E0
2.127791637E1,1.793570518E0,-7.658176422E-1,1.977076530E0
2.133790870E1,2.726089001E0,4.603257179E-1,1.122689486E0
2.139790110E1,-1.092381477E-1,3.263682365E0,1.675599813E0
2.145789370E1,4.349250793E-1,3.360995293E0,-2.618098259E-1
2.151788623E1,-1.756957054E0,4.264050484E0,-1.451078653E0
2.157787886E1,-5.283540726E0,5.098662376E-1,-1.492392540E0
2.163787182E1,-7.810643673E0,1.772285461E0,-3.109948635E0
2.169786589E1,-5.622625351E0,-3.084793091E0,-4.333605766E0
2.175786015E1,1.432529926E0,-6.992867947E0,7.273617744E0
2.181785448E1,-1.151518583E0,-1.058322334E1,-3.626708746E0
2.187784871E1,4.790147781E0,-1.634462357E0,3.729237318E0
2.193784254E1,3.017748594E0,1.282053947E0,3.511696100E0
2.199783518E1,1.918362617E0,-2.276729584E0,2.090164900E0
2.205782751E1,2.902524471E0,-1.106696606E0,1.918997765E-1
2.211781994E1,1.301860809E-2,-2.469440937E0,-4.570486546E-1
2.217781247E1,-3.918156147E0,-1.160208702E0,-3.678756237E0
2.223780500E1,-5.553358078E0,8.883631229E-1,-5.850393295E0
2.229779756E1,-2.933945656E-1,1.292265892E0,-5.448387623E0
2.235779009E1,-8.387892723E0,3.525755405E0,-8.101985931E0
2.241778246E1,2.343878269E0,-5.597675800E0,1.096123219E0
2.247777482E1,8.176312447E-1,-6.575714111E0,4.243495464E-1
2.253776735E1,5.318455696E0,-2.362609863E0,5.126616478E0
2.259775985E1,5.876534462E0,3.005456924E-1,6.254001617E0
2.265775238E1,2.247461319E0,-5.737257004E-1,1.809152603E0
2.271774504E1,4.910878658E0,-5.345439911E-1,1.329718113E0
2.277773827E1,1.564092159E0,5.191569328E-1,-1.126798391E0
2.283773140E1,-9.577431679E-1,1.965236187E0,-3.095075130E0
2.289772453E1,-4.138325691E0,7.530438900E-1,-4.339486122E0
2.295771763E1,-1.715255737E1,5.021694183E0,-8.613790512E0
2.301771056E1,-9.962553024E0,1.698861122E1,-7.502489090E0
2.307770296E1,4.711087227E0,-1.614393044E1,9.120327950E0
2.313769536E1,-7.291268110E-1,-9.623981476E0,-1.890313387E0
2.319768789E1,6.587793827E-1,-2.904670715E0,6.507838249E0
2.325768038E1,-2.397053242E-1,-1.481945038E0,3.515938044E0
2.331767298E1,4.096326828E-1,-2.480635643E-1,9.829850197E-1
2.337766544E1,1.929872990E0,2.142628670E0,2.212872505E-1
2.343765791E1,6.320762634E-1,1.354402542E0,-2.641868114E0
2.349765017E1,-3.912154675E0,2.601813316E0,-2.679848194E0
2.355764270E1,-2.510737181E0,3.535187960E0,-3.171264887E0
2.361763533E1,-4.315755844E0,5.240458012E0,-4.760681152E0
2.367762793E1,-6.557590008E0,5.492845535E0,-3.668159962E0
2.373762039E1,5.734021664E0,-7.238519669E0,8.571146965E0
2.379761386E1,-3.022404671E0,-1.218229485E1,-4.472968102E0
2.385760806E1,3.623421669E0,-2.307774544E0,4.541821003E0
2.391760222E1,-1.056245565E0,-1.179888725E0,2.006573915E0
2.397759648E1,7.988185883E-1,5.892910957E-1,8.992152214E-1
2.403759081E1,1.166509151E0,-1.465415955E-2,-4.018635750E-1
2.409758421E1,-1.027288914E0,3.256805182E0,-2.735185146E0
2.415757668E1,-2.498012781E0,3.788791895E0,-2.632859707E0
2.421756911E1,1.208693790E1,-9.057649612E0,-4.476613522E0
2.427756161E1,-1.296007633E1,1.842602921E1,-9.462734222E0
2.433755414E1,6.204903603E0,-6.704652786E0,4.517153263E0
2.439754667E1,-5.845881462E0,-1.184398460E1,-1.498018384E0
2.445753920E1,2.913960695E0,-5.477511406E0,5.294795513E0
2.451753156E1,-1.313070416E0,-1.367099762E0,2.780796289E0
2.457752392E1,8.905529976E-2,1.252298355E-1,1.462206841E0
2.463751632E1,2.001921177E0,6.282916069E-1,5.339784622E-1
2.469750885E1,4.834270477E-2,3.633438349E0,-1.824388504E-1
2.475750132E1,1.692919731E0,5.750250340E0,-3.419523239E-1
2.481749391E1,-8.066091537E-1,2.420038939E0,-3.415439606E0
2.487748678E1,-5.721293449E0,-1.836220264E0,-8.286985397E0
2.493748004E1,-1.173967743E1,1.700007915E-1,-8.609462738E0
2.499747311E1,9.307603836E-1,-1.329213333E1,6.554418564E0
2.505746624E1,3.416957855E0,-3.027987480E0,8.738141060E-1
2.511745930E1,6.452209949E0,-2.845129967E0,3.412042379E0
2.517745210E1,3.627193928E0,-3.193514824E0,7.310390472E0
2.523744436E1,5.890066147E0,-2.648648262E0,4.739361763E0
2.529743689E1,3.093290806E0,-2.131655216E0,2.526717186E-1
2.535742942E1,-6.006093025E-1,9.005022049E-2,-3.205242157E-1
2.541742195E1,-7.930388451E-1,3.592522383E0,-1.208954096E0
2.547741442E1,-1.612857819E0,2.484109879E0,-4.257088661E0
2.553740691E1,4.186080933E0,-5.363461494E0,5.788354874E-1
2.559739925E1,-7.646861076E0,-1.728552341E0,-6.977406502E0
2.565739164E1,-9.894964218E0,2.410680294E0,-5.852677345E0
2.571738417E1,1.184940338E-2,-3.629310608E0,3.964077950E0
2.577741340E1,6.607394695E0,-2.910950661E0,7.962875366E0
2.583740596E1,-4.197883606E-1,-7.983393669E0,-5.759791732E-1
2.589739856E1,3.707808971E0,-2.905823708E0,4.052920818E0
2.595739232E1,2.251877546E0,-5.813312531E-1,2.388683319E0
2.601738658E1,3.589199543E0,-9.136028290E-1,2.702059269E0
2.607738098E1,1.207964420E0,1.859783173E0,2.498712301E0
2.613737524E1,8.853435516E-3,2.450365543E0,2.738754511E0
2.619736951E1,-1.336412430E0,4.141069412E0,1.065257549E0
2.625736247E1,-1.429166317E0,1.285644770E0,-4.591750622E0
2.631735487E1,-9.966627121E0,2.421119928E0,-7.752579689E0
2.637734714E1,-6.208257198E0,3.251658440E0,-5.924693108E0
2.643733973E1,5.054896832E0,-8.226479530E0,9.294180870E0
2.649733220E1,-3.616373062E0,-9.133801460E0,-7.568363667E0
2.655732472E1,3.598693132E0,-1.085200310E0,5.422993183E0
2.661731719E1,3.508596420E0,-2.183751106E0,3.893621922E0
2.667730979E1,1.389133930E0,-1.287179947E0,2.241465569E0
2.673730208E1,3.152422428E0,7.431783676E-1,1.840603828E0
2.679729451E1,2.242317200E-1,3.610088348E0,1.052126884E-1
2.685728704E1,3.599596024E-1,3.497429848E0,-1.750984192E0
2.691727957E1,-8.717179298E-1,-3.985242844E-1,-5.734724998E0
2.697727207E1,-2.574088097E0,-5.372350693E0,-5.438242912E0
2.703726520E1,-8.953941345E0,-1.653053284E0,-8.996578217E0
2.709725843E1,-9.938182831E0,9.474632740E-1,-3.795766830E0
2.715725156E1,-6.171250343E-1,-2.858784676E0,5.134903908E0
2.721724469E1,4.221419334E0,-8.209729195E0,6.091265678E0
2.727723772E1,8.107301712E0,-1.115502357E0,7.871302605E0
2.733723022E1,3.858234406E0,-1.168335915E0,6.189090729E0
2.739722255E1,1.833424568E0,-5.079355240E-1,4.435687542E0
2.745721508E1,3.887170792E0,-4.261631966E-1,3.279063940E0
2.751720761E1,-8.719062805E-2,-1.911816597E0,1.074723244E0
2.757720021E1,-3.146236420E0,-3.297331810E0,-4.789881706E-1
2.763719267E1,-6.559088230E0,3.145740032E-1,-3.711691380E0
2.769718527E1,-5.299010754E0,5.912706375E0,-6.092816353E0
2.775717760E1,-3.214398146E0,4.422231674E0,-6.652407169E0
2.781717003E1,-2.615940809E0,3.531932354E0,1.726228714E0
2.787716250E1,4.973143578E0,-7.040416718E0,6.321557045E0
2.793715506E1,3.253755808E0,-8.857852936E0,-9.697115421E-1
2.799714746E1,7.796713829E0,7.669067383E-2,6.555634022E0
2.805714039E1,2.391958475E0,1.037147045E0,2.240413189E0
2.811713439E1,5.487029552E0,-2.666645527E0,2.688721895E0
2.817712899E1,3.201693535E0,3.015513420E-1,-3.180799484E-1
2.823712352E1,2.345185280E-1,6.458405495E0,-9.506871700E-1
2.829711812E1,-2.596701622E0,-3.686907291E-1,-2.437884331E0
2.835711218E1,-5.184817314E0,-6.554839134E0,-3.685517073E0
2.841710508E1,-6.522162437E0,-6.370883942E0,-2.376170158E0
2.847709738E1,-1.544254684E1,6.330530643E0,-1.180384254E1
2.853708994E1,-2.418960333E0,-5.724738598E0,1.176152706E0
2.859708241E1,6.619385719E0,-7.468564987E0,4.861138344E0
2.865707497E1,3.623318195E0,-5.111796379E0,1.236063242E0
2.871706750E1,6.233510017E0,3.916473389E-1,5.577745914E0
2.877706000E1,4.615944862E0,5.471391678E-1,3.108500481E0
2.883705226E1,5.467347145E0,-2.660560608E-2,3.540066481E0
2.889704466E1,5.684016705E0,-1.358262539E0,2.058298588E0
2.895703716E1,-1.407471657E0,2.029963493E0,7.668113708E-2
2.901702968E1,-4.673378944E0,3.998898029E0,-2.720136404E0
2.907702222E1,-3.668663025E0,8.170856237E-1,-4.614207268E0
2.913701488E1,-5.438978195E0,-6.693649292E-2,-8.084119797E0
2.919700875E1,-1.097454453E1,5.683640480E0,2.203951836E0
2.925700314E1,-4.787412643E0,1.723060608E0,2.440545559E0
2.931699747E1,9.017907143E0,-6.659031868E0,7.217602730E0
2.937699174E1,2.352780581E0,-6.302351952E0,1.414669633E0
2.943698593E1,5.435951710E0,-8.302516937E-1,4.295658112E0
2.949697880E1,4.898130417E0,9.442162514E-1,3.946969748E0
2.955697106E1,5.194498539E0,7.571649551E-2,1.822396278E0
2.961696339E1,2.043026924E0,-4.557142258E-1,1.328654289E0
2.967695599E1,-2.135607719E0,1.593415976E0,-3.561103344E-1
2.973694849E1,-2.075034142E0,-7.051479816E-1,1.780176163E-2
2.979694108E1,-4.544743538E0,-8.138051033E-1,-5.375614643E0
2.985693358E1,-8.125511169E0,2.041531563E0,-9.295617104E0
2.991692605E1,-4.444103718E0,-4.819429398E0,-5.811169147E0
2.997691831E1,-9.663662910E-1,-3.635460377E0,5.486361980E0
3.003691077E1,7.223657608E0,-4.993265152E0,3.135340691E0
3.009690324E1,7.240305901E0,-2.063353539E0,3.800780296E0
3.015689580E1,7.095664024E0,1.562469006E0,5.250109673E0
3.021688837E1,3.020689487E0,1.599168777E-1,1.835782290E0
3.027688157E1,3.418407917E0,-1.604566097E0,1.391155720E-1
3.033687473E1,1.175278187E0,-2.452607155E-1,-8.823294640E-1
3.039686786E1,-6.241750717E-2,-5.653610229E-1,-2.960293770E0
3.045686092E1,-5.163263321E0,2.153266907E0,-5.640444279E0
3.051685402E1,-6.073683739E0,3.029272556E0,1.038063049E0
3.057684648E1,-7.672863483E0,5.264266014E0,-4.103610516E0
3.063683878E1,-6.972895145E0,2.951214552E0,-1.800953388E0
3.069683131E1,3.474339008E0,-5.901401520E0,1.001867580E1
3.075682384E1,-2.091882944E0,-8.468455315E0,-3.710149765E0
3.081681637E1,8.327298164E0,-1.632767677E0,5.570872307E0
3.087680884E1,3.926894903E0,-2.102956772E-1,3.475270510E0
3.093680140E1,1.647508144E0,-1.123752594E0,9.881002903E-1
3.099679366E1,-7.903857231E-1,-7.440867424E-1,7.681407928E-1
3.105678613E1,-1.840261459E0,3.615168810E0,1.370452404E0
3.111677859E1,-4.539799690E-1,4.427107334E0,-4.093112946E-1
3.117677119E1,-2.612208366E0,1.172268867E0,-3.357235193E0
3.123676369E1,-1.879747868E0,5.382227898E-2,-4.460251331E0
3.129675678E1,-6.787436008E0,4.712481499E-1,-6.013056278E0
3.135675082E1,-1.376575947E0,9.223942757E-1,-1.879120588E0
3.141674535E1,-1.815298796E0,-6.056654930E0,5.973515511E0
3.147673981E1,9.317302704E0,-8.728732109E0,6.738263130E0
3.153673438E1,5.976015091E0,-5.361042023E-1,7.747860909E0
3.159672835E1,4.893103123E0,8.231859207E-1,2.674107075E0
3.165672118E1,4.492466927E0,-1.790895462E-1,6.633245945E-1
3.171671364E1,3.376971245E0,3.262519836E-3,-5.587105751E-1
3.177670617E1,-5.130772591E-1,1.965265274E-1,-3.184756756E0
3.183669864E1,-2.303419590E0,8.340933323E-1,-3.351370335E0
3.189669117E1,-3.683573246E0,8.707394600E-1,-3.196844578E0
3.195668370E1,-6.214383125E0,8.174595833E-1,-4.058453560E0
3.201667609E1,-7.615930557E0,2.444859505E0,-2.068707943E0
3.207666846E1,1.494966030E0,-5.569743633E0,2.278083324E0
3.213666085E1,-1.525260925E0,-1.013576508E0,5.512659550E0
3.219665338E1,-2.288158178E0,-5.827356339E0,3.308472633E0
3.225664591E1,2.095176697E0,-3.139325142E0,7.405318260E0
3.231663844E1,2.018801689E0,-4.245033264E-1,2.620172501E0
3.237663118E1,1.374811411E0,-1.658178329E0,5.920855999E-1
3.243662514E1,1.772337437E0,-2.250151634E0,1.258670330E0
3.249661940E1,1.038978577E0,-1.587707520E0,-2.080456972E0
3.255661373E1,-1.092852116E0,2.210751057E0,-4.909437180E0
3.261660800E1,-5.133924007E0,2.934267759E0,-6.345026970E0
3.267660210E1,-6.566221714E0,4.939764977E0,-2.813789845E0
3.273659489E1,-6.321813583E0,5.187797546E0,7.775085449E0
3.279658729E1,1.029534531E1,-3.153934479E0,1.750345993E1
3.285657972E1,4.041611671E0,-1.542670918E1,-3.892900944E0
3.291657232E1,-2.801989317E0,-4.167614937E0,9.896315932E-1
3.297656478E1,3.917926550E0,-1.165930748E0,5.924804688E0
3.303655734E1,3.130461216E0,-4.205293655E-1,3.042803049E0
3.309654981E1,2.353838444E0,-4.315037727E-1,1.198655367E0
3.315654231E1,-1.654531479E0,-3.043357849E0,-1.380317450E0
3.321647283E1,-5.076163292E0,7.173416615E-1,-2.343611956E0
3.327646536E1,-4.351952553E0,3.863970757E0,-4.809693336E0
3.333645782E1,-2.359767437E0,2.930493593E0,-6.258781433E0
3.339645042E1,-9.395635605E0,5.607414246E0,-5.788926125E0
3.345644288E1,8.957638741E-1,-7.776916981E0,9.938434601E0
3.351643612E1,1.774086952E-1,-1.311282349E1,1.420397520E0
3.357642925E1,4.031636715E0,-1.849317551E0,5.087985039E0
3.363642238E1,2.124255419E0,5.356407166E-2,4.478951454E0
3.369641544E1,1.812838078E0,1.616392136E-1,2.077610731E0
3.375640850E1,3.598158836E0,-8.615589142E-1,1.315318108E0
3.381640090E1,1.177195549E0,-1.556260109E0,-1.644025326E0
3.387639333E1,-1.526604176E0,-1.068987370E0,-2.523126602E0
3.393638586E1,-6.018094063E0,-1.808655262E-1,-9.546728134E-1
3.399637833E1,-7.047894955E0,3.590690136E0,-5.657572746E0
3.405637086E1,-7.383896828E0,8.022142410E0,-7.003081322E0
3.411636339E1,-2.072464228E0,1.096288204E0,2.114652157E0
3.417635585E1,4.342178345E0,-9.531504631E0,5.405869484E0
3.423634812E1,-2.898761272E0,-8.046796799E0,2.343760729E-1
3.429634064E1,8.410905838E0,-1.409473419E-1,1.511611104E0
3.435633311E1,1.858606577E0,-1.800077438E0,3.528300285E0
3.441632564E1,1.904781342E0,-3.123188019E-2,2.102622271E0
3.447631807E1,5.248616695E0,-3.978209496E-1,1.909843683E0
3.453631127E1,-1.470549107E0,-8.151631355E-1,-1.464465857E0
3.459630537E1,-2.353974819E0,-9.707052708E-1,-2.951388359E0
3.465629976E1,-6.039320946E0,3.566799402E0,-6.698892117E0
3.471629406E1,-1.094348526E1,6.321893692E0,-1.468597698E1
3.477628839E1,3.229894161E0,-4.106792927E0,1.753031731E0
3.483628205E1,-3.572559357E-1,-7.084359169E0,1.422085047E0
3.489627472E1,8.843313217E0,-1.064523411E1,1.942205429E0
3.495626698E1,1.036627412E0,-6.811714172E-1,2.848521233E0
3.501625948E1,5.650026798E0,-1.108208656E0,4.111248493E0
3.507625201E1,4.272841454E0,-1.152198792E0,2.671843767E0
3.513624454E1,3.360445499E0,-4.568762779E-1,1.722150326E0
3.519623697E1,1.531267166E-2,1.418846130E0,-9.188475609E-1
3.525622950E1,-1.610946655E0,3.328545332E0,-9.068732262E-1
3.531622183E1,-2.641078234E0,2.725932598E-1,-3.447862864E0
3.537621416E1,-4.047266960E0,-1.731077433E0,-6.648194790E0
3.543620669E1,-7.333811760E0,1.512291670E0,-6.575804710E0
3.549619916E1,-5.568425179E0,9.178447723E-2,-1.540308475E0
3.555619169E1,1.195653915E0,-4.679173470E0,6.148564816E0
3.561618442E1,1.478218555E0,-1.115599632E1,2.351129770E0
3.567617778E1,6.327671051E0,-2.535557747E0,9.037054062E0
3.573617085E1,4.499903679E0,-2.977848053E-1,4.495400429E0
3.579616404E1,4.096776009E0,-1.082302094E0,2.164666653E0
3.585615711E1,3.128527641E0,-2.032756805E-3,3.487801552E-1
3.591615004E1,-1.799291611E0,1.091151714E0,-1.114349365E-1
3.597614227E1,-2.980900288E0,2.575819492E0,7.847070694E-2
3.603613483E1,-2.315331459E0,5.468513966E-1,-4.568610191E-1
3.609612730E1,-1.498390198E0,-7.852244377E-2,-5.824083805E0
3.615611993E1,-1.122221375E1,3.932109833E0,-8.399345398E0
3.621611239E1,-2.646581650E0,6.555936337E-1,-8.145804405E-1
3.627610492E1,2.923994541E0,-3.708664417E0,6.417899609E0
3.633609722E1,9.067445755E0,-8.164335251E0,6.061543941E0
3.639608962E1,6.482580185E0,6.763267517E-2,3.881670475E0
3.645608201E1,4.228365898E0,3.253517151E-1,3.074625969E0
3.651607454E1,3.642148018E0,-6.782417297E-1,9.933233261E-1
3.657606707E1,2.662544250E0,-6.635847092E-1,3.470635414E-2
3.663605964E1,9.557285309E-1,-4.155397415E-1,-1.743216276E0
3.669605320E1,-1.248260498E0,1.656019568E0,-2.779792309E0
3.675604760E1,-5.992743492E0,1.804129601E0,-4.447591782E0
3.681604213E1,-7.465161800E0,4.341520309E0,1.153014660E0
3.687603667E1,-1.181555748E1,1.149252224E1,-9.903104782E0
3.693603117E1,-1.113328934E0,-2.506385803E0,5.141971111E0
3.699602453E1,4.000400543E0,-1.530634117E1,3.574008703E0
3.705601706E1,9.568822861E0,-4.468977928E0,7.510266304E0
3.711600959E1,1.531904936E0,1.751384735E-1,6.577618599E0
3.717600212E1,2.403947353E0,1.504769325E-1,4.020807266E0
3.723599459E1,3.075765133E0,-1.061072826E0,4.773533344E-1
3.729598718E1,3.592305183E-1,7.146592140E-1,-5.416631699E-1
3.735597961E1,-2.881376266E0,1.179181576E0,-4.308176041E-1
3.741597194E1,-4.205302238E0,1.805262804E0,-4.554595470E0
3.747596428E1,-2.379570007E0,1.419352293E-1,-6.647465229E0
3.753595687E1,1.604071617E0,-2.120956421E0,-3.636005402E0
3.759594960E1,-9.231085777E0,7.822310448E0,-8.536228180E0
3.765594220E1,-5.326303959E0,2.946610928E0,-1.670946360E0
3.771593470E1,1.104823971E1,-1.364844036E1,-5.378367901E-1
3.777592793E1,3.968473911E0,-1.685503006E0,5.791082382E0
3.783592203E1,2.406198978E0,4.464960098E-1,6.593475342E0
3.789591616E1,1.799001217E0,3.300065994E-1,2.279379129E0
3.795591042E1,4.325082779E0,5.540862083E-1,1.948151588E0
3.801590468E1,5.250167847E-1,-6.502866745E-2,5.731091499E-1
3.807589825E1,-4.385385513E-1,1.408166885E0,-8.186879158E-1
3.813589075E1,-1.644251823E0,1.144068480E0,-3.595692396E0
3.819588304E1,-6.241337299E0,3.821341991E0,-6.085601807E0
3.825587564E1,-7.968687534E0,2.385793686E0,-6.694892406E0
3.831586820E1,-3.721862316E0,6.084535122E0,-7.377399921E0
3.837586073E1,-1.314353943E-2,-5.143724918E0,5.277435303E0
3.843585326E1,4.648983955E0,-9.790101051E0,1.635164618E0
3.849584576E1,8.808351517E0,-2.607039452E0,6.031172752E0
3.855583802E1,6.524284840E0,-5.726556778E-1,5.480747223E0
3.861583042E1,4.373702526E0,-2.896327972E-1,2.384783745E0
3.867582298E1,5.862311840E0,3.521866798E-1,1.075506210E-3
3.873581555E1,1.836807251E0,-6.842579842E-1,-1.323951721E0
3.879580811E1,9.221124649E-2,-2.860190868E0,-3.311695814E0
3.885580088E1,-4.006090641E0,-1.102875948E0,-5.113156796E0
3.891579414E1,-1.662116051E1,4.689172745E0,-6.533094883E0
3.897578724E1,-1.274829292E1,1.266793728E1,-7.574361801E0
3.903578034E1,2.562029839E0,-1.305390835E0,5.093744278E0
3.909577337E1,-1.494038105E-1,-1.295972729E1,4.059109688E0
3.915576630E1,6.894853592E0,-3.620773315E0,3.737886667E0
3.921575860E1,4.329719067E0,-2.038510323E0,2.056647778E0
3.927575109E1,-9.131615162E-1,-7.965316772E-1,1.693895698E0
3.933574356E1,4.475944042E0,9.739265442E-1,2.164485216E0
3.939573615E1,2.185590267E0,-3.069286346E-1,7.509176731E-1
3.945572858E1,-8.135032654E-1,3.086084366E0,-3.230417728E0
3.951572115E1,1.758008003E-1,5.682365417E0,-4.170202255E0
3.957571341E1,-7.414817810E-3,1.242870140E1,2.840381384E0
3.963570581E1,-3.810350895E0,4.577571392E0,-2.003756285E0
3.969569827E1,-4.007270336E0,-6.749011517E0,-3.110556602E0
3.975569090E1,-1.193063927E1,-4.162876606E-1,-6.829294205E0
3.981568337E1,4.203133583E0,-6.021072865E0,3.968171120E0
3.987567596E1,-1.323225260E0,-1.371245861E1,-4.010505199E0
3.993566966E1,5.360923290E0,-2.036592484E0,4.966942310E0
3.999566399E1,1.332774639E0,-1.453798294E0,2.884684563E0
4.005565822E1,2.009606838E0,-1.960859299E0,3.376149416E0
4.011565256E1,2.279713154E0,3.547978401E-1,3.888861418E0
4.017564685E1,1.060126305E0,4.302172661E-1,2.483550072E0
4.023563995E1,-5.977883339E-1,1.570858479E0,-8.389282227E-1
4.029563228E1,-2.821544170E0,5.993888378E-1,-4.890655041E0
4.035562458E1,-4.383707047E-1,-1.043779492E0,-2.832069159E0
4.041561711E1,-1.149861813E1,-5.255956650E-1,-8.842775345E0
4.047560964E1,-1.010090542E1,5.613406897E-1,-7.263186932E0
4.053560217E1,-1.840668678E0,-3.289581299E0,1.057217598E0
4.059559463E1,9.531646729E0,-1.517831421E1,1.876631379E0
4.064567022E1,8.130577087E0,-3.942630768E0,3.245440483E0
4.070566249E1,4.840440750E0,-1.488698006E0,5.710911751E0
4.076565499E1,4.764199257E-1,-9.422302246E-4,2.624585629E0
4.082564752E1,2.810522556E0,-1.541634560E0,1.842904806E0
4.088564005E1,2.950913906E0,-1.028654099E0,-1.225280762E-1
4.094563251E1,2.636215687E0,5.492043495E-1,-1.093978643E0
4.100562554E1,-3.024451733E0,6.928300858E-1,-1.508956671E0
4.106561871E1,1.601426125E0,-1.740327358E0,-2.938971519E-1
4.112561177E1,-9.985932350E0,1.413453102E0,-6.183987617E0
4.118560490E1,-1.344007778E1,3.768009663E0,-8.637964249E0
4.124559803E1,-5.902680397E0,4.890155792E-2,-8.040418625E-1
4.130559066E1,1.135783768E1,-1.304839706E1,7.378561974E0
4.136558299E1,2.960768223E0,-5.902003288E0,4.354564667E0
4.142557549E1,5.152957439E0,-1.952610016E-1,7.481675625E0
4.148556802E1,2.041187763E0,1.070209980E0,4.238173008E0
4.154556055E1,2.592140198E0,-2.125715256E0,3.038057089E0
4.160555301E1,7.868776321E-1,-1.230497360E0,6.405410767E-1
4.166554554E1,-2.513716221E0,-1.043896198E0,-1.798505545E0
4.172553791E1,-3.578608036E0,9.748983383E-1,-2.241904974E0
4.178553034E1,-5.738102913E0,3.712482452E0,-5.185986042E0
4.184552280E1,6.183431149E0,7.476078510E0,-3.954013109E0
4.190551540E1,-1.335031891E1,7.397466660E0,-7.830820560E0
4.196550786E1,4.699834347E0,-1.435567188E1,1.317179585E1
4.202550056E1,4.532992840E-1,-1.191464043E1,-2.378758430E0
4.208549429E1,5.552191734E0,-2.295438766E0,2.247247219E0
4.214548882E1,3.685443640E0,2.318811417E-1,1.910760522E0
4.220548329E1,4.566203117E0,-6.186199188E-2,2.322512627E0
4.226547789E1,2.790199280E0,1.238621235E0,9.781320095E-1
4.232547219E1,-1.164380550E0,1.073218822E0,-8.323907852E-2
4.238546535E1,-3.472739220E0,1.467052937E0,-9.223663807E-1
4.244545772E1,-4.554008961E0,1.595175266E0,-2.154245615E0
4.250545031E1,-9.412585258E0,1.988441944E0,-9.940658569E0
4.256544278E1,-1.082389450E1,4.157213211E0,-6.391217709E0
4.262543531E1,-4.024564266E0,-3.875034809E0,9.984126091E-1
4.268542784E1,1.127027130E1,-1.416524220E1,3.942293882E0
4.274542034E1,1.014761353E1,-4.710076332E0,6.923388958E0
4.280541260E1,5.099436760E0,-1.331815720E-1,5.122013092E0
4.286540500E1,3.638116360E0,-8.047485352E-2,2.747839928E0
4.292539753E1,3.701346874E0,8.522973061E-1,1.268636465E0
4.298539006E1,3.001907349E0,5.939626694E-1,1.246762753E0
4.304538259E1,-1.240134239E-1,1.906885624E0,-1.798452139E0
4.310537512E1,-4.736687660E0,1.841216564E0,-4.073120594E0
4.316536868E1,-6.565742970E0,-9.322738647E-1,-5.087228298E0
4.322536295E1,-9.733528137E0,8.899111748E-1,-5.650048256E0
4.328535728E1,-5.171193123E0,-8.450398445E-1,-3.617342472E0
4.334535161E1,-1.142099857E0,-3.098623276E0,4.532919884E0
4.340534594E1,-8.785712719E-1,-5.717701912E0,-2.874515772E0
4.346533910E1,9.665607452E0,-2.103093147E0,6.508965492E0
4.352533150E1,5.974109650E0,7.284240723E-1,4.256258965E0
4.358532396E1,3.228305101E0,-4.684114456E-1,2.772538900E0
4.364531649E1,3.236390114E0,-6.699209213E-1,2.291670084E0
4.370530896E1,-3.125023842E-1,6.432442665E-1,1.525008678E0
4.376530155E1,-2.754266739E0,1.835284710E0,-4.941616058E-1
4.382529405E1,-3.021834850E0,1.180943370E0,-4.696208954E0
4.388528645E1,-3.553914070E0,-1.507635117E-1,-7.399353981E0
4.394527871E1,-3.301334620E0,1.733715892E0,-7.918546677E0
4.400527121E1,-7.597847939E0,4.834071159E0,-4.395394325E0
4.406526377E1,4.360332012E0,-1.018665123E1,8.970367432E0
4.412525634E1,-5.525317192E-1,-7.050123215E0,-1.523869753E0
4.418524880E1,7.481669426E0,-1.640295982E0,6.025581360E0
4.424524180E1,4.556534767E0,-3.000707626E-1,4.286770821E0
4.430523500E1,3.809208393E0,-2.335305214E0,2.577241659E0
4.436522809E1,1.260741711E0,-4.776606560E-1,-7.052562237E-1
4.442522116E1,-2.090770721E0,-1.784831524E0,-3.494996548E0
4.448521429E1,-4.836002350E0,2.961484432E0,-4.463189125E0
4.454520695E1,-5.506203651E0,4.825706482E0,-2.758584499E0
4.460519932E1,4.901526928E0,5.666221142E0,-5.584650993E0
4.466519178E1,-1.080505371E1,8.429890633E0,-4.873086452E0
4.472518431E1,2.342071533E0,-4.971732616E0,6.892389774E0
4.478517687E1,3.666965961E0,-1.036550522E1,-2.868685722E-1
4.484516940E1,6.455280781E0,-1.889188766E0,4.938934326E0
4.490516187E1,4.015137672E0,5.853738785E-1,4.989994049E0
4.496515413E1,2.948777199E0,-3.798704147E-1,3.146282673E0
4.502514653E1,3.051216602E0,-1.031560898E-1,2.165304661E0
4.508513906E1,5.536718369E-1,1.751744986E0,-1.164913177E-1
4.514513159E1,-2.762626410E0,2.993191242E0,-7.161607742E-1
4.520512412E1,-4.703444004E0,-6.143574715E-1,-5.394960403E0
4.526511692E1,2.225490093E0,-2.007841110E0,-2.708004475E0
4.532511082E1,-1.004999256E1,4.743771076E0,-1.043097115E1
4.538510515E1,-4.111062050E0,9.225687981E-1,-4.652285576E-1
4.544509941E1,1.242752266E1,-4.436721802E0,5.722545624E0
4.550509374E1,7.557715893E0,-6.329512596E0,4.328398705E0
4.556508781E1,7.209844589E0,-9.411067963E-1,6.890009880E0
4.562508070E1,2.451892614E0,-2.457990646E-1,3.675776243E0
4.568507294E1,4.462315083E0,-1.720137596E0,2.604057074E0
4.574506533E1,1.456892967E0,-4.903469086E-1,5.391492844E-1
4.580505783E1,-1.397632599E0,-2.210483551E-1,-4.121842384E-1
4.586505043E1,-4.011738777E0,1.591650724E0,-3.304837465E0
4.592504289E1,-7.140923500E0,3.746710777E0,-6.269435406E0
4.598503542E1,7.882914543E-1,4.158967972E0,-2.806692839E0
4.604502788E1,-1.113579273E1,1.335561275E1,-6.865938663E0
4.610502018E1,4.228145123E0,-7.074672699E0,7.955004215E0
4.616501258E1,1.096092939E0,-1.285045910E1,-2.553285360E0
4.622500514E1,7.322306633E0,-3.145159721E0,4.997572422E0
4.628499767E1,2.880668640E0,3.027992249E-1,2.466957808E0
4.634499024E1,3.676862717E0,1.112847805E0,3.530508757E0
4.640498344E1,3.604795456E0,3.975214958E-1,1.680637598E0
4.646497657E1,-1.102937222E0,-6.942648888E-1,-1.361275196E0
4.652496966E1,-3.817551374E0,3.240746498E0,-1.414622307E0
4.658496279E1,-4.722774506E0,3.253723621E0,-7.641422749E0
4.664495589E1,-1.813165188E0,4.091184616E0,-6.385157108E0
4.670494829E1,-9.718574524E0,9.750885963E0,-3.711151361E0
4.676494072E1,5.508893013E0,-5.891593933E0,5.905617237E0
4.682493322E1,4.694488049E0,-8.681939125E0,9.054477215E-1
4.688492575E1,5.788973808E0,-7.445240021E-1,5.213778973E0
4.694491821E1,4.386079788E0,2.842168808E-1,2.899330616E0
4.700491081E1,4.620759487E0,-7.950773239E-1,1.627889395E0
4.706490324E1,4.560652256E0,-4.055109024E-1,-4.525325298E-1
4.712489560E1,9.953446388E-1,-1.290820122E0,-2.945815086E0
4.718488797E1,-1.031013012E0,-1.009485245E0,-4.335634708E0
4.724488050E1,-5.309729576E0,2.277648449E-1,-1.878834248E0
4.730487296E1,-1.594010830E1,1.609377670E1,-1.368354225E1
4.736486559E1,-4.389863014E0,3.168892622E0,-9.635617733E-1
4.742485866E1,9.013595581E0,-1.395053101E1,4.065165520E0
4.748485282E1,6.145174026E0,-5.170771599E0,8.858324289E-1
4.754484736E1,7.784131050E0,-4.013433456E-1,2.709148884E0
4.760484189E1,2.957686186E0,1.685378075E0,9.184041023E-1
4.766483632E1,3.322705269E0,6.160731316E-1,1.267562866E0
4.772483032E1,-7.453813553E-1,7.635173798E-1,-5.701677799E-1
4.778482308E1,-1.405022144E0,1.395451784E0,3.829956055E-2
4.784481551E1,-3.887275219E0,3.569749832E0,-9.465775490E-1
4.790480804E1,-5.197849751E0,5.394219875E0,6.833791733E-1
4.796480051E1,-1.198841953E1,4.260601997E0,-5.670164108E0
4.802479297E1,-8.833041191E-1,-9.141036987E0,5.993413925E0
4.808466134E1,-1.848963976E0,-1.044149780E1,5.182360172E0
4.814465377E1,5.412431717E0,-3.501481056E0,3.716269493E0
4.820464604E1,6.417201996E0,-6.939315796E-1,3.723991394E0
4.826463857E1,3.126445293E0,-2.308721542E-1,2.111730576E0
4.832463103E1,2.497200489E0,-2.510619164E-1,4.217026234E-1
4.838462346E1,6.995196342E-1,-1.592688560E-1,-1.114164591E0
4.844461592E1,-4.629549026E0,2.683973312E0,-2.065604448E0
4.850460882E1,-6.709062576E0,1.327494144E0,-2.450732946E0
4.856460275E1,-1.391424179E0,-3.698408127E0,2.711099625E0
4.862459715E1,-9.535655975E0,9.207612038E0,-7.834602356E0
4.868459141E1,4.145767689E0,-7.468379974E0,5.010308266E0
4.874458581E1,2.483941793E0,-5.260848999E0,3.175640106E-2
4.880457977E1,5.662347794E0,-1.457297325E0,4.654387951E0
4.886457260E1,5.255468369E0,-3.087120056E-1,3.762749434E0
4.892456487E1,1.526485443E0,-8.874254227E-1,1.792900562E0
4.898455740E1,2.148718834E0,-1.490351677E0,1.689987183E0
4.904454986E1,3.537357330E0,-4.149280071E0,1.663182259E0
4.910454239E1,-3.899517775E0,1.850414753E0,-6.681296349E0
4.916453482E1,-5.938669682E0,3.053143024E0,-6.794730186E0
4.922452742E1,-3.585519314E0,-2.029751539E0,-7.754896641E0
4.928451975E1,-1.086897182E1,1.036335564E1,-6.779191017E0
4.934451208E1,4.159016609E0,-8.942957878E0,8.846952438E0
4.940450461E1,2.335867882E-1,-1.192638493E1,2.216056347E0
4.946449714E1,4.454219341E0,-2.330711365E0,4.452537537E0
4.952448961E1,4.252628326E0,-1.239052773E0,2.755274773E0
4.958448220E1,1.055405140E0,-8.500986099E-1,2.465071678E-1
4.964447547E1,4.275454521E0,-5.468993187E-1,1.429022312E0
4.970446863E1,-3.199424744E-1,4.114894867E-1,-1.571904659E0
4.976446180E1,-1.544998646E0,4.141339302E0,-3.884721518E0
4.982445486E1,-2.852174282E0,6.546693802E0,-4.069067001E0
4.988444796E1,-4.842683315E0,6.341379166E0,-4.405048370E0
4.994444036E1,-1.401419640E1,5.923455238E0,6.881528854E0
5.000443282E1,-2.527605057E0,3.469379425E0,6.147242069E0
5.006442525E1,7.415802479E0,-7.937219620E0,5.668425083E0
5.012441785E1,-1.236295700E-1,-6.774382591E0,-1.659635901E0
5.018441028E1,4.366312981E0,-1.908632278E0,3.600450039E0
5.024440281E1,1.220780373E0,-1.093660355E0,1.290931225E0
5.030439514E1,2.613911152E0,-3.614811897E-1,1.867993832E0
5.036438754E1,1.245868206E0,6.256093979E-1,1.718130112E-1
5.042438000E1,-1.304672718E0,3.034987926E0,-1.801796436E0
5.048437260E1,-3.411869049E0,2.526084423E0,-3.098086357E0
5.054436506E1,-4.754062653E0,1.878304601E0,-4.310299873E0
5.060435756E1,-9.161396027E0,3.836837530E0,-4.404012203E0
5.066435075E1,3.953356266E0,-1.751667976E0,-3.373559475E0
5.072434492E1,-1.007201195E0,-4.651673317E0,8.728570938E0
5.078433922E1,6.809648037E0,-8.381308556E0,8.909213543E-1
5.084433355E1,3.700887442E0,-1.595819473E0,1.006815195E0
5.090432788E1,3.545619011E0,1.937694550E-1,2.257517099E0
5.096432154E1,3.032307148E0,-6.872229576E-1,1.748474121E0
5.102431404E1,2.786758900E0,2.606048584E-1,1.850514412E0
5.108430634E1,-1.463902950E0,-3.947572708E-1,-9.779090881E-1
5.114429883E1,-3.952158451E0,8.533871174E-1,-1.491495371E0
5.120429136E1,-6.709864140E0,2.912865877E0,-5.703995705E0
5.126428383E1,-8.490139961E0,4.998497486E0,-9.105960846E0
5.132427649E1,7.513065338E-1,-4.212852478E0,-1.428114891E0
5.138426902E1,-4.119196415E0,-1.563348293E0,1.054368496E0
5.144426138E1,3.395912409E0,-1.049707699E1,3.391185522E0
5.150425372E1,1.056961250E1,-3.445168495E0,3.305706024E0
5.156424618E1,3.066268921E0,-1.510964394E0,4.471307755E0
5.162423858E1,5.670876503E0,4.488878250E-1,3.100370884E0
5.168423104E1,4.372041225E0,-4.040751457E-1,9.004383087E-1
5.174422387E1,-1.968431473E-1,-1.960294247E0,-1.398011208E0
5.180421714E1,-4.310823441E0,-1.463994980E0,-2.603981972E0
5.186421033E1,-3.700554609E0,-7.301397324E-1,-5.778860092E0
5.192420340E1,-4.367759228E0,1.280878305E0,-4.949885368E0
5.198419659E1,-1.003372002E1,1.067749596E1,-5.856440544E0
5.204418936E1,9.965395927E-1,-2.225331783E0,8.626752853E0
5.210418169E1,7.311974049E0,-4.477231026E0,3.199598312E0
5.216417412E1,6.033744812E0,-3.134969711E0,3.028652906E0
5.222416675E1,6.116910458E0,-1.611585617E-1,3.178637266E0
5.228415921E1,1.968685150E0,-1.537102699E0,1.451628923E0
5.234415178E1,3.023894787E0,-1.154047012E0,4.061183929E-1
5.240414431E1,-8.415536880E-1,-1.047766209E0,-1.098638535E0
5.246413667E1,-5.055917740E0,1.903346062E0,-2.673578739E0
5.252412890E1,-4.850406647E0,1.987411261E0,-3.585674286E0
5.258412140E1,-8.656349182E0,6.223915577E0,-1.002722359E1
5.264411390E1,-4.039335251E0,8.616595268E0,-7.262404919E0
5.270410643E1,3.161737442E0,-8.954110146E0,8.407833099E0
5.276409902E1,8.189249039E-2,-6.404229164E0,-6.107994556E0
5.282409266E1,8.555880547E0,-1.044357300E0,6.178469181E0
5.288408706E1,4.530797005E0,1.162562370E0,3.143056393E0
5.294408159E1,2.934889317E0,-7.017421722E-2,2.141811609E0
5.300407622E1,2.557700157E0,-1.204887867E0,1.002447605E-1
5.306407062E1,1.540993690E0,-4.858652592E0,-2.664712667E0
5.312406405E1,-3.567607880E0,1.086402416E0,-5.573046684E0
5.318405648E1,-3.652304888E0,4.144971848E0,-5.831616879E0
5.324404898E1,7.178145409E0,3.360239029E0,2.170382977E0
5.330404134E1,-1.163496876E1,1.210088634E1,-1.079074574E1
5.336403394E1,4.175919056E0,-8.264283180E0,5.760813713E0
5.342402640E1,4.571672916E0,-9.381230354E0,3.332907438E0
5.348401900E1,5.037548065E0,-1.712084770E0,3.686730385E0
5.354401130E1,5.364737034E0,-1.296732903E0,4.132263184E0
5.360400366E1,1.984694242E0,-2.690639496E-1,2.338130236E0
5.366399612E1,5.536145687E0,2.022829056E-1,2.538949490E0
5.372398872E1,4.542183876E-1,1.729116440E-1,-6.717605591E-1
5.378398118E1,2.624645233E-1,2.207786322E0,-2.427575827E0
5.384397378E1,-6.242318153E-1,1.369137049E0,-2.972251415E0
5.390396711E1,-1.330390739E1,7.676556110E0,-8.101611137E0
5.396396131E1,-7.008262157E0,-2.947421551E0,2.305002213E-1
5.402395557E1,-1.425652504E0,-3.889062881E0,6.911047459E0
5.408394997E1,3.247000217E0,-1.255591869E1,4.443857193E0
5.414394423E1,7.061288834E0,-3.641776085E0,4.805080891E0
5.420393773E1,2.599482536E-1,-5.211019516E-1,2.853840351E0
5.426393020E1,1.638763428E0,-6.650600433E-1,7.988014221E-1
5.432392263E1,2.084729195E0,5.324249268E-1,3.395643234E-1
5.438391509E1,5.065383911E-1,2.434099197E0,1.970305920E0
5.444390762E1,-3.003100395E0,4.433466434E0,1.235463142E0
5.450390015E1,-2.437217712E0,4.000823975E0,-1.553651094E0
5.456389268E1,-4.554175377E0,6.431362629E-1,-7.316722870E0
5.462388511E1,-8.564126968E0,1.439903498E0,-3.369112492E0
5.468387738E1,-6.894314766E0,1.373902798E0,-1.284040689E0
5.474386984E1,7.467123032E0,-7.293719292E0,2.833433390E0
5.480386237E1,2.714842796E0,-5.257056236E0,-1.843407750E0
5.486385490E1,5.734877586E0,-1.792324066E0,5.823116302E0
5.492384736E1,3.175293684E0,-3.556346893E-2,3.330185175E0
5.498384026E1,4.937498093E0,-8.992934227E-1,2.601715565E0
5.504383339E1,1.536855221E0,4.118733406E-1,8.077306747E-1
5.510382652E1,-2.495786190E0,1.521673441E0,2.791166306E-2
5.516381959E1,-2.884237289E0,2.681592226E0,-2.649759054E0
5.522381285E1,-3.414493084E0,9.891395569E-1,-8.264049530E0
5.528380561E1,-4.700974464E0,-2.080278635E0,-5.808013439E0
5.534379801E1,-6.634886742E0,1.787000895E0,-3.510837555E0
5.540379048E1,6.437525272E0,-3.912239552E0,3.417483807E0
5.546378301E1,-2.695040941E0,-4.592760086E0,-4.535686493E0
5.552381080E1,5.497547150E0,-7.180185318E-1,4.797774315E0
5.558380339E1,4.292848587E0,-2.974996567E-1,4.086016655E0
5.564379586E1,2.399277210E0,-1.180364609E0,2.367892981E0
5.570378822E1,4.497807980E0,-2.993766785E0,3.101539373E0
5.576378059E1,-9.598288536E-1,-5.890846252E-3,2.818983793E0
5.582377312E1,-4.222998142E0,2.970382690E0,-1.160380363E0
5.588376558E1,-5.530448914E0,2.616885900E-1,-5.195946693E0
5.594375811E1,-1.741438389E0,-3.540522575E0,-1.355733871E0
5.600375067E1,-8.021490097E0,1.938381910E0,-7.825411797E0
5.606374444E1,-3.034352779E0,1.991252899E0,5.678281784E-1
5.612373877E1,5.284935474E0,-6.038551331E0,2.882139921E0
5.618373303E1,5.971672535E0,-5.252737045E0,-4.897358418E-1
5.624372736E1,6.736320496E0,-8.938837051E-1,3.579043388E0
5.630372163E1,8.962135315E-1,4.893631935E-1,1.795908928E0
5.636371472E1,4.801572323E0,-9.366021156E-1,1.830363274E0
5.642370699E1,1.824465275E0,1.665405273E0,1.314306498E0
5.648369942E1,1.560481548E0,3.314892769E0,-1.313629866E0
5.654369188E1,1.241529465E0,-3.383080959E-1,-6.274812222E0
5.660368441E1,-1.284469414E1,2.686954737E0,-8.007560730E0
5.666367684E1,-2.045574570E1,6.478390694E-1,-1.869365692E0
5.672366944E1,-5.129629612E0,-4.665356636E0,2.153293610E0
5.678366187E1,2.150031090E0,-2.140166092E1,7.527203560E0
5.684365430E1,8.737161636E0,-5.028589249E0,2.344100952E0
5.690364667E1,1.174701691E0,-2.442276955E0,4.792414665E0
5.696363920E1,5.960903645E0,-1.315856934E0,3.135690451E0
5.702363166E1,3.289510727E0,-1.200727940E0,-1.940323114E0
5.708362426E1,1.029644012E0,2.026069164E0,-2.266436577E0
5.714361725E1,-2.098808765E0,5.435198784E0,-2.878990173E0
5.720361049E1,-3.961244106E0,4.839468956E0,-1.790742874E0
5.726360362E1,-6.401517391E0,2.961261511E0,-3.813460112E0
5.732359674E1,-7.964714527E0,4.707079887E0,1.578346968E0
5.738358981E1,-2.505008459E0,-3.281423569E0,6.028686047E0
5.744358237E1,6.892366409E0,-5.087687492E0,6.332235336E-1
5.750357471E1,2.193927288E0,-9.286327362E0,-2.823688030E0
5.756356724E1,7.036154270E0,-1.609648705E0,4.452658653E0
5.762355976E1,4.495955467E0,-1.022670746E0,2.059178114E0
5.768355223E1,3.220840931E0,-6.530303955E-1,1.497779846E0
5.774354476E1,-1.214504242E-2,8.019599915E-1,1.936984062E-1
5.780353729E1,-3.358940840E0,1.744578362E0,1.705408096E-1
5.786352965E1,-3.317600727E0,2.402926683E0,-3.984389305E-1
5.792352198E1,-5.366592407E0,2.737176418E0,-4.028200626E0
5.798351458E1,-6.753901005E0,1.192540646E0,-2.380291700E0
5.804350704E1,-5.364745140E0,4.716192245E0,-4.813021660E0
5.810349957E1,9.082698822E0,-1.293514252E1,1.152405930E1
5.816349241E1,-8.976975441E0,-1.337711334E1,-3.329082012E0
5.822348647E1,4.660188675E0,-5.684414864E0,3.163327456E0
5.828348094E1,2.930182219E0,-2.319935799E0,1.478767872E0
5.834347557E1,2.087696075E0,-6.647510529E-1,6.369018555E-1
5.840347004E1,2.661662102E0,9.685845375E-1,1.202895164E0
5.846346417E1,8.029699326E-1,1.671243668E0,-1.078295708E-1
5.852345710E1,-3.895036221E0,3.403244972E0,-7.501103878E0
5.858344960E1,-5.639415264E0,4.902957916E0,-2.486145735E0
5.864344203E1,-8.272633553E0,1.002351952E1,-1.058588696E1
5.870343456E1,7.688059807E-1,-3.353836536E0,4.000898361E0
5.876342709E1,3.279976130E0,-8.393252373E0,9.581637383E-1
5.882341962E1,1.050590706E1,-4.763280869E0,3.192901611E-3
5.888341198E1,4.269309521E0,-1.574485779E0,3.279876947E0
5.894340431E1,4.569785595E-1,-1.412243843E0,1.124557257E0
5.900339674E1,2.157678604E0,-1.547331810E0,-6.339828968E-1
5.906338927E1,3.014636040E-1,6.925630569E-2,-4.153041840E-1
5.912338180E1,2.809000015E-2,1.982775211E0,-6.623501778E-1
5.918337433E1,-4.249386787E-1,6.554207802E-1,-9.763927460E-1
5.924336703E1,-2.903877735E0,6.301827431E-1,-4.447443962E0
5.930336079E1,-1.087215900E1,4.179798603E0,-7.216135502E0
5.936335512E1,-8.606369019E0,4.358595848E0,-8.670427322E0
5.942334945E1,1.567297935E0,-4.691959381E0,5.351245880E0
5.948334378E1,9.314080238E0,-5.584873199E0,-2.174731731E0
5.954333788E1,8.065393448E0,-2.169980049E0,4.519342899E0
5.960333088E1,5.451534271E0,-1.261683464E0,3.313338757E0
5.966332321E1,1.459574223E0,-1.903388023E0,9.881350994E-1
5.972331564E1,3.697370529E0,-6.688871384E-1,2.927947998E0
5.978330814E1,-1.586115360E0,5.332665443E-1,-7.340970039E-1
5.984330074E1,-1.247615814E0,3.298687935E-1,-3.092948675E0
5.990329323E1,-2.856579781E0,2.589091301E0,-4.994504929E0
5.996328580E1,-8.041863441E-1,5.641877174E0,2.836737633E-1
6.002327816E1,-9.321855545E0,6.979401588E0,-7.094822884E0
6.008327053E1,-6.102196217E0,1.921374083E0,-1.898051977E0
6.014326296E1,4.282027721E0,-5.348392487E0,1.994665623E0
6.020325552E1,6.876371384E0,-1.265422440E1,3.772254944E0
6.026324795E1,6.583654881E0,-2.205427170E0,3.849677563E0
6.032324051E1,5.261320591E0,-2.524747849E-1,3.771429777E0
6.038323361E1,4.688166618E0,-9.003734589E-2,4.134252071E0
6.044322684E1,3.505845547E0,2.018404007E-1,1.854875565E0
6.050321991E1,1.747854710E0,7.818236351E-1,-2.136075258E0
6.056321304E1,-1.850569248E0,1.146535873E0,-4.161821365E0
6.062320613E1,-4.317055225E0,3.023997784E0,-4.282494068E0
6.068319863E1,-4.800974846E0,2.888250351E-1,-3.587317705E0
6.074319103E1,-6.135191917E0,-2.451726198E0,1.603949070E0
6.080318356E1,-1.251411057E1,6.785674095E-1,-5.450080872E0
6.086317612E1,3.198756218E0,-8.096072197E0,7.026318550E0
6.092316865E1,2.762027025E0,-1.052189255E1,1.514686108E0
6.098316118E1,3.804424763E0,-2.686414719E0,4.716296196E0
6.104315352E1,3.601944923E0,-2.090795517E0,3.775105953E0
6.110314585E1,5.052637100E0,-8.612489700E-2,2.878695726E0
6.116313828E1,2.938519955E0,-4.673271179E-1,2.306766510E0
6.122313084E1,1.584272861E0,5.699701309E0,2.052459955E0
6.128312334E1,-1.695803642E0,4.664540291E0,-8.779008389E-1
6.134311594E1,-3.662912369E0,6.527553797E-1,-3.519970417E0
6.140310887E1,-3.714150429E0,4.468848407E-1,-2.427537918E0
6.146310290E1,-1.174398613E1,2.086711884E0,-6.967232704E0
6.152309713E1,-7.764741421E0,3.911414146E-1,-3.009484053E0
6.158309153E1,5.828025818E0,-9.034358025E0,5.104619026E0
6.164308576E1,5.310263634E0,-1.004260349E1,2.301060677E0
6.170307969E1,9.038677216E0,-2.623517990E0,7.975118637E0
6.176307232E1,4.404135704E0,1.770782471E-2,3.391795158E0
6.182306465E1,2.833174706E0,-1.774277687E0,2.298789501E0
6.188305705E1,7.288284302E-1,4.437484741E-1,2.316567659E0
6.194304968E1,-3.594943285E0,-4.441766739E-1,1.036012173E0
6.200304214E1,-4.617157936E0,-5.359976292E-1,-2.503551722E0
6.206303467E1,-4.857100487E0,7.923483849E-2,-5.171319962E0
6.212302720E1,2.477456093E0,3.876233101E-2,-3.526803493E0
6.218301963E1,-8.706014633E0,5.848021507E0,-8.122450829E0
6.224301190E1,-4.975986481E-1,-2.166689396E0,3.322531223E0
6.230300439E1,7.533104420E0,-1.082485485E1,1.935817957E0
6.236299692E1,2.876849413E0,-3.844308853E-1,7.060444832E0
6.242298945E1,7.966418266E0,6.563587189E-1,8.246873856E0
6.248298212E1,4.287261486E0,6.437406540E-1,4.229123116E0
6.254297538E1,5.426384926E0,2.740650177E-1,1.179047346E0
6.260296855E1,1.593252659E0,1.288676262E-1,1.056002617E0
6.266296164E1,-1.810913086E0,4.262931347E0,-1.134593010E0
6.272295478E1,-2.550544739E0,4.592161179E0,-1.684494495E0
6.278294764E1,-4.980409622E0,1.599277258E0,-6.692930222E0
6.284294004E1,-1.405708790E0,-5.685799122E-1,-5.219091415E0
6.290293240E1,-8.441868782E0,3.576039314E0,-6.724434853E0
6.296287568E1,-2.904176712E-2,-4.471767902E0,5.098754406E0
6.302286815E1,3.304970026E0,-8.255620003E0,3.694905758E0
6.308286074E1,7.626711845E0,-1.646152496E0,7.575441360E0
6.314285320E1,3.487538576E0,6.609640121E-1,6.475677490E0
6.320284570E1,3.751856804E0,-1.201610565E-1,5.347450256E0
6.326283797E1,4.366278172E0,-1.289717674E0,2.476054430E0
6.332283053E1,4.312825203E-1,-6.122760773E-1,-1.281502247E0
6.338282306E1,-3.672283888E0,-8.384186745E0,-2.394934416E0
6.344281566E1,-3.831290722E0,-2.543908119E0,-6.547181129E0
6.350280812E1,4.593371391E0,7.739457130E0,6.455893517E-1
6.356280159E1,-1.640855408E1,1.344215393E1,-1.155085659E1
6.362279582E1,-9.531097412E0,5.944252968E0,-9.105539322E-1
6.368279028E1,1.591238594E1,-2.195418930E1,8.754776001E0
6.374278478E1,5.152348995E0,-6.363816261E0,2.195420742E0
6.380277932E1,6.692674637E0,-4.734449387E-1,4.469449997E0
6.386277291E1,2.043629646E0,1.387939453E-1,1.413676977E0
6.392276551E1,1.979867935E0,-2.124983788E0,1.728112698E0
6.398275804E1,1.465649605E0,-2.510975838E0,6.597671509E-1
6.404275047E1,-3.495833397E0,-9.580664635E-1,-5.381023884E-1
6.410274300E1,-6.214834213E0,3.595970631E0,-1.873894215E0
6.416273553E1,-5.327812195E0,3.703333855E0,-6.283334732E0
6.422272806E1,-2.277679443E-1,2.049388409E0,-5.845967293E0
6.428272043E1,-1.156854820E1,5.779240608E0,-5.758592129E0
6.434271282E1,5.070209980E0,-7.930545330E0,8.750107765E0
6.440270529E1,7.396233082E-1,-1.202614880E1,-2.176978588E-1
6.446269782E1,8.397436142E0,-2.141657829E0,4.704914093E0
6.452269035E1,6.134524345E-1,-8.111305237E-1,1.640921235E0
6.458268285E1,4.698042393E0,-1.168459415E0,1.703990221E0
6.464267591E1,3.374437809E0,2.137172222E0,1.012206078E0
6.470267004E1,-3.593621254E-1,4.591086864E0,-9.204685688E-1
6.476266430E1,-4.222888947E0,1.248203039E0,-2.386876345E0
6.482265867E1,-6.832066536E0,-6.064647436E-1,-2.269681692E0
6.488265293E1,-1.205675411E1,3.854025602E0,-8.802303314E0
6.494264673E1,-9.536012650E0,2.024916887E0,-1.104011536E-1
6.500263926E1,2.632331848E0,-1.005948448E1,7.435682774E0
6.506263166E1,1.017511749E1,-7.737472534E0,5.198951244E0
6.512262409E1,1.689786434E0,-2.989701271E0,3.583613634E-1
6.518261662E1,3.285670280E0,6.948070526E-1,4.548110485E0
6.524260908E1,4.595151901E0,1.288986206E-2,2.525913954E0
6.530260168E1,3.061147213E0,-3.233628273E-1,2.483747005E-1
6.536259414E1,1.079760551E0,-2.345976830E-1,2.053184032E0
6.542258647E1,-5.446121216E0,-8.917896748E-1,-1.506069660E0
6.548257884E1,-9.154058456E0,2.054574728E0,-6.338095188E0
6.554257137E1,-4.806925774E0,1.488751769E0,-7.158036232E0
6.560256383E1,-4.581408501E-1,1.428274512E0,-5.291762352E-1
6.566255636E1,-7.393307686E0,7.400956631E0,-3.819182158E0
6.572254906E1,5.453532696E0,-9.811062813E0,7.576328278E0
6.578254236E1,7.119049072E0,-4.630396843E0,3.784185648E0
6.584253549E1,4.936701298E0,-2.395593643E0,4.750313759E0
6.590252859E1,8.831448555E-1,-6.897058487E-1,1.974329710E0
6.596252172E1,3.499791145E0,-5.385661125E-1,2.969666958E0
6.602251468E1,2.485815525E0,3.441505432E-1,1.573442936E0
6.608250701E1,-8.959264755E-1,2.045941353E-1,-9.873692989E-1
6.614249944E1,-2.094692230E0,2.775716305E0,-4.041474342E0
6.620249201E1,-4.717122078E0,2.411379337E0,-5.146773815E0
6.626248450E1,-1.756839180E1,7.104282856E0,1.162214279E-1
6.632247703E1,-3.488965511E0,1.197086334E1,-6.589015007E0
6.638246950E1,6.970615387E0,-1.705721283E1,9.844173431E0
6.644246193E1,4.849113464E0,-7.660754204E0,3.042877197E0
6.650245426E1,2.120424747E0,-2.809259415E0,5.923342705E0
6.656244682E1,2.357222080E0,1.209192276E-1,3.980450869E0
6.662243929E1,2.822634220E0,-4.090456963E-1,9.790344238E-1
6.668243182E1,1.538259983E0,-4.509558678E-1,-6.244673729E-1
6.674242431E1,-1.277387142E0,3.399848938E0,-7.234156132E-1
6.680241781E1,-5.239104271E0,4.539326668E0,-4.841694355E0
6.686241201E1,-5.859212875E0,-1.614032507E0,-6.281618118E0
6.692240637E1,-1.400333214E1,-6.063873768E-1,-8.568291664E-1
6.698240070E1,-9.575156212E0,-3.555698872E0,5.091400146E-1
6.704239500E1,3.197312832E0,-9.074874878E0,7.244501114E0
6.710238830E1,8.493964195E0,-1.076638794E1,6.281515121E0
6.716238070E1,7.849057674E0,-7.875785828E-1,5.537501335E0
6.722237299E1,4.364187717E0,1.289671421E0,3.325294018E0
6.728236552E1,5.323559284E0,-9.157652855E-1,2.496390820E0
6.734235805E1,2.042444229E0,-2.771806717E-1,1.672444344E-1
6.740235052E1,2.715834618E0,-1.406999588E0,-3.292308807E0
6.746234305E1,-4.458505630E0,8.332726955E-1,-6.630882740E0
6.752233558E1,-5.492646694E0,1.213983774E0,-6.428731441E0
6.758232791E1,-3.936398745E0,2.794871330E-1,-7.162729263E0
6.764232024E1,-1.138271332E1,1.725216627E0,-3.897434711E0
6.770231284E1,2.303852558E0,5.580329895E-2,5.236817360E0
6.776230530E1,2.673427582E0,-1.220452690E1,1.876735687E0
6.782229783E1,7.732154369E0,-2.216276169E0,6.330040932E0
6.788229073E1,2.519899368E0,2.423257828E-1,4.285366058E0
6.794228409E1,3.191234589E0,-1.607711792E0,3.688468218E0
6.800227716E1,1.739542961E0,-1.735471725E0,1.130505323E0
6.806227035E1,-6.584534645E-1,-5.493164062E-4,-2.412637949E0
6.812226342E1,-3.988065243E0,1.585301876E0,-3.683499575E0
6.818225612E1,-3.761571407E0,3.765064716E0,-2.345978260E0
6.824224838E1,-9.597235680E0,1.475003719E0,-4.039113998E0
6.830224098E1,-1.162048340E1,8.976862907E0,-4.676462173E0
6.836223348E1,-1.666719913E0,1.390615940E0,1.289971352E0
6.842222601E1,1.143076706E1,-1.304300117E1,9.187952042E0
6.848221854E1,8.602989197E0,-4.461392403E0,4.988797665E0
6.854221103E1,2.915906906E0,-5.481033325E-1,3.209250689E0
6.860220330E1,3.763403893E-1,2.764225006E-2,1.545233011E0
6.866219560E1,3.534767151E0,-9.410977364E-1,1.910778046E0
6.872218812E1,-2.466335297E-1,1.306295395E0,1.111739159E0
6.878218069E1,-2.643789768E0,5.153877735E0,2.686533928E-1
6.884217322E1,-4.207682610E0,2.333148241E0,-3.843122005E0
6.890216588E1,1.283835411E0,9.961562157E-1,3.453297615E-1
6.896215978E1,-1.149356461E1,2.412620306E0,-5.568425655E0
6.902215425E1,-2.811372757E0,-2.005639076E-1,-7.619907856E-1
6.908214875E1,5.588774681E0,-1.941926956E0,4.877910614E0
6.914214321E1,8.218286514E0,-9.540084839E0,3.967154503E0
6.920213761E1,5.542407036E0,-4.504470825E-1,3.828420401E0
6.926213071E1,3.201625347E0,-8.039789200E-1,2.956997156E0
6.932212318E1,2.003301144E0,-1.566234112E0,9.772837162E-1
6.938211561E1,2.684244156E0,-1.862966537E0,-5.516479015E-1
6.944210820E1,-2.563360214E0,9.496195316E-1,-2.102106333E0
6.950210067E1,-3.786817551E0,7.390327454E0,-2.430585861E0
6.956209326E1,-8.330883980E0,5.500847340E0,-3.618265629E0
6.962208566E1,-1.579850197E1,7.712764740E0,-9.356840134E0
6.968207809E1,-5.640651703E0,-3.026332855E-1,3.101258278E-1
6.974207049E1,2.906457901E0,-1.293196106E1,7.840259552E0
6.980206309E1,1.044045448E1,-1.047754192E1,3.739315033E0
6.986205555E1,3.942577124E0,-2.162701607E0,1.141310930E0
6.992204811E1,2.373959541E0,-2.244281769E-1,8.486762047E-1
6.998204064E1,2.952279568E0,8.615942001E-1,4.763605595E-1
7.004203421E1,-2.396497726E-1,-1.067006588E0,5.587735176E-1
7.010202841E1,-7.853469849E-1,6.723759174E-1,-1.485864639E0
7.016202280E1,-4.724442482E0,2.560809851E0,-5.407267570E0
7.022201710E1,1.030558586E0,3.418118000E0,1.023010826E1
7.028201136E1,-1.519929504E1,1.220563221E1,-9.794197083E0
7.034200460E1,-6.418519020E-1,-3.236877441E0,3.186029911E0
7.040199699E1,6.778276443E0,-9.450201988E0,2.731381416E0
7.046195373E1,1.107215977E1,-6.405677795E0,4.039973736E0
7.052194626E1,5.861302376E0,-1.400718689E0,4.464794636E0
7.058193879E1,3.351014137E0,-1.502948761E0,2.042813063E0
7.064193125E1,3.297099113E0,-1.356904984E0,2.623934746E-1
7.070192378E1,-3.792471886E-1,1.182879925E0,1.934051514E-1
7.076191618E1,-5.878782272E-1,3.399145603E0,-2.638381958E0
7.082190851E1,-3.139708281E0,1.644130230E0,-5.098179817E0
7.088190101E1,-7.998095989E0,-2.600234985E0,-5.071519852E0
7.094189354E1,-5.888096809E0,1.327536821E0,-2.551217556E0
7.100188600E1,-3.431018353E0,-2.838800430E0,-1.337506771E0
7.106187860E1,2.026101589E0,-2.946336746E0,6.753006458E0
7.112187160E1,1.456949472E0,-9.866249084E0,-7.758641243E-2
7.118186476E1,7.857513428E0,-2.239701271E0,6.941123009E0
7.124185783E1,5.697882652E0,-2.367410660E-1,3.057892084E0
7.130185102E1,3.778158188E0,-1.584740639E0,1.837521076E0
7.136184412E1,2.887344837E0,-7.505254745E-1,1.563141584E0
7.142183682E1,-1.767585278E0,-2.653008461E0,-1.989220858E0
7.148182911E1,-5.623897552E0,-3.474241257E0,-8.127604485E0
7.154182164E1,-1.410328293E1,3.605447054E0,-8.046254158E0
7.160181411E1,1.055943871E1,-2.817481995E0,-9.865728378E0
7.166180667E1,-4.994288445E0,3.772943020E0,4.135662079E0
7.172179910E1,9.330704689E0,-2.291546631E1,5.302221298E0
7.178179160E1,8.116313934E0,-4.413702965E0,1.650536537E0
7.184178393E1,3.487953424E0,1.772108078E-1,2.082258701E0
7.190177633E1,2.626902580E0,2.178726196E-1,1.996219635E0
7.196176879E1,1.746768475E0,3.648490906E-1,-5.116438866E-1
7.202176132E1,5.363135338E-1,3.733085394E0,-1.386583328E0
7.208175385E1,5.433039665E-1,5.716551781E0,-1.568947792E0
7.214174658E1,-4.043221951E0,7.398443222E-1,-4.817458153E0
7.220174055E1,-1.107704449E1,5.724163055E0,-2.295383453E0
7.226173481E1,-1.067208862E1,3.063064098E0,-6.066324711E0
7.232172914E1,5.146335602E0,-1.731510735E1,1.182041836E1
7.238172347E1,-1.850811481E0,-9.896291733E0,-4.144949913E0
7.244171760E1,3.156415462E0,-4.221959114E0,7.194362164E0
7.250171037E1,4.611434937E0,2.138643265E-1,2.982933998E0
7.256170273E1,2.017505169E0,1.307899475E0,2.253575325E0
7.262169510E1,2.556248665E0,-4.607753754E-1,1.722312927E0
7.268168763E1,-2.422801495E0,-1.322846413E0,-2.647914886E0
7.274168009E1,-1.021525574E1,3.164546013E0,-4.930143356E0
7.280167268E1,-1.173654175E1,1.760304451E1,-1.020609283E1
7.286166518E1,2.386293411E-1,-1.340969467E1,7.056040764E0
7.292165771E1,1.863805294E0,-1.071942997E1,-1.003242731E0
7.298164998E1,7.255295277E0,2.934104919E0,5.760369301E0
7.304164244E1,7.511687279E0,-6.897640228E-2,5.486240387E0
7.310163490E1,2.979343653E0,-1.958766937E0,2.498370171E0
7.316162750E1,3.265445232E0,-1.586562157E0,6.154680252E-1
7.322162000E1,2.878665924E-1,1.460219383E0,-6.528856754E-1
7.328161326E1,-4.347313881E0,2.473689079E0,-4.915617943E0
7.334160646E1,8.222162247E0,7.374033928E-1,-1.030859947E0
7.340159959E1,-1.461151505E1,1.364774704E1,-1.325266075E1
7.346159266E1,3.413747787E0,-6.508110046E0,3.559102297E0
7.352158572E1,4.545153618E0,-1.221425152E1,1.507844329E0
7.358157812E1,4.297827244E0,-3.532459259E0,7.465016842E0
7.364157048E1,3.134546280E0,-5.592775345E-1,4.385864735E0
7.370156301E1,3.938255310E0,-6.945981979E-1,2.950081825E0
7.376155548E1,3.200706482E0,-4.535427094E-1,2.225387812E0
7.382154801E1,1.352620125E-1,-4.262080193E-1,1.514506340E0
7.388154054E1,-2.879110575E0,1.356851101E0,-2.171446562E0
7.394153303E1,-1.296582317E1,7.429169655E0,-1.708220100E1
7.400152530E1,-4.058490753E0,1.446721077E0,-1.146340132E0
7.406151779E1,1.646434784E0,-2.867110252E0,2.397410393E0
7.412151026E1,4.511548042E0,-1.065734196E1,4.606831074E0
7.418150279E1,2.299819469E0,5.168724060E-2,2.277895927E0
7.424149525E1,6.205568790E0,-2.217605591E0,3.654463291E0
7.430148845E1,2.042370558E0,-2.857588768E0,1.601209641E0
7.436148258E1,3.474123955E0,-2.610570908E0,1.639562368E0
7.442147698E1,1.363848209E0,-8.092784882E-1,-7.989070415E-1
7.448147127E1,-1.043438911E0,1.243980169E0,-4.092769623E0
7.454146560E1,-4.731962681E0,2.874348402E0,-8.780849457E0
7.460145930E1,-1.821488571E1,8.968968391E0,-7.599977970E0
7.466145193E1,-7.607391834E0,1.906422043E1,-1.473060369E0
7.472144420E1,4.598704815E0,-2.709806442E1,7.607723236E0
7.478143660E1,6.485137939E0,-6.963459969E0,2.355707407E0
7.484142912E1,2.755095243E0,-4.312438011E0,2.001741886E0
7.490142162E1,7.756447792E-1,4.133415222E-2,-5.997960567E-1
7.496141409E1,3.727721691E0,1.332321644E0,1.870214462E0
7.502140672E1,3.642162323E0,1.050373077E0,2.352895260E0
7.508139915E1,3.274498463E0,-9.468002319E-1,-1.417270422E0
7.514139148E1,-4.500401497E0,7.184469700E-1,-3.844488382E0
7.520138401E1,-1.230011940E1,1.087209582E0,-1.134420586E1
7.526137654E1,-1.075108719E1,5.578712463E0,-9.235019684E0
7.532136897E1,-9.463975906E0,4.756814480E0,-9.893998146E0
7.538136170E1,1.016574001E1,-2.407720566E1,9.615854263E0
7.544135503E1,8.023487091E0,-7.040405273E0,4.365485191E0
7.550134816E1,5.714694023E0,-5.169620514E-1,3.979270935E0
7.556134129E1,2.282575130E0,6.467914581E-2,1.073842525E0
7.562133432E1,4.679991245E0,2.125440121E0,1.219530344E0
7.568132725E1,2.197590828E0,2.706969261E0,1.264024258E0
7.574131958E1,1.013274193E0,4.579651356E0,-3.431506157E-1
7.580131198E1,-1.221018791E0,-7.883586884E-1,-2.825373173E0
7.586130448E1,-1.132330036E1,4.384900093E0,-1.093784142E1
7.592129711E1,-9.835662842E0,1.894740582E0,-6.191845894E0
7.598128957E1,5.197339535E0,-3.705790043E0,3.480198860E0
7.604128214E1,3.901194572E0,-9.757523537E0,-7.555075884E-1
7.610127454E1,6.405042171E0,-3.192996979E-1,3.694744349E0
7.616126690E1,1.284714699E0,3.090291023E-1,3.221415043E0
7.622125933E1,3.832362175E0,-7.819414139E-2,2.532403231E0
7.628125193E1,2.261278629E0,1.378660679E0,4.870033264E-1
7.634124436E1,-1.958441734E-1,3.309586763E0,-1.054797173E0
7.640123702E1,-3.647645473E0,2.909386635E0,-2.606004715E0
7.646123055E1,-4.926390648E0,-1.651430130E-1,-4.845386505E0
7.652122495E1,-1.044849110E1,-2.352004766E0,-1.311015892E1
7.658121942E1,3.391056061E-1,-3.062571526E0,1.055706978E0
7.664121395E1,-7.047157288E0,3.794168234E0,-1.378142357E0
7.670120835E1,9.064519882E0,-1.635030746E1,4.657400131E0
7.676120182E1,7.476819992E0,-2.920516968E0,3.075888872E0
7.682119431E1,4.566043854E0,6.171693802E-1,2.397386074E0
7.688118681E1,5.793977737E0,-3.033823967E0,2.129623652E0
7.694117938E1,4.363408089E-1,1.024194241E0,-1.502545834E0
7.700117191E1,-4.073547840E0,3.828611612E0,-2.940932751E0
7.706116444E1,-5.289274693E0,3.112964630E0,-4.981267452E0
7.712115690E1,-9.023537636E0,-3.446758509E0,-2.637501001E0
7.718114926E1,-1.823224545E0,-3.322703362E0,-8.908338547E-1
7.724114156E1,-2.631534815E0,1.763677597E0,3.256616592E-1
7.730113406E1,3.099820137E0,-1.298727417E1,4.012442589E0
7.736112652E1,5.475115776E0,-3.350078583E0,2.544032574E0
7.742111912E1,3.939334869E0,-1.809532166E0,3.874577999E0
7.748111158E1,3.971403599E0,-1.135969162E0,3.144641638E0
7.754110485E1,2.324657440E-1,-5.828499794E-1,1.135890484E-1
7.760109898E1,-2.374487400E0,3.056381941E0,-1.480560541E0
7.766109338E1,-3.588135719E0,2.616146564E0,-4.287468910E0
7.772108781E1,-1.207328510E1,3.369308949E0,-1.073889542E1
7.778108220E1,2.533903122E-1,-1.227681732E1,-5.716320038E0
7.784097969E1,3.434418678E0,-7.482278824E0,3.360381842E0
7.790097219E1,-1.707706809E0,-8.066483498E0,-1.486282587E0
7.796096449E1,6.232561588E0,4.680032730E-1,5.315007687E0
7.802095692E1,4.286281586E0,-2.167563438E0,2.853017569E0
7.808094938E1,4.094710350E0,-2.901447296E0,2.593174696E0
7.814094191E1,3.241760731E0,-3.657841682E-1,1.800388336E0
7.820093444E1,-2.174482346E0,3.958024979E-1,-1.112647057E-1
7.826092694E1,-4.286637306E0,3.462805271E0,-3.146362305E-1
7.832091920E1,-1.079123211E1,2.594820738E0,-1.070485306E1
7.838091153E1,4.597229958E0,2.460891962E0,-1.474356270E1
7.844090406E1,-1.926938772E0,3.005829096E0,-1.842508554E0
7.850089659E1,3.372157812E0,-1.021408558E1,5.440368652E0
7.856088916E1,4.856426239E0,-3.362583160E0,1.876973629E0
7.862088192E1,1.214582205E0,-5.265731812E-1,3.564297438E0
7.868087526E1,5.104768276E0,-2.077696800E0,2.732574940E0
7.874086838E1,5.631890774E0,-3.767557144E-1,-1.851465702E-1
7.880086152E1,5.306606293E-1,-1.398249626E0,-1.569330692E0
7.886085455E1,-6.743209839E0,-1.545433521E0,-5.430658340E0
7.892084748E1,-1.147502327E1,2.591959476E0,-8.104935646E0
7.898083974E1,-1.372030067E1,6.145736217E0,5.401211739E0
7.904083224E1,-1.358162880E0,3.542130947E0,3.781336069E0
7.910082470E1,1.325197220E0,-5.548076630E-1,-1.381640434E0
7.916081730E1,5.425256729E0,-5.354793549E0,-1.208149910E0
7.922080973E1,7.625475883E0,-4.014129639E-1,6.455638885E0
7.928080233E1,5.244588852E0,-1.633558273E-1,4.243721485E0
7.934079466E1,5.915689945E0,-1.028869152E0,2.686340570E0
7.940078702E1,9.496469498E-1,-2.936773300E-1,-1.084817171E0
7.946077945E1,-8.807501793E-1,-4.495401382E-1,-6.867111683E0
7.952077205E1,-7.692721367E0,2.097959757E0,-7.539403439E0
7.958076451E1,-1.277215385E1,1.166277170E0,-1.389490700E1
7.964075704E1,1.401489735E0,-3.008143902E0,2.865797520E0
7.970075074E1,-5.000445843E0,-6.906986237E-2,-9.065744877E-1
7.976074517E1,6.603246212E0,-8.433887482E0,7.643682957E0
7.982073971E1,6.470358849E0,-2.680125237E0,9.805320740E0
7.988073424E1,3.851992130E0,-4.167842865E-2,5.715584755E0
7.994072874E1,3.322278976E0,-3.930377960E-1,2.646320343E0
8.000072207E1,1.759827614E0,4.989733696E-1,5.999367237E-1
8.006071453E1,2.499754906E0,5.758209229E-1,-3.431746483E0
8.012070700E1,-6.249242783E0,6.616835594E-1,-1.009698296E1
8.018069953E1,-3.377872944E0,-4.247411251E0,4.128456593E0
8.024069206E1,-1.328803825E1,7.374231339E0,-8.343709946E0
8.030068462E1,8.251887321E0,-1.265871811E1,1.011730003E1
8.036067715E1,2.594793320E0,-1.089845276E1,4.227790833E0
8.042066948E1,7.352164745E0,-7.198119164E0,6.367522240E0
8.048066178E1,3.054824591E0,-2.305510521E0,3.765822172E0
8.054065431E1,1.691291094E0,2.704833031E0,2.546043396E0
8.060064681E1,-1.955831766E0,3.470975876E0,2.679025650E0
8.066063930E1,1.490361691E0,5.521408081E0,1.593298435E0
8.072063177E1,5.293827057E-1,6.973653316E0,2.911043644E0
8.078062516E1,-7.521672249E0,9.975531578E0,-3.813127279E0
8.084061930E1,-3.750726700E0,6.788269997E0,-2.030091286E0
8.090061363E1,7.375619888E0,-4.859692574E0,4.996578693E0
8.096060796E1,5.214983463E0,-1.686196136E1,2.845953703E0
8.102060235E1,6.898179531E0,-5.443725586E0,4.083144665E0
8.108059578E1,3.718984365E0,-3.579008102E0,2.213673592E-1
8.114058832E1,2.650375366E-1,-1.264619827E-1,4.983801842E-1
8.120058061E1,-9.470405579E-1,2.910733700E0,-1.048271418E0
8.126057311E1,-4.464337826E0,1.890446663E0,-3.359645844E0
8.132056558E1,-1.060803509E1,4.519396305E0,-1.051360416E1
8.138055820E1,2.207652569E0,3.831631660E0,-5.915646076E0
8.144055070E1,-6.143205166E-1,-2.463027954E0,2.867630959E0
8.150054320E1,-7.027594566E0,-1.748280907E1,6.525424004E0
8.156053553E1,1.620681953E1,-6.223707199E-1,5.886863708E0
8.162052793E1,3.471303940E0,-2.393117905E0,1.509058237E0
8.168052036E1,7.181467056E0,9.119701385E-1,1.652472019E0
8.174051286E1,2.549751759E0,6.306852341E0,-8.431305885E-1
8.180050539E1,-2.490273952E0,5.396651268E0,-1.150720119E-1
8.186049825E1,-4.257555962E0,3.230567217E0,-1.469923496E1
8.192049152E1,-5.750370979E0,7.985525131E0,-4.792161942E0
8.198048458E1,-3.300665855E0,2.916530609E0,1.431703568E-1
8.204047771E1,9.817216873E0,-1.361916256E1,3.032574654E0
8.210047084E1,4.678064346E0,-5.302544594E0,1.404525518E0
8.216046364E1,2.390949249E0,-3.920604706E0,8.108965158E-1
8.222045597E1,1.034262657E0,7.744369507E-1,2.352271557E0
8.228044856E1,3.009193420E0,3.008714199E0,2.116823673E0
8.234044106E1,-6.693663597E-1,3.199891329E0,-3.003135920E0
8.240043366E1,-1.011079407E1,6.478643417E0,-2.637749672E0
8.246042612E1,-7.155145168E0,2.574913406E1,-8.304439545E0
8.252041865E1,3.235060692E0,-1.676653099E1,7.925822258E0
8.258041092E1,3.029628038E0,-1.325296211E1,-5.887041092E0
8.264040332E1,1.075032473E0,-4.952527046E0,1.993816018E0
8.270039571E1,9.860122204E-1,-3.538123131E0,-4.163894057E-1
8.276038824E1,1.134558201E0,1.587452412E0,-4.846601486E-1
8.282038071E1,1.007527828E0,3.831817627E0,4.435913563E-1
8.288037340E1,1.976480961E0,5.288693905E0,-3.722040653E-1
8.294036714E1,-4.323575020E0,5.482756138E0,-4.230089664E0
8.300036147E1,-7.493355274E0,2.462126732E0,-3.310461044E0
8.306035586E1,-3.480630636E0,7.688235283E0,1.664185047E0
8.312035020E1,-6.759373188E0,5.117695332E0,-2.087476254E-1
8.318034436E1,4.751341343E0,-1.039615345E1,4.415845394E0
8.324033739E1,-1.725533485E0,-9.624815941E0,-2.055170774E0
8.330032972E1,6.341806412E0,-2.283235550E0,5.486361980E0
8.336032202E1,3.161908865E0,-4.834412575E0,6.417710781E-1
8.342031455E1,2.507030487E0,-2.819224834E0,7.030010223E-2
8.348030701E1,1.719608307E0,-2.591896057E-1,1.661581993E-1
8.354029954E1,-2.092773438E0,1.642377138E0,-1.554356813E0
8.360029207E1,-6.464711189E0,2.588914394E0,-2.501338959E0
8.366028457E1,-6.435518742E0,2.040924788E0,-6.502825260E0
8.372027690E1,-1.298263359E1,6.208693981E-1,-7.960031509E0
8.378026940E1,-7.730867386E0,-4.367866516E0,-5.521989822E0
8.384026186E1,-2.248825073E0,-5.700616837E0,1.347409725E0
8.390025439E1,9.992414474E0,-2.274810982E1,9.167014122E0
8.396024692E1,7.436406612E-1,-1.122504234E0,1.220522642E0
8.402024002E1,2.953558207E0,-3.043119431E0,5.667610645E0
8.408023319E1,6.974430084E-1,-1.093749046E0,3.321717739E0
8.414022638E1,4.397744656E0,6.731209755E-1,3.653988123E0
8.420021945E1,9.763894081E-1,-6.917295456E-1,-1.360235214E-1
8.426021251E1,-1.419799328E0,-4.494972229E-1,-4.956180096E0
8.432020498E1,-7.037719727E0,2.640348673E0,-5.293692589E0
8.438019738E1,1.307893276E0,5.623678207E0,3.961641312E0
8.444018987E1,-1.256282330E1,1.457508087E1,-9.949951172E0
8.450018240E1,-4.233805180E0,4.237159252E0,-3.789755344E0
8.456017493E1,5.009676933E0,-1.039766121E1,7.614040375E0
8.462016750E1,6.575086117E-1,-1.176701355E1,-9.235233068E-1
8.468015996E1,5.756849766E0,-1.193514824E0,4.001080513E0
8.474015226E1,1.034780979E0,-2.392874718E0,3.374496698E0
8.480014466E1,4.298196316E0,-3.020419121E0,2.493281603E0
8.486013719E1,1.100265503E0,-2.315505028E0,-2.281713486E-2
8.492012978E1,9.035654068E-1,3.138524055E0,-1.669898033E-1
8.498012225E1,8.411602974E-1,1.629196644E0,-3.599598646E0
8.504011518E1,-2.880342007E0,-1.262852073E0,-4.513271809E0
8.510010921E1,-6.475617409E0,-1.515109062E0,-5.890934467E0
8.516010378E1,-1.331374931E1,1.223963261E0,-4.588114262E0
8.522009818E1,-7.910219669E0,-6.426304817E0,-4.879831791E0
8.527011288E1,2.000682354E0,-3.575468540E0,5.734762669E0
8.533010715E1,-1.303219318E0,-1.310342979E1,2.328307867E0
8.539010028E1,6.674636364E0,-3.974388123E0,5.044960022E0
8.545009264E1,2.499149084E0,-1.393722534E0,5.721999168E0
8.551008524E1,3.831738472E0,-1.961524010E0,3.968320608E0
8.557007770E1,1.984702110E0,-4.776210785E-1,1.967196703E0
8.563007030E1,2.007394791E0,1.919680595E0,1.544997692E-1
8.569006276E1,1.148568630E0,2.742390871E0,1.128926039E0
8.575005529E1,-3.972649574E0,8.602082253E0,9.700412750E-1
8.581004756E1,-4.164657593E0,6.678541183E0,-3.069436789E0
8.587003999E1,-3.087836266E0,-1.558703184E0,-5.644977093E0
8.593003245E1,-9.410477638E0,-7.961487770E0,-8.419324875E0
8.599002505E1,-3.114209175E-1,-2.131279469E0,-3.542992115E0
8.605001751E1,-1.623730659E-1,-8.439928055E0,2.894089699E0
8.611001008E1,6.904451847E0,-7.019466400E0,3.849911690E-1
8.617000371E1,-5.361722708E-1,-5.538892746E-1,3.575343132E0
8.622999804E1,8.981076241E0,4.391746521E-1,8.083507538E0
8.628999230E1,4.481493473E0,-6.349182129E-2,3.822357893E0
8.634998663E1,4.649220467E0,-1.851752281E0,1.769162893E0
8.640998093E1,-9.701313972E-1,3.692541122E-1,-1.241627932E0
8.646997406E1,-3.448006153E0,2.476232529E0,-5.541577339E-1
8.652996639E1,-4.476088524E0,2.548696041E0,-3.597116470E0
8.658995876E1,-6.820505142E0,-9.751458168E-1,-8.397111893E0
8.664995128E1,-1.021204567E1,2.498297691E-1,-1.209509277E1
8.670994382E1,-1.788932800E0,-5.554440498E0,1.864580154E0
8.676993634E1,4.012267590E0,-4.433236122E0,8.926362991E0
8.682992881E1,1.288963079E0,-1.562178612E1,2.181337595E0
8.688992131E1,9.590895176E-1,-4.629878998E0,6.886505604E0
8.694991357E1,5.143996716E0,-4.396362305E-1,4.339997768E0
8.700990607E1,3.602996349E0,-2.584514618E0,2.809997797E0
8.706989853E1,5.367583752E0,-1.894389153E0,1.813498974E0
8.712989113E1,1.276830196E0,-3.891100883E-1,8.508729935E-2
8.718988359E1,-2.411415100E0,1.991930723E0,-2.036386728E0
8.724987669E1,-1.073781586E1,1.554520011E0,-7.390663147E0
8.730986979E1,1.008553982E0,1.309551239E0,7.981654644E0
8.736986295E1,-1.062916565E1,1.009934235E1,-3.097213745E0
8.742985602E1,7.097629547E0,-1.072030449E1,9.334836960E0
8.748984918E1,-3.010551214E0,-8.557333946E0,-3.985683441E0
8.754984175E1,4.776458263E0,-1.211151123E0,6.084872246E0
8.760983418E1,3.603259563E0,-2.012232780E0,3.769199133E0
8.766982667E1,2.804185390E0,-5.948143005E-1,2.487503529E0
8.772981920E1,1.985576630E0,-1.700463295E-1,1.590486288E0
8.778981170E1,-3.148670673E0,-8.691124916E-1,-6.985321045E-1
8.784980426E1,-5.701050282E0,-1.144767761E0,-3.954226494E0
8.790979676E1,-1.631180286E0,3.076075792E0,-5.382907391E0
8.796978909E1,-1.000261211E1,2.404895401E1,-1.711899948E1
8.802978155E1,-4.784568787E0,-1.937675476E0,6.791505814E-1
8.808977402E1,8.361755371E0,-1.415019226E1,-4.925869942E0
8.814976652E1,-2.085582972E0,-4.858351707E0,1.804711819E0
8.820975898E1,1.380753517E0,-7.702159882E-2,1.506202221E-1
8.826975181E1,2.375482559E0,1.531576633E0,4.847223759E-1
8.832974574E1,2.971143246E0,2.220944881E0,-8.800146580E-1
8.838974014E1,6.201796532E-1,-7.057442665E-1,-3.121755362E0
8.844973440E1,-4.309682846E0,4.347014427E-1,-1.998590946E0
8.850972873E1,-4.378307819E0,5.467744350E0,-4.258764267E0
8.856972270E1,1.892740250E0,8.191996574E0,-7.028153419E0
8.862971549E1,-6.019062519E0,6.046787262E0,4.619913101E-1
8.868970776E1,4.800551414E0,-9.110965729E0,7.197844505E0
8.874970025E1,3.017340183E0,-7.059344292E0,-1.729369879E0
8.880969272E1,9.759497643E-2,-1.730980873E0,3.554096222E-1
8.886968525E1,4.166083813E0,-8.925142288E-1,2.601602077E0
8.892967771E1,3.622385025E0,-7.711229324E-1,1.540910482E0
8.898967038E1,4.126043320E-1,1.529221058E0,-1.300480127E0
8.904966274E1,-9.496741295E-1,3.564847231E0,-1.621800184E0
8.910965514E1,-7.994837761E0,1.913325071E0,-4.395029545E0
8.916964767E1,-1.114924908E1,4.640107155E0,-1.682978868E0
8.922964020E1,-2.755516291E0,-1.069479561E1,7.560196400E0
8.928963260E1,2.361989498E0,-2.513659477E0,2.655977488E0
8.934962519E1,2.212632179E0,-1.018214798E1,1.539903641E0
8.940961839E1,3.991193771E0,5.127239227E-2,4.214873791E0
8.946961152E1,5.264084816E0,-2.148024559E0,4.928512573E0
8.952960465E1,2.462690353E0,-1.928223610E0,3.685550451E0
8.958959772E1,2.146385193E0,-1.789242268E0,6.332778931E-2
8.964959078E1,3.767075539E-1,1.598299026E0,-1.863188744E-1
8.970958324E1,1.222259521E0,3.898754358E0,-4.788307667E0
8.976957564E1,-2.005367756E0,1.160103321E0,-4.703859806E0
8.982956811E1,-6.957112789E0,-2.572978020E0,-5.512000084E0
8.988956070E1,-1.107949638E1,-1.277261019E0,-7.956653595E0
8.994955317E1,5.339155197E0,-2.034537554E0,1.507040024E0
9.000954566E1,-4.641270638E0,-1.686359882E0,2.394556522E0
9.006953806E1,5.928708076E0,-1.231627369E1,-5.167747736E-1
9.012953046E1,4.424159050E0,-1.703807831E0,5.134764671E0
9.018952289E1,4.204226494E0,-1.710239410E0,3.698402882E0
9.024951548E1,5.332645893E0,-2.761998177E0,3.348292351E0
9.030950792E1,4.648329258E0,-1.562082291E0,3.674619198E-1
9.036950048E1,-1.112867355E0,2.255160809E0,-2.375413418E0
9.042949368E1,-2.487459183E0,5.918668270E0,-5.826843262E0
9.048948784E1,-7.956998348E0,1.584000349E0,-7.269381523E0
9.054948217E1,5.710234642E-1,5.726147175E0,3.412164688E0
9.060947654E1,-8.959972382E0,3.945849895E0,1.014470100E0
9.066947084E1,1.891853333E0,-7.933519840E0,1.016024971E1
9.072946443E1,7.878081799E0,-5.838839531E0,6.118318081E0
9.078945696E1,3.664062977E0,-2.366724968E0,7.171930790E0
9.084944930E1,3.238850117E0,-1.428101063E0,4.234387398E0
9.090944176E1,1.558098793E0,-3.655179501E0,3.518064022E-1
9.096943433E1,-5.768823624E-1,1.479313612E0,-1.523167372E0
9.102942686E1,-3.098562717E0,2.435560942E0,-3.902012348E0
9.108941938E1,-5.061097622E0,3.454620838E-1,-4.926096916E0
9.114941185E1,-6.592007160E0,7.727098465E-2,-2.823505402E-1
9.120940421E1,-9.810982704E0,1.893719316E0,-1.630975008E0
9.126939654E1,-2.781085968E-1,-4.889922142E0,1.743987560E0
9.132938904E1,-6.639332771E-1,-9.089162827E0,7.932157993E0
9.138938157E1,8.730796814E0,-6.048292160E0,7.007012367E0
9.144937404E1,4.348040104E0,-1.448038101E0,7.573058605E0
9.150936683E1,3.557373047E0,-1.452369690E-1,4.582784176E0
9.156936013E1,5.317403316E0,-6.649117470E-1,3.439248562E0
9.162935330E1,1.276160240E0,-1.219379902E0,8.186781406E-1
9.168934636E1,-4.745920658E0,1.400575399E0,-2.607079268E0
9.174933956E1,-4.841731071E0,-5.668792725E-1,-7.267936230E0
9.180933235E1,2.593973637E0,-2.286861897E0,9.018113136E0
9.186932469E1,-1.315371799E1,1.971887779E1,-9.795870781E0
9.192931702E1,3.707361221E-2,-1.713856125E1,4.617111206E0
9.198930961E1,4.332020760E0,-1.301346397E1,-1.629387140E0
9.204930208E1,1.062382221E0,-4.741846085E0,5.550610542E0
9.210929467E1,1.031262875E0,-2.227081299E0,1.827802658E0
9.216928714E1,3.697633743E-2,1.770392418E0,3.599106550E0
9.222927960E1,3.437576294E0,3.945249081E0,2.782993078E0
9.228927186E1,-4.056758881E-1,2.782711744E0,1.330354691E0
9.234926436E1,9.782304764E-1,4.486736298E0,-3.917412758E-1
9.240925682E1,-2.883239746E0,1.723743439E0,-9.503862381E0
9.246924936E1,-1.091216278E1,4.490092754E0,-2.540463686E0
9.252924192E1,-6.790768147E0,7.669978142E0,-6.200544357E0
9.258923562E1,8.552310944E0,-1.285698128E1,9.995412827E0
9.264923002E1,-1.794126034E0,-9.974213600E0,-2.667187214E0
9.270920379E1,2.366248846E0,-4.387896538E0,3.985563993E0
9.276919833E1,1.235902786E0,-3.006327629E0,2.160995007E0
9.282919283E1,2.890935421E0,1.661957741E0,2.223142147E0
9.288918619E1,1.449747086E0,3.271522760E0,-5.216641426E-1
9.294917862E1,-4.587758064E0,5.122785568E-1,-1.680433273E0
9.300917112E1,-1.267018318E0,1.117748451E1,-3.438384056E0
9.306916365E1,1.507067680E0,4.023241997E0,-4.358341694E0
9.312915618E1,-9.547438622E0,-2.233039618E0,3.743619919E-1
9.318914864E1,-1.130848312E1,-8.352174759E-1,-2.886013508E0
9.324914124E1,-3.630468607E0,-3.009260654E0,2.593469620E0
9.330913354E1,-8.001327515E-4,-7.463750839E0,-1.779294491E0
9.336912587E1,1.157296658E1,-2.303596497E0,3.991294384E0
9.342911833E1,8.755440712E-1,-1.745563507E0,-1.103197098E0
9.348911093E1,5.028567314E-1,-3.259078979E0,1.234555244E-2
9.354910339E1,1.434203625E0,-2.514514923E-1,4.082987309E-1
9.360909599E1,-8.603024483E-1,1.983823061E0,6.456527710E-1
9.366908929E1,-1.912991524E0,-6.704235077E-2,-1.477193832E-1
9.372908348E1,-4.218792915E0,1.273171902E-1,-3.470265865E0
9.378907775E1,-1.170703506E1,5.474792480E0,-1.137748241E1
9.384907214E1,-1.499581528E1,-8.806715012E-1,-3.338955641E0
9.390906641E1,2.137668610E0,-1.943236542E1,8.503302574E0
9.396905990E1,2.686166048E0,-7.742451668E0,-3.834296465E0
9.402905237E1,1.207068086E0,-2.638066292E0,5.798204899E0
9.408904473E1,4.193175793E0,1.176653862E0,4.297471046E0
9.414903720E1,4.291267395E0,-1.440751076E0,1.729790449E0
9.420902973E1,1.428132057E-1,9.766664505E-1,5.682325363E-2
9.426902226E1,-1.172753334E0,-1.903899193E0,-4.678821564E0
9.432901479E1,-2.761583328E0,5.292277336E-1,-8.332569122E0
9.438900728E1,-1.009831810E1,4.731690884E-1,-4.843124866E0
9.444899955E1,-1.338411522E1,7.540573120E0,8.293380737E-1
9.450899198E1,-3.525805950E0,-4.443975925E0,2.810688972E0
9.456898451E1,1.417116833E1,-9.461980820E0,1.211762428E1
9.462897704E1,9.423902035E-1,-4.997052193E0,-6.768551469E-1
9.468896950E1,6.966942787E0,-6.835994720E-1,4.771447182E0
9.474896240E1,3.126558065E0,4.638433456E-1,2.970181942E0
9.480895556E1,2.841756344E0,-6.147994995E-1,1.998400450E0
9.486894870E1,3.148937225E-2,2.280363560E0,2.198253393E0
9.492894176E1,-3.929433107E0,5.900413990E0,1.014076233E0
9.498893499E1,-6.740780830E0,2.105235815E0,-2.676002026E0
9.504892775E1,-6.802064419E0,-8.490240574E-1,-1.060112000E1
9.510892015E1,-1.429695129E0,-1.059805584E1,1.962604523E-1
9.516891255E1,-1.622005224E0,-3.017671585E0,1.444816589E-1
9.522890508E1,1.822205067E0,-1.076609325E1,2.029948950E0
9.528889751E1,7.406749725E0,-1.170679092E0,4.717020988E0
9.534889011E1,7.161014557E0,-9.083938599E-1,3.572994232E0
9.540888257E1,4.075572968E0,-1.778992653E0,2.019098997E0
9.546887497E1,4.914904118E0,1.151340008E0,-2.638893127E-1
9.552886737E1,3.522111893E0,2.148648262E0,-1.217631340E0
9.558885990E1,-1.166588783E0,4.115229130E0,-3.190070868E0
9.564885236E1,-9.188570023E0,6.746149063E-2,-6.302720070E0
9.570884489E1,-8.956481934E0,2.407119513E0,9.760699272E-1
9.576883749E1,-4.341943264E0,-1.040946960E0,2.291039467E0
9.582883125E1,-1.164965630E0,-6.134840965E0,4.903544903E0
9.588882565E1,8.715967178E0,-4.031924248E0,6.293210030E0
9.594882018E1,5.264431000E0,-7.958307266E-1,8.475289345E0
9.600881472E1,4.208821297E0,-1.001775742E0,5.103377819E0
9.606880918E1,4.935342312E0,-2.038223267E0,1.818908930E0
9.612880241E1,7.496166229E-2,1.721138954E-1,-1.629312038E-1
9.618879491E1,-2.997735500E0,3.757466316E0,-3.749316216E0
9.624878744E1,-3.709120989E0,5.067658424E-1,-4.551223278E0
9.630877991E1,-9.128025055E0,-1.119933605E0,-7.139335632E0
9.636877247E1,-5.585346222E-1,-4.606479645E0,-2.641493320E0
9.642876500E1,2.255902290E-1,-3.947916508E0,3.652542114E0
9.648875750E1,2.856938362E0,-3.115881920E0,1.381371021E0
9.654874976E1,1.302604198E1,-2.583999634E-1,4.514459610E0
9.660874219E1,6.296244621E0,1.767807007E-1,3.849094391E0
9.666873462E1,7.073544502E0,3.634777069E-1,2.689889431E0
9.672872715E1,4.368666172E0,-1.174862862E0,1.105904102E0
9.678871962E1,8.367314339E-1,1.019861221E0,-5.906510353E-1
9.684871221E1,-4.561631203E0,1.260654926E0,-4.385420322E0
9.690870561E1,-7.131840229E0,1.163675547E0,-7.190147400E0
9.696869988E1,-8.017613411E0,6.004266739E-1,2.864911556E-1
9.702869414E1,2.207762241E0,-6.186035156E0,-4.180431366E-1
9.708868854E1,4.593055248E0,-4.607685089E0,2.784900665E0
9.714868280E1,-3.095206976E0,-4.546955109E0,-5.093696117E-1
9.720867623E1,4.248767853E0,5.878582001E-1,5.086882591E0
9.726866863E1,5.794099331E0,-1.725699425E0,3.867705822E0
9.732866099E1,6.534591675E0,-2.417044640E0,1.685636044E0
9.738865346E1,2.658772945E0,-8.853659630E-1,-4.166963100E-1
9.744864599E1,2.307672024E0,2.029679298E0,-5.321403503E0
9.750863845E1,-4.148502350E0,1.173981190E0,-7.437368393E0
9.756863095E1,-6.109685421E0,3.194211483E0,-3.812906265E0
9.762862344E1,-8.850024223E0,1.580666780E0,-4.522383213E0
9.768861578E1,-5.468023300E0,1.655654430E0,5.179742336E0
9.774860824E1,1.502475023E0,-2.983636856E0,1.193831825E1
9.780860070E1,-1.065326881E1,-1.286463928E1,-4.741636276E0
9.786859343E1,7.533243179E0,-1.929277420E0,2.552721739E0
9.792858596E1,5.518020153E0,-2.264349937E0,2.847570181E0
9.798857890E1,2.906957150E0,-4.533185959E-1,5.828483105E-1
9.804857203E1,3.159392357E0,7.723588943E-1,9.626071453E-1
9.810856522E1,-2.470940828E0,2.417174339E0,8.535208702E-1
9.816855812E1,-2.382770300E0,5.377874374E0,-2.236384153E0
9.822855125E1,5.066498280E0,2.905110598E0,-8.364906311E-1
9.828854392E1,-1.260616398E1,6.057614326E0,-5.202979565E0
9.834853631E1,-7.980726242E0,1.972669840E0,1.350755692E-1
9.840852881E1,-1.025007248E0,2.605083942E0,5.595574379E-1
9.846852137E1,-3.503964424E0,-1.569126511E1,1.784305096E0
9.852851384E1,1.000538540E1,-1.086676216E1,-1.808662534E0
9.858850637E1,3.435248613E0,-2.070305824E0,7.269320488E-1
9.864849880E1,1.958604336E0,5.037217140E-1,-1.410830975E0
9.870849116E1,2.322933197E0,2.623852491E0,-1.436425924E0
9.876848356E1,8.108830452E-1,4.482956886E0,-1.507921934E0
9.882847609E1,-2.840819359E-1,7.168106079E0,-3.323898315E-1
9.888846866E1,3.807544708E-2,1.535848022E0,-4.688819408E0
9.894846125E1,-4.497552872E0,-4.708562851E0,-7.812031746E0
9.900845388E1,-5.467379093E0,-1.316562176E0,-1.085132790E1
9.906844765E1,-6.324107647E0,-5.967221260E-1,-1.618043184E0
9.912844198E1,1.004219818E1,-8.811212540E0,2.878253937E0
9.918843628E1,1.301152468E0,-7.732293129E0,-1.916358590E0
9.924843057E1,4.887936592E0,-4.218511581E0,3.355662346E0
9.930842467E1,1.911137581E0,-1.612931252E0,7.871644497E-1
9.936841767E1,3.643343925E0,-2.575617313E0,7.411832809E-1
9.942841000E1,6.272802353E-1,-2.134351730E-1,2.352802753E-1
9.948840243E1,-1.341975212E0,4.461724758E0,9.975314140E-2
9.954839499E1,-5.174115181E0,3.613641262E0,-2.058130980E0
9.960838759E1,-7.142625809E0,8.760310411E-1,-5.176527977E0
9.966838005E1,3.327461243E0,2.637684345E-1,5.536460876E-2
9.972837258E1,-9.482419968E0,2.329205990E0,-7.446538448E0
9.978836495E1,4.195055962E0,-1.230155659E1,9.649568558E0
9.984835725E1,-5.721824169E0,-3.967844963E0,-2.727159500E0
9.990834961E1,8.062187195E0,3.202257156E0,3.836735249E0
9.996834227E1,3.135542631E0,-1.608057022E0,3.520947933E0
1.000283348E2,2.100092888E0,-3.074809074E0,1.543005705E0
1.000883274E2,2.552807808E0,-1.522447109E0,-8.477234840E-1
1.001482298E2,3.381824493E-2,2.203418732E0,6.223998070E-1
1.002082231E2,-1.496798038E0,4.633083344E0,3.513137817E0
1.002682161E2,-3.944231510E0,2.732046127E0,-2.514948368E0
1.003282092E2,-3.354618073E0,-6.654007435E0,-9.844399452E0
1.003882023E2,-1.002279186E1,-1.585189342E0,-9.369680405E0
1.004481948E2,-6.667881489E0,-3.554201603E0,-5.808162689E0
1.005081871E2,9.612410545E0,-1.490910625E1,1.767166901E1
1.005681796E2,-1.704016089E0,-1.070782661E0,-4.459474564E0
1.006281721E2,5.242367744E0,1.095033646E0,7.321860313E0
1.006881646E2,3.555437565E0,-2.220377922E0,4.358140945E0
1.007481571E2,6.630965233E0,4.293632507E-2,3.445782423E0
1.008081496E2,1.900125027E0,2.265342236E0,1.986613989E0
1.008681419E2,-1.384212017E0,4.158828735E0,1.439745903E0
1.009281343E2,-3.813033819E0,-3.616298199E0,-3.239221096E0
1.009881269E2,-4.086407661E0,-3.269533634E0,-8.401321411E0
1.010481195E2,1.667381287E0,1.105976105E-1,-3.805711746E0
1.011081121E2,-1.087073231E1,9.609407425E0,-6.268877983E0
1.011681050E2,1.965249777E0,-1.515342522E1,1.374705887E1
1.012280991E2,3.012705088E0,-5.729897499E0,6.518908143E-1
1.012880936E2,1.165239573E0,-1.149532318E0,7.228383541E0
1.013480881E2,6.297621727E0,-5.409183502E-1,4.409448624E0
1.014080826E2,2.566270351E0,-1.119564056E0,1.385098219E0
1.014680767E2,2.947697639E0,-8.359622955E-2,1.166152000E0
1.015280696E2,-3.384689331E0,1.294973850E0,-7.229874134E-1
1.015880620E2,-5.553160667E0,3.287836075E0,-4.468950272E0
1.016480545E2,-9.858003616E0,5.822773457E0,-6.129988194E0
1.017080471E2,-3.180126667E0,-6.299991608E-1,-6.701729774E0
1.017680395E2,1.790965080E0,6.567168236E-1,2.165114403E0
1.018280321E2,2.068002462E0,-1.176268673E1,4.220151901E0
1.018880244E2,1.887667537E0,-7.517375946E-1,1.029012561E0
1.019480168E2,7.627326488E0,-4.858207703E-1,6.471612453E0
1.020080092E2,4.741066933E0,-1.432971001E0,4.504783154E0
1.020680018E2,6.602606773E0,-1.767493248E0,2.331132174E0
1.021279942E2,5.426969528E-1,-1.502965927E0,-1.523488522E0
1.021879868E2,-4.499148369E0,-1.849474907E0,-5.669290066E0
1.022479795E2,-4.039908409E0,-3.628253937E-1,-2.625596285E0
1.023079733E2,-6.001654148E0,6.876770973E0,-2.324177265E0
1.023679676E2,-1.159903622E1,2.263021469E0,1.315276861E0
1.024279619E2,-1.683632851E0,-5.506825447E0,1.868231773E0
1.024879563E2,3.485541344E-1,-3.917391777E0,2.091973066E0
1.025479504E2,-1.773512363E0,-8.830568314E0,-1.068856359E0
1.026079433E2,6.874714851E0,-3.492711067E0,3.922881603E0
1.026679356E2,5.869866371E0,-9.653491974E-1,2.987176895E0
1.027279280E2,4.943985939E0,8.089079857E-1,1.932777166E0
1.027879205E2,3.552655697E0,1.083453655E0,2.822745085E0
1.028479131E2,1.451477528E0,2.182344437E0,1.565891743E0
1.029079055E2,2.533381462E0,4.266867638E-1,1.575815916E0
1.029678981E2,-3.278537273E0,5.543298721E-1,-2.153059959E0
1.030278905E2,-1.234403324E1,8.614978790E-1,-8.608167648E0
1.030878828E2,-1.409122658E1,2.723078728E0,-8.423055649E0
1.031478753E2,1.673779964E0,-1.364675808E1,9.980814934E0
1.032078679E2,1.348710060E0,-2.776373863E0,-3.178099632E0
1.032678603E2,1.431408215E1,-1.954315186E0,6.329530716E0
1.033278529E2,5.284660339E0,9.553422928E-1,5.142497540E0
1.033878460E2,7.251681328E0,1.670866013E-1,3.753732920E0
1.034478392E2,5.223015308E0,3.749847412E-3,7.660050392E-1
1.035078322E2,7.899528980E0,1.206656456E0,9.542703629E-1
1.035678254E2,1.696970940E0,3.254284382E0,-4.603973389E0
1.036278185E2,-3.962582111E0,-6.552243233E-2,-7.291411877E0
1.036878109E2,-6.862704754E0,-3.737599850E-1,-5.803508282E0
1.037478034E2,-9.142055511E0,-1.043220520E0,-5.072554588E0
1.038077959E2,-9.471914291E0,9.782373905E-1,-3.821742535E0
1.038677884E2,1.838522434E0,-3.757784843E0,9.338448524E0
1.039277810E2,6.062715530E0,-1.058945656E1,6.161481857E0
1.039877735E2,5.346901894E0,-8.191690445E-1,7.478340149E0
1.040477659E2,4.368960381E0,1.358549118E0,6.727849007E0
1.041077583E2,6.443754196E0,-1.708593369E-1,5.337435722E0
1.041677507E2,2.863553047E0,-2.381424904E0,1.275051832E0
1.042277432E2,-3.644758463E0,-2.900487423E0,-8.186869621E-1
1.042877357E2,-5.684612274E0,-6.312417984E-2,-1.431238651E0
1.043477282E2,-4.374098301E0,5.041118145E0,1.107093334E0
1.044077213E2,-7.184409142E0,2.106333733E0,-5.004155159E0
1.044677155E2,-1.362441540E0,2.739993095E0,-1.271221399E0
1.045277097E2,-6.359972954E-1,-1.264320374E0,-5.332696438E-1
1.045877041E2,7.617175102E0,-3.547914505E0,4.994089127E0
1.046476983E2,9.301157951E0,-8.013353348E-1,8.514859200E0
1.047076921E2,3.985148430E0,7.899188995E-2,3.541873455E0
1.047676846E2,6.033977509E0,-2.779979706E-1,1.839068413E0
1.048276770E2,2.246942997E0,4.844837189E-1,-1.061980247E0
1.048876694E2,-7.779378891E-1,-1.424825191E0,-5.141052246E0
1.049476619E2,-6.474367142E0,9.023933411E-1,-5.788868427E0
1.050076544E2,-8.735679626E0,2.668738842E0,-6.018778801E0
1.050676470E2,9.945559502E-1,-5.138878822E-1,1.202569008E0
1.051276395E2,-5.280332088E0,6.415348530E0,-3.263499737E-1
1.051876319E2,2.602562428E0,-5.484356880E0,8.742981911E0
1.052476243E2,9.749091864E-1,-8.123980522E0,-7.876278162E-1
1.053076168E2,7.255577087E0,-2.152607918E0,3.619368315E0
1.053676092E2,3.516217709E0,1.068666458E0,9.440321922E-1
1.054276018E2,4.665277004E0,1.685023308E0,1.295597315E0
1.054875945E2,2.169393063E0,1.913186550E0,1.073341846E0
1.055475878E2,1.565823555E-1,1.063896656E0,-1.179589152E0
1.056075809E2,-1.279016113E1,5.777219296E0,-9.910313606E0
1.056675739E2,-7.025124550E0,-1.488081932E0,-7.632384300E-1
1.057275671E2,-5.394750595E0,-8.089797974E0,2.324439526E0
1.057875601E2,4.944889069E0,-1.416307640E1,3.074957848E0
1.058475524E2,1.020591831E1,-3.858103752E0,5.844707489E0
1.059075448E2,4.526316166E0,-2.664925575E0,4.225900173E0
1.059675374E2,5.501817703E0,-2.339438438E0,4.322709560E0
1.060275299E2,3.692099571E0,-2.164802551E-1,3.718986511E-1
1.060875224E2,-1.189840794E0,2.813042879E0,-2.470480680E0
1.061475148E2,-8.799199104E0,1.831750393E0,-4.626202106E0
1.062075073E2,-1.505229759E1,6.991531849E0,-1.389483070E1
1.062674996E2,-3.529994488E0,1.594298077E1,-2.206122398E0
1.063274921E2,5.095179558E0,-5.663508415E0,6.169206619E0
1.063874846E2,3.729981422E0,-7.029513359E0,-1.960151196E0
1.064474772E2,7.606831551E0,1.572252274E0,3.759108067E0
1.065074697E2,5.326338768E0,-1.297079086E0,2.240564823E0
1.065674632E2,1.614006281E0,-9.314622879E-1,1.129967690E0
1.066274574E2,8.876385689E-1,-5.869312286E-1,1.895059824E0
1.066874519E2,-3.951035261E0,-1.176659107E0,-2.328522205E-1
1.067474461E2,-9.079989433E0,5.984858513E0,-3.188484907E0
1.068074404E2,7.014664650E0,1.865288734E0,-2.372401237E0
1.068674337E2,4.469285011E-1,4.254846573E-1,3.610094547E0
1.069274262E2,2.253154755E0,-1.158077908E1,-3.231326342E-1
1.069874185E2,1.501307964E0,-3.138870239E0,3.436382771E0
1.070474110E2,4.753175259E0,-2.879993439E0,4.528937340E0
1.071074035E2,5.395380020E0,-2.852345467E0,1.008876324E0
1.071673960E2,3.451683998E0,1.312493324E0,-4.160613537E0
1.072273885E2,-4.388361454E0,1.252874374E0,-5.287912846E0
1.072873810E2,-7.284350395E0,3.073597431E0,-3.678016901E0
1.073473734E2,-7.790413380E0,9.002694130E0,-5.847136021E0
1.074073657E2,-6.373319626E-1,2.269771576E0,2.047577286E1
1.074673583E2,4.258354664E0,-2.903137207E-1,5.418204308E0
1.075273213E2,-9.764137864E-1,-1.124003601E1,-5.280287743E0
1.075873138E2,2.097155333E0,2.275247097E0,2.796073914E0
1.076473068E2,5.694846630E0,-1.398817062E0,4.170697689E0
1.077073001E2,1.331337452E0,-3.082131386E0,3.420021534E-1
1.077672932E2,2.340906143E0,1.312556744E0,1.946000099E0
1.078272864E2,-8.772416115E-1,3.121192694E0,5.209512711E-1
1.078872794E2,-1.647631168E0,3.964348793E0,-5.749222755E0
1.079472721E2,-8.082742691E0,8.302683830E-1,-9.103693008E0
1.080072644E2,-1.343059540E0,-6.931212902E0,-5.351095676E0
1.080672569E2,-6.112842560E0,-6.025495052E0,-4.636375904E-1
1.081272494E2,3.394468546E0,-1.069124603E1,1.992863536E0
1.081872420E2,6.022972107E0,2.647047043E-1,4.350249290E0
1.082472345E2,4.036776543E0,-1.632271767E0,3.472608089E0
1.083072270E2,4.564280987E0,-9.743843079E-1,2.375096798E0
1.083672193E2,4.057672024E0,-4.287867546E-1,1.718109608E0
1.084272117E2,-1.649518013E0,1.456324100E0,-3.116366863E-1
1.084872042E2,-4.358621120E0,2.676121235E0,-2.747367382E0
1.085471967E2,-7.213814735E0,1.885681629E0,-5.376829624E0
1.086071892E2,-1.015251255E1,5.267697811E0,-7.560484886E0
1.086671819E2,8.557724953E-1,2.579858780E0,5.629088879E0
1.087271757E2,2.233461618E0,-6.651598930E0,6.037793159E-1
1.087871702E2,7.796724319E0,-2.617842674E0,9.117112160E-1
1.088471647E2,4.598448753E0,-1.533991814E0,3.553194761E0
1.089071593E2,5.288600922E-2,-1.271865845E0,5.814688206E-1
1.089671536E2,6.169848442E-1,-8.129930496E-1,1.142591000E0
1.090271467E2,-4.629358768E0,3.347444534E-1,-1.290634871E0
1.090871392E2,-7.192628384E0,6.965851784E-1,-4.735581398E0
1.091471317E2,1.751752090E1,2.073391438E0,-1.472014999E1
1.092071242E2,-9.694957733E0,8.328315735E0,-4.461955070E0
1.092671167E2,-2.875608444E0,-8.953479767E0,2.600625515E0
1.093271093E2,5.903590202E0,-4.483685493E0,6.877487898E-2
1.093871017E2,1.748669982E0,-1.921559334E0,1.617045879E0
1.094470940E2,3.223888159E0,-2.887448311E0,1.116065979E0
1.095070864E2,9.438810349E-1,2.634079456E0,-2.822215080E0
1.095670790E2,8.473429680E-1,2.923850060E0,-2.576990843E0
1.096270715E2,-2.397075415E0,5.407826424E0,-1.294762254E0
1.096870641E2,-1.377222443E1,9.956897736E0,-6.882799149E0
1.097470566E2,-5.631618977E0,1.505138779E1,-1.228717685E0
1.098070502E2,5.329530716E0,-8.263182640E0,6.304708958E0
1.098670444E2,-1.245653391E0,-9.216411591E0,-6.540628433E0
1.099270388E2,-2.154602528E0,-7.458137512E0,-3.768516481E-1
1.099870330E2,6.063609123E-1,-2.534445763E0,-1.132066131E0
1.100470273E2,1.242827415E0,4.011342525E0,4.981728792E-1
1.101070205E2,-1.594851971E0,4.051919937E0,-1.848602295E-1
1.101670129E2,-6.566419601E0,3.517577171E0,-8.827400208E0
1.102270052E2,2.011318207E-1,2.526640415E0,-7.506738663E0
1.102869978E2,1.237516403E-1,1.036176682E-1,3.673878431E0
1.103469903E2,-1.423151851E0,-8.275805473E0,-2.394219160E0
1.104069828E2,7.285477161E0,3.739814758E-1,5.167429447E0
1.104669753E2,2.644886494E0,-1.314538002E0,1.196295857E0
1.105269678E2,7.170104980E-2,-2.280851364E0,-1.118526936E0
1.105869601E2,-1.077036858E-1,-1.181006432E0,-2.035137177E0
1.106469525E2,-1.071353436E0,1.911249161E-1,-2.987800837E0
1.107069451E2,-5.831182480E0,1.965033054E0,-5.455232620E0
1.107669375E2,-7.777962208E0,6.482581615E0,-5.124764442E0
1.108269301E2,3.956760406E0,7.322654724E-1,5.788478851E0
1.108869231E2,-3.517019033E0,-6.868998528E0,-1.852886677E-1
1.109469163E2,9.699016571E0,-4.053211212E-1,1.358756781E0
1.110069094E2,2.529014349E0,-2.647374153E0,3.401651382E0
1.110669026E2,1.582567692E0,-2.817853928E0,1.399583578E0
1.111268957E2,2.265313148E0,-1.137602806E0,1.371964455E0
1.111868883E2,9.001469612E-1,2.601489067E0,3.905787468E-1
1.112468806E2,-3.233704567E-1,4.335859776E0,-4.647212029E0
1.113068732E2,-5.850104332E0,3.118345737E0,-7.352539062E0
1.113668656E2,-1.389855194E1,4.822021008E0,-1.018924522E1
1.114268582E2,5.460839272E0,-2.252263260E1,4.241393089E0
1.114868507E2,-4.784901619E0,-1.698971748E0,1.678327560E0
1.115468432E2,7.848500729E0,-5.101706505E0,7.941513062E-1
1.116068355E2,1.973950505E0,-2.087808609E0,1.957592726E0
1.116668279E2,2.393339634E0,-1.213284492E0,2.851164818E0
1.117268203E2,2.075481892E0,-1.357603073E0,1.783882141E0
1.117868129E2,2.742014408E0,-1.954553604E0,2.795773029E0
1.118468055E2,6.228923798E-3,-4.287552834E-1,3.074725628E0
1.119067982E2,-3.181489944E0,2.605308533E0,-1.337279320E0
1.119667921E2,-3.452738285E0,4.195557833E-1,-8.613388062E0
1.120267867E2,-1.350813007E1,3.873599052E0,-7.503443718E0
1.120867811E2,-3.421705246E0,-3.655417442E0,-2.973803043E0
1.121467757E2,6.038963795E0,-1.012795639E1,5.544678688E0
1.122067700E2,-3.863788128E0,-5.804584503E0,-4.041072369E0
1.122667631E2,8.682200432E0,-1.146290779E0,5.372790337E0
1.123267554E2,3.233161926E0,-1.179261208E0,2.549277306E0
1.123867479E2,2.160891533E0,3.777785301E-1,1.942460060E0
1.124467404E2,3.746322632E0,-7.709407806E-1,1.611032009E0
1.125067329E2,7.801785469E-1,-1.351041794E0,-2.276290655E0
1.125667255E2,-2.071730614E0,-2.424039125E0,-2.435650110E0
1.126267179E2,-1.105871105E1,5.538880825E-1,-6.698163033E0
1.126867103E2,-5.060028076E0,5.435480118E0,1.101765728E1
1.127467027E2,-7.802301407E0,4.357687473E0,3.663416386E0
1.128066952E2,7.737009048E0,-3.690254211E0,7.857779503E0
1.128666877E2,-9.890135527E-1,-7.486290932E0,-2.739997625E0
1.129266803E2,7.721106529E0,-2.411413193E0,5.162916183E0
1.129866728E2,2.834729433E0,9.269351959E-1,2.290112257E0
1.130466665E2,3.197297096E0,-2.052074432E0,1.708991289E0
1.131066608E2,1.621679306E0,-2.691580772E0,7.156572342E-1
1.131666551E2,-2.348326206E0,-4.565420151E-1,-4.806690216E-1
1.132266493E2,-4.020117760E0,2.570197582E0,-2.454845667E0
1.132866437E2,-4.006562233E0,5.406367302E0,-4.072342873E0
1.133466367E2,-7.653651237E0,1.514492035E0,-4.827219009E0
1.134066291E2,5.934357643E-1,-2.328286171E0,-3.544478893E0
1.134666215E2,-4.048728943E-2,2.044806480E0,-1.139688492E-2
1.135266140E2,9.218706131E0,-1.180405807E1,7.751541138E-1
1.135866065E2,6.224660397E0,-2.868787766E0,2.767360687E0
1.136465991E2,5.685797215E0,8.147716522E-2,3.469183207E0
1.137065916E2,1.672235250E0,-1.493711472E-1,-1.836514473E-2
1.137665842E2,6.322496891E0,-1.008224487E-2,2.342388391E0
1.138265765E2,-1.196122169E-1,3.453350067E-1,9.557895660E-1
1.138865689E2,-4.086017609E0,1.907958984E0,1.439266205E-1
1.139465614E2,-6.463058472E0,1.860268593E0,-2.825046539E0
1.140065539E2,-5.464512825E0,1.381903410E0,-5.636643887E0
1.140665463E2,-1.137372208E1,7.583358288E-1,1.572114944E0
1.141265393E2,-7.354979515E-1,-2.111520290E0,2.658716202E0
1.141865326E2,5.874553680E0,-7.022681236E0,-1.061174870E0
1.142465257E2,6.528112888E0,-4.043965340E0,1.065365791E0
1.143065188E2,5.023326874E0,-1.748638153E0,5.861887932E0
1.143665119E2,4.240539551E0,-6.049509048E-1,5.108065128E0
1.144265045E2,4.360239029E0,-5.818586349E-1,3.010499954E0
1.144864969E2,1.088920116E0,7.086753845E-3,-6.713767052E-1
1.145464895E2,3.733386993E-1,-1.578719139E0,-1.656991482E0
1.146064820E2,-1.819739819E0,3.625235558E-1,-5.348521233E0
1.146664745E2,7.734870911E-2,1.425627947E0,-4.494409561E-1
1.147264670E2,-1.092054176E1,5.285357475E0,-9.279380798E0
1.147864595E2,-2.351340532E0,-2.404546738E-1,-6.783638000E-1
1.148464517E2,9.725184441E-1,-1.875683784E0,6.972033978E0
1.149064441E2,3.074636221E0,-3.499609947E0,3.415687561E0
1.149664366E2,7.073838234E0,-1.225013733E0,7.243659496E0
1.150264059E2,3.238394260E0,-1.880993843E0,6.345637798E0
1.150863983E2,2.753856182E0,-5.952224731E-1,4.481434822E0
1.151463912E2,3.548532486E0,-5.635104179E-1,1.424994469E0
1.152063852E2,-9.767084122E-1,-9.572095871E-1,-4.143191338E0
1.152663795E2,-1.751750946E0,-9.354519844E-1,-6.863354206E0
1.153263739E2,-1.663308620E0,-1.730360508E0,-8.019260406E0
1.153863681E2,-9.842216492E0,5.083592892E0,8.485903740E-1
1.154463621E2,-1.275477505E1,2.386141205E1,-3.867728233E0
1.155063549E2,-4.308626175E0,-2.435925484E1,8.248819351E0
1.155663472E2,1.311095619E1,-7.076801300E0,1.915607572E0
1.156263397E2,-1.681321859E-1,-3.299996376E0,3.348886490E0
1.156863323E2,1.549340844E0,-1.492185593E-1,2.654131413E0
1.157463248E2,2.467677355E0,-3.818368912E-1,4.120460510E0
1.158063173E2,2.369294167E0,-3.581237793E-1,3.135727167E0
1.158663098E2,2.389098167E0,1.774736404E0,1.440481663E0
1.159263022E2,-7.631349564E-1,2.071213007E0,-3.319840670E0
1.159862944E2,-4.332975388E0,1.407924414E0,-5.454959393E0
1.160462869E2,-5.032103539E0,3.584428072E0,-6.961932182E0
1.161062794E2,-7.712494850E0,5.765243053E0,-5.502035618E0
1.161662719E2,3.538325787E0,-6.671761036E0,7.152587891E0
1.162262645E2,3.161104441E0,-5.390820503E0,8.900969028E-1
1.162862578E2,6.905823708E0,-4.910306931E-1,3.159783363E0
1.163462509E2,4.843262672E0,-3.991680145E-1,3.178720236E0
1.164062441E2,1.933987617E0,-1.135929108E0,1.827049971E0
1.164662372E2,1.720322132E0,-2.408814430E-1,8.003044128E-1
1.165262302E2,-6.213378906E-2,8.325786591E-1,2.192711830E-1
1.165862226E2,-2.559038162E0,2.684902191E0,-6.468210220E-1
1.166462150E2,-4.773824692E0,1.516365290E0,-4.281791210E0
1.167062075E2,-3.188137054E0,2.624623537E0,-1.122563124E0
1.167662000E2,-5.905446053E0,2.611838579E0,-1.834739447E0
1.168261925E2,-9.739809036E-1,-4.262570858E0,3.988431215E0
1.168861851E2,3.094254971E0,-4.353601456E0,2.306955576E0
1.169461775E2,6.053928852E0,-2.579330444E0,3.501558065E0
1.170061699E2,5.579909325E0,-1.182415009E0,5.244848728E0
1.170661623E2,4.263584137E0,-5.872335434E-1,3.709338903E0
1.171261549E2,4.776462078E0,-1.331129074E0,2.435759306E0
1.171861474E2,5.919613838E-1,-1.590957642E0,5.679059029E-1
1.172461399E2,-4.311865807E0,-1.683084011E0,-3.313393831E0
1.173061331E2,-4.679179668E0,-1.021556854E0,-6.364383221E0
1.173661274E2,-6.748491764E0,-1.677210331E-1,-5.204922676E0
1.174261219E2,-1.426576424E1,7.323859215E0,-8.963218689E0
1.174861164E2,-8.096761703E-1,-8.741903305E0,9.230609894E0
1.175461110E2,5.010119438E0,-6.980568886E0,6.447013855E0
1.176061048E2,4.986400604E0,-2.283150673E0,-2.583467722E0
1.176660974E2,3.855172634E0,-1.987433434E0,4.909881592E0
1.177260898E2,5.342593670E0,-1.254455566E0,3.369886398E0
1.177860824E2,3.503295422E0,-3.138736725E0,7.926211357E-1
1.178460749E2,1.197511673E0,-1.082637310E0,-9.817540646E-1
1.179060675E2,-9.261798859E-2,2.903353453E0,-5.419596195E0
1.179660599E2,-4.507517338E0,4.118817806E0,-5.965625286E0
1.180260523E2,-9.871665001E0,4.922627449E0,-5.787479401E0
1.180860446E2,-3.345370054E0,-2.425739765E0,1.583971024E0
1.181460372E2,-3.560985088E0,2.848165989E0,1.392624617E0
1.182060296E2,6.438470840E0,-1.267165279E1,6.913764954E0
1.182660221E2,6.226635933E0,-2.672830582E0,6.364963651E-1
1.183260146E2,4.961338997E0,-2.554568291E0,3.839591503E0
1.183860076E2,-6.460089684E-1,-1.241909981E0,2.021216393E0
1.184460015E2,2.254449368E0,1.025525093E0,1.950091839E0
1.185059958E2,1.142779827E0,2.295643806E0,2.025420189E0
1.185659902E2,1.197518826E0,2.966264486E0,1.676133394E0
1.186259845E2,-3.591751575E0,2.410571575E0,-2.379595280E0
1.186859785E2,-6.518749237E0,3.181752682E0,-3.492227316E0
1.187459711E2,-8.546173096E0,4.544393539E0,-3.004678726E0
1.188059635E2,-3.821144342E0,3.743500233E0,-2.269001961E0
1.188659560E2,9.657115936E0,-1.204992390E1,9.995367050E0
1.189259485E2,3.677028656E0,-1.016090488E1,-6.328158379E-1
1.189859410E2,4.569303513E0,-3.715811729E0,3.622582912E0
1.190459336E2,-7.223680019E-1,-1.132779121E0,-6.044738293E-1
1.191059260E2,1.991816998E0,1.658086777E-1,1.415998936E0
1.191659183E2,1.134251118E0,2.726462126E0,2.308185101E-1
1.192259107E2,-2.831042767E0,3.076057911E0,-1.291944742E0
1.192859033E2,-4.056427002E0,3.155552387E0,-2.537734032E0
1.193458957E2,-7.700866222E0,3.066730976E0,-1.411543369E0
1.194058883E2,-4.258360863E0,-2.425562859E0,-8.463148117E0
1.194658809E2,-4.538727283E0,1.230402470E0,2.779182911E0
1.195258742E2,4.887911797E0,-1.113170528E1,1.052970886E0
1.195858672E2,1.038420200E1,-3.873437881E0,3.351219654E0
1.196458604E2,3.251986980E0,-6.563940048E-1,3.179384232E0
1.197058535E2,3.566439152E0,-1.029824257E0,1.711275339E0
1.197658465E2,4.298015594E0,-1.773700714E0,-3.458762169E-1
1.198258388E2,6.152076721E-1,-2.265609741E0,-3.476453781E0
1.198858313E2,-5.744788170E0,-9.232850075E-1,-4.254111767E0
1.199458238E2,-1.219221306E1,5.913257599E0,-5.506044865E0
1.200058164E2,-5.261277199E0,-6.500823975E0,1.214825630E0
1.200658089E2,-9.077884674E0,2.846102476E0,-9.649085999E-2
1.201258015E2,2.268980742E0,-2.091431046E1,7.487008572E-1
1.201857938E2,7.920468330E0,-3.754359245E0,1.515827417E0
1.202457861E2,2.115343332E0,-1.226154327E0,3.224909306E-1
1.203057785E2,2.617263794E0,1.021738052E-1,-3.232517242E-1
1.203657711E2,2.290201664E0,2.046015263E0,-8.722991943E-1
1.204257637E2,7.529840469E-1,-1.984375000E0,-3.423622608E0
1.204857562E2,-4.851327896E0,1.758209944E0,-6.596707344E0
1.205457496E2,-3.507654428E0,5.411010742E0,2.754209900E1
1.206057438E2,-6.222688198E0,1.943685341E1,-2.953589916E0
1.206657381E2,3.643866062E0,-1.342993832E1,3.099759340E0
1.207257323E2,5.208294868E0,-9.242705345E0,-6.516036987E-1
1.207857266E2,1.370170116E-1,-1.863946915E0,-7.374299765E-1
1.208457201E2,1.610993862E0,-8.323144913E-1,-1.509481192E0
1.209057126E2,1.731966972E0,1.118618488E0,-8.431966305E-1
1.209657049E2,1.226390362E0,2.955469608E0,-1.021524549E0
1.210256974E2,2.977806568E0,1.069451809E0,3.401964664E0
1.210856899E2,-1.456405640E0,3.756466627E0,-1.601072550E0
1.211456825E2,-6.763699055E0,4.495017052E0,-3.750598431E0
1.212056750E2,-3.747008562E0,1.109253407E0,-4.028272629E0
1.212656675E2,2.899472237E0,-2.844608307E0,5.265862465E0
1.213256598E2,-2.026754618E0,-1.365714264E1,-2.413271666E-1
1.213856522E2,4.141604424E0,-2.023651123E0,5.527999401E0
1.214456446E2,2.488625526E0,-8.037519455E-1,2.458822727E0
1.215056371E2,1.192156315E0,-1.113842010E0,8.061053753E-1
1.215656296E2,7.168478966E-1,-5.743165016E-1,-1.099596739E0
1.216256225E2,4.030199051E-1,9.035296440E-1,-1.557884216E0
1.216856158E2,-1.785570145E0,1.816519499E0,-3.473986626E0
1.217456090E2,-7.921575546E0,1.869527817E0,-7.077017784E0
1.218056021E2,1.868820190E0,8.701720238E-1,2.189955711E-1
1.218655952E2,1.834554672E-1,-2.391762733E0,7.027723312E0
1.219255880E2,-9.591352940E-1,-4.418128967E0,-2.442206383E0
1.219855802E2,3.357769489E0,1.368355274E0,3.156263113E0
1.220455727E2,2.763772249E0,-2.750273705E0,1.609031916E0
1.221055652E2,1.500006676E0,-3.249423027E0,-4.344573021E-1
1.221655577E2,6.578397751E-1,1.758146286E-2,-2.458040714E0
1.222255503E2,-1.822008610E0,3.340226650E0,-4.857084751E-1
1.222855429E2,-4.180984497E0,4.982936859E0,-2.006474733E0
1.223455352E2,-6.303531647E0,3.295806646E0,-4.349626064E0
1.223955356E2,-4.082311630E0,-2.142183304E0,4.442249298E0
1.224555280E2,2.214764595E0,-2.442765236E-1,4.740636826E0
1.225155206E2,-3.024601936E-1,-2.215074539E0,-1.252349615E0
1.225755130E2,6.390423775E0,-8.720140457E-1,4.919257164E-1
1.226355056E2,2.591968775E0,-2.635279655E0,2.340336800E0
1.226954991E2,2.480929375E0,-2.734986305E0,9.233260155E-1
1.227554935E2,2.641444683E0,-1.041567802E0,1.187283993E-1
1.228154880E2,-2.994786263E0,2.130770445E0,-1.542661786E0
1.228754825E2,-6.834530354E0,2.640386105E0,-4.207846165E0
1.229354770E2,-5.642853737E0,2.154970169E0,-4.638428688E0
1.229954705E2,7.391068935E0,6.602436543E0,2.620327950E1
1.230554630E2,1.595978260E0,8.065788269E0,3.942790747E0
1.231154555E2,-7.877834320E0,-1.508889103E1,-4.051647663E0
1.231754480E2,5.819837570E0,-3.456757545E0,2.518637180E0
1.232354406E2,2.506475449E-1,-2.912473679E0,3.187584877E-1
1.232954331E2,2.409018517E0,-3.777804375E-1,1.333691120E0
1.233554255E2,1.294963360E0,2.115932941E0,1.975162983E0
1.234154179E2,-2.247827053E0,2.794906616E0,-2.289268970E0
1.234754102E2,-4.487972260E0,4.014733315E0,-4.903375149E0
1.235354027E2,-1.123218822E1,1.057627106E1,-1.466729164E0
1.235953952E2,-3.651987553E0,1.894946480E1,4.100967407E0
1.236553878E2,2.254761934E0,-1.013195324E1,2.991514921E0
1.237153803E2,7.407369614E0,-2.330437660E0,6.408585310E-1
1.237753735E2,-6.187295914E-1,-3.785786629E0,7.009673119E-2
